// Start Time : 13/05/2022 05:33:58																																
// Update Rate : 100Hz																																
// Filter Profile : 46.1 human																																
// Firmware Version : 4.4.0																																
PacketCounter	Time_Of_Arrival	Acc_X	Acc_Y	Acc_Z	FreeAcc_X	FreeAcc_Y	FreeAcc_Z	Gyr_X	Gyr_Y	Gyr_Z	Mag_X	Mag_Y	Mag_Z	VelInc_X	VelInc_Y	VelInc_Z	OriInc_q0	OriInc_q1	OriInc_q2	OriInc_q3	Mat[1][1]	Mat[2][1]	Mat[3][1]	Mat[1][2]	Mat[2][2]	Mat[3][2]	Mat[1][3]	Mat[2][3]	Mat[3][3]	Euler_X	Euler_Y	Euler_Z
49996	1652420074782	6.15446157056524	1.30408478541222	7.8691745036729	1.82145964977565E-15	1.0842021724855E-15	0.262129841453923	0.000627806632697175	0.000546260066471601	-0.0100084294701525	0.22265625	-0.28271484375	0.69189453125	0	0	0	-0.315071371092748	0.100964471283478	-0.819479470855609	-0.467963250162227	-0.363480855230682	0.703350524447746	0.610884365195126	-0.830594582043505	-0.541633144072106	0.129407022694062	0.421893716664218	-0.460360268704464	0.781072413312368	9.40723417062517	-37.6534758307113	117.32923314424
49997	1652420074783	6.18061158258958	1.30814222599416	7.80093768387652	-0.0114575213223301	0.0456022535843973	0.225420700762648	0.000260115485776592	0.000484330164256134	-0.0115644932208253	0.2255859375	-0.281005859375	0.683349609375	0	0	0	-0.316425185582175	0.100105510950344	-0.819286534713892	-0.467571986589401	-0.362503078572254	0.70279905548372	0.612098852830839	-0.829502675004764	-0.542710648068423	0.131872910914613	0.424872722336442	-0.459933299603696	0.779707977213314	9.59965550670921	-37.7414189009277	117.28464025297
49998	1652420074783	6.15646408691502	1.3271282935689	7.78410489731634	-0.025280525061428	0.0267426732253004	0.200017281862516	-0.000674330958481881	0.00505439940990426	-0.00952797313405587	0.21630859375	-0.2880859375	0.68505859375	0	0	0	-0.316407672635143	0.100081382224391	-0.819271917626404	-0.467614613349949	-0.362445516158379	0.702874007531229	0.612046875127777	-0.82954007642614	-0.542640580627266	0.131925971133123	0.424848807718228	-0.459901434867836	0.779739803259335	9.60306141331821	-37.7376529704133	117.27844447138
49999	1652420074784	6.18426063353839	1.34324281141872	7.7963581789106	-0.0435104072550043	0.0329261894146538	0.228707174252799	0.000121801260160378	0.0103559240716855	-0.0128325834727734	0.22412109375	-0.289306640625	0.687744140625	0	0	0	-0.31637067827891	0.100042438862775	-0.819257722633157	-0.467672843190262	-0.362383411335359	0.70298818841947	0.611952506434657	-0.82959016537824	-0.542547244337449	0.131994867966691	0.42480397914409	-0.459837030484226	0.779802208703461	9.6072284678135	-37.7308161832368	117.270654613366
50000	1652420074785	6.13966775712817	1.37061128530699	7.81668305678056	-0.0416931609497299	-0.0210705149988358	0.22087865050262	-0.00266442228856271	0.0159696664845039	-0.0102997261687424	0.21826171875	-0.290283203125	0.68896484375	0	0	0	-0.316304182115915	0.0999997171035819	-0.819257563244669	-0.467727234637446	-0.362365796708779	0.70311749156394	0.611814369259535	-0.829638806485026	-0.542462581115222	0.132037111691798	0.424724004677994	-0.459739209929545	0.779903441910371	9.60902166531699	-37.7208096118011	117.26522906965
50001	1652420074789	6.09654259160966	1.33198315598513	7.86921505422154	0.0278750855289316	-0.0532261839711499	0.230367259112317	-0.0016092506452656	0.00962377455489119	-0.00749225072249111	0.22314453125	-0.294677734375	0.6962890625	0	0	0	-0.316265731107399	0.0999716511224525	-0.819254093392472	-0.467765311623931	-0.36234320113694	0.703202077925308	0.611730530700704	-0.829672507254333	-0.542402564426436	0.132071907724298	0.424677448537292	-0.459680645345392	0.779963312597907	9.61078269176075	-37.7147370576316	117.260967737694
50002	1652420074786	6.01055356764111	1.32015688342748	7.94078059209261	0.0992391116792802	-0.139373706599506	0.232027235072863	0.000562604108745771	0.00211045281624247	-0.00829306297211898	0.228271484375	-0.288818359375	0.69775390625	0	0	0	-0.316262547014462	0.0999512964276973	-0.819238315144697	-0.467799447089483	-0.362283357317399	0.703256758547176	0.611703114728504	-0.82970016488966	-0.542346831290393	0.132127025893044	0.424674469909489	-0.459662752620864	0.779975479396696	9.61457156424283	-37.7127513851068	117.255300857344
50003	1652420074786	6.16538213724583	1.26579530209547	7.84035271208083	0.0461331057623759	0.0452400224829336	0.241223831806376	-0.000279534130300335	-0.00972253799089009	-0.00684887149775262	0.219970703125	-0.290771484375	0.693115234375	0	0	0	-0.316301968415955	0.0999619771065858	-0.819207692629939	-0.467824138159913	-0.362187281062254	0.703253925306017	0.611763263017984	-0.829726605808272	-0.542296357775754	0.13216815031253	0.424704759863386	-0.459726632777382	0.779921335818269	9.61816339671026	-37.7171078498636	117.249208561752
50004	1652420074788	6.1704647547716	1.30045598159484	7.83470900789159	0.0141525903126207	0.032648744788657	0.244510055926154	0.00759985117528847	-0.00212665493662962	-0.0118357985702023	0.22509765625	-0.289794921875	0.697998046875	0	0	0	-0.316334371082892	0.0999171036493513	-0.819180440351869	-0.467859534705486	-0.362080042913514	0.703308331039037	0.611764198049241	-0.829737187612404	-0.542248056366982	0.132299829400071	0.42477551955922	-0.459700377264707	0.779898276139831	9.6278460315746	-37.7171755750204	117.240498920843
50005	1652420074790	6.1339171440786	1.34005104708038	7.82214827612867	-0.00979357534951547	-0.00837800612909665	0.217592485211176	0.00236728236929541	-0.00546526534313991	-0.010650305827877	0.226318359375	-0.29248046875	0.702880859375	0	0	0	-0.316364132668142	0.0999037798322287	-0.81914929136131	-0.467896792892014	-0.361972653525004	0.703342707341662	0.611788226537067	-0.82976659796923	-0.542183651953203	0.132379305215202	0.424809593811908	-0.459723747030747	0.779865940672736	9.63391330990858	-37.7189160012935	117.232443390089
50006	1652420074791	6.15797814519538	1.32265832768917	7.83879939100524	0.00402914842213345	0.0104815358978675	0.242996084744256	0.00341653224817822	-0.00506862850401094	-0.012543240369928	0.218994140625	-0.29052734375	0.6982421875	0	0	0	-0.316399150192228	0.0998818031639921	-0.819113633627877	-0.46794022947304	-0.361847038796709	0.70338740808714	0.611811142966936	-0.829797478650158	-0.542111134074857	0.132482688446128	0.424856287395978	-0.459740875337976	0.779830406308691	9.64172693774259	-37.720575917318	117.222871463976
50007	1652420074791	6.14522548624179	1.34391612181122	7.8432512772646	-0.00608835747701987	-0.0116879202314992	0.241482103119742	0.00655018267083747	-0.00252361038818677	-0.00994421561445409	0.22021484375	-0.285888671875	0.701171875	0	0	0	-0.316426588515138	0.0998455358132428	-0.819090768847988	-0.467969438582104	-0.361757637267644	0.703431329939453	0.611813514020525	-0.829806459042855	-0.542070947062634	0.132590832569142	0.424914876662715	-0.459721059350375	0.779810166117676	9.64969519401317	-37.7207476630275	117.215657643678
50008	1652420074792	6.16305663277882	1.35842573021148	7.83294742812183	-0.0280145168384614	-0.00208315813559333	0.246281955340905	-0.000833455968607567	-0.00644669103003854	-0.0115337718645884	0.222412109375	-0.29296875	0.686767578125	0	0	0	-0.316456797714138	0.0998457852927327	-0.819053164199882	-0.46801477386291	-0.361634533253123	0.703464207891435	0.61184848825054	-0.829851717807401	-0.541985981210653	0.132654900487057	0.424931277750768	-0.459770925991196	0.77977182867958	9.65473591105569	-37.7232810446654	117.206638395796
50009	1652420074792	6.11254294151829	1.29635179618294	7.83598330422665	0.0440198007478907	-0.00532661058131206	0.209506874213432	0.00421887154599939	-0.00650949083504511	-0.0111480323437298	0.223388671875	-0.291015625	0.697021484375	0	0	0	-0.316496754310693	0.099825242147627	-0.819019551858754	-0.468050957924509	-0.361516210593493	0.703497041336778	0.611880660185073	-0.82987450188879	-0.541926443632234	0.132755567894353	0.424987459336102	-0.459790868246118	0.779729451081929	9.66243972802688	-37.725611516679	117.197928067309
50010	1652420074793	6.16092189851905	1.30425347714314	7.81093035498517	0.0102218492912116	0.0360789771831837	0.220620296506487	8.07832951349414E-05	-0.00292051430339878	-0.00999433601369315	0.217529296875	-0.28515625	0.690673828125	0	0	0	-0.316513891095535	0.099815930074703	-0.818991580130764	-0.468090299538242	-0.361420856443526	0.703537771282886	0.61189016081805	-0.829910284967942	-0.541856503163043	0.132817351593641	0.424998686388626	-0.459810976770053	0.779711473693771	9.66707041687838	-37.7262997379747	117.190435802515
50011	1652420074796	6.11781934136338	1.33185774485668	7.83001647932574	0.0119528267563185	-0.0179126448526521	0.21279281141179	0.00687324123624961	-0.00899300706868566	-0.0102494998014947	0.220458984375	-0.283203125	0.692626953125	0	0	0	-0.316568267173726	0.0997944156187918	-0.818958177689056	-0.46811655602654	-0.36130284438495	0.703552272887033	0.611943178697854	-0.829919253791256	-0.541815929170309	0.132926788435889	0.425081506097254	-0.459836599470729	0.779651213659856	9.67561890030832	-37.7301404451904	117.182351286409
50012	1652420074794	6.14867450276505	1.32643152977997	7.81482307160002	8.09931606576665E-05	0.0138881666415285	0.219106365922173	0.00476512356505036	-0.00304555614357214	-0.0111653879751918	0.22412109375	-0.293701171875	0.693115234375	0	0	0	-0.316597461750504	0.0997643585678923	-0.818929599642975	-0.468153212956263	-0.361197232823732	0.703598761124166	0.611952075202803	-0.829939331907213	-0.541759283916529	0.133032265423307	0.425132055194485	-0.459832210305876	0.779626239945351	9.68345547790659	-37.7307849429643	117.174006835431
50013	1652420074794	6.11829823418207	1.33382739594507	7.82930697318328	0.0118548925671601	-0.0179029357352706	0.21279294503768	0.000515604662075993	-0.00442409576104262	-0.0101548944304321	0.223876953125	-0.286865234375	0.69287109375	0	0	0	-0.316617622341634	0.0997584188801142	-0.818900675852219	-0.468191437527481	-0.361100118097362	0.703634022450188	0.611968844926473	-0.829975116027718	-0.541690071376981	0.133090846215577	0.425144694762675	-0.459859792787075	0.77960307817054	9.68792116351008	-37.73199982289	117.166581235982
50014	1652420074796	6.1163500098085	1.35660335996093	7.85564876338829	0.00556817651830785	-0.0434352520972354	0.23516862468583	0.00247802912033504	-0.00050011393956025	-0.0105086363664989	0.215087890625	-0.290283203125	0.69189453125	0	0	0	-0.316630712159994	0.0997328072334446	-0.818876518649396	-0.468230292145903	-0.361010771268036	0.703688643557171	0.611958753477004	-0.830002522677335	-0.541627521356599	0.13317447374917	0.425167067607217	-0.459849889678987	0.779596718556783	9.69397066868645	-37.7312687470731	117.159015892405
50015	1652420074797	6.14828848163745	1.28498410876179	7.87312678441434	0.0613073672338645	0.0103004263227908	0.258801905605305	-0.000422419999553591	0.000145863116525413	-0.00811842464485871	0.22509765625	-0.29345703125	0.684326171875	0	0	0	-0.316626322211852	0.0997204760895308	-0.81885982485157	-0.468265080883818	-0.360951172214935	0.703738669046374	0.611936383103263	-0.830035179420146	-0.541567281346697	0.133215917591381	0.425153915895915	-0.459844283930535	0.779607197462147	9.69680229514932	-37.7296481493962	117.153520170785
50016	1652420074798	6.15349405616708	1.3628777695278	7.80902750579214	-0.0321150534557487	0.0013949909095166	0.222391220990877	-0.000232544813276499	-0.00319333031291856	-0.00498925027406567	0.22216796875	-0.282470703125	0.698486328125	0	0	0	-0.316641338599188	0.0997210060628183	-0.81884297217599	-0.468284283910879	-0.360896184264379	0.703751004029401	0.611954629454685	-0.830054175414155	-0.54153110078379	0.13324463501929	0.425163509794688	-0.459868014990722	0.779587967279867	9.69908763872169	-37.7309699840431	117.149567823819
50017	1652420074799	6.14868293436432	1.32954214252644	7.81428782440251	-0.00028554727586512	0.0140534828131729	0.219106131956842	-0.000612595844209529	0.00348480735200369	-0.011247898878607	0.221435546875	-0.283447265625	0.694580078125	0	0	0	-0.316623505181531	0.0996983455074883	-0.818824542399005	-0.468333390475943	-0.360826782663739	0.703832069062516	0.6119023218388	-0.830099427524037	-0.541448150536756	0.133299815095873	0.425134065133344	-0.459841623648301	0.779619591739262	9.70264183042798	-37.7271806858171	117.142414592609
50018	1652420074799	6.17216213111145	1.31165738942531	7.83150404903482	0.0135358581792406	0.032913560143976	0.244510041729903	-0.00449400356404868	0.00216822202041645	-0.00868084841694895	0.226806640625	-0.294189453125	0.6943359375	0	0	0	-0.316608435413377	0.0996979259717712	-0.81880540374379	-0.468377126877467	-0.360763931286207	0.703889036242759	0.61187385181928	-0.830149853666283	-0.541366381149874	0.133317897592706	0.425088939330078	-0.459850699703644	0.779638844364042	9.70369792161106	-37.7251183258602	117.136480520398
50019	1652420074800	6.14600671787192	1.35222674062602	7.84121046738321	-0.00674027216147274	-0.0114805300672594	0.241481926165131	-0.000925779929022133	0.0032134132229464	-0.00624209197622157	0.232421875	-0.28759765625	0.68896484375	0	0	0	-0.316589453240124	0.0996882808530035	-0.818798050534061	-0.468404864619609	-0.360736001795611	0.703937463363012	0.611834605659541	-0.830178496681813	-0.541318258922518	0.13333493992281	0.42505670287109	-0.459833220016935	0.779666729515384	9.70457427838207	-37.7222754395725	117.133080142377
50020	1652420074801	6.12342297296804	1.30495826548693	7.85664914835436	0.0471670535340272	-0.00849424380041626	0.233399634007855	-0.00375850731261877	0.00229361708657814	-0.00556834284384591	0.227294921875	-0.288818359375	0.69384765625	0	0	0	-0.316574040259729	0.0996894822423566	-0.818786763823221	-0.468434754850426	-0.360699514963705	0.703978149642882	0.61180930422014	-0.830214558302335	-0.541261775156944	0.133339708777287	0.425017231518683	-0.459837422987014	0.779685768327764	9.7046822976824	-37.7204427291757	117.129384062072
50021	1652420074801	6.12322245902294	1.30527950701526	7.85675206238521	0.0469619776106916	-0.0084832709925005	0.233400604031704	-0.0011576050960577	2.00369204890055E-05	-0.0112319000739873	0.220458984375	-0.29296875	0.698486328125	0	0	0	-0.316568227462276	0.0996808845349893	-0.818762969621904	-0.468482100187016	-0.360618158331512	0.704039989269428	0.611786104280813	-0.830263192985881	-0.541176486125371	0.133383062035204	0.424991263739008	-0.459843130180828	0.77969655723943	9.70764581298142	-37.7187622808379	117.1220970168
50022	1652420074801	6.15359138169709	1.29961937098562	7.84199116050648	0.035090429453485	0.0233169524424162	0.239712731653732	0.00531112697429933	0.000420317982887737	-0.0111834314749267	0.223388671875	-0.283447265625	0.68603515625	0	0	0	-0.316584564090061	0.0996404752410471	-0.818740057856667	-0.468519697701715	-0.360527013290799	0.704102415966754	0.61176797931683	-0.830280961646408	-0.541122137118464	0.133492911601569	0.425033877961668	-0.459811505456451	0.779691978947288	9.71554433593045	-37.7174494562721	117.114159856577
50023	1652420074802	6.11004241252056	1.32709016611843	7.86142327278422	0.0365526311047305	-0.0306575217556778	0.231887614929494	-0.00213808752331054	-0.00194305372467581	-0.0110555563306387	0.221923828125	-0.29541015625	0.697021484375	0	0	0	-0.316577991311361	0.0996434941409199	-0.818715984991147	-0.468565561488068	-0.360449380009271	0.70415435596851	0.611753943527546	-0.830334104858022	-0.541034977325521	0.13351564560006	0.424995904404454	-0.459834531414231	0.779699098985304	9.71708031891552	-37.7164328341535	117.107440228814
50024	1652420074802	6.14055412786068	1.3213797175496	7.84655866872171	0.0246800055417819	0.00114345327118749	0.238199255085565	0.00611458397535171	-0.00101896385223765	-0.00978758838858829	0.220947265625	-0.294189453125	0.694091796875	0	0	0	-0.316601358591712	0.0996053584025463	-0.818694488960669	-0.468595439650037	-0.36036378735414	0.704202624400653	0.611748808377272	-0.830343391573695	-0.540994173033377	0.133623189655931	0.42505034152871	-0.459808621636399	0.779684704630765	9.72493393539902	-37.7160608950823	117.100328731153
50025	1652420074802	6.12962532217502	1.32052490318938	7.82464199018599	0.0204111264857839	0.00453466519929856	0.214310076513136	0.000394930017959848	-0.00265192972927132	-0.0150030380776643	0.227294921875	-0.29052734375	0.69580078125	0	0	0	-0.316598664433864	0.0995957242499691	-0.81866366289841	-0.468653160065711	-0.360259002478234	0.704274878734892	0.611727346385905	-0.830402371858346	-0.540889814543095	0.133679128272028	0.425023942790781	-0.459820729966027	0.779691954779636	9.72883855352472	-37.7145064226847	117.091188564197
50026	1652420074802	6.14509037575958	1.35707665509816	7.84109077805345	-0.00780856164245202	-0.011392017509783	0.24148125391372	0.00204213887347047	0.00100209357500032	-0.0103503129823794	0.214599609375	-0.289306640625	0.6845703125	0	0	0	-0.316604389454446	0.0995686843260868	-0.81864205709228	-0.468692777882772	-0.360177481077416	0.704335474640809	0.611705583828719	-0.830431004680182	-0.540826314124205	0.133758156449207	0.425037090841013	-0.459802606683926	0.779695475359499	9.73443690566358	-37.7129302138802	117.083933358402
50027	1652420074803	6.12469197814696	1.28825319755685	7.82984583375693	0.0519690018017814	0.0171946300011532	0.211031381725304	-0.000790238330204911	8.12878553011019E-05	-0.00967648304927385	0.21533203125	-0.288330078125	0.69775390625	0	0	0	-0.316588207467999	0.0995634004790271	-0.818626197552014	-0.468732530190495	-0.360123444066832	0.704392260743411	0.61167201018048	-0.830474654691706	-0.54075388885254	0.133779967130908	0.424997591696864	-0.459800798928885	0.779718072354504	9.73571707309164	-37.710498622391	117.078576430358
50028	1652420074803	6.0553696547757	1.356006670235	7.85868243851616	0.0336761787822411	-0.0811940658566859	0.200175302720867	0.00520320389708508	-0.00454675664711645	-0.01132837102374	0.224853515625	-0.29296875	0.68603515625	0	0	0	-0.316624486655082	0.0995348862291208	-0.818595109554166	-0.468768372960213	-0.360010293925282	0.704432630724652	0.611692126022707	-0.830493359750921	-0.540698037871182	0.133889548702954	0.425056899341088	-0.459804633091708	0.779683481747523	9.7439629574908	-37.7119555146749	117.069948784839
50029	1652420074804	6.10547456473181	1.29822874999786	7.86577167449407	0.0670279933985271	-0.017751126133284	0.228616022909669	-0.0014411072510741	-0.00835156621653415	-0.00980351966661657	0.218505859375	-0.2900390625	0.688720703125	0	0	0	-0.316632324120356	0.0995503055665733	-0.818568464687963	-0.46880633165747	-0.359929189440015	0.704458469044832	0.611710097987654	-0.830541847518575	-0.540620720118935	0.133900995136392	0.425030843715472	-0.459855958283782	0.779667415967487	9.74497696371252	-37.713257160618	117.063866496481
50030	1652420074805	6.12151178204207	1.33475282174725	7.88177013695332	0.0388028271819801	-0.0336759557115662	0.255784825953395	0.0082274350735755	-0.00696419878034568	-0.00887342556205206	0.21826171875	-0.28271484375	0.69189453125	0	0	0	-0.316684279698433	0.0995189637886357	-0.818540847394245	-0.468826112738435	-0.359826286012906	0.704474464475459	0.61175221519515	-0.830538829930414	-0.540596103722009	0.134019045730081	0.425123859448018	-0.45986039353547	0.779614085676641	9.75405781919161	-37.7163076507835	117.056702208587
50031	1652420074806	6.15935306418594	1.34102249415272	7.83459790494064	0.000599564281168231	0.011389421182404	0.242995886758679	0.00128426658320776	-0.0123986970706753	-0.0106214371487842	0.22900390625	-0.299072265625	0.69677734375	0	0	0	-0.316709759519031	0.0995271540447049	-0.818509325160632	-0.468862195595087	-0.359726339534304	0.704493716573511	0.611788823004878	-0.830578600665959	-0.540525174299032	0.134058659044391	0.425130743137955	-0.459914273813549	0.779578547666319	9.75732174372876	-37.7189592050421	117.049620809103
50032	1652420074807	6.1009823379352	1.33261145598436	7.83697048214946	0.0306354061611584	-0.0266788152736037	0.208005965704283	0.000342662580658085	-0.00782868607685985	-0.00858442015510274	0.2158203125	-0.287353515625	0.69384765625	0	0	0	-0.316746560404212	0.0995304479278913	-0.818477145808252	-0.468892810988772	-0.359622296550298	0.704504245182896	0.611837864424202	-0.830607953329497	-0.540466443476642	0.134113576275837	0.425161418392679	-0.459967164039986	0.779530612814749	9.76183064802751	-37.7225114915686	117.042561902688
50033	1652420074807	6.13203149899847	1.32683778671688	7.821688187465	0.0179415696022806	0.00536498065490977	0.214314389584794	0.00361115623755361	-0.00840972801225324	-0.00941961805029695	0.226806640625	-0.2890625	0.69482421875	0	0	0	-0.316754979098763	0.0995296212895875	-0.81845799867312	-0.46892072049557	-0.359559282212116	0.704530822643741	0.611844295977368	-0.830636835088905	-0.540414424751734	0.134144316740363	0.42515828907431	-0.459987575337841	0.779520275404187	9.76415210472051	-37.7229773699963	117.037621115971
50034	1652420074808	6.13895158397702	1.29566479105405	7.8480747697067	0.0536736365310247	0.014625821785819	0.234932082539323	0.00121588573169362	-0.0108337592720462	-0.00890536983750044	0.225830078125	-0.29150390625	0.687744140625	0	0	0	-0.316806200979869	0.0995359501954761	-0.818420763040718	-0.468949763048491	-0.359439901514934	0.704529233319119	0.6119162660019	-0.83066365828852	-0.540357428710896	0.134207809145676	0.425206824966001	-0.460056962381533	0.779452851278773	9.76951332144719	-37.7281908179011	117.029970481943
50035	1652420074809	6.15066988192721	1.34182023195883	7.81062460868392	-0.00468813986400397	0.0150688163372249	0.219103566813757	0.00081650532790804	-0.00279812418097712	-0.00688476434901805	0.22265625	-0.29248046875	0.692138671875	0	0	0	-0.316792434539839	0.0995412111720191	-0.818411157662365	-0.46897470903075	-0.35941055141569	0.704560463815998	0.61189754727279	-0.83069607431291	-0.540308539135861	0.134204003882116	0.425168305088925	-0.46006655536374	0.779468201393458	9.76905297968534	-37.7268348136321	117.02704845005
50036	1652420074810	6.1442560625576	1.33079034916436	7.84206903796661	0.0209906613700739	0.00213089242911508	0.238207476326654	0.00422202691311634	-0.00651058396649733	-0.011154321654815	0.2177734375	-0.28564453125	0.695556640625	0	0	0	-0.316834255364759	0.0995216356494613	-0.81837690453609	-0.469010384519407	-0.359290627680834	0.704590806709187	0.611933035520725	-0.830718260003907	-0.540249406501228	0.134304695640742	0.425226313104909	-0.46008952810944	0.779422997330229	9.77679725537004	-37.7294056404288	117.018310731192
50037	1652420074810	6.13363329505097	1.32970884526378	7.81994449067111	0.0164569688833463	0.00573148672804819	0.214316733314654	-0.00126741162152023	-0.00495276756255723	-0.0113778067545243	0.221435546875	-0.283447265625	0.6904296875	0	0	0	-0.316819335829131	0.0995269597695664	-0.818356344691067	-0.469055205522433	-0.359225445234193	0.704644476316737	0.611909504332632	-0.830772737481884	-0.540163196902671	0.134314479371153	0.425174950053685	-0.460108555352102	0.779439785447631	9.77728919225522	-37.7277009926593	117.012338002808
50038	1652420074811	6.10965801957277	1.3050051689501	7.86140076560106	0.064061937521671	-0.0168083551755725	0.228637006305895	0.00415347456216896	-0.00494468186606128	-0.009437898033562	0.229736328125	-0.29052734375	0.69775390625	0	0	0	-0.316853624184853	0.0995066003215032	-0.818328639204142	-0.469084699805565	-0.359126650498492	0.70467283424238	0.611934837693152	-0.830788942011107	-0.540115961801558	0.134404172700262	0.425226742731214	-0.460120576031967	0.779404434666761	9.78412736373254	-37.7295361951318	117.005028736277
50039	1652420074812	6.14248549404506	1.27723077075424	7.81979986880117	0.0578198420974285	0.0407141856927664	0.212566533105559	-0.000899165485066154	-0.00488959666046081	-0.00982139759856008	0.2177734375	-0.298095703125	0.69921875	0	0	0	-0.316844973051236	0.0995137256555816	-0.818308926570037	-0.469123418893261	-0.359064961796119	0.704714915239679	0.611922577986043	-0.830836610133962	-0.540040472504087	0.13441285399347	0.425185701160633	-0.460144734074286	0.779412562916615	9.78464704473198	-37.7286480702165	116.999662928412
50040	1652420074812	6.14531618540242	1.33400950122488	7.840691296129	0.0195340248944221	0.00259850242779127	0.238210302851897	0.00883769306466226	-0.00506360806411714	-0.0106120006873344	0.22607421875	-0.2841796875	0.6943359375	0	0	0	-0.316891495483819	0.0994724973575168	-0.818280541585405	-0.469150250583098	-0.35895564493569	0.704749065369865	0.611947383219428	-0.8308370191584	-0.54000652929455	0.13454663100665	0.425277194973805	-0.460132267048896	0.779370004718975	9.79472135552409	-37.7304450365542	116.99148357727
50041	1652420074812	6.14090443453337	1.30133491107769	7.84560842306721	0.0504588361869768	0.0153677967921414	0.234947634001719	0.00334792363476085	-0.00350684538370442	-0.0108349100751521	0.22607421875	-0.2900390625	0.68896484375	0	0	0	-0.316872000981361	0.0994663540713332	-0.818270208121778	-0.469182742545127	-0.358919378183803	0.704800315489287	0.61190962997027	-0.830872726068903	-0.539947997011178	0.134561040418266	0.425238042793659	-0.460122457406523	0.779397158803649	9.79541533938012	-37.7277100940046	116.987457536817
50042	1652420074813	6.13912817065243	1.32430611574049	7.87175260141836	0.0441508250193943	-0.0101544778404839	0.257323456715497	0.00243813427794474	-0.00703675509075444	-0.012374836804083	0.227294921875	-0.2890625	0.6923828125	0	0	0	-0.316912315915157	0.0994530978592879	-0.818231456774072	-0.469225903475993	-0.358787271056859	0.704834965979537	0.611947191234829	-0.830906612249631	-0.539872265666657	0.134655629231719	0.425283312448786	-0.460158241800117	0.779351330694965	9.8027326525361	-37.7304311284402	116.977790212035
50043	1652420074814	6.13505619726812	1.33503683420161	7.81792024543514	0.0139241543393574	0.00598825718167413	0.214320420380726	0.00364744021010056	-0.00187676758545279	-0.00756152296295118	0.22314453125	-0.293212890625	0.68701171875	0	0	0	-0.31690265523295	0.0994555556870825	-0.818222851249032	-0.469246912875497	-0.358760083726244	0.704861634635781	0.611932413215147	-0.8309325533354	-0.539831854399579	0.134657568606536	0.425255563317225	-0.460164801993902	0.77936259909856	9.80273211215561	-37.7293605588248	116.975158582302
50044	1652420074814	6.14394396367648	1.35988712609582	7.86601569967334	0.0113652797524798	-0.0228705390031005	0.26058872292079	0.00395750255726303	-0.00160792372507056	-0.0125699464621316	0.21875	-0.284423828125	0.68896484375	0	0	0	-0.316924599646596	0.0994231914815291	-0.818192869658177	-0.469291226398907	-0.35864908592771	0.704922160153712	0.611927758225954	-0.830960780777194	-0.539761547641274	0.134765175390573	0.425294032374514	-0.46015456078596	0.779347654268944	9.81059793238948	-37.7290233389045	116.96600356974
50045	1652420074814	6.08042495397947	1.31777371788755	7.87411587414246	0.0725751663682381	-0.0482994491701868	0.222361016676327	0.00088519512050696	-0.00436618829562143	-0.00860306202898951	0.21630859375	-0.293701171875	0.68798828125	0	0	0	-0.316913390123466	0.0994337457570117	-0.818179222000939	-0.469320353331411	-0.358608618218662	0.704952552194741	0.611916463329288	-0.831000094036859	-0.539702672307219	0.134758558968179	0.425251340562302	-0.460177057944623	0.779357666730364	9.81000204798819	-37.7282051126353	116.962392385077
50046	1652420074815	6.12226978383179	1.31396105783042	7.88066685936825	0.064437918002678	-0.0198276034644507	0.252552109884574	0.00361313240660916	-0.00841141802426034	-0.0094223846005027	0.22021484375	-0.283447265625	0.68994140625	0	0	0	-0.316960665692027	0.0994238126834715	-0.818145719593932	-0.469348935639229	-0.358495026036781	0.704964769670821	0.611968945151512	-0.831018521085991	-0.53965296417161	0.134843968618726	0.425311102510787	-0.460216635709491	0.779301683751099	9.81679013286398	-37.7320070837367	116.954656322339
50047	1652420074815	6.14236041776326	1.30663926851556	7.84358679136125	0.0477223225028334	0.0156262366284778	0.234960605403611	0.0060755079003522	-0.00755287976852897	-0.0116556514312669	0.219482421875	-0.285888671875	0.685302734375	0	0	0	-0.316959644561874	0.0994099110817485	-0.818129452128737	-0.469380925110365	-0.358436261723498	0.705010858035648	0.611950272762031	-0.831046578365242	-0.539598433442514	0.134889270195255	0.42530580864727	-0.460209974553164	0.779308506595859	9.81993963987071	-37.7306543666197	116.949348221804
50048	1652420074816	6.13194625926498	1.30587761154504	7.82124368542429	0.0439662752078087	0.0189631204196281	0.211066488353049	0.00509760371986048	-0.00951696949805113	-0.0114782663537667	0.22509765625	-0.28662109375	0.686279296875	0	0	0	-0.317015643112914	0.0993931956736662	-0.818090269415422	-0.469414939859486	-0.358301392516841	0.705029193539471	0.612008127705486	-0.831065984929611	-0.539541213780983	0.134998545639271	0.425381523827102	-0.460248970546188	0.779244149350963	9.82853567091941	-37.7348457355145	116.940036226039
50049	1652420074817	6.1783066363331	1.3363143367013	7.8224853699042	0.00308807252801593	0.0348798524529304	0.244512049326708	0.00617768608864662	-0.00258514667086509	-0.0115134980345275	0.231689453125	-0.287109375	0.6845703125	0	0	0	-0.317014451379857	0.0993728550611318	-0.818073082982287	-0.46945000180337	-0.358237066846288	0.705083558304137	0.611983153155825	-0.831094082821156	-0.53948346296763	0.135056353734713	0.425380805205207	-0.460233385353161	0.779253746586655	9.83254350949606	-37.7330363960157	116.934097392152
50050	1652420074818	6.11950902944166	1.32821612283728	7.82520253391545	0.0331451767492816	-0.00319196703353198	0.209549645406719	0.00243823010833995	-0.00703948227486549	-0.0123765181980127	0.221923828125	-0.292236328125	0.685546875	0	0	0	-0.317054579007789	0.0993597986034396	-0.818034354788914	-0.469493150894412	-0.358105150386862	0.705118095306425	0.61202056578014	-0.831128011772474	-0.539407623369442	0.135150449122693	0.425425586105888	-0.460269364092778	0.779208048703356	9.839825876825	-37.7357468573364	116.924443455536
50051	1652420074818	6.11760330997694	1.35092718875932	7.85147679930545	0.0260418863492419	-0.0291502344347613	0.231924851999443	-5.99420563966261E-05	0.000203278114744213	-0.00656583747796026	0.226806640625	-0.2919921875	0.691162109375	0	0	0	-0.317033837102587	0.0993889965925924	-0.818024409223355	-0.46951830571673	-0.358084213457803	0.705135519395907	0.612012741173394	-0.831174219218009	-0.539348775906418	0.135101129660646	0.425352928025234	-0.460311630544476	0.779222746976656	9.836123336473	-37.7351799737954	116.92251941418
50052	1652420074818	6.10443301774863	1.32790403927533	7.91489579542472	0.0773758156438112	-0.0550311614613096	0.270168957909545	0.000516108403531475	-0.00443259253694461	-0.0101608958943139	0.223388671875	-0.29296875	0.687255859375	0	0	0	-0.317057920288968	0.0993816402349864	-0.817993839664522	-0.469556858151525	-0.357981264289807	0.705169762344727	0.612033512719812	-0.831208707015972	-0.539279293094145	0.135166302829939	0.42537218973307	-0.460340580781838	0.779195129532477	9.84111753768071	-37.7366848573964	116.914745802643
50053	1652420074819	6.09585488232438	1.26113559830666	7.924890421598	0.140051642900421	-0.0300162352240477	0.263685114586499	0.00671224649394733	-0.0123924929743252	-0.00868665320414351	0.22412109375	-0.288818359375	0.69091796875	0	0	0	-0.317079220376094	0.0994090333904176	-0.817973157515458	-0.469572705414468	-0.357924484670851	0.705154659450347	0.612084119650699	-0.831236814673446	-0.539238636820241	0.135155652829587	0.425365044643596	-0.460411336541265	0.779157224172142	9.84082666291271	-37.7403514212068	116.911572858475
50054	1652420074819	6.13858140461857	1.30146272672388	7.8720515074013	0.0705040693384735	0.00212425850967717	0.254099917513894	0.00765730897219061	-0.0169642078959855	-0.0107253941509617	0.22900390625	-0.2890625	0.68701171875	0	0	0	-0.317171541577133	0.0994014354412912	-0.817924871044987	-0.469596074485123	-0.357763480083495	0.705134004305165	0.612202032250066	-0.831243230360742	-0.539197762920747	0.135279209196024	0.425487936724399	-0.460490834256043	0.779043135691592	9.85106100679419	-37.7488951072596	116.90184701632
50055	1652420074820	6.12244589002131	1.33287575432357	7.82211240208636	0.0299439170304686	-0.00386157114865659	0.209559485595058	0.012710028530273	-0.0170161147660639	-0.0103457351228528	0.219970703125	-0.288330078125	0.68408203125	0	0	0	-0.31723225350311	0.0994033449812537	-0.817894125138559	-0.469608211605916	-0.357663649859263	0.705111700510308	0.612286047017905	-0.831247489046909	-0.539174205197662	0.135346918704043	0.425563538760735	-0.460552566221198	0.778965344687752	9.85685990985044	-37.7549832332795	116.896126742751
50056	1652420074822	6.16318611577332	1.39553897444524	7.79560412540244	-0.0459183558470744	0.00274635964504868	0.222337274320795	0.00684975536910789	-0.015528474254758	-0.0121228925450435	0.224853515625	-0.286376953125	0.686767578125	0	0	0	-0.31731769885275	0.0993936501426856	-0.817844272614838	-0.469639357440595	-0.357496703875161	0.705104988666902	0.612391265185456	-0.831262446042311	-0.539119552508197	0.135472705380511	0.425674585238711	-0.460626815394424	0.778860760612217	9.8671393386513	-37.7626085692894	116.885556143215
50057	1652420074822	6.14202517004347	1.34907393103902	7.81003465438166	0.00702633729845478	0.00586520637291142	0.214327699281206	0.00522794186788764	-0.011289000489857	-0.00663243748727226	0.223388671875	-0.283935546875	0.693603515625	0	0	0	-0.317336263468408	0.0994062482843955	-0.817828521714218	-0.469651575916302	-0.357450186254486	0.705098493312799	0.61242589680275	-0.831279322896731	-0.539091590082709	0.13548042229949	0.425680692151976	-0.460669482633825	0.778832187379861	9.86804525353808	-37.765118552283	116.882761952016
50058	1652420074823	6.15757132315124	1.30761913783591	7.77825881277055	0.0233868771982347	0.0535733293219706	0.193483008345925	-0.00127118663893534	-0.00496299504344029	-0.0113795649643326	0.22802734375	-0.292724609375	0.695068359375	0	0	0	-0.317358982072293	0.0994062146057657	-0.817793157060295	-0.469697810577339	-0.357334486473785	0.70513640059481	0.612449770456902	-0.831326220910592	-0.539004742473214	0.135538193945093	0.425686245024465	-0.460713082240542	0.778803361991581	9.8725286217692	-37.7668488839395	116.874039985108
50059	1652420074824	6.11221132316957	1.35667068663599	7.82408221181807	0.0177854024266416	-0.0257552716963119	0.20803942804036	0.00155278614665167	-0.0026726396933615	-0.00377390618589662	0.222900390625	-0.288330078125	0.697021484375	0	0	0	-0.317325930102416	0.0994171239908683	-0.817800411245422	-0.469705202130911	-0.357362554351593	0.705154952256527	0.612412032911993	-0.831345477610565	-0.538986517097089	0.135492550511131	0.425625071634375	-0.460706010049408	0.778840979084042	9.86880206116486	-37.7641137339456	116.875246775594
50060	1652420074825	6.13191432362791	1.30503938544469	7.84606085575461	0.0635429258179651	0.00568315596616072	0.230225660735217	-0.00150897495725524	-0.00679736005709291	-0.00808746502157428	0.21923828125	-0.285888671875	0.691162109375	0	0	0	-0.317354028270103	0.0994274341263267	-0.817769744924898	-0.469737427047559	-0.357266340742956	0.705166718315621	0.612454619667544	-0.831381505277821	-0.538921869947588	0.135528634517506	0.425635471329779	-0.460763624293599	0.778801212167588	9.8718727318263	-37.7672003534184	116.868640906791
50061	1652420074826	6.10186724149631	1.31210020786627	7.86039462447991	0.0741547279421318	-0.025478616808153	0.223947843046711	0.00324326289185254	-0.00848030471305203	-0.0109832192216723	0.226806640625	-0.291015625	0.68896484375	0	0	0	-0.317335978430633	0.0994161905831639	-0.817761073448815	-0.469767096118116	-0.357233504396451	0.705217821363857	0.612414931045485	-0.831411157806076	-0.538870592909369	0.135550620703359	0.425605110415973	-0.460745383621279	0.77882859568681	9.87310236854999	-37.7643237819098	116.864844024787
50062	1652420074827	6.14201816674106	1.33038409990331	7.89312889207381	0.0596593094054429	-0.0225382719963179	0.276501176968507	0.000614554734364434	-0.0127415082734637	-0.00717324008998149	0.2265625	-0.28564453125	0.696044921875	0	0	0	-0.317392611371372	0.0994327908424987	-0.817724425665799	-0.469789116542383	-0.357120232450377	0.705197604734438	0.612504267618929	-0.831434537300214	-0.538822612167199	0.135597945418414	0.425654495757965	-0.460832432554533	0.778750100704266	9.87745739785076	-37.770798919645	116.858181969307
50063	1652420074828	6.10161186844757	1.33543918953322	7.88528632797914	0.0667647684824734	-0.0509338266860674	0.246326190444835	0.00371470028930881	-0.0167207530789766	-0.006438043721513	0.219482421875	-0.296142578125	0.690185546875	0	0	0	-0.317428465338524	0.0994685073998584	-0.817700819516118	-0.469798419741002	-0.357057228403373	0.705160834352288	0.612583327671009	-0.831457376966091	-0.538790921689003	0.135583822759882	0.42566273730921	-0.460925742827519	0.778690370856948	9.87719156825451	-37.7765296854486	116.855311737604
50064	1652420074829	6.14841056426831	1.2877522327344	7.83809266309319	0.0712522601065722	0.0285856097836354	0.231766854973543	0.0044585816133979	-0.0179572445177688	-0.0116094602457854	0.21630859375	-0.289794921875	0.68505859375	0	0	0	-0.317517824963897	0.0994745917241828	-0.81764729068807	-0.46982991013979	-0.356884572736467	0.705140394213168	0.612707455635728	-0.831480218226905	-0.538729322278689	0.135688481509978	0.425762901671868	-0.461029003172298	0.778574472863007	9.8861079550076	-37.7855281511295	116.84481396074
50065	1652420074830	6.14098435070892	1.34273960989486	7.83655042551293	0.0270365503778762	-0.00594949427491303	0.233475808232523	0.00671218592048361	-0.0123948652213578	-0.00869323591024859	0.2265625	-0.286865234375	0.68994140625	0	0	0	-0.317493325884488	0.0995030832682281	-0.817647331359227	-0.469840362208332	-0.3568960441175	0.705144306963808	0.612696270634815	-0.831510566334172	-0.53869834092012	0.135625497472028	0.425694011900454	-0.461059219457155	0.778594248877845	9.88136344639443	-37.7847172667983	116.845427883466
50066	1652420074831	6.15697118201942	1.30153105629996	7.80438591053894	0.043388001646178	0.0417691753116054	0.212635039683297	0.00432128115254442	-0.0148226841653488	-0.00817506303513668	0.2158203125	-0.29150390625	0.6884765625	0	0	0	-0.31756685050979	0.0995082411402612	-0.81760718363912	-0.469859445647493	-0.356766793586245	0.705119878646808	0.612799650563951	-0.831521953601534	-0.538660422562004	0.135706263097958	0.42578010248587	-0.461140874248244	0.778498810804928	9.88831991919574	-37.7922123896538	116.837866433562
50067	1652420074832	6.14933655764723	1.31261465610755	7.86179904884155	0.0611975341983687	0.00359552909195435	0.254160377050628	0.00344379116658604	-0.0118184090839825	-0.00785386075610706	0.21630859375	-0.2802734375	0.693115234375	0	0	0	-0.317558956063756	0.0995318979462594	-0.817598873549427	-0.469874230710326	-0.356749033476153	0.705122792263616	0.612806637483793	-0.83155177469105	-0.538623217211189	0.135671205085067	0.425736741569243	-0.46117987565746	0.778499421429826	9.88580819874122	-37.7927189740417	116.836622065578
50068	1652420074834	6.15664355857326	1.32529704483491	7.82924512938349	0.0355031943797279	0.0165311785766114	0.235009763188927	0.0080580720924913	-0.0103649586176897	-0.00731710477300096	0.227783203125	-0.292724609375	0.68798828125	0	0	0	-0.317622162896321	0.0995127032146998	-0.817569894466338	-0.469885998087055	-0.35664662087759	0.705114411673061	0.612875888143391	-0.831544171795911	-0.538608741401271	0.13577523352361	0.42583738465387	-0.461209594584818	0.778426767071932	9.89414374930909	-37.7977401588	116.83027026741
50069	1652420074834	6.14839108379151	1.30225439281414	7.78032851826042	0.0369652277857709	0.0458688797272939	0.188743573653253	0.00226423999425611	-0.0104483529846728	-0.010807094768109	0.217041015625	-0.299560546875	0.687255859375	0	0	0	-0.317617545760737	0.0995152100986369	-0.81755416882069	-0.469915948471491	-0.356596191994129	0.705147931741606	0.612866665936256	-0.831579038931179	-0.538551448662326	0.135788950780274	0.425811528572893	-0.461225250289103	0.7784316351679	9.89506293113061	-37.797071460909	116.825910337162
50070	1652420074835	6.10354379951159	1.35176378407195	7.82571745638714	0.0324179801221696	-0.0336482743432219	0.203308975414087	0.00590271703079244	-0.0109596037701525	-0.0100917128786193	0.218994140625	-0.290771484375	0.69775390625	0	0	0	-0.317679281099983	0.0995014909306608	-0.817516831696034	-0.46994207893745	-0.356468633607492	0.705151994692725	0.612936193771324	-0.83159024312164	-0.538507791493047	0.13589343636163	0.425896443750002	-0.461270010820291	0.778358655324748	9.90343631635143	-37.8021130406709	116.817523037359
50071	1652420074836	6.22178164664192	1.29335446091926	7.77092402520729	0.0140745444339062	0.10647983409763	0.225193721363107	0.00226409632402081	-0.0104491461795179	-0.0108076571863562	0.22802734375	-0.290771484375	0.695068359375	0	0	0	-0.317611393050483	0.0995488940749181	-0.817526675895127	-0.469960801442905	-0.356519696223349	0.705175257761716	0.61287972885837	-0.831646709456795	-0.538453725591207	0.135762056726597	0.425743416689556	-0.461297562575012	0.778426041385985	9.8932115501113	-37.7980186490176	116.82006637209
50072	1652420074837	6.16376419531496	1.36286816771117	7.82122328006039	-0.000554505918747179	0.00477137106192371	0.238228473196818	0.00280055022789435	-0.00698182258587649	-0.0108264303016268	0.2265625	-0.291748046875	0.690673828125	0	0	0	-0.317648658786608	0.0995377655810555	-0.817492950346143	-0.469996637146011	-0.356404981285021	0.70520179963564	0.612915908674166	-0.831673950577392	-0.538390788589144	0.135844759535853	0.42578624830567	-0.461330446158732	0.7783831255884	9.89965404717142	-37.8006420987514	116.811774526975
50073	1652420074837	6.15703218497246	1.31771310253296	7.74622593592516	0.00711720799669007	0.0587591291184181	0.169593240821593	0.00468286644699019	-0.0014830344174579	-0.00946769062255809	0.21533203125	-0.283447265625	0.693115234375	0	0	0	-0.317625415869073	0.0995555510856371	-0.817487472148778	-0.470018106376589	-0.356394149744328	0.705225080660606	0.612895419819123	-0.831710573923207	-0.538343343852401	0.135808561416964	0.425723773416927	-0.461350224598468	0.778405574884068	9.89678849726584	-37.7991564113843	116.810312102941
50074	1652420074838	6.17667792055688	1.34452906689652	7.81622761912817	0.00809845581952523	0.0265847070736286	0.23976260453866	-0.00182448259256282	0.00483793131888708	-0.0142101652572499	0.22900390625	-0.291748046875	0.689208984375	0	0	0	-0.317605225951719	0.0995305063518462	-0.817462165383308	-0.470081064200991	-0.356301427055642	0.705324151376929	0.612835324179773	-0.831769787212798	-0.538234942770018	0.135875558734207	0.425685698794416	-0.461325251710516	0.778441197507005	9.90113004996519	-37.794798930164	116.801071806906
50075	1652420074839	6.12367292039948	1.34776941100072	7.78793077694505	0.0114570627594265	0.00171893204887565	0.185691702001431	0.00471113174767365	0.00505549101872855	-0.00760776005864323	0.22265625	-0.294677734375	0.68359375	0	0	0	-0.317547325711073	0.0994992218535672	-0.817478344136191	-0.470098667997083	-0.356341876562229	0.705399537769903	0.612725027334544	-0.831782385009635	-0.538214294395807	0.135880231438235	0.425627220694112	-0.46123406793301	0.778527201568561	9.90039163454604	-37.7868020729047	116.801224999334
50076	1652420074840	6.09721625361614	1.34491399300295	7.85652316740325	0.0526074252288788	-0.0463308190762517	0.222494842023625	-0.00310213102330291	0.00260723189903977	-0.0090200841619261	0.22119140625	-0.289794921875	0.696044921875	0	0	0	-0.317530352764576	0.0994926234854695	-0.81746127090485	-0.470141216567756	-0.356283423114789	0.705460617134832	0.612688697533544	-0.831828328466089	-0.538136908712338	0.135905479811674	0.425586365353639	-0.461230945572032	0.778551385890365	9.90189334431483	-37.7841682411246	116.795445964209
50077	1652420074840	6.09702603600603	1.34538581586546	7.85659000515188	0.0507791570925481	-0.0465010612627147	0.222503472380996	0.00357093592453231	-0.000311283946280471	-0.00585281361017949	0.21630859375	-0.2861328125	0.69775390625	0	0	0	-0.317471797717547	0.0995196613593821	-0.817477132182272	-0.470147458799844	-0.356346049276077	0.705480221044949	0.61262970127125	-0.831858964244967	-0.538114407973927	0.135807023147408	0.425474037716312	-0.461227212602682	0.778614989313806	9.89406943629827	-37.7798913400174	116.79885773635
50078	1652420074841	6.13183702521627	1.25168917791943	7.84736871914796	0.112820000985781	0.0326933411485443	0.223923105332524	-0.00470874087181562	-0.00779635082196315	-0.00896442092370111	0.221923828125	-0.29248046875	0.69091796875	0	0	0	-0.317492883620809	0.0995446224871886	-0.817443110891312	-0.470187087700589	-0.356244742819564	0.705492972856987	0.612673933232706	-0.831911809826596	-0.538029941387043	0.135817976873803	0.425455548658683	-0.461306240387518	0.778578273968054	9.89530907331889	-37.7830978881583	116.791885490191
50079	1652420074842	6.11519890922087	1.36060991906352	7.84571644208201	0.0268791772727637	-0.0360446437772393	0.227240996650018	0.0158064426549265	-0.00771621264547244	-0.0124764648791136	0.2265625	-0.287841796875	0.690673828125	0	0	0	-0.317473537526009	0.0994808709110558	-0.817453366652454	-0.470195813084366	-0.356252900657307	0.705561212774804	0.612590602116131	-0.831891388792009	-0.53803890736142	0.135907510532103	0.425488646178672	-0.461191401907146	0.778628218586999	9.90108060526942	-37.7770570049312	116.790183643354
50080	1652420074843	6.16328461158302	1.29130982335745	7.77254833316146	0.0376374811438032	0.0690283492930511	0.190306404736241	0.000344547238732954	-0.00784341052411221	-0.00858936696115945	0.220947265625	-0.2939453125	0.688720703125	0	0	0	-0.317505662659277	0.0994854576722929	-0.817423190280519	-0.470225611682994	-0.356156056593295	0.705572246980637	0.612634203781187	-0.831921031633448	-0.537981035658178	0.13595514847954	0.425511763031121	-0.461242029267552	0.778585595782055	9.90501386328278	-37.7802177382397	116.783556182271
50081	1652420074844	6.11421443398582	1.38483173977692	7.87099799733136	0.01892279959227	-0.0618514494559936	0.249608732162532	0.00732054507353193	-0.0104967140024735	-0.0104345737877846	0.218017578125	-0.29248046875	0.69677734375	0	0	0	-0.317517190229605	0.0995122342105115	-0.817406505097281	-0.470241166398453	-0.356112158665839	0.705562686757273	0.612670731719914	-0.831950066757241	-0.53794112133331	0.135935412609385	0.425491735375647	-0.461303202931131	0.778560298302258	9.903919899702	-37.7828657932858	116.781027525386
50082	1652420074845	6.14498576099384	1.30146406370065	7.80784724026917	0.0516207184817301	0.0336142366757049	0.2079584521481	0.00256921299433465	-0.00881631865431818	-0.00753412810464642	0.2255859375	-0.280517578125	0.6904296875	0	0	0	-0.317557668121613	0.0995120856933666	-0.817378449911413	-0.470262630706008	-0.356020371157255	0.705563428510073	0.612723219463863	-0.831966732040888	-0.537900805924841	0.135992940120479	0.425535958643045	-0.461349077526462	0.778508944436239	9.90866879379815	-37.7866710039819	116.775062587353
50083	1652420074846	6.14795888261499	1.35789103031416	7.82846692513436	0.0121912012444658	-0.00372397410910688	0.233505863351775	0.00108612329527833	-0.00771111770972736	-0.00547565240539819	0.22265625	-0.28515625	0.6923828125	0	0	0	-0.317533966563206	0.0995041672730733	-0.817383773400455	-0.470271057748149	-0.356034624646148	0.705591957558834	0.612682083532208	-0.831975769253985	-0.537888105879459	0.135987885223819	0.425506363556781	-0.461320252082758	0.778542201547858	9.90789291793328	-37.7836887504718	116.775053397392
50084	1652420074846	6.11349823597353	1.33116623034955	7.8481418337641	0.0559585419824243	-0.022896659757001	0.22407201079184	0.00681163677913416	-0.00742599121931273	-0.00855699496499496	0.224609375	-0.283935546875	0.698974609375	0	0	0	-0.317578933126153	0.099481152726247	-0.817357928953728	-0.470290482003607	-0.35594096754254	0.705605072056314	0.612721396650455	-0.83197754545216	-0.537860725578145	0.13608528114367	0.425581239586851	-0.461332116992689	0.778494242973424	9.91544695922138	-37.7865388519609	116.768563058612
50085	1652420074847	6.11406090866373	1.33211414886553	7.84754264405626	0.055391055162542	-0.0219413888833564	0.224077292470852	0.00657932080001066	-0.00925859799688658	-0.00526327026880216	0.216064453125	-0.285888671875	0.693359375	0	0	0	-0.317591594363491	0.0994343449269583	-0.817358215883381	-0.47029133222561	-0.355923284046233	0.705633944227001	0.612698418986363	-0.831951992786369	-0.537877747764815	0.136174190499661	0.425645976807643	-0.461268105567786	0.778496780477204	9.921764684498	-37.784873016172	116.76647571242
50086	1652420074848	6.09775254371303	1.35353627973842	7.96341231208092	0.0938061233816256	-0.0987811118168884	0.307195283158755	0.00776131508167448	-0.0106275016891258	-0.00231044368675711	0.224365234375	-0.294189453125	0.69140625	0	0	0	-0.317648819787101	0.0994239249734729	-0.817342631670318	-0.470281971677599	-0.355868188805783	0.705599223863299	0.612770403560421	-0.831926793568999	-0.537899500515799	0.13624220156346	0.425741285686619	-0.461295851518702	0.778428220861462	9.92747837251057	-37.7900918827175	116.764042877171
50087	1652420074848	6.139310476775	1.23802033556662	7.81529712260784	0.111730593120847	0.0612332502864691	0.201625544721949	0.015780173531416	-0.0128836795419804	-0.00605606555818644	0.2216796875	-0.285400390625	0.6923828125	0	0	0	-0.317647108410845	0.0993960888293872	-0.817359553487523	-0.470259601035775	-0.355912444303804	0.705596594643639	0.612747727549431	-0.831888115459649	-0.537952650318188	0.136268519374916	0.425779867239735	-0.461237890510892	0.778441464087299	9.92919233317015	-37.7884478369037	116.766993535949
50088	1652420074849	6.14714035143511	1.32939579238546	7.83004117126993	0.0412535505556181	0.0105836844410528	0.230337984682048	0.015848749316291	-0.0144536232824912	-0.00777468442853912	0.223388671875	-0.288818359375	0.69189453125	0	0	0	-0.317740839570125	0.0993528799050331	-0.817329507952209	-0.470257631043291	-0.355797038629649	0.705573941433299	0.612840828007283	-0.831847811332239	-0.537973531400257	0.136432028111075	0.425955028241405	-0.461248189896738	0.778339528247697	9.94214479710472	-37.7951979970972	116.76026215172
50089	1652420074850	6.17854696834842	1.32474829934682	7.81416236657117	0.0281204268252179	0.0429157059493269	0.236586308997866	0.0145973987513568	-0.0115166303467216	-0.00901071889296213	0.22021484375	-0.287353515625	0.690673828125	0	0	0	-0.317765478252236	0.0993082660206913	-0.817326474378252	-0.470255678765826	-0.355769394839239	0.705591354671119	0.612836828127273	-0.83181830925698	-0.537994929776911	0.136527491441087	0.426035723948803	-0.461196591214324	0.778325938262182	9.94913274491386	-37.7949079769205	116.757903964182
50090	1652420074850	6.16195924385725	1.31260388373182	7.82331670115827	0.0499342412621059	0.0333808359241875	0.231880664046571	0.0122094233578772	-0.0139467696602623	-0.00848909697156713	0.224853515625	-0.28955078125	0.680908203125	0	0	0	-0.317848616974688	0.0992772787459804	-0.817293965392506	-0.470262535978642	-0.355650807884429	0.705575174118199	0.612924282859821	-0.831795757103881	-0.537994338359459	0.136667151712283	0.426178743387248	-0.461222034991001	0.778232557224141	9.96027758917183	-37.8012493361043	116.750753902133
50091	1652420074851	6.22374008554766	1.30159297387143	7.79264794957587	0.0247203480618322	0.0966674508889885	0.244374381486374	0.0169848831556478	-0.00908796871204853	-0.00953501907802459	0.2216796875	-0.29052734375	0.69482421875	0	0	0	-0.31787994776326	0.0992615713687303	-0.817284459472152	-0.470261195044573	-0.355613494490555	0.705567806962283	0.612954412917186	-0.831780859448647	-0.538003097769321	0.136723328826816	0.42623895222174	-0.461223087636612	0.778198958518876	9.96471131559859	-37.8034341983526	116.748578161575
50092	1652420074851	6.1741000075282	1.36150318086856	7.78456830207007	-0.00922387955155585	0.0334528101836386	0.215846982583461	0.00926573920107999	-0.006570799857806	-0.0107999719695301	0.23193359375	-0.2900390625	0.69140625	0	0	0	-0.317926775449038	0.0992220365869334	-0.817256874114839	-0.470285822261484	-0.355507621664834	0.705597957792754	0.612981119527272	-0.831779326375035	-0.537972465670762	0.136853127093295	0.426330251276292	-0.461212692950677	0.778155105816237	9.97453223413563	-37.8053708655014	116.740738052863
50093	1652420074851	6.18290925951339	1.30892133676565	7.78479603102647	0.0314696497510695	0.0677610139681729	0.214231865461585	0.00794513715352778	-0.00206373961042674	-0.0103182895348523	0.22412109375	-0.2890625	0.69482421875	0	0	0	-0.317915407469297	0.0992308053057435	-0.817250437623272	-0.470302841982244	-0.355490061034111	0.705616403046351	0.612970071257883	-0.831804410655478	-0.537936968203596	0.13684020116185	0.426295952267971	-0.461225877409164	0.778166081944009	9.97347119112559	-37.8045696786493	116.738998955744
50094	1652420074852	6.21091866187426	1.36932542246864	7.73753313192102	-0.048234300906369	0.0777492047104467	0.202881023792475	0.00530352737634374	0.00695066203257521	-0.00935477531514691	0.216796875	-0.285888671875	0.689453125	0	0	0	-0.317896898891243	0.0991783422949266	-0.817245716500908	-0.47033462232317	-0.355453809438903	0.705700935925902	0.612893774147426	-0.831814885736828	-0.537897998927503	0.13692968493506	0.426305741483737	-0.461141986575819	0.778210436189921	9.97930468907112	-37.799037081774	116.733893543792
50095	1652420074852	6.15805093885334	1.40682901684134	7.81599480066882	-0.0287465218882124	-0.0140706757782586	0.236666322909063	-0.000699231232758541	0.0115687887546263	-0.00768691198500516	0.2216796875	-0.2890625	0.684814453125	0	0	0	-0.317773243327435	0.0991457710037092	-0.817286687589209	-0.470353858500919	-0.355574827236921	0.705816147589943	0.612690874778404	-0.831839640446134	-0.537874727770755	0.136870704710621	0.426156490995831	-0.46099277979902	0.778380563834486	9.97295617423565	-37.7843260840109	116.737971771816
50096	1652420074853	6.10907642355775	1.27809460773018	7.85296305175021	0.110966600286682	0.00459070245097375	0.21781783754426	-0.00547359518432181	0.00670860266411023	-0.00664063557045107	0.22900390625	-0.290771484375	0.693115234375	0	0	0	-0.317728279619793	0.0991418918694072	-0.81728307156805	-0.470391333396667	-0.355561467590304	0.705885382111001	0.612618862007231	-0.831886113078674	-0.537805757483721	0.136859278400174	0.426076915159557	-0.460967238032561	0.778439251212802	9.97140359829334	-37.7791055805317	116.73484879744
50097	1652420074854	6.13891511383842	1.2723340047543	7.83850970884555	0.0977422362836832	0.035600771183881	0.224071373791354	0.00634610526177274	0.00734680939161245	-0.0112536146598667	0.2314453125	-0.28955078125	0.693115234375	0	0	0	-0.317682487126083	0.0991477479046352	-0.8172834023909	-0.470420451973741	-0.355564871476414	0.70593864879214	0.612555504679771	-0.831928661381318	-0.537748644900519	0.136825060862197	0.425990991153862	-0.460952295849779	0.77849512291765	9.96825945605159	-37.7745128508102	116.733332174575
50098	1652420074855	6.13442529664871	1.31749982005933	7.89156646618027	0.0848086399562326	-0.0153751714015676	0.268799226607411	0.000668023958824314	-0.00105020455511383	-0.0117437070486023	0.2236328125	-0.2841796875	0.69775390625	0	0	0	-0.317686043615484	0.0991295523377094	-0.817258440174718	-0.470465250054085	-0.355476052366976	0.705999242256139	0.612537220197555	-0.831967543406303	-0.537671560689745	0.136891561259034	0.425989181684315	-0.460949414533972	0.778497819090533	9.97297318973343	-37.7731874741373	116.725606459648
50099	1652420074855	6.15351967693599	1.35367612532736	7.7961330516991	0.00749873924342954	0.0233345793097553	0.211150882508809	0.00544166502717033	0.00381013617058482	-0.012790401159192	0.219482421875	-0.290283203125	0.68359375	0	0	0	-0.317672039171951	0.099090176470871	-0.817245971144962	-0.470504660022229	-0.355419680851402	0.706079718773374	0.612477167901302	-0.831992432459014	-0.537613003648676	0.136970254576609	0.425987608733423	-0.460894444580059	0.778531224910612	9.97817148245796	-37.7688346652592	116.719333828353
50100	1652420074856	6.15969771371042	1.322919159679	7.8233601212812	0.0429893469796658	0.0326768493528838	0.231915102911053	0.00298562158352139	0.00294989445598605	-0.010549857951885	0.224853515625	-0.28564453125	0.693359375	0	0	0	-0.317664476988696	0.0990547028041591	-0.8172311912491	-0.470542905547895	-0.355357308196086	0.706152357750329	0.612429613225294	-0.832016999188545	-0.537555079781849	0.13704834644029	0.425991662562685	-0.460850717526164	0.778554891823755	9.98344860012148	-37.7653879111343	116.712928758483
50101	1652420074857	6.1394262576004	1.37562381658435	7.80137474423048	-0.00416711602207959	0.0010900096421562	0.209604036230797	0.00300737265244833	0.00949093950070875	-0.00869328693392468	0.22314453125	-0.2939453125	0.690673828125	0	0	0	-0.317580024536044	0.0990432453957894	-0.817253259331048	-0.470563995297062	-0.355424908691505	0.70623160515488	0.612298990822292	-0.832048230366577	-0.537519923743072	0.136996620115572	0.425874249779772	-0.460770280573307	0.778666727114311	9.97835177479885	-37.7559212499646	116.714723243337
50102	1652420074857	6.11039845475898	1.438383512519	7.83789676351303	-0.0308047657499779	-0.068764654320998	0.228869513075564	-0.00130330331695462	0.00966868902739087	-0.00595062566418222	0.219970703125	-0.291259765625	0.6953125	0	0	0	-0.317532151458141	0.0990169955694813	-0.817258044448003	-0.470593514791463	-0.355430153253163	0.70631051198857	0.612204922238362	-0.832074830524964	-0.537474756849222	0.137012270095502	0.42581789836183	-0.460702014760425	0.778737934757515	9.97857457182126	-37.7491045218006	116.712492298385
50103	1652420074859	6.15554873211897	1.34633616318969	7.85122794480153	0.0323637366779498	0.00703951230827484	0.254292547638485	-0.0053336878681674	0.00494385959216113	-0.00178992755612485	0.225830078125	-0.291015625	0.6875	0	0	0	-0.317396660494328	0.0990850265422928	-0.817305449063615	-0.470588270522209	-0.35561207910793	0.706330202467417	0.612076542823586	-0.832127228585479	-0.537457674324059	0.136760826835843	0.425563537722847	-0.460691755290358	0.778883034844324	9.95881064155211	-37.7398024547986	116.723625319973
50104	1652420074859	6.13541086518176	1.27660647417292	7.84055841871473	0.0925060850781626	0.035624808800855	0.224120914407806	-0.000210658348305206	0.00333216289827561	-0.00313561248007287	0.223876953125	-0.29150390625	0.68994140625	0	0	0	-0.317374816270971	0.0990742377359218	-0.817307745339008	-0.47060128646539	-0.355615310348175	0.70636481679208	0.612034718495824	-0.832139488786579	-0.537437449188332	0.136765709927417	0.425536863559413	-0.460662277387926	0.778915042828027	9.95875804631362	-37.7367722159407	116.72270668711
50105	1652420074859	6.12661450818368	1.33074418131567	7.83999358310646	0.0488261805836533	-0.000151908388131696	0.225708962389589	0.0011123457420262	-0.00117429982656644	-0.00361647529265932	0.230224609375	-0.285400390625	0.689697265625	0	0	0	-0.317338013424601	0.0991507456088432	-0.817311982160996	-0.470602633542358	-0.35565949307745	0.706329741179222	0.612049525536606	-0.832186943743535	-0.537404581896415	0.136606024828826	0.425407117531767	-0.460754394534043	0.778931429761877	9.94715767584507	-37.7378449953388	116.726708618686
50106	1652420074860	6.14823333353258	1.25720692375266	7.83588994808123	0.100690891406602	0.0569017902704934	0.225695832081422	0.000530415598170937	0.00208954775500527	-0.00830947337172395	0.22607421875	-0.285400390625	0.6865234375	0	0	0	-0.317325259522967	0.0991325370149639	-0.817300453415386	-0.470635090723867	-0.355614582096039	0.706386030012729	0.612010658080001	-0.832215062154503	-0.537350702968629	0.136646669708037	0.425389655873102	-0.460730939510227	0.778954839547318	9.94976509957714	-37.7350290568647	116.721968475421
50107	1652420074860	6.14382541180622	1.34582824507476	7.82983574297273	0.0269542032712877	0.00866669104332609	0.23038837919105	0.00794942852031435	-0.00206183675743943	-0.0103174072337879	0.232177734375	-0.284423828125	0.697509765625	0	0	0	-0.317387743675049	0.0991221336026243	-0.817258448817138	-0.470668089668218	-0.355473139065864	0.70639464507516	0.612082880672054	-0.832235246404734	-0.537292703996268	0.13675176369623	0.425468379605714	-0.460785368302334	0.77887964558985	9.95820634726087	-37.7402616527911	116.712534256368
50108	1652420074860	6.13253153464376	1.3450805070438	7.80814767894365	0.0231176103990813	0.0120362287265603	0.20647803731088	0.00641483474710801	0.00577614696483502	-0.0129729609134953	0.2197265625	-0.289306640625	0.696533203125	0	0	0	-0.31737687083469	0.0990639389482805	-0.817244276887004	-0.470712279162835	-0.35540374420902	0.706492626500601	0.612010087582298	-0.832255038324457	-0.537232572490761	0.136867506145599	0.425487637641526	-0.460705254751062	0.778916515718464	9.96600343854121	-37.7349877252322	116.704852367213
50109	1652420074861	6.12979335645716	1.36816618384154	7.83494328728521	0.0161680158435337	-0.0130773117209313	0.228833892339816	-0.000122191271852584	0.00692238780896582	-0.0112860887001304	0.226318359375	-0.2841796875	0.688720703125	0	0	0	-0.317323386363409	0.0990214063880888	-0.817246205621679	-0.470753936723584	-0.355393199052212	0.706600121142562	0.611892100675234	-0.832287353132705	-0.537170984272346	0.136912729398092	0.425433233166839	-0.460612203982043	0.779001259087567	9.96816757258646	-37.7264402610849	116.700670561518
50110	1652420074862	6.10738825612309	1.32131278783923	7.85076626533209	0.0699298725654049	-0.0100262881093598	0.221035723897248	0.000760504955390303	0.00391807610478649	-0.0116066068074704	0.2177734375	-0.286865234375	0.689208984375	0	0	0	-0.317306262947594	0.098992309909415	-0.817229539827469	-0.470800528150102	-0.355327196375635	0.706682438105461	0.611835366082374	-0.832325957777087	-0.537094770544767	0.136977032614666	0.425412838929769	-0.460574792109583	0.779034516146062	9.97233812236138	-37.7223305215214	116.693720185427
50111	1652420074863	6.13739966789076	1.31593901711204	7.83614683943033	0.057131087696302	0.0221340962029568	0.227273467591699	0.00321657976953178	0.00477842664395201	-0.0138476679175882	0.226806640625	-0.288818359375	0.68505859375	0	0	0	-0.317258177108761	0.0989466763224516	-0.817229683159311	-0.470842276421413	-0.355309599583855	0.706789284433698	0.611722155764577	-0.832355853077824	-0.537034211958082	0.137032802765066	0.425369042468594	-0.460481446527721	0.779113608604732	9.97532439158746	-37.7141304756288	116.689105151302
50112	1652420074864	6.16068166052123	1.34254044378796	7.79450468139868	0.00939225129366581	0.04471545032096	0.212711819803394	0.00240396983465403	0.00621148918830955	-0.0152454615175841	0.22900390625	-0.28759765625	0.695556640625	0	0	0	-0.317237096547739	0.0988994401176991	-0.817209078706071	-0.470902162873289	-0.355223555150438	0.706901902898481	0.611641991319097	-0.832400187831024	-0.536940107491329	0.137132229129683	0.42535415028557	-0.460418310502207	0.779159050636732	9.98184613619353	-37.7083245560207	116.679874245511
50113	1652420074865	6.13826109719232	1.37420823315456	7.85791916933292	0.0180685661084578	-0.0169501280588331	0.252747413785716	0.00263383920087252	0.00804035875134925	-0.018542644130891	0.224365234375	-0.293212890625	0.689697265625	0	0	0	-0.317222049175917	0.098901333987819	-0.817169957370305	-0.4709797855784	-0.355096426186313	0.706993694939058	0.611609714954011	-0.832488430274449	-0.536793135423908	0.137171947645843	0.425287598654008	-0.460448743160613	0.779177395304124	9.98444872934551	-37.7059870648301	116.668663011334
50114	1652420074866	6.14621397452813	1.32130462168053	7.85899387824442	0.059917604578134	0.0178960147986275	0.251191931582078	-0.00406278408597247	0.00578450547890826	-0.0152775705914627	0.23095703125	-0.28759765625	0.6875	0	0	0	-0.317187925694941	0.0988819619479868	-0.817145066224168	-0.471050016601376	-0.355007403306367	0.707104065223398	0.61153379672935	-0.832560722819111	-0.53666847892232	0.13722094063999	0.425220397460647	-0.460424570017443	0.779228354789315	9.98730299446435	-37.7004892709697	116.65931501504
50115	1652420074867	6.13656242587953	1.29818544847859	7.8112765268601	0.0616013858878464	0.0452537921287712	0.204941197682269	0.00441795861777649	0.00857377866694201	-0.0173275179288051	0.228515625	-0.292236328125	0.690185546875	0	0	0	-0.317158847612131	0.0989157281216497	-0.817111184980334	-0.471121274717607	-0.354910019779604	0.707172929424345	0.611510691443275	-0.832660922791454	-0.536520846477242	0.137190265512642	0.425105475754108	-0.460490856787337	0.779251888223018	9.98481983091531	-37.698816129159	116.650775422675
50116	1652420074868	6.13815544178753	1.35554172874046	7.83260662653648	0.0230092876746544	0.00716039679690516	0.230399378903233	0.00261780626188483	0.00149812565008013	-0.0204000922822563	0.220947265625	-0.28955078125	0.689453125	0	0	0	-0.317160688016055	0.0988720516670823	-0.817070403721938	-0.471199926504657	-0.354759454478377	0.707290372501234	0.611462229761799	-0.832723684230397	-0.536389893322295	0.137321331421785	0.425108215846223	-0.460463040111542	0.779266830752649	9.99397891007723	-37.6953069567845	116.637216872465
50117	1652420074869	6.12445350603036	1.37667642110053	7.83762801642512	0.0111734097526702	-0.0158727800904239	0.228836662367179	-0.00309210072206919	0.0077490041557063	-0.0154610878939085	0.228515625	-0.283935546875	0.68798828125	0	0	0	-0.317073671710629	0.0989248984425097	-0.817059804089713	-0.471265771849558	-0.354745717981961	0.707371676897639	0.611376141419081	-0.83283759998871	-0.536244873502359	0.137196820981702	0.424896466940488	-0.460507053545829	0.779356302352159	9.9839764823623	-37.6890735992466	116.633688611421
50118	1652420074870	6.13668347181649	1.35727487886167	7.83345983476193	0.0210125095564511	0.00634631445342072	0.23040430255444	-0.00316380984834566	0.00931938493909877	-0.0137439039882609	0.225341796875	-0.287841796875	0.69921875	0	0	0	-0.317026276364039	0.0988977556780887	-0.817044250049884	-0.47133031673871	-0.354684145235479	0.707489075884336	0.611276013452929	-0.832901824777876	-0.536133932889649	0.137240505267071	0.424821971418925	-0.460455875745554	0.779427148033178	9.98620195009711	-37.6818243403811	116.625893872503
50119	1652420074870	6.10100533349349	1.33016606097588	7.85423337543785	0.0649199290812438	-0.0128865361316364	0.221066124008727	-0.00517744424716253	0.0069557131831088	-0.0116634690819971	0.21728515625	-0.292236328125	0.6923828125	0	0	0	-0.316992574109344	0.0988843493245874	-0.817025895374438	-0.471387610895516	-0.354618856507499	0.707580560857596	0.61120799774362	-0.83296297858371	-0.536031211505741	0.137270596271168	0.42475656901132	-0.460434892452927	0.77947518683637	9.98774422807425	-37.6769004110637	116.618700669133
50120	1652420074871	6.11774873222851	1.34440796632953	7.84458428068092	0.0427731039791177	-0.00326221974239049	0.225736050269642	0.000246256625673319	0.00698840206042221	-0.00973200053920348	0.231201171875	-0.280517578125	0.690673828125	0	0	0	-0.316961184695699	0.0988548037474791	-0.817017629588258	-0.471429239774465	-0.354580158563938	0.707665728580932	0.611131841540589	-0.832998271415579	-0.535964399323435	0.137317305815859	0.424719661625677	-0.46038177554057	0.779526670344692	9.99042776504637	-37.6713875465933	116.613434155489
50121	1652420074872	6.11942128055821	1.32286506702536	7.81840528355028	0.0485080747514501	0.0224465489176668	0.203394360300916	-0.001252452320078	0.00155241426680576	-0.00952904402959877	0.21923828125	-0.284423828125	0.692626953125	0	0	0	-0.316925678652421	0.0988464437973849	-0.817013335911711	-0.471462303585058	-0.354562821017945	0.707728026251568	0.611069756091608	-0.833035931383026	-0.535905353693761	0.137319295465635	0.424660267715983	-0.460354746625279	0.779574989518625	9.98996284881477	-37.6668935516767	116.610292202684
50122	1652420074873	6.08633361339366	1.35182047366451	7.85990609654804	0.0538190590029422	-0.0348556502731661	0.219505210354185	-0.00183614478678458	0.00481354068989622	-0.0142247591716096	0.220703125	-0.28662109375	0.689208984375	0	0	0	-0.316900453451337	0.0988232083313272	-0.816990057730969	-0.471524465607235	-0.354477561872298	0.707827361692611	0.611004160516399	-0.833095839819465	-0.53579730365783	0.137377476569123	0.424613918524313	-0.460327791288205	0.779616152194881	9.99359316278325	-37.6621457752818	116.60155466197
50123	1652420074874	6.07720062892653	1.32835917152789	7.81186542698731	0.0552792250884579	-0.00488941738840125	0.173256123263199	0.00141704993664262	-0.00091607397744274	-0.00863242144572725	0.220458984375	-0.294921875	0.6943359375	0	0	0	-0.316834931576804	0.0987781093969364	-0.817015905573503	-0.471533160314943	-0.354544209712248	0.707907472901169	0.610872665266828	-0.833092895029427	-0.535798727654738	0.137389780169605	0.424564048891337	-0.460202926168711	0.779717022473377	9.99320325074182	-37.6526291262797	116.603271241843
50124	1652420074874	6.08378255378565	1.37520524599942	7.88644474585379	0.0458732292108128	-0.0592269690416184	0.241863753974942	-0.00118007094706641	-1.88678947288874E-05	-0.0112474460761334	0.22314453125	-0.288330078125	0.684814453125	0	0	0	-0.316828880308457	0.0987677417911375	-0.816992760811875	-0.47157949760879	-0.354464476075061	0.707969125302803	0.610847487363922	-0.833139017471927	-0.535715421233041	0.137434948317444	0.424540119148644	-0.460205068497827	0.779728787567937	9.99627456152828	-37.6508070758911	116.59611417828
50125	1652420074879	6.12482786729566	1.33699834794794	7.78700397376782	0.0185859558379893	0.0361593565961212	0.184155085178629	-0.00132511112173753	0.0031224976086541	-0.0078118451937797	0.22216796875	-0.28564453125	0.699951171875	0	0	0	-0.316717531264811	0.098834019284755	-0.817015428252975	-0.471601136574279	-0.354564746742742	0.708005875939956	0.610746690536879	-0.833215742311342	-0.535648409227737	0.137230858251176	0.4243057472293	-0.460226532618764	0.779843684043088	9.98028784316178	-37.6435131552048	116.601411387751
50126	1652420074882	6.08564860711764	1.31048603979857	7.91912205927835	0.110626438820767	-0.0377140884860512	0.259617550075159	-0.00259314549963642	-0.000484989538073389	-0.0109065206251134	0.223876953125	-0.29541015625	0.68505859375	0	0	0	-0.316708990110755	0.0988318482102803	-0.816991932100381	-0.471648030044918	-0.354487102675547	0.708063401000558	0.610725072516447	-0.833267140350388	-0.535560803068176	0.13726069732177	0.424269686460138	-0.460239987811243	0.779855362724731	9.9822677986188	-37.6419489122698	116.594524141515
50127	1652420074875	6.09858892466169	1.33481913360425	7.85532054229396	0.0574570250453803	-0.011927684148141	0.221112820314849	0.00876983552346539	-0.00348731279783636	-0.00891969303022385	0.22119140625	-0.28955078125	0.694091796875	0	0	0	-0.316667286887885	0.0988403066176909	-0.817002108380165	-0.471656631571265	-0.354523702619827	0.708089941386839	0.6106730542504	-0.833287908314002	-0.535541231365138	0.137210973925512	0.424198309919316	-0.460221929523894	0.779904846405573	9.97810395518774	-37.6381850946	116.596032439503
50128	1652420074875	6.12494984142071	1.29548312367277	7.84563954059158	0.0772956593376965	0.0325072805203516	0.22426015893023	-0.00282235930458147	-0.00231445074441019	-0.00760901080827801	0.22705078125	-0.288330078125	0.692626953125	0	0	0	-0.316663451957346	0.0988489693523744	-0.816983601726724	-0.471689446523941	-0.354466648464793	0.70812137412013	0.610669726317226	-0.833328797550325	-0.535475894591824	0.137217642759287	0.424165663744092	-0.460249590793196	0.779906278904862	9.97856121197755	-37.6379443061796	116.591322990566
50129	1652420074876	6.1335768048644	1.36418680764505	7.83469222114757	0.0119519202853522	0.00737477740761784	0.230418469771738	0.0140518809623674	-0.00169243537610317	-0.0118438999918698	0.21728515625	-0.287841796875	0.689453125	0	0	0	-0.316653181997926	0.0988044549120174	-0.816983695841065	-0.471705504260871	-0.354449359161172	0.708177922352317	0.610614184311985	-0.83332490252616	-0.535463193879074	0.137290840301118	0.42418776340201	-0.460177355259446	0.779936884040255	9.98339323293631	-37.6339257494117	116.588373089958
50130	1652420074877	6.08787963186851	1.33530319574073	7.83297256874667	0.0520232889485	-0.00846071823456035	0.197207456688391	-0.0106288568883904	-0.00478491521706576	-0.00901817918693818	0.22607421875	-0.29052734375	0.68359375	0	0	0	-0.316641453296835	0.0988486683706285	-0.816954217219553	-0.471755167202871	-0.35437050454292	0.708205574664336	0.610627881384689	-0.833403918701667	-0.53535200595749	0.137244810502972	0.424098401084821	-0.460264156470661	0.779934261630844	9.98014626557779	-37.6349167352904	116.582375804062
50131	1652420074879	6.14250409527684	1.3116684353848	7.8350310476308	0.0517355920005361	0.0418390701681614	0.228931775737792	0.00989529447775306	0.00188037331179806	-0.0106822490004621	0.21337890625	-0.291748046875	0.6943359375	0	0	0	-0.316588264391048	0.0988514787427307	-0.816964436736452	-0.471772577740729	-0.354405011483465	0.708252400308017	0.610553540071088	-0.833433272658616	-0.535318040084488	0.137199037845215	0.424011872311325	-0.460231608451696	0.78000051200048	9.97605428681666	-37.6295382855459	116.583092425504
50132	1652420074882	6.12928343213405	1.33228638667039	7.83973627975906	0.0414379082769203	0.0196735653960817	0.227355625443534	-0.00713432665195097	-0.00214340235991865	-0.00486687643717758	0.21923828125	-0.2939453125	0.690673828125	0	0	0	-0.316571327464766	0.0988823602652529	-0.816950834357239	-0.471801025537863	-0.354372773857233	0.708269842823476	0.61055201817334	-0.833483123031558	-0.535252142259586	0.137153300463696	0.423940822250337	-0.460281407351341	0.780009746911137	9.97267969041485	-37.6294281832636	116.580442046201
50133	1652420074883	6.12956372814033	1.28933429416951	7.89852015698827	0.0984180053900594	0.0170471300514618	0.267519888730874	0.00936908429773652	-0.00158827306842661	-0.0106608480962226	0.2236328125	-0.28271484375	0.685791015625	0	0	0	-0.316413672827894	0.0988754839338597	-0.817017657218242	-0.471792511723134	-0.354588427059079	0.708354515193994	0.610328541197322	-0.833496735290585	-0.535270929117643	0.136997170414104	0.423733689545337	-0.460129235373952	0.780212052648816	9.95902342613983	-37.6132624247263	116.591651196234
50134	1652420074884	6.12516140362395	1.30000847391796	7.8447257866753	0.0689686676012296	0.0333427205847626	0.224318091122964	-0.00341724838929671	-0.0055978591560004	-0.0141619234567523	0.22509765625	-0.29150390625	0.682373046875	0	0	0	-0.316422307980496	0.0988849347431648	-0.816979401974935	-0.471850982241018	-0.354467147140965	0.70840626803324	0.610338923065671	-0.833563865136972	-0.535156840478053	0.137034443945531	0.423703108716066	-0.460182263348736	0.780197385386273	9.9618622828984	-37.6140133449461	116.582131299948
50135	1652420074885	6.13195420023348	1.2693315872724	7.87155990327534	0.103796485887678	0.0415907324132951	0.245195943685641	0.00825704926137772	-0.00179709040171501	-0.0153364528914991	0.221435546875	-0.2861328125	0.69677734375	0	0	0	-0.316447309781401	0.0988991982066929	-0.816939482397305	-0.471900339930595	-0.354342338611006	0.708435268467934	0.610377733422878	-0.833620809316116	-0.535058035534924	0.137073866526962	0.423695472412471	-0.460252505696899	0.780160097452375	9.96513743363556	-37.6168205640562	116.573119133835
50136	1652420074886	6.12282067876268	1.36812733523455	7.81176351779083	0.000314341074888255	0.0104806853851325	0.206506450372556	0.00580176229885066	-0.00266056714425714	-0.0130954155657009	0.220703125	-0.28564453125	0.69970703125	0	0	0	-0.316465305039795	0.0988663585582884	-0.816912739397821	-0.4719414477041	-0.354241961290055	0.708494417120014	0.610367343303315	-0.833645506397304	-0.534993426168765	0.137175812808924	0.42373081375439	-0.460236564025478	0.780150307702986	9.97252273477036	-37.6160690186577	116.564711699667
50137	1652420074887	6.10751509407655	1.33339846808204	7.79528271798685	0.0276611422326724	0.0283325497349141	0.179537454274373	0.00097627167741684	-0.000801186036209155	-0.0167677911092662	0.219970703125	-0.28173828125	0.69140625	0	0	0	-0.316395845013593	0.0987641090536708	-0.816927591451745	-0.471983718305855	-0.354250077824629	0.70865593691798	0.61017509407722	-0.833650151882183	-0.534954040834029	0.137301123309891	0.423714888371955	-0.460033626234262	0.780278640041939	9.97984090030895	-37.6021644833077	116.56001290608
50138	1652420074888	6.19654779208925	1.33823014787434	7.77731091159305	-0.0148900461362795	0.0982634858491683	0.22049517333717	0.00886251501588763	0.00664234378782637	-0.0152222950758625	0.231689453125	-0.294921875	0.69140625	0	0	0	-0.316383609717858	0.0986922973119038	-0.816912556558234	-0.472032961657008	-0.354172589222424	0.708770056424187	0.61008752172122	-0.833668557523739	-0.534889427121225	0.137441030810365	0.423743452149732	-0.459932938449056	0.780322483906394	9.98925545270465	-37.5958316240105	116.55131096145
50139	1652420074889	6.13465861047036	1.35165897183403	7.80743997783357	0.00820599233629909	0.0340485405066436	0.20808658548863	-0.00421665798691529	0.00891308034720027	-0.0118505673113888	0.215087890625	-0.285888671875	0.692626953125	0	0	0	-0.31632492229852	0.0987176986527829	-0.816899172850884	-0.472090140652265	-0.354138885263519	0.708846354108125	0.610018439239283	-0.833753827531446	-0.534771430143246	0.137382941369048	0.423603830271842	-0.459952566869853	0.780386719011067	9.98431312257948	-37.5908362538105	116.546664870784
50140	1652420074890	6.13379882747094	1.30884924712119	7.8671330403848	0.0690361902912869	0.0304588063882471	0.24826004016013	-0.00100972211696202	0.015073105352186	-0.0174137728954169	0.224853515625	-0.286865234375	0.68603515625	0	0	0	-0.31625616453521	0.0986631255098805	-0.81688728323678	-0.472168182477528	-0.354078491698692	0.709010724320211	0.609862455407209	-0.833822010939454	-0.534645590240979	0.137458891704977	0.423520100808999	-0.45984550191864	0.780495252116199	9.9883605009308	-37.5795582599219	116.537447910029
50141	1652420074891	6.08440601259738	1.30224377674034	7.89301797427167	0.101382333178154	-0.0102182802998373	0.23744621874935	0.00292694583290062	0.0162169729766372	-0.0134221433626116	0.223876953125	-0.2900390625	0.688720703125	0	0	0	-0.316126088829461	0.0985887850638279	-0.816926222834596	-0.472203445419689	-0.354176404190325	0.709177780103025	0.609611311347613	-0.83384372820173	-0.534608315186827	0.137472129072555	0.423395455400091	-0.459631184256734	0.780689094842051	9.98687263834407	-37.561403548675	116.53838458068
50142	1652420074892	6.07415598643765	1.40064908983435	7.83407875128598	-0.00208807249722888	-0.0413276653869244	0.198719443615182	0.00276832714574393	0.00627597000812069	-0.0136970820368929	0.226806640625	-0.287841796875	0.689697265625	0	0	0	-0.316099747534192	0.0985451909544981	-0.816911400337839	-0.472255819388847	-0.354110781324377	0.709282105506423	0.609528054611283	-0.833882545432125	-0.53452657278622	0.137554510682338	0.423373895007095	-0.459565270439133	0.780739589897123	9.99210352216227	-37.5553860589535	116.530772686802
50143	1652420074893	5.94071291918202	1.45885144789217	7.97817514759752	0.0572488964767715	-0.233508706440869	0.237874433024011	0.00468921326271563	-0.00148557805455054	-0.00947767775669265	0.221923828125	-0.29150390625	0.69580078125	0	0	0	-0.316100648786909	0.0985893664895448	-0.81688778567165	-0.472286843213057	-0.354051035128683	0.709282381686664	0.609562439421264	-0.833939032530006	-0.534450549086072	0.137507456541506	0.423312596726375	-0.459653253671167	0.780721033303372	9.98898694558908	-37.5578712072486	116.526900296626
50144	1652420074896	6.15952327903915	1.29404471752457	7.77365637260373	0.0312055297618623	0.103836938172915	0.188925316812004	0.00118718409746317	-0.00928803760241621	-0.00719137645215596	0.22021484375	-0.291015625	0.69384765625	0	0	0	-0.316131010507101	0.0985998603106298	-0.816862776861978	-0.472307585710649	-0.353973457351876	0.709280025041438	0.609610234139469	-0.833961918944871	-0.534407224053806	0.137537037298664	0.423332386240586	-0.459707260064841	0.780678503484968	9.99162582282714	-37.5613256889414	116.521959420983
50145	1652420074894	6.12289403117498	1.36735562039109	7.86722960794288	0.0210968425023782	-0.00408610906529609	0.24973443867982	0.00646767930509644	-0.00748997950646379	-0.0101163303164604	0.222412109375	-0.292724609375	0.696044921875	0	0	0	-0.316063743520979	0.0986135924192936	-0.816884221660208	-0.472312648384799	-0.354048944414483	0.709313137947989	0.609527864246885	-0.833985862676364	-0.534392243131797	0.137450032144512	0.423222076237702	-0.459673582898718	0.780758138843333	9.9844344315445	-37.555372300674	116.525772332385
50146	1652420074895	6.10173388806271	1.32078187653263	7.88217975135912	0.0747312401493825	-0.0010200958337675	0.242102188433433	0.00468463321762876	-0.00802801292069461	-0.0113336745112253	0.22119140625	-0.283935546875	0.69921875	0	0	0	-0.316098343297413	0.0986004661233709	-0.81685357402949	-0.472345238189329	-0.353943626648994	0.709338904001627	0.60955904424783	-0.834008679961428	-0.53433584808024	0.137530808204439	0.42326520162134	-0.459699380819836	0.78071957088977	9.99066744977073	-37.5576258187679	116.518130024921
50147	1652420074897	6.12425071711428	1.29174672262278	7.81841672993261	0.0641174361285935	0.0608276195821291	0.202046043597875	0.0115171935856074	-0.0140612022037552	-0.0115982138720721	0.21728515625	-0.27978515625	0.68994140625	0	0	0	-0.316099850587062	0.0985439081700614	-0.816858385063567	-0.472347712361084	-0.353937046172176	0.709382949717848	0.609511606121263	-0.833981808313134	-0.534353473579643	0.137625247233661	0.423323647756266	-0.459610917976256	0.780739965242816	9.99713355938819	-37.5541972802658	116.516283198932
50148	1652420074899	6.08996563189048	1.34337845876285	7.88538199208858	0.062789141478058	-0.0219436733470109	0.240529642851772	0.00282671565479687	-0.00699528365990563	-0.0108330052960798	0.221435546875	-0.29296875	0.692138671875	0	0	0	-0.31612504435081	0.0985361938480475	-0.816830030014663	-0.472381495088856	-0.353841358863632	0.709411264322855	0.60953420807153	-0.834010298924351	-0.534292683199115	0.13768859781407	0.423347509790306	-0.459637886527796	0.780711149672277	10.0020041678573	-37.5558307917262	116.509181367845
50149	1652420074899	6.1337141051687	1.36212830757214	7.80636248655756	-0.00194313624083415	0.0367982081508978	0.208080036966317	0.0171706260037143	-0.00564953957798001	-0.011112321428249	0.21875	-0.2744140625	0.6943359375	0	0	0	-0.31610142525412	0.0984433908539381	-0.816855747139038	-0.4723721796586	-0.353888825673795	0.709483667173887	0.609422370016655	-0.833956051797	-0.534346845363525	0.137806939307169	0.423414693574022	-0.459463137654745	0.780777575498986	10.0095925219898	-37.5477482661891	116.509915583643
50150	1652420074901	6.12548296906111	1.37360581352609	7.86412485708945	0.0167697752058344	-0.00154923743140227	0.249743290797085	-0.00468081481361967	-0.00783256646720773	-0.00896359813923746	0.220947265625	-0.283935546875	0.693603515625	0	0	0	-0.316110697111449	0.0984708887517174	-0.816827221071711	-0.472409570348047	-0.353806450030575	0.709498590533174	0.609452825039152	-0.834009395687132	-0.534265363824041	0.137800032378629	0.423378464051195	-0.459534842040737	0.780755022480321	10.0093842606718	-37.549949160912	116.504106996418
50151	1652420074902	6.12806301720465	1.3524491604552	7.8372375576583	0.0238478215408152	0.0266296082418793	0.227396775321976	0.0139003063053487	-0.00508301625617545	-0.01027026066157	0.220947265625	-0.291015625	0.691162109375	0	0	0	-0.316139684550276	0.0982606786093477	-0.816842727502304	-0.472407130998548	-0.353774404868344	0.709636458874274	0.609310894943156	-0.833892858631295	-0.534352683241902	0.138166241303391	0.423634713855906	-0.459220324189338	0.780801077783364	10.0348646714923	-37.5396928453231	116.497589114511
50152	1652420074903	6.11736450394429	1.35140346212302	7.81513340782244	0.0199473014073049	0.0300499931422845	0.203472034283768	-0.000147193742406564	-0.00478776284857596	-0.0067129449685159	0.215087890625	-0.28369140625	0.69775390625	0	0	0	-0.31614614085765	0.0982642284734369	-0.816826944094809	-0.472429362364439	-0.353724230393489	0.709654351489144	0.609319185850122	-0.833917777954071	-0.5343092779569	0.138183700563132	0.423627558646365	-0.459243178394299	0.78079151804667	10.036227321788	-37.540291933561	116.49376758177
50153	1652420074903	6.12454405327074	1.32048635959858	7.84178697601237	0.0531148774944075	0.0409778850014474	0.224386240543538	0.00869583523336862	-0.00845437072379023	-0.00906193066014292	0.216552734375	-0.2841796875	0.689697265625	0	0	0	-0.316076060356083	0.0982032008832711	-0.816874040498448	-0.472407511970119	-0.353854133407959	0.709715504430617	0.609172516649345	-0.833874227828782	-0.534374547940963	0.138194119541472	0.423604797462274	-0.459072701523065	0.780904110812115	10.0355509249651	-37.5296945522406	116.500196297317
50154	1652420074904	6.10754437350878	1.30763249008264	7.85145482798886	0.0747358763116123	0.0315174188896667	0.219798126035029	-0.00200135681588469	-0.0051446180151864	-0.0145064141433623	0.22216796875	-0.294921875	0.688232421875	0	0	0	-0.316082377596679	0.0982023523462916	-0.816839016426738	-0.472464019592482	-0.353739361526691	0.709774024091486	0.609170993097724	-0.833934156152297	-0.53426809636834	0.138244075480677	0.42358268060586	-0.459106127086025	0.780896457132971	10.0392012983061	-37.5295844780162	116.490888924512
50155	1652420074905	6.1120899828012	1.34255508952766	7.84558948248052	0.039901004019695	0.0189453363353461	0.222820657862959	0.00973762111652391	-0.00805774440341806	-0.0109638999635225	0.220703125	-0.288818359375	0.6904296875	0	0	0	-0.316028580538547	0.0982221930820396	-0.816861716435301	-0.472456636413671	-0.353821325982942	0.70978143741004	0.609114751412088	-0.833945518438441	-0.534274254989669	0.138151701877589	0.42349184355323	-0.459087498809727	0.780956674137891	10.0318716373405	-37.5255212177606	116.49594978339
50156	1652420074906	6.12562536057925	1.32379026874105	7.84038521045017	0.0495391933074372	0.0412834686597954	0.224403273422631	0.00557653795991931	-0.00449033453579794	-0.00980104472580897	0.20947265625	-0.283935546875	0.6953125	0	0	0	-0.316046872581448	0.0981967517858547	-0.816842942880678	-0.47248214668517	-0.353749990790518	0.709817861714637	0.609113739137913	-0.833956966912941	-0.534236038004961	0.138230362200672	0.423528890812747	-0.459075657040996	0.780943544540386	10.0376327514833	-37.5254480866063	116.490163535669
50157	1652420074907	6.12991513587968	1.35843784441447	7.8347529900447	0.0147144707380847	0.0308597168145333	0.227402204401327	-0.000367863014058918	-0.00146220453124441	-0.00985419560244926	0.22216796875	-0.294921875	0.694580078125	0	0	0	-0.315897926643115	0.0981341030791763	-0.816915810032298	-0.472468789524452	-0.35396348573576	0.709933728427307	0.60885462304814	-0.833935167210081	-0.534285881476289	0.138169221411277	0.423393419476595	-0.45883842264615	0.781156395510853	10.0306048624285	-37.5067307535565	116.500231778418
50158	1652420074908	6.07990398209796	1.373791254262	7.88590330906131	0.041794614282152	-0.0358758062010116	0.23902750774951	0.00921767956011926	-0.00498416569625202	-0.00908723558645928	0.2197265625	-0.293701171875	0.690185546875	0	0	0	-0.315925141933156	0.0980954104715646	-0.816900562336897	-0.472484990653241	-0.353898476603846	0.709964896168311	0.608856070402684	-0.833928122073192	-0.534270448103645	0.138271383513042	0.423461634003552	-0.458808167420601	0.781137190277862	10.038112474622	-37.5068352906361	116.495025277617
50159	1652420074909	6.13021962610834	1.36009417600536	7.83422737156889	0.010507282941854	0.0302730885305094	0.227409274798262	-0.00245046100415683	-0.00225545651076787	-0.00605180581430415	0.22216796875	-0.29052734375	0.6923828125	0	0	0	-0.315794562409281	0.0982169557824028	-0.816945441597966	-0.472469437532072	-0.354092849901716	0.709930745427412	0.608782876192622	-0.833996267717314	-0.53425212038993	0.137930769926274	0.423164836774125	-0.458882347182526	0.781254447899137	10.0124134192384	-37.5015489263146	116.508689119293
50160	1652420074910	6.08662326674714	1.38666205675213	7.85360966747659	0.0120390708989024	-0.0235858844674187	0.21967517047919	0.00267752922219417	-0.0038537449336797	-0.00739851282204476	0.222900390625	-0.293701171875	0.685791015625	0	0	0	-0.315799773511437	0.0982060379871918	-0.816933097980893	-0.472489566632242	-0.354048224947602	0.709957841757433	0.608777231291201	-0.834011619972676	-0.534218367053069	0.137968670551346	0.423171917974249	-0.45887972196457	0.781252154305967	10.0151377465677	-37.5011412456039	116.504931657128
50161	1652420074912	6.07851981739849	1.31925396755744	7.86420524319139	0.0733338205612528	0.000485352586668826	0.213736737024092	-0.00230374371803753	-0.00400974187452576	-0.00119244719253516	0.223388671875	-0.28564453125	0.69384765625	0	0	0	-0.315727877699078	0.0983381256795089	-0.816956092852679	-0.472470382809718	-0.354175289222548	0.709878940422281	0.608795330508591	-0.834071291293067	-0.534202700810958	0.137668280613193	0.42294792297024	-0.459020004347542	0.781291040562954	9.99328512478916	-37.5024483979709	116.51568704619
50162	1652420074913	6.1244019512698	1.34938858603063	7.86544550209754	0.0324318385149812	0.0164866056993575	0.246788672249989	0.00364372722418195	-0.00188471433009224	-0.00758190434045303	0.228515625	-0.286376953125	0.68701171875	0	0	0	-0.315726829963597	0.0983193649231866	-0.816946975525536	-0.472490751763375	-0.354138116678438	0.709915658411288	0.608774138952959	-0.834083904056215	-0.534171583958364	0.137712598863557	0.422954176371143	-0.458999430101911	0.781299742644479	9.99632819637346	-37.5009179146313	116.512100935698
50163	1652420074914	6.09208715406361	1.30005211683079	7.85906302090006	0.0830040547040391	0.0221908084771124	0.215330928806045	-0.0033420929124103	-0.00579783323355286	-0.00758698398828829	0.21630859375	-0.290771484375	0.695556640625	0	0	0	-0.315764424648024	0.0983642294559895	-0.816904156569669	-0.472530322275121	-0.354015845314545	0.70990412010327	0.608858704073967	-0.834143817383737	-0.534079145788199	0.137708234883157	0.422938379893236	-0.459124826484639	0.781234612980464	9.99683434604677	-37.5070255113731	116.504570395847
50164	1652420074915	6.1249345736392	1.35013281264294	7.8649030251911	0.0320985453938307	0.0159756839377079	0.24679056564978	-0.00193001976185822	-0.00532983988522147	-0.00792982819439479	0.225830078125	-0.28662109375	0.6962890625	0	0	0	-0.315764922339823	0.0983759272439749	-0.816885774541718	-0.472559331840977	-0.35396038341947	0.709926657563064	0.608864671212642	-0.834181325668271	-0.534019709657795	0.137711530393541	0.422910821422044	-0.459159112485358	0.781229381517228	9.99713434977875	-37.5074564984317	116.500259128307
50165	1652420074916	6.11631632572875	1.32631583506256	7.81659071582703	0.0332141738606129	0.0457001028363289	0.200520805663118	0.00215657281511023	-0.000779885471335475	-0.00552137736210622	0.22509765625	-0.29345703125	0.69091796875	0	0	0	-0.315682363903731	0.0983543880868892	-0.816924860705062	-0.472551406120245	-0.354079627387863	0.709980491778376	0.608732551095312	-0.834175474704673	-0.534043165835665	0.137656000324915	0.422822533541089	-0.459048579475369	0.781342118928412	9.99177160413366	-37.4979144734512	116.506231127276
50166	1652420074917	6.0877333448578	1.38882158020916	7.85236757693378	0.00625214973846259	-0.0240947637695038	0.219679236627114	-0.00103869986393996	-0.00178813220296573	-0.00639477717849119	0.221923828125	-0.291259765625	0.69384765625	0	0	0	-0.315669164466449	0.0983562594478049	-0.81691648567273	-0.472574311900896	-0.354052996672897	0.710011415714709	0.608711972201742	-0.834203568674445	-0.533999131917661	0.137656576748094	0.422789405682973	-0.459051975996158	0.781358049664979	9.9916129875503	-37.4964283272082	116.503513436571
50167	1652420074918	6.11424620049959	1.34869752959037	7.84285538795376	0.0238579637722914	0.0194396435994145	0.222870675819616	-0.00743133299661389	-0.00241311698679702	0.000154846427941603	0.22265625	-0.291259765625	0.69140625	0	0	0	-0.315583439023758	0.0984869037978695	-0.816942088704288	-0.472560098291977	-0.354188093032431	0.709946795875235	0.60870874955149	-0.83427013907257	-0.533974566565174	0.137348088131475	0.422544825794715	-0.459180475726074	0.781414845588495	9.96896139535034	-37.4961955997085	116.514326742765
50168	1652420074919	6.05384984336837	1.31728990095374	7.93136751436949	0.108360958279961	-0.0475722093684229	0.250956909739756	0.00133812520196422	-0.00450297314373494	-0.000478911260559739	0.216552734375	-0.2880859375	0.68994140625	0	0	0	-0.315583561512776	0.0984956058653303	-0.816944645750274	-0.472553782238692	-0.354199877189638	0.709933376273201	0.608717543900436	-0.83426775264256	-0.533983077034257	0.137329495527217	0.422539659558223	-0.45919132689366	0.781411262656267	9.9676837645579	-37.4968306957304	116.515520884061
50169	1652420074920	6.10872464513055	1.33696172105757	7.8740329800747	0.0463834004950832	0.0070097231382116	0.242270526837482	0.000967776778219115	-0.0111188425170164	-0.00389246944321302	0.224853515625	-0.292236328125	0.68994140625	0	0	0	-0.315525851088983	0.0985490437730966	-0.816972831238407	-0.472532449980192	-0.354313042020581	0.709902805203653	0.608687337980762	-0.8342818888457	-0.534002339374252	0.137168624280036	0.422416853591536	-0.459216189508614	0.781463046531962	9.95559458294166	-37.4946493562196	116.523819029782
50170	1652420074921	6.14007482848043	1.33142666844285	7.85844390775838	0.0339118579992039	0.038936574392129	0.248410505158974	0.00706176801953155	-0.010746809393315	-0.0054237644856512	0.225341796875	-0.286376953125	0.689453125	0	0	0	-0.315566677761664	0.0985415475459927	-0.816957011912055	-0.472534100337144	-0.354258391810065	0.709887235714805	0.608737303277317	-0.834272950837132	-0.534002174851614	0.13722361588025	0.422480337215415	-0.459240448809706	0.781414470587415	9.96011265952892	-37.4982576660487	116.520789818082
50171	1652420074921	6.09235874718312	1.3678097677678	7.8238758731228	0.00587209083060805	5.84715194882567E-05	0.197344496225087	0.001116199642264	-0.00772074224169238	-0.0054748891232096	0.21875	-0.291015625	0.689208984375	0	0	0	-0.315585036800703	0.0986201777276824	-0.816934393899661	-0.472544538806928	-0.354215486782494	0.7098296679667	0.608829394327939	-0.83432187763663	-0.533951438777417	0.137123541102229	0.4224196887224	-0.459388401575193	0.781360290184919	9.95367057299668	-37.5049085996761	116.519873654734
50172	1652420074922	6.13719844771583	1.29858589173677	7.86269610650879	0.0643969537332921	0.0506298253771711	0.245483930209502	-0.00163303148527552	-0.010230541411429	-0.00650760182921498	0.218505859375	-0.286376953125	0.6982421875	0	0	0	-0.315603841400514	0.09864582697834	-0.816912370806695	-0.472564698783122	-0.354153641514513	0.709821893019954	0.608874435652851	-0.834353900749933	-0.533903212567554	0.137116475718335	0.422408293603926	-0.459456461266586	0.781326432225997	9.95359064405476	-37.5081617576223	116.516127473813
50173	1652420074923	6.12402849550402	1.36254306433011	7.80797678007507	-0.00895425690471338	0.033230433743851	0.203477847711815	0.00490567867439089	-0.00481460892776796	-0.00634471662119114	0.22314453125	-0.28515625	0.697021484375	0	0	0	-0.315516663500847	0.0986156994796134	-0.816958985398967	-0.472548616594451	-0.354294080015927	0.709875883792158	0.608729771307409	-0.834335469666597	-0.533945497541633	0.137063962117096	0.422326921853067	-0.459323889282193	0.78144835773888	9.94833334820013	-37.4977137237418	116.523461990538
50174	1652420074924	6.13993191197646	1.35524780744476	7.88296408775652	0.0230167542444795	0.0138897615505644	0.270757515409352	-0.00557288910169587	-0.00344682275796536	-0.000346150894965298	0.21875	-0.287841796875	0.691650390625	0	0	0	-0.315494571307558	0.0986508672397799	-0.816960769920813	-0.472552941244357	-0.354313786393535	0.709866803276802	0.608728890703447	-0.834362055552535	-0.533923448228294	0.136987998328895	0.422257860821589	-0.459363552143161	0.781462363736599	9.9427551786292	-37.4976501287185	116.525028195934
50175	1652420074924	6.10713800482413	1.34871269793134	7.81776146292514	0.0115117512059467	0.0249480778126452	0.198945867157727	7.45868890722711E-05	-0.00157295439572555	-0.00171861869937012	0.223876953125	-0.287841796875	0.690185546875	0	0	0	-0.315435960071118	0.0986168005911052	-0.816993038903028	-0.472543390726377	-0.354405797949661	0.709914751258973	0.608619401863409	-0.834343891953362	-0.533954941043985	0.13697587705443	0.422216532527778	-0.459252835461714	0.781549763470372	9.94080334516242	-37.4897435394921	116.529426737584
50176	1652420074925	6.17298248205114	1.32670899128087	7.84148256080827	0.0159945881519869	0.0725087806727661	0.254546858990858	-0.00423559130746756	-0.00140547376500448	0.00102933800304575	0.217529296875	-0.289794921875	0.69677734375	0	0	0	-0.315407708002739	0.0986433391330834	-0.817002219763766	-0.472540836624956	-0.354446270908491	0.709908085891827	0.608603607140532	-0.834359563914638	-0.533949298732924	0.13690239036187	0.422151583134826	-0.459269698508426	0.781574938754269	9.93526281016233	-37.4886030139131	116.532256489188
50177	1652420074926	6.14235806166064	1.33269482228043	7.85644438184804	0.0262059767237091	0.0413481458173413	0.248423905703515	-0.00200731749548442	0.00278640587630032	-0.00435664427760681	0.216796875	-0.288818359375	0.6962890625	0	0	0	-0.315309211418353	0.0986445205699161	-0.817041154621259	-0.472539005174629	-0.354573979566617	0.709960576799637	0.608467971552012	-0.834374680766203	-0.533952294300207	0.136798536205041	0.422014437087866	-0.45918506813906	0.781698719512536	9.92633513658017	-37.4788095823161	116.53881297641
50178	1652420074928	6.10751263208793	1.3048439033449	7.87687846015802	0.0696866465362775	0.022347898802449	0.23938639279681	-0.00289834294521707	0.0006358377628244	0.00240483000152521	0.214599609375	-0.27978515625	0.700927734375	0	0	0	-0.315274607112593	0.0986628437996751	-0.817057734530004	-0.472529600986075	-0.354635396603882	0.70995615192899	0.608437340910129	-0.834379709191205	-0.533962838890604	0.13672668932541	0.421952884058881	-0.459179647874411	0.781735130726722	9.92077249371216	-37.4765981052083	116.542922631186
50179	1652420074929	6.14279585108262	1.2890322786237	7.91547593900754	0.0852199865945198	0.0413760875510023	0.288863508446287	-0.00200586766486111	-0.00375802176595406	-0.00621196798951416	0.220458984375	-0.282470703125	0.685546875	0	0	0	-0.315159245368941	0.0985372818061249	-0.817117448466328	-0.472529501263804	-0.354781040987721	0.710114330046041	0.608167782128363	-0.834334071544941	-0.534012549059283	0.136811017489269	0.421920691617407	-0.458877146642182	0.78193010830548	9.92434353472047	-37.4571392681886	116.547225087086
50180	1652420074930	6.10775428995932	1.30499908295098	7.87666537058395	0.0677418025565375	0.0259133833814331	0.239391128238193	-0.000668653857878831	-0.00171662315029137	-0.00483638295099694	0.227783203125	-0.28857421875	0.698486328125	0	0	0	-0.3151422568584	0.0985391840548622	-0.817115054734803	-0.472544574060201	-0.354773966936914	0.710138849291602	0.608143278439091	-0.83435429269974	-0.53398330946413	0.136801825526023	0.421886651409312	-0.45887322861607	0.781950774295993	9.92343294343406	-37.4553706535149	116.545977389596
50181	1652420074930	6.0400172609533	1.34959443245416	7.87904517809784	0.056430166743794	-0.0469829876946281	0.2061536233269	0.00854733617041765	-0.00530581997842634	-0.00563288850234971	0.214599609375	-0.288330078125	0.688720703125	0	0	0	-0.315192186705084	0.0985031749017922	-0.81709383569731	-0.472555471494927	-0.354690423600551	0.710149463377703	0.608179614152287	-0.83433918775646	-0.53397690178895	0.136918910782139	0.421986757114432	-0.458864258817613	0.78190201994867	9.93236406601362	-37.4579932888966	116.540240628089
50182	1652420074931	6.07748558692426	1.35571323770696	7.83179289271112	0.0184358740523339	-0.00214940512347239	0.192832353264404	-0.00445600334339763	-0.011168539703012	-0.00582217037266032	0.218505859375	-0.28955078125	0.699951171875	0	0	0	-0.315205687467562	0.0985410931575456	-0.817072232794313	-0.47257591341914	-0.354634761288335	0.710135887459318	0.608227923913669	-0.834378739509435	-0.533923318030763	0.136886849323326	0.421955335480679	-0.458947613356238	0.781870055094835	9.93048245162659	-37.4614803283429	116.53708404397
50183	1652420074932	6.11961717709069	1.35216473533152	7.83806790343488	0.00714555690696002	0.0279386417302954	0.222876429134967	0.00713537246569097	-0.00577435030471864	-0.00529054922320105	0.22900390625	-0.29150390625	0.691650390625	0	0	0	-0.315104890488419	0.0984961611137042	-0.817137998482584	-0.472538787478892	-0.35483200463652	0.710185553889251	0.608054872139552	-0.834332042134305	-0.534011201147684	0.136828653858793	0.421881845963571	-0.458768477661474	0.782014828472289	9.9245435293565	-37.4489900567358	116.548218002177
50184	1652420074933	6.07437476384698	1.32280615847855	7.8362552304533	0.047152954982126	0.0122724290176042	0.189930640011878	-0.00215337854073515	-0.00715763422076863	-0.00462979106949168	0.228271484375	-0.292236328125	0.705078125	0	0	0	-0.315105853901452	0.0985167560495287	-0.817127254889349	-0.472552429822884	-0.35480500381105	0.710184526467755	0.608071827695061	-0.834357352622106	-0.533977299691931	0.136806620962382	0.421854497897169	-0.458809526687802	0.782005499229029	9.92309321958053	-37.4502137572438	116.54650792278
50185	1652420074935	6.11019470961917	1.30724243924987	7.87440031504365	0.0635532823800793	0.0267291884525928	0.239416346176938	-0.00126054007778321	-0.0101598260007504	-0.00494999068141577	0.22509765625	-0.287109375	0.693115234375	0	0	0	-0.315152026904976	0.0986052881674039	-0.817093223521499	-0.472562018319665	-0.354728677558661	0.710103132866268	0.608211399113002	-0.834405758584294	-0.533924271974136	0.136718330293557	0.42182294313948	-0.458997181353438	0.781912394166218	9.91797372648585	-37.460287535953	116.544205152256
50186	1652420074934	6.08275510085015	1.29195709144012	7.86205136582356	0.0815629504193672	0.0206276880460964	0.210976444293728	0.00944190013502385	-0.0148526524324479	-0.00781111532835887	0.220458984375	-0.279296875	0.693603515625	0	0	0	-0.315213768158036	0.0985921316333224	-0.817068262113759	-0.472566743423627	-0.3546419067472	0.710083380918057	0.608285056632737	-0.834393770209548	-0.533920529179971	0.136806084498007	0.421919606340126	-0.459032091104926	0.781839743887219	9.92511700731122	-37.46560442623	116.539238909805
50187	1652420074934	6.12937620513383	1.32262105747555	7.86255520370621	0.0415463144150936	0.037516787401143	0.243913442660535	-0.00155821114432315	-0.0118058933513104	-0.00822765747488971	0.21875	-0.2939453125	0.694580078125	0	0	0	-0.315260940660312	0.098555073764974	-0.81703174144444	-0.472606147020351	-0.354507938185108	0.710127316110784	0.608311858076956	-0.834409577158753	-0.533860654467518	0.136943269850199	0.422000923351473	-0.459033764035727	0.781794873458311	9.93543028139988	-37.4675391540021	116.52916987157
50188	1652420074936	6.10601555192805	1.34112296853596	7.84482840330686	0.0275722313295769	0.0187736164943093	0.21837721472345	0.00750942092780701	-0.0122474532930494	-0.00558994476541113	0.21484375	-0.284423828125	0.689208984375	0	0	0	-0.31530667310695	0.0985464227386823	-0.817015186607389	-0.472606061442856	-0.354450425163396	0.710107969562387	0.608367954173682	-0.834397348363687	-0.53386422650576	0.137003841920781	0.422073407294436	-0.459059537774122	0.781740608919272	9.94041345296907	-37.4715887499681	116.526078878795
50189	1652420074936	6.12007244498288	1.32157894864944	7.83935496728823	0.0346577712315571	0.0421203295972299	0.21997771679451	-0.00408366669999382	-0.0110989231925792	-0.00426253924376905	0.21728515625	-0.29248046875	0.68359375	0	0	0	-0.315204822747839	0.098586300787071	-0.817065401439486	-0.472578872553732	-0.354630257864694	0.710105937499961	0.608265515818645	-0.834405447359777	-0.53389990102593	0.136815368657301	0.421906304317857	-0.45902119037339	0.781853322027249	9.92560821789556	-37.4641938563527	116.537759118364
50190	1652420074937	6.14494131830399	1.38224124811398	7.90292983420626	0.00252919545892403	-0.00236941962153334	0.293112081672552	0.00832825008116454	-0.013676537069244	-0.00419269222946685	0.21923828125	-0.289794921875	0.692138671875	0	0	0	-0.315256675967933	0.098579810681517	-0.817050812906621	-0.472570860625448	-0.354580019890746	0.710072924794	0.608333338695794	-0.834384698526013	-0.53391760522744	0.13687280845314	0.421989554799561	-0.459051666267197	0.781790498367292	9.93047446051022	-37.4690898211342	116.535579327547
50191	1652420074937	6.13099358183303	1.26879065714257	7.83844031616586	0.0729098582586675	0.0770310380407174	0.218703812273734	0.00096985210565627	-0.0111215227879161	-0.00389544818601303	0.213623046875	-0.294189453125	0.6943359375	0	0	0	-0.31518313603281	0.0986673134517427	-0.817091440483606	-0.472531406263293	-0.354747321710716	0.710006188279531	0.608313694029524	-0.834399281390141	-0.533957662702101	0.136627426446253	0.421820076519231	-0.459108295553981	0.781848704033478	9.91230148194862	-37.467671688559	116.548536625492
50192	1652420074938	6.12273839701042	1.32330455234028	7.83698179532115	0.0303769574834008	0.0423613889243783	0.219990576602306	0.0089205425355006	-0.0117791656245917	-0.00593623874107671	0.224365234375	-0.28564453125	0.68603515625	0	0	0	-0.315228643185098	0.098651741101955	-0.817076332565821	-0.472530425744231	-0.354691798523317	0.70999114559489	0.608363625833392	-0.834382563576557	-0.533965661447058	0.136698244300424	0.421899828940126	-0.459122255583697	0.781797472986471	9.91797430353341	-37.4712762778254	116.545436326945
50193	1652420074938	6.13649247497796	1.3041239766349	7.83168126255353	0.03781036487018	0.0648237798804713	0.221597807399126	0.00126092941614767	-0.00432420883976009	-0.00705995581575604	0.2265625	-0.292236328125	0.696533203125	0	0	0	-0.315146497107968	0.0986844251485026	-0.817112560198148	-0.472515749536579	-0.354823103600926	0.709997005866233	0.608280212412003	-0.83439720948489	-0.53398050134599	0.136550800020047	0.421760431945478	-0.459095933159149	0.781888139187374	9.90636265561851	-37.4652547396563	116.553726470722
50194	1652420074939	6.12553453542348	1.30269833832236	7.8098333515099	0.0337956198604146	0.0683047464096424	0.197651570034328	0.00422913648075183	1.26531425392691E-05	-0.00933063998116991	0.224365234375	-0.287109375	0.690185546875	0	0	0	-0.315133749514102	0.0986550554189939	-0.817105992376272	-0.472541741204146	-0.354790045473874	0.710054301726232	0.608232613588518	-0.834412451817068	-0.533942965720059	0.136604427493024	0.421758086923386	-0.459050975337316	0.781915799914917	9.90983242700356	-37.4618188417	116.549743105501
50195	1652420074939	6.04690334974094	1.3799374019373	7.89708238938464	0.0340299874052004	-0.0692506924820909	0.228588646066512	0.00229985901557787	-0.00392793544524672	-0.0089630405157962	0.225341796875	-0.289306640625	0.684326171875	0	0	0	-0.31514593576041	0.0986923623896569	-0.817084919197803	-0.472562262140307	-0.354735895149063	0.710042001758299	0.608278554966276	-0.834451989349075	-0.53388945201357	0.13657207071734	0.421725410858967	-0.459132234511713	0.781885713559288	9.90790533356208	-37.4651350950881	116.546643276086
50196	1652420074940	6.11335217625062	1.28057018457576	7.8730016872065	0.0833738691576942	0.0420628521000738	0.236609621181119	-0.000295241881537781	-0.00819260123766282	-0.00513360837937356	0.2236328125	-0.2890625	0.6875	0	0	0	-0.315154106836584	0.0987077791431331	-0.817072962486006	-0.472574266391016	-0.354702903378056	0.710038987722163	0.608301312056504	-0.83447163561687	-0.533860674163248	0.136564526627041	0.421714286793894	-0.459170356726618	0.781869326561331	9.907572408078	-37.4667778577594	116.544610008303
50197	1652420074941	6.07215261919574	1.36336710025286	7.91302536574506	0.0458145194468113	-0.0516331642231566	0.254139971368646	0.0073566183834801	-0.0104955550345624	-0.0104536817849303	0.217529296875	-0.287353515625	0.691162109375	0	0	0	-0.315209928476944	0.0987809365947721	-0.817034006314575	-0.472589102794991	-0.354604481817971	0.709969272076557	0.60844004978444	-0.834516199912251	-0.53380373296977	0.136514785834919	0.421708872990151	-0.45934432332905	0.78177005511004	9.90526798437836	-37.4767936784108	116.540502624875
50198	1652420074942	6.0842999614654	1.28855398339439	7.88647067590162	0.0937651917802648	0.00893484752267103	0.230550418901403	0.00758479998498683	-0.0138220780348852	-0.00731288428290626	0.218017578125	-0.28369140625	0.697265625	0	0	0	-0.315260925472434	0.0987747389778854	-0.817011695666276	-0.472594952316073	-0.354529119831267	0.709951575463222	0.608504612709678	-0.834510837957087	-0.533795123970439	0.1365812101189	0.421782840480533	-0.459381678044164	0.78170819962023	9.91076070129611	-37.4814550937987	116.536205687968
50199	1652420074943	6.11373284477671	1.30573659329592	7.89692650244298	0.0737555162963732	0.0172348159584901	0.258975274452487	0.0098899684077147	-0.0163556316612987	-0.00797863916574571	0.227294921875	-0.287353515625	0.69287109375	0	0	0	-0.315255119283318	0.098693661605254	-0.817032182878396	-0.47258034561921	-0.354564053400179	0.709999338609636	0.608428525966949	-0.834454066857124	-0.533854756186752	0.136694950903066	0.421865787119604	-0.459238542013476	0.781747541849218	9.91836097846628	-37.4759616943331	116.536921485872
50200	1652420074944	6.0906456376741	1.32510769235102	7.87883714627172	0.0597643908795798	-0.00150980751737109	0.233425064798848	0.0159817916813637	-0.0159803493213349	-0.0095183753723894	0.219970703125	-0.288818359375	0.694091796875	0	0	0	-0.315335326418635	0.0986540578585403	-0.81700582943818	-0.472580663426391	-0.354462296935851	0.709984094723557	0.608505600048622	-0.834420532872939	-0.533869786847033	0.136840874785074	0.422017599598644	-0.45924463625771	0.781662017560993	9.92980310390438	-37.4815263815026	116.530840245484
50201	1652420074945	6.10099064854162	1.35115352659243	7.92546905003689	0.0557779843698679	-0.0302393485236249	0.279722461368403	0.0118259974842208	-0.0255107667769176	-0.0120594030996802	0.220703125	-0.285400390625	0.697509765625	0	0	0	-0.315438001847655	0.0986631217116019	-0.81696116840647	-0.472587457218678	-0.354319924539886	0.709927006509709	0.60865510472041	-0.834415398384747	-0.533853367387411	0.136936208022368	0.422147289476639	-0.459351964790928	0.781528910808961	9.93824170979283	-37.4923216812923	116.523483282407
50202	1652420074947	6.0728657421497	1.2809830148638	7.8911119382898	0.112326813799991	0.00183273815619725	0.22611941731186	0.0176304517649068	-0.0319336144281467	-0.0104358153019665	0.21240234375	-0.288330078125	0.69384765625	0	0	0	-0.315587711017783	0.0986530221191015	-0.816908287310771	-0.472581027977539	-0.354143137300497	0.709843353490282	0.608855526219998	-0.834378079232498	-0.53386950644492	0.137100587105031	0.422369339795455	-0.459462472454418	0.781343955762649	9.95224157116218	-37.506795986311	116.514756597754
50203	1652420074947	6.08339024758821	1.35076506349793	7.87800510768363	0.0460257089849079	-0.0212283716999235	0.231843358224751	0.016882965720867	-0.0320821635922474	-0.0135555123142912	0.21728515625	-0.2958984375	0.699951171875	0	0	0	-0.315624754206567	0.0985767758779647	-0.816917708233954	-0.472555913901555	-0.35414384553742	0.709852047079804	0.608844978565628	-0.834305129707637	-0.533947054988343	0.137242460677438	0.422512824907706	-0.459358916018714	0.7813272675791	9.96254259046852	-37.5060341718997	116.514522058151
50204	1652420074948	6.1095950976303	1.37844571843588	7.83347454875877	-0.00202418319921044	0.00138062641011124	0.216798201125309	0.0188296409488523	-0.0398402740907914	-0.00933907741603323	0.23046875	-0.29345703125	0.692138671875	0	0	0	-0.31580819636765	0.0985815312511999	-0.816856071706617	-0.472538911539795	-0.353944320375594	0.709726846858631	0.609106904345998	-0.834258269177041	-0.533977317553908	0.137409478012474	0.422772466444525	-0.459517167455187	0.781093729606361	9.97734550803142	-37.5249543129478	116.505661568386
50205	1652420074949	6.1583286201022	1.33233596863323	7.78476507095545	-0.000545830109659369	0.0801504181786191	0.202115274230682	0.0189714403301979	-0.0364440107815036	-0.0109257200786841	0.2265625	-0.289306640625	0.694580078125	0	0	0	-0.315904757004548	0.0986647363596655	-0.816839931785446	-0.472484899379573	-0.353924408720347	0.709551746828491	0.609322436387002	-0.834226385086962	-0.534046579314706	0.137333861618328	0.422852044262167	-0.45970704768896	0.780938908601952	9.97390246130768	-37.5405268136906	116.510020663122
50206	1652420074950	6.15370206977476	1.44408632634445	7.80250910212209	-0.0816637660718887	0.00731116356327893	0.22852068775053	0.0156295387627037	-0.0343080859185756	-0.008356262420355	0.21728515625	-0.288330078125	0.687255859375	0	0	0	-0.316056989005166	0.0986717358849658	-0.816787875206741	-0.472471623649181	-0.35375708909459	0.709446403664357	0.609542223511245	-0.834189970639218	-0.534068906767508	0.137468162529001	0.423063842463833	-0.459843672514768	0.780743736476872	9.9859054241014	-37.5564101004531	116.502597603379
50207	1652420074951	6.15209375286689	1.3334651980852	7.75871668262871	-0.00650328993498424	0.0837032860871067	0.178159569050665	0.00826598115270389	-0.0252066385960871	-0.00619418457498212	0.22509765625	-0.278564453125	0.694091796875	0	0	0	-0.316104039759584	0.0987224227072643	-0.816780990268358	-0.47244146011831	-0.353754605617902	0.709349294013285	0.609656672305796	-0.834175520543763	-0.534105900032176	0.137412111825566	0.423094410184849	-0.459950504547689	0.780664238604959	9.98291176431475	-37.5646822759097	116.505569245704
50208	1652420074952	6.16880833915004	1.37044475645041	7.77344259347242	-0.0356977292198702	0.067984035074492	0.204938526368496	0.00565414675562398	-0.0177731281328806	-0.00695022296037072	0.223876953125	-0.287353515625	0.696533203125	0	0	0	-0.316164100683021	0.0987335127945036	-0.816753603775722	-0.472446299181108	-0.353669511658744	0.709312450333446	0.609748902684562	-0.834176419453245	-0.534092375682666	0.137459213826538	0.423163771784907	-0.460023023379927	0.780583909781109	9.98727181120316	-37.5713492083227	116.501253090442
50209	1652420074953	6.17895943332122	1.3172362934749	7.77331357955882	0.00674633806387369	0.104070388347819	0.203708142602583	0.00230930734236204	-0.00908443851902192	-0.00252269649053902	0.22705078125	-0.290771484375	0.69287109375	0	0	0	-0.316200520755989	0.098678661709603	-0.816736187360011	-0.472463493461109	-0.353590956040331	0.709351576192275	0.609748946009766	-0.834160553072597	-0.534081538139452	0.137597537464214	0.423260685044221	-0.459975273218172	0.780559504793686	9.99742551254062	-37.5713523402532	116.494909018469
50210	1652420074954	6.10532463476551	1.34982428588153	7.80754292142262	0.0202821633204893	0.0184990271772638	0.190011640154074	0.00468295220314059	-0.00664368479826339	-0.00305607620432734	0.217529296875	-0.286376953125	0.6875	0	0	0	-0.316211163310374	0.0986728651814635	-0.816735144146311	-0.472459384699983	-0.353585260013628	0.709345444360039	0.609759382434378	-0.834151290304832	-0.534091590971589	0.137614669771146	0.423283697753504	-0.459973056840394	0.780548331749562	9.99878541370448	-37.5721067815543	116.494738250641
50211	1652420074955	6.17598147622296	1.3622053968695	7.82496043096431	-0.00889128488440168	0.0532516645681807	0.248398144483033	-0.00288529831396989	-0.0124647835542405	-0.00129542272402805	0.227294921875	-0.29296875	0.69091796875	0	0	0	-0.316181867487899	0.0987519977907386	-0.816752601054645	-0.472432279035498	-0.35367353679438	0.70927340328956	0.609791988105288	-0.834167767608106	-0.534111569315327	0.137437138384159	0.423177462602939	-0.460060942603872	0.780554139208405	9.98607336865557	-37.5744638702682	116.502773075626
50212	1652420074956	6.12013942142281	1.33036432047648	7.80145755212691	0.0277363511699754	0.0408883744636055	0.191625427543784	0.00781080528168471	-0.0106052485442215	-0.00232799083791706	0.226806640625	-0.283447265625	0.6962890625	0	0	0	-0.316215363566176	0.098744173884615	-0.816748691760601	-0.472418253749686	-0.353657674737617	0.709245131737836	0.609834069403605	-0.834142831117697	-0.534141163295885	0.137473470051028	0.423239868625504	-0.460070169407991	0.780514863937112	9.9891525452288	-37.5775060695688	116.502658905565
50213	1652420074956	6.16038419988126	1.34901352491491	7.83378468244235	0.0119786729772451	0.0433664953976949	0.243968603496086	-0.00229758920952755	-0.0105681378535956	-0.00303994833387152	0.22265625	-0.29248046875	0.693115234375	0	0	0	-0.316245426001446	0.098810488581409	-0.816727345872939	-0.472421168432164	-0.353614140300705	0.709181843945911	0.609932907783201	-0.834175304165266	-0.534109453926984	0.137399611158857	0.423212241907272	-0.460204523492867	0.780450635758934	9.98469889152781	-37.5846519189981	116.501883970626
50214	1652420074957	6.1591214565385	1.29322346048171	7.81235268910919	0.0499257518059122	0.0817518435888846	0.218807171464414	0.00327216897734113	-0.00711362622200275	-0.00271003037704917	0.22900390625	-0.279052734375	0.68994140625	0	0	0	-0.316254316114349	0.0988125167734557	-0.816725684794808	-0.472417664640509	-0.353609515349306	0.709171511493914	0.609947602618345	-0.834171051156821	-0.534115273329007	0.137402810046246	0.423224488972877	-0.460213691758642	0.780438588135882	9.9850777089326	-37.5857143895573	116.501918073083
50215	1652420074958	6.18489157207853	1.37532069444499	7.79064511240936	-0.0362683745660916	0.0658276464157173	0.228870948970849	0.00564555140688565	-0.00467262218362834	-0.00324393529470774	0.218994140625	-0.294189453125	0.6875	0	0	0	-0.31628390001712	0.0988060573703333	-0.816714014940445	-0.472419385098399	-0.353568838346423	0.709161535138012	0.609982781421788	-0.834164595819629	-0.534114575220362	0.137444707494501	0.423271193954228	-0.460229874755944	0.780403715233783	9.9884984362298	-37.5882579599984	116.499607852771
50216	1652420074959	6.12125258820729	1.23214582359725	7.83775559078715	0.12518295643235	0.0754033455107891	0.207141618770468	-0.0113750024921568	-0.00358524993357248	-0.00380156668802826	0.2236328125	-0.287841796875	0.69677734375	0	0	0	-0.316244536728757	0.0988577797552861	-0.816708023370018	-0.472445274009708	-0.353569712110212	0.709173226252462	0.609968682675575	-0.834226157295437	-0.534045204895495	0.137340589820405	0.423149119297665	-0.460292357415158	0.780433064742138	9.98071630853433	-37.5872385529187	116.499287218289
50217	1652420074960	6.149593706669	1.3269009123881	7.89616047886363	0.0586157006865065	0.0181160360497455	0.283042173580014	0.0134286984334608	-0.00357897895003847	-0.0101646965777295	0.22314453125	-0.278076171875	0.692138671875	0	0	0	-0.316183964251037	0.0988457633246505	-0.816748973831268	-0.47241753732142	-0.353698742363326	0.709186187059515	0.609878800856849	-0.834199968249146	-0.534102371007863	0.137277347938045	0.4230929125189	-0.460206050989951	0.780514431646532	9.97519367900367	-37.5807399938151	116.50721768568
50218	1652420074962	6.09731953105136	1.32943724323	7.86745279172487	0.0632726048622547	-0.00692290845882761	0.22909887699679	-0.00528159006488452	-0.00976037790597491	-0.00720641040224456	0.224609375	-0.288818359375	0.69677734375	0	0	0	-0.316185260943504	0.0988821324317236	-0.816728443583783	-0.472444551338096	-0.353646053346067	0.709187660496854	0.60990764149316	-0.834247951879153	-0.534036939593401	0.137240307253931	0.423042342724921	-0.460279707730759	0.780498409295687	9.97275678405632	-37.5828251432567	116.503761176293
50219	1652420074963	6.13045120314258	1.38019686373322	7.8725860943256	0.0127784093708154	-0.0121815524337753	0.26028018114657	0.0128456674423131	-0.0120273079820702	-0.0102759683914321	0.224609375	-0.284423828125	0.685546875	0	0	0	-0.316250263710465	0.0987884511735128	-0.816700968878589	-0.472468136545285	-0.353519261304974	0.709246622291248	0.60991258443718	-0.834214117231936	-0.534029403728328	0.137475097979631	0.423215002684602	-0.460197593129323	0.7804532252356	9.99004149314819	-37.5831825190764	116.493655108156
50220	1652420074964	6.13159999051543	1.30304489073829	7.82442564008574	0.0573003191223427	0.0517007445809208	0.212786420562805	0.00186724098525376	-0.0141354612773079	-0.00421773478124179	0.2197265625	-0.29052734375	0.684814453125	0	0	0	-0.316284965251102	0.0988100825572985	-0.816684181082047	-0.472469402936821	-0.353472968089267	0.709212287791374	0.60997933708929	-0.834220861903749	-0.534018461747088	0.137476674668249	0.42324037424935	-0.460263200092076	0.780400776682258	9.99081164328999	-37.5880089169239	116.491766854313
