// Start Time : 13/05/2022 05:33:58																																
// Update Rate : 100Hz																																
// Filter Profile : 46.1 human																																
// Firmware Version : 4.4.0																																
PacketCounter	Time_Of_Arrival	Acc_X	Acc_Y	Acc_Z	FreeAcc_X	FreeAcc_Y	FreeAcc_Z	Gyr_X	Gyr_Y	Gyr_Z	Mag_X	Mag_Y	Mag_Z	VelInc_X	VelInc_Y	VelInc_Z	OriInc_q0	OriInc_q1	OriInc_q2	OriInc_q3	Mat[1][1]	Mat[2][1]	Mat[3][1]	Mat[1][2]	Mat[2][2]	Mat[3][2]	Mat[1][3]	Mat[2][3]	Mat[3][3]	Euler_X	Euler_Y	Euler_Z
49996	1652420074782	9.65215966384531	-1.16237440281937	1.11869693534638	1.73472347597681E-16	0	-0.0266369450716937	-0.0153322829364294	0.0269925332031615	7.53104275662275E-05	0.692138671875	0.313232421875	-0.05126953125	0	0	0	-0.42940508894795	-0.508444236474254	-0.409963293657002	0.623719348614117	0.14682911250003	-0.0747469917742881	0.986333665117007	0.948061162127486	0.295082734879012	-0.118769577088594	-0.282172366804289	0.952543472392214	0.114191455963432	-46.1258245880592	-80.5166996703522	-26.9794948225947
49997	1652420074783	9.63708435012366	-1.26220473682093	1.0141154302751	-0.0744313891267932	-0.105151205336092	-0.0413830081886388	-0.0312927452166608	0.0149570062710661	-0.00173724228001464	0.693115234375	0.31494140625	-0.06298828125	0	0	0	-0.429857632996343	-0.509169230043302	-0.409444317547382	0.623156851330427	0.14620409201054	-0.0725555033939559	0.986590118745684	0.948036623477892	0.29515553236588	-0.118784562374291	-0.282579058006802	0.952690354019113	0.111938221063786	-46.6996647888029	-80.6063015709724	-26.3934478510566
49998	1652420074783	9.69578730525964	-1.25181694446335	1.01874021959339	-0.0572523808349011	-0.102073621678069	0.015815670462695	-0.00124149755660393	-0.00765126033529303	-0.00141836032467373	0.68798828125	0.308837890625	-0.059326171875	0	0	0	-0.42987355379939	-0.509193576169042	-0.409435452432839	0.623131799881198	0.146169024558597	-0.0724867965000813	0.98660036518985	0.948042205138508	0.295142676069999	-0.118771958131348	-0.282578473234787	0.952699567070016	0.111861259464129	-46.716298431024	-80.6098991606891	-26.3773091998425
49999	1652420074784	9.72252089578051	-1.18254432296643	1.03958441133732	0.00636394691156074	-0.0633555916172285	0.0362976081984261	0.0135966677362541	0.00292284374639868	0.00372282285069742	0.694580078125	0.306396484375	-0.05517578125	0	0	0	-0.429836142223203	-0.509213078932502	-0.40938867336714	0.623172404075669	0.146205908725548	-0.0724830767312062	0.986595173230294	0.947995818402991	0.295283609914734	-0.118791910524941	-0.282714981110268	0.952656177906437	0.111885862165511	-46.7148131194322	-80.6080760609991	-26.3703856116788
50000	1652420074785	9.73889953123258	-1.13816446524937	0.985733224501622	0.0669583904087759	-0.104212481133813	0.0411397128416748	0.0112835319965	0.0282141272398073	0.00758015043991476	0.6904296875	0.310302734375	-0.056884765625	0	0	0	-0.429762525864995	-0.509131967017697	-0.40939695827985	0.623283997928743	0.146357541423795	-0.0727294655047858	0.986554557495819	0.947952826081341	0.295396603826692	-0.118854053242014	-0.28278067400864	0.952602367882342	0.11217762304566	-46.6552918034554	-80.5938263756658	-26.4241639190144
50001	1652420074788	9.67303802533286	-1.04738854329584	0.968599151220851	0.150152076590847	-0.0920979050294382	-0.0366021373657048	0.00809428789625077	0.0442067049966367	0.0130613911779705	0.6943359375	0.306396484375	-0.047607421875	0	0	0	-0.42968119228776	-0.50898405797313	-0.40942976333425	0.623439307887652	0.146604995250531	-0.0731074627927063	0.986489875392345	0.947910970334134	0.295482683780457	-0.118973845470755	-0.28279279992212	0.952546735058134	0.112618603446749	-46.5718871153742	-80.5711772664289	-26.504040332852
50002	1652420074786	9.68393947062459	-1.07546759967864	1.01809091517577	0.113241910978066	-0.0569823043275942	-0.0169866710191027	-0.0104037839385437	0.026249607716838	0.0100880586267765	0.69873046875	0.311279296875	-0.04833984375	0	0	0	-0.429685554556489	-0.508859255736681	-0.409481183872542	0.623504404243414	0.146774835810905	-0.0733277002138379	0.986448273329135	0.947925586183511	0.295390968519648	-0.119085090484376	-0.282655675038251	0.952558252338603	0.112865164113186	-46.5360627470092	-80.5566383188106	-26.5463987780283
50003	1652420074786	9.79035785245577	-1.1544369543803	0.999661770654921	0.0605293157405807	-0.10697439357733	0.09529163186839	-0.0174373885742998	0.0131004281301127	0.00656885081689679	0.6904296875	0.3056640625	-0.051513671875	0	0	0	-0.429730584743885	-0.508774685263784	-0.409533178122061	0.623508235861934	0.146861791303964	-0.0734225328330496	0.986428277132895	0.947966704838219	0.295228401105846	-0.119160889970897	-0.282472548707235	0.952601345187412	0.112959888340832	-46.5302668767172	-80.5496580033274	-26.5624410215612
50004	1652420074788	9.81209857100382	-1.16075719599107	0.992917683023931	0.060743315872747	-0.118707683522507	0.116700287818897	-0.000329909331222501	0.0313180356931015	0.0019904179288179	0.69482421875	0.303955078125	-0.045654296875	0	0	0	-0.429672542465418	-0.508672091488418	-0.409595098701621	0.623591264139991	0.146969116920816	-0.0737149891077162	0.98639048000899	0.947964712431837	0.295226722741826	-0.11918089680459	-0.282423410246992	0.952579278884425	0.113268419184205	-46.4570358507778	-80.5364776377837	-26.6368726426434
50005	1652420074790	9.76230391861888	-1.02113175640063	1.05247951386412	0.170324995498562	-0.0210227417865805	0.0576492889766182	0.00816045619997592	0.058381595508633	0.00383675984298425	0.698486328125	0.304443359375	-0.040283203125	0	0	0	-0.429540762031427	-0.508509472845766	-0.409685881661372	0.623755022542445	0.14715118878693	-0.0742361597692827	0.986324247000601	0.947938345634761	0.295304424241611	-0.119198111975669	-0.28241710379123	0.952514718839578	0.113825699559165	-46.3207321321548	-80.5134250552056	-26.7704432442335
50006	1652420074791	9.65757035547755	-0.969061637952015	1.10124305661563	0.192726980829896	0.0436335057529109	-0.0463455594339273	-0.0277777425031159	0.0535267880669207	0.00741108406971795	0.688720703125	0.30615234375	-0.047607421875	0	0	0	-0.429536571953612	-0.508269693876278	-0.409848335143836	0.623846610811568	0.147372520933482	-0.0747241457814352	0.986254349603055	0.948005833523548	0.295045351068331	-0.119302893587242	-0.282074954008742	0.95255684494428	0.114320503282509	-46.2217383725604	-80.4891571160551	-26.8869498602122
50007	1652420074791	9.65105242982544	-0.993881291015244	1.10513429873129	0.168802303019229	0.0378529895607452	-0.0493883617287292	-0.0440109759981328	0.0227186742620992	0.00853346540365172	0.6904296875	0.311279296875	-0.04345703125	0	0	0	-0.429646192048429	-0.508109270474585	-0.409986842426882	0.623810794995489	0.14747151658924	-0.0748940098161857	0.986226667195997	0.948122862631829	0.294629877390238	-0.119399634437627	-0.281629524641319	0.952672096076434	0.114458237832138	-46.2104747365938	-80.4795629014986	-26.9239230489941
50008	1652420074792	9.65472638712851	-1.07211422624246	1.09914022992231	0.0986055944825443	0.0081434099556077	-0.0371316156800852	-0.0497422982881013	0.0108983268680523	0.011033434633313	0.692626953125	0.304931640625	-0.05419921875	0	0	0	-0.42980701648759	-0.507949590128911	-0.410102199385656	0.623754221248206	0.147606799893839	-0.0749653603011504	0.986201007594304	0.948246551738755	0.294164229274169	-0.119565393534646	-0.281141796502514	0.952810369890281	0.114506284931817	-46.2381696466576	-80.4706783012923	-26.9247396351086
50009	1652420074792	9.70844353732572	-1.13840440469363	1.07504227556764	0.0516175892204285	-0.0388710564407854	0.0209986500373649	-0.0402872203351329	0.0237745969721947	0.0109836568201744	0.696533203125	0.306396484375	-0.04638671875	0	0	0	-0.429902791435093	-0.507794466114789	-0.410232027318812	0.62372915104347	0.147708927890188	-0.0751428313447275	0.986172209869568	0.94835186517689	0.293786547356424	-0.119658699674971	-0.28073263514783	0.952912912857145	0.114656740199022	-46.2229140605187	-80.4607168942674	-26.9634573075373
50010	1652420074793	9.69805543105793	-1.16412809526913	1.0015194503383	0.0485244036657575	-0.118259749058822	0.00536605709714344	-0.0235266896579132	0.0466882269457054	0.00969308591515803	0.68896484375	0.313232421875	-0.0498046875	0	0	0	-0.429904993036615	-0.507579752097752	-0.41036187420883	0.623816979905475	0.147931854912401	-0.0755592704923839	0.986106973378058	0.948403549656828	0.293569658316008	-0.119781312042197	-0.280440498681101	0.952946825567345	0.115088984445144	-46.1445244916492	-80.4381889983819	-27.0566179147738
50011	1652420074796	9.58725581182074	-1.13615359876399	1.05030133269828	0.0467072162847662	-0.059279636434368	-0.101675388032515	-0.0205762258494477	0.0604156719627168	0.00775192393094766	0.69189453125	0.309326171875	-0.05126953125	0	0	0	-0.429859058150805	-0.507363640703069	-0.41052825605888	0.623914959906785	0.148097374139565	-0.0760797273739878	0.986042110082356	0.948459154304326	0.293375482205915	-0.119816772852426	-0.280164952107306	0.952965215274486	0.115606652436461	-46.024521755938	-80.4158419887311	-27.1902104453253
50012	1652420074794	9.53655507976553	-1.14917949858622	1.07269393959602	0.022819062828106	-0.0418097193177105	-0.147549033795178	-0.0393799365251074	0.0377943166650483	0.0062875152236607	0.6943359375	0.30126953125	-0.04638671875	0	0	0	-0.429920262563392	-0.507151373429156	-0.410689757264857	0.623939079994255	0.148262815413307	-0.0764214753737016	0.985990819261228	0.948560081869893	0.293004982230314	-0.119924357289065	-0.279735426159615	0.953051855089701	0.115932104532689	-45.9697312945447	-80.3982075130402	-27.2686609601445
50013	1652420074794	9.57679540869578	-1.21083315969852	1.08113520237063	-0.0312414140442172	-0.0562762640257626	-0.0995088239264667	-0.0246936427256634	0.0155596602330435	0.00794747425784428	0.693603515625	0.31005859375	-0.0458984375	0	0	0	-0.42998189114798	-0.507070305971257	-0.410768024145794	0.623910977965913	0.148298670283152	-0.0765032611108447	0.985979084682659	0.948627457536869	0.292770407248333	-0.119964309053905	-0.279487837301348	0.953117379801172	0.115990556174044	-45.9648359958251	-80.394177514702	-27.2879814830912
50014	1652420074796	9.68276803479976	-1.16414997126081	1.04605511500707	0.039996171767327	-0.085219336608567	-0.00470026376592081	0.00581961397995576	0.0163143104417696	0.0116445821774309	0.6884765625	0.30517578125	-0.052734375	0	0	0	-0.429959750495572	-0.507006328527151	-0.410752015188746	0.623988764166142	0.148454729703607	-0.0766246556463379	0.985946172656353	0.948593913699175	0.29283478994434	-0.12007236439388	-0.279518836791926	0.953087849017778	0.116158391574411	-45.9492142796105	-80.3828834857156	-27.3004437245059
50015	1652420074797	9.68353660834526	-1.13924523625948	1.10244785307395	0.0490000407752349	-0.025792412744044	-0.00039482524960377	-0.007294121324865	0.0367656488209836	0.0112346670414968	0.69580078125	0.30224609375	-0.055908203125	0	0	0	-0.429937362421361	-0.506890650608104	-0.410816943092906	0.624055423811104	0.148582615187787	-0.0768826243442596	0.985906825484994	0.948607541778243	0.292766607323928	-0.12013095070579	-0.279404613679513	0.953088020966572	0.116431465440513	-45.8959479635646	-80.3693984035742	-27.3588641152647
50016	1652420074798	9.65140910292499	-1.20739632317526	1.13884460963888	-0.0283368061488393	-0.0114857383957716	-0.0196523577060699	-0.025899763403292	0.0375683620501212	0.0115884047556993	0.695556640625	0.314208984375	-0.04150390625	0	0	0	-0.42997036600852	-0.506695303766245	-0.410927175180551	0.624118746869428	0.14879745167873	-0.077206776826217	0.985849091892884	0.9486626376869	0.292528682105264	-0.120275392340624	-0.279103060231969	0.953134871756282	0.116770706991464	-45.8470464193034	-80.3496457056956	-27.4235181425939
50017	1652420074798	9.63615888094149	-1.18214394947429	1.01829451583933	0.0281515763481366	-0.119381762410218	-0.0518010760110439	0.00146389628624523	0.020003896045633	0.010947014508016	0.69091796875	0.3095703125	-0.049072265625	0	0	0	-0.429955238959943	-0.5066513323196	-0.410933944035462	0.624160406938098	0.148875442196469	-0.0773026061540082	0.9858298077217	0.948652184781398	0.292543572260716	-0.120321613346982	-0.279096999303625	0.95312253431064	0.116885839899345	-45.8298287031809	-80.3430568271126	-27.4403026185099
50018	1652420074799	9.68715356864756	-1.14491445860766	1.05597945211606	0.0618417483084749	-0.0780091298462307	-0.00162442742658442	0.0236792287080905	0.0140740891581923	0.00829415646550297	0.697265625	0.30078125	-0.04833984375	0	0	0	-0.429873430154708	-0.506638228906286	-0.410878325708222	0.624263999058839	0.148993412947819	-0.0774124668515269	0.985803364203086	0.948573720081334	0.292775671020466	-0.12037567872945	-0.279300663209418	0.953042347660626	0.117053078115453	-45.8017502559388	-80.3340290263772	-27.4550226342777
50019	1652420074800	9.72308950284671	-1.00371581064368	1.05562425056687	0.201759783455941	-0.041170679311573	0.0167507884132689	0.0046156461502421	0.0352715074513802	0.00899800225026335	0.7021484375	0.307373046875	-0.051513671875	0	0	0	-0.429818762843543	-0.506564918820756	-0.410911360093278	0.624339385490024	0.149087674332828	-0.0776340786880603	0.985771685122009	0.948558505517968	0.292815370507878	-0.120399004995284	-0.279302035387409	0.953012124067995	0.117295628255536	-45.7480197792488	-80.3232247913261	-27.5072406166307
50020	1652420074800	9.69945758600904	-1.0248965323261	1.01385395853107	0.191744638333288	-0.0882800036563977	-0.008951856233951	-0.0171610317691764	0.0349113777772074	0.0099157752330908	0.6982421875	0.30615234375	-0.045166015625	0	0	0	-0.429825718541517	-0.506399357368627	-0.410998883358462	0.624411291069442	0.149279217469478	-0.0779377514720468	0.985718733781185	0.948591622071778	0.292659539116732	-0.120516922874822	-0.279087172343937	0.953035204522616	0.11761908507382	-45.6971884781591	-80.305192222497	-27.5687815428292
50021	1652420074801	9.69413063837414	-1.02358152585588	1.07070939466819	0.176608929835315	-0.0343771896497432	-0.00769201765994154	-0.0271716663852665	0.0221506973059078	0.00691216524898467	0.693115234375	0.304443359375	-0.04248046875	0	0	0	-0.429884914549306	-0.506329174674011	-0.411098330534941	0.624361986149265	0.149257859010638	-0.0780217923337694	0.985715319676318	0.948674888288001	0.292394245748641	-0.120505441307982	-0.278815436902817	0.953109754946464	0.117659454233741	-45.684631908976	-80.3040306896434	-27.5974884484837
50022	1652420074802	9.70248812369394	-1.02635175901408	1.09424935196017	0.169881078551115	-0.0138177412112882	0.00362583304947073	-0.0330587061161664	-0.000573497664813581	0.00769690424877479	0.696533203125	0.3134765625	-0.052978515625	0	0	0	-0.43000878751964	-0.506246455444972	-0.411156740720764	0.624305296762064	0.14932932181856	-0.0779938130787838	0.985706710318359	0.948755511046816	0.292085154431535	-0.120620242161099	-0.278502664086907	0.953206812649877	0.117613938010582	-45.7229835678405	-80.3011022607044	-27.5777964799624
50023	1652420074803	9.74901619545811	-1.0644930104006	1.09962852474302	0.138158806549711	-0.0216780324837053	0.0547381949454238	-0.0489610074413547	-8.32163520534203E-05	0.00596577744101526	0.693359375	0.303466796875	-0.043701171875	0	0	0	-0.430168910864167	-0.50621548875554	-0.411277471579256	0.624140551832118	0.149193440630729	-0.0778735652141045	0.98573679302013	0.948906227056275	0.291611098994621	-0.120581670236293	-0.278061664971262	0.953361775394836	0.117401174139852	-45.7656776924403	-80.3113385574777	-27.562925927005
50024	1652420074801	9.70118851941194	-1.10306424342729	1.14098069375871	0.0841039715806163	0.0103366671042056	0.0170870928713036	-0.049997690253439	0.0156843874413811	0.00638142496456056	0.693115234375	0.3037109375	-0.04638671875	0	0	0	-0.430308812457703	-0.50604999895155	-0.411417839952755	0.624085799751113	0.14929751905949	-0.0780045151714545	0.985710680887423	0.949035611543708	0.291139373779702	-0.120703243771753	-0.27756379235149	0.953495233678716	0.117495448964755	-45.7715491313499	-80.3024527205778	-27.586031061245
50025	1652420074802	9.6141188919304	-1.13231757445413	1.1461518873992	0.0413133118450348	0.0138998189998546	-0.0646009279203152	-0.048509204141832	0.0154956508183903	0.00610398326218789	0.699951171875	0.30908203125	-0.041748046875	0	0	0	-0.43043278421257	-0.505971959663027	-0.411575650642648	0.623959516401387	0.149195719665676	-0.078039249212652	0.985723344968438	0.949186926537639	0.290666204146192	-0.120653786750665	-0.277100732087578	0.953636740771647	0.117439988619543	-45.7733334774732	-80.3067612406772	-27.6125487608749
50026	1652420074802	9.59080766057142	-1.15341994497193	1.10137961896152	0.0313124838955618	-0.0332180267838794	-0.0902945370638335	-0.0409363998242477	0.00359891771915094	0.004525897065588	0.687255859375	0.3076171875	-0.052978515625	0	0	0	-0.430564533753005	-0.505866708887962	-0.411672845978999	0.623889832419531	0.149248681444826	-0.0780604784719934	0.985713646444901	0.949293533086043	0.290279300315218	-0.120746494150037	-0.27670673849402	0.953752845085786	0.117426110225838	-45.7987134468127	-80.3034614799844	-27.6105975216684
50027	1652420074803	9.61637115840624	-1.1108976191592	1.06890957216415	0.0830256251714418	-0.0525704777946854	-0.0740222322539221	-0.0320042608860891	0.00248136729640489	0.00285156003473573	0.687744140625	0.309326171875	-0.0419921875	0	0	0	-0.430651165097245	-0.505875552102946	-0.411773164825002	0.623756651679905	0.149065573029082	-0.0779807092710705	0.985747667468248	0.949404292900453	0.289964869460775	-0.120631103372164	-0.276425294717581	0.953855011760266	0.11725899956985	-45.8121160763395	-80.3150414629996	-27.6154264187104
50028	1652420074803	9.6750446555594	-1.10130234399177	1.07353009410015	0.100126405002324	-0.0494477440074137	-0.0168029014560691	-0.034075761287627	-0.00195281280570741	0.0031707189731	0.695556640625	0.3046875	-0.051025390625	0	0	0	-0.430769447613381	-0.505804670302824	-0.411845299312119	0.623684830613368	0.149090169868726	-0.07795293462755	0.985746144416232	0.949493728334013	0.289642264874749	-0.120702188267663	-0.276104656068837	0.953955291604999	0.117198637005429	-45.8437305336635	-80.3145227575085	-27.6031621416207
50029	1652420074804	9.70457517450768	-1.13533368354382	1.03282565292286	0.0815599330329606	-0.0984262610292531	0.0116777999756721	-0.0446059180215607	-0.0068243504625871	0.00036101072021405	0.688232421875	0.305419921875	-0.049072265625	0	0	0	-0.430910025913316	-0.505824037993951	-0.411965438839967	0.62349263777231	0.148853039577775	-0.0777855376276126	0.985795203246821	0.94964413490582	0.289202053537559	-0.120574413822491	-0.275715051543139	0.95410250097442	0.116917184309758	-45.8822512288244	-80.3312445669941	-27.5900381843145
50030	1652420074805	9.74123557809094	-1.11978669833963	1.04595445158183	0.098466005987237	-0.0835828968452752	0.0474815959894137	-0.0430519535791163	0.0054917339425519	0.00026233993713167	0.690185546875	0.31298828125	-0.046875	0	0	0	-0.431033530059427	-0.505717713529401	-0.412085398969369	0.623414239605867	0.148870436357702	-0.0778372287500191	0.985788496077726	0.949762393854657	0.288791439841532	-0.12062710928198	-0.27529799926287	0.95422265226454	0.116919380374209	-45.8942248284745	-80.3289567237896	-27.6029153500225
50031	1652420074806	9.77527564890965	-1.07890070723546	1.03715202042642	0.143199936166932	-0.0820943366237128	0.0751070922255934	-0.0519190310839137	0.0191070236236761	0.00212318125860556	0.69970703125	0.298828125	-0.039794921875	0	0	0	-0.431150875060303	-0.505646201542402	-0.412273135013355	0.62326696041643	0.148705562024001	-0.0778928429104022	0.985808988012618	0.949932051974102	0.28827957016199	-0.120515501324476	-0.274801296313168	0.9543728801944	0.116861683600951	-45.8818530879954	-80.3359482920831	-27.6458100670025
50032	1652420074807	9.70782131330798	-1.08780278651568	1.01082264985729	0.132859340886442	-0.105795496528469	0.00658081174952763	-0.0570907675457462	0.02297518428776	-0.00311013269802376	0.68798828125	0.307861328125	-0.041748046875	0	0	0	-0.431273431505415	-0.505463774678038	-0.412476804606519	0.623195383027963	0.14873851629965	-0.0781210872596657	0.985785955212563	0.950093473687974	0.287732225878278	-0.120551057426508	-0.274224807456395	0.954519387920695	0.117019199531548	-45.8517297052692	-80.328090164136	-27.7095477568074
50033	1652420074807	9.67204561829527	-1.07855311474199	1.05237431994767	0.123303719934723	-0.0603944186725408	-0.0249203256985702	-0.0650388111638342	0.0176799974172456	-0.000152911207861781	0.697509765625	0.307861328125	-0.042724609375	0	0	0	-0.431432211721831	-0.505382841509528	-0.41269764438306	0.623004883221021	0.148537675656858	-0.0781484213314779	0.985814071290249	0.950302169646356	0.287093802018965	-0.120428132957894	-0.273609841335956	0.954709365768291	0.116908860393128	-45.8495291254792	-80.3376834126664	-27.7496887273373
50034	1652420074808	9.60960047715228	-1.13867826891157	1.07128944094574	0.0525704227344621	-0.0549653790464385	-0.0770371166569657	-0.0913128859872327	0.0100975391202924	-0.00165395145268914	0.696533203125	0.306640625	-0.048828125	0	0	0	-0.431691518690952	-0.505166444224831	-0.412955436564051	0.622829915572249	0.14854934208287	-0.0782498603823272	0.985804266737009	0.950554138378828	0.286220480204988	-0.120518325254334	-0.27272682848893	0.954963243303831	0.116898592639081	-45.8734817055576	-80.3343370132306	-27.7784701331285
50035	1652420074809	9.61099126377685	-1.19050444084486	1.03984569332708	0.0095045022080617	-0.0974753679908228	-0.0730702711767517	-0.0805681840904017	-0.000626807208986961	-0.00382502158131269	0.6962890625	0.303955078125	-0.044677734375	0	0	0	-0.431924556311619	-0.505145873404432	-0.413190412172111	0.622529121830077	0.14820265974303	-0.0780763143905149	0.985870204832404	0.950815943361932	0.285429721888105	-0.120328366196999	-0.272001863033788	0.955214092753071	0.116537648474971	-45.9168625891401	-80.3568645385425	-27.7812156615136
50036	1652420074809	9.67115267520579	-1.23171895319726	1.01321919873398	-0.0134693753520079	-0.138588886386966	-0.0118940026513705	-0.0459443924359353	0.0012221149766796	-0.00396181338063373	0.690185546875	0.30859375	-0.04248046875	0	0	0	-0.432054971802999	-0.505055682234598	-0.413321523800289	0.622424756212558	0.148168151611905	-0.0780994602839687	0.985873558399486	0.950946734471222	0.284987638607435	-0.120342652619414	-0.271563081155061	0.955344189360207	0.11649451836571	-45.9308608595255	-80.358011666476	-27.7937228967684
50037	1652420074810	9.68064097215702	-1.20808404490957	1.09075427747155	-0.0128862536245242	-0.057368266241356	0.00365432570700719	-0.0400540322055317	0.0239472477159888	-0.0046555775369883	0.693359375	0.3134765625	-0.046875	0	0	0	-0.432124348391599	-0.505024479299147	-0.413497586956944	0.622284957568914	0.14794004177882	-0.0781599086307994	0.985903023994402	0.951093404786602	0.28457658621584	-0.120156156517953	-0.27117352269333	0.955461770695491	0.116437645671522	-45.9004354099104	-80.3680965455405	-27.8484579663814
50038	1652420074811	9.62912288085152	-1.24595096456511	1.05692239597293	-0.0464702805728257	-0.0988042064913028	-0.0465436193022981	-0.0469675619021205	0.0388464783333204	-0.0015417818285539	0.701416015625	0.30908203125	-0.037353515625	0	0	0	-0.432186207186699	-0.504809781220444	-0.413705016061162	0.622278335463783	0.148030488940003	-0.0785356881422929	0.985859584338561	0.951222986927937	0.284126484006819	-0.120195549941819	-0.270669177196217	0.955564904532361	0.116764334203486	-45.8295937624885	-80.3532325624895	-27.9476159224312
50039	1652420074811	9.63026662701674	-1.29730606620904	1.02831439644628	-0.0892640253331796	-0.141118551864286	-0.042601072965402	-0.0195280804905204	0.0197004359386111	-0.000716460892958121	0.6884765625	0.3017578125	-0.036865234375	0	0	0	-0.432200588581115	-0.504845606704874	-0.413801623959219	0.622175040185348	0.147798258799002	-0.0785249473103045	0.985895282139994	0.951303220752051	0.283941734477703	-0.119996973330865	-0.270514060416011	0.95562070094348	0.116667129241851	-45.8060936266366	-80.3654458097509	-27.9816276737014
50040	1652420074812	9.68887238902471	-1.28701702231495	1.03440358123634	-0.0722556614347744	-0.137945739995247	0.0146419718163262	0.00458283337777292	0.00258893129188987	-0.00236662550049485	0.69873046875	0.3154296875	-0.043212890625	0	0	0	-0.432174867329446	-0.504852111999144	-0.413803292177754	0.622186519013095	0.147782360785713	-0.0785568707840306	0.98589512215713	0.951294448880912	0.283983438863256	-0.119967820601032	-0.270553590567495	0.955605684633584	0.11669845811756	-45.7914467524774	-80.3653910407901	-27.9938324029389
50041	1652420074812	9.68984775033557	-1.26129519179143	1.08893442215898	-0.0642120408957123	-0.0771076063993327	0.0188803848986971	0.0147224430723702	0.00437740491330766	0.000479228400393174	0.697265625	0.30712890625	-0.046630859375	0	0	0	-0.43214452714722	-0.504967937279084	-0.41375815923687	0.622143613357664	0.147623135970048	-0.0783957315277301	0.985931802410593	0.951272253447637	0.284110586643246	-0.119842706819755	-0.270718506103708	0.955581123628686	0.116516979953626	-45.8061338299879	-80.3779563378657	-27.9706775556355
50042	1652420074813	9.66522072227922	-1.22980532017475	1.07580258455693	-0.0341490323482877	-0.0799988919341653	-0.0107131894396009	0.0239927936982268	0.0157113273246523	0.00053033380181546	0.69775390625	0.30810546875	-0.04443359375	0	0	0	-0.432038522754377	-0.504967414216197	-0.413730328125457	0.62223616177881	0.14767025233802	-0.078545191414417	0.985912850854525	0.95120669412267	0.284339860890835	-0.119819316325881	-0.270923091726501	0.955500652231202	0.116701250872047	-45.7552900978077	-80.3714622081341	-28.0083253147587
50043	1652420074814	9.62092711069733	-1.21845958718702	1.09442399911185	-0.0363041326093541	-0.0539497296322675	-0.0535676521566604	0.0395084120531688	0.00105727742949772	0.00990823634098665	0.694580078125	0.303466796875	-0.05224609375	0	0	0	-0.431983150006364	-0.505141002249739	-0.413572952932859	0.622238329387626	0.147579960897049	-0.078257083927271	0.985949280620878	0.951106689324127	0.284695941425948	-0.119767635271351	-0.271323092759396	0.955418259062906	0.116446251913417	-45.8055779906343	-80.3839494471309	-27.9356226913576
50044	1652420074814	9.63802971275147	-1.17330459164228	1.04013744893094	0.0242714249024526	-0.0947978277674746	-0.0484377459024081	0.0508758937833604	-0.000297143217959613	0.00465248042460415	0.69091796875	0.317626953125	-0.049072265625	0	0	0	-0.431837078087684	-0.505237035727882	-0.41342961573922	0.622356994455204	0.147622981117247	-0.0782414556396387	0.9859440805976	0.950961796641285	0.285185381636823	-0.119753744949535	-0.271807131574644	0.955273559102338	0.116504551435188	-45.7879229743813	-80.3821660228647	-27.9239762445665
50045	1652420074814	9.67112915533905	-1.15735647887375	0.977841718542002	0.0597406236868186	-0.150741295476293	-0.0249350394717034	0.0585415675560637	0.00807694951425471	0.00650992192230373	0.68701171875	0.304443359375	-0.048095703125	0	0	0	-0.431700456295938	-0.50542979915195	-0.413253306526102	0.622412354318535	0.147524845548926	-0.0780393770507386	0.985974784452066	0.950816476728584	0.285712841358245	-0.119650323294347	-0.272368220479572	0.955132466159816	0.116350868326196	-45.8009812478749	-80.3927011087141	-27.8784560759089
50046	1652420074815	9.74661131513763	-1.15098513194656	1.0305640996412	0.063188826736207	-0.106355538403637	0.0548329141694364	0.0584121500142236	0.0190351749170692	0.00672466590690284	0.6923828125	0.31396484375	-0.05029296875	0	0	0	-0.431496122612589	-0.505477230345279	-0.413125954743324	0.622600041190317	0.147639430239766	-0.0782015429540872	0.985944784112213	0.950647402805842	0.286276083375437	-0.119647480649311	-0.27289579362274	0.954950534198929	0.116607731545534	-45.7371485400597	-80.3824072843594	-27.9092404655621
50047	1652420074815	9.76987094248704	-1.20787908299236	0.993532669794171	0.0218343809808813	-0.159848502786111	0.0802610577823426	0.0516395910017305	0.0199528007302605	0.00330246246192685	0.689453125	0.309326171875	-0.05224609375	0	0	0	-0.431354160580025	-0.505608104394339	-0.413004142834972	0.622672956633107	0.147576045543827	-0.0781407025345923	0.985959097219072	0.950525340348504	0.286722332302904	-0.119548657517115	-0.273354875824464	0.954821624580311	0.11658806584213	-45.7183148734535	-80.3873170869012	-27.9009729479198
50048	1652420074816	9.79318883326036	-1.26443312273288	0.956579066136077	-0.0180689676030142	-0.215776396292505	0.105654011803564	0.0585407265793673	0.0191435722202099	-0.00111214311596521	0.69970703125	0.30908203125	-0.0498046875	0	0	0	-0.431129268545743	-0.505672735757313	-0.412900921724	0.622844657161318	0.147615826302372	-0.0783256326844038	0.98593846820664	0.950366899446703	0.287280765285369	-0.119467645549383	-0.273883778747717	0.954638600288948	0.116845276229856	-45.6357863386154	-80.3802415385632	-27.9506260908994
50049	1652420074817	9.82863821492747	-1.27325431998218	0.919876119125049	-0.0128699170798401	-0.25636762458848	0.137367217548729	0.0989914667154948	0.0311996020806322	-0.00212255542192494	0.701171875	0.30908203125	-0.052490234375	0	0	0	-0.430816867375665	-0.505912603405566	-0.412677771679253	0.623013901339182	0.147498988954497	-0.0782966111295963	0.98595825922958	0.950119342989809	0.288187767092931	-0.119252022937158	-0.274804079907877	0.954367566288593	0.116898529000042	-45.5709950896594	-80.3870295642227	-27.9606195915973
50050	1652420074818	9.81595403992936	-1.19352681542267	0.909779654941837	0.0641084885471055	-0.247262919840949	0.114039545549346	0.126039447106337	0.0449151701306133	-0.000627231365721639	0.693603515625	0.305908203125	-0.050537109375	0	0	0	-0.430329632498227	-0.506035447716601	-0.412457333803961	0.623396728287475	0.147614146891174	-0.0787250084092064	0.985906910762148	0.94977320139705	0.289390710370537	-0.119096106818127	-0.275936459253919	0.953968233120059	0.117489066096399	-45.3891842993496	-80.3694276095778	-28.0717203967495
50051	1652420074818	9.76052001408157	-1.15354119610635	0.886929308734986	0.099034602934131	-0.254994047642666	0.0519068542574264	0.0981489284110415	0.0484789679210433	-0.00168397812642694	0.6962890625	0.301025390625	-0.04638671875	0	0	0	-0.430009088137126	-0.506235503534678	-0.412248570356681	0.623593549773682	0.147553462399729	-0.0787793642405245	0.985911652991135	0.949522833270868	0.290286600716701	-0.118912062220819	-0.276829125691495	0.95369151260468	0.117635598160937	-45.3091778347657	-80.371051882066	-28.0979309762424
50052	1652420074820	9.63527131145827	-1.14557618694889	0.911914578474578	0.081669404741059	-0.223263561440879	-0.0696965928433517	0.069970131741612	0.0191841157842419	0.00150138083647202	0.69287109375	0.3017578125	-0.04833984375	0	0	0	-0.429755032401016	-0.506318496753724	-0.412107341817311	0.623794622284707	0.147618237330637	-0.0789548433041085	0.98588791894729	0.94932653121463	0.290956301892543	-0.118842616602859	-0.27746710280571	0.953472895843316	0.117904383942102	-45.2270630255747	-80.3629253941482	-28.1404698757194
50053	1652420074819	9.58262332662821	-1.13186649605224	0.906957679960146	0.0873482467826011	-0.216562708720072	-0.123733108104048	0.0371058292529636	-0.018851253042967	0.0022952922184178	0.694091796875	0.30712890625	-0.046875	0	0	0	-0.429809297342617	-0.506547440075829	-0.41189697578579	0.623710301509435	0.14750114458229	-0.0783711753369734	0.985952012637134	0.949246372495746	0.291209698512732	-0.118862255555709	-0.277803413676977	0.953443690192779	0.117347317740942	-45.3674633153465	-80.3848865634878	-27.9828649161538
50054	1652420074819	9.55067136187909	-1.07282221827238	0.9226164591145	0.133992154551186	-0.181220042301926	-0.160397607523176	0.0592971778985583	-0.00765091845638154	0.00463573325555192	0.703125	0.308349609375	-0.050048828125	0	0	0	-0.429652020571333	-0.506685204369265	-0.411714734217873	0.623827077418216	0.147522162602364	-0.0782809550525984	0.985956035336857	0.949074242456014	0.291780237693754	-0.118837600101651	-0.278379765514063	0.953276657097733	0.117338489784493	-45.3636758519173	-80.386266565415	-27.9521476743268
50055	1652420074820	9.40839063910932	-0.881560609745787	1.12143003532484	0.237706223958217	0.0786071433100159	-0.300070208673235	0.0527949243912572	0.0181110925622559	0.0108852513696173	0.6904296875	0.305419921875	-0.055419921875	0	0	0	-0.429566231562173	-0.50687961701852	-0.411501704395727	0.623868779337485	0.147478802261141	-0.0779693981566675	0.98598720875816	0.94892286590996	0.292278399961771	-0.118822268405444	-0.278918263003425	0.953149573711741	0.117091813105264	-45.4202632016818	-80.3969673819901	-27.8646053143951
50056	1652420074822	9.31868185727985	-0.830172197708915	1.34322460838586	0.212904859459542	0.310355437504294	-0.368661721976435	-0.0196750047212398	0.0226647299331093	0.0133075332923511	0.695556640625	0.308349609375	-0.0517578125	0	0	0	-0.429614939346425	-0.506741753648117	-0.41155738126837	0.623910507143068	0.147666634066306	-0.0781422934155691	0.985945407800697	0.948957604446917	0.292103051627778	-0.118975931146213	-0.27870061023596	0.953189167589254	0.117287597999997	-45.409427208303	-80.3826211755	-27.8869173523112
50057	1652420074822	9.34918551420587	-0.965348835600929	1.37403039964957	0.0800488234185858	0.301512427099664	-0.319015284276297	-0.0314433988207604	-0.0149892112815393	0.0180714538586198	0.696044921875	0.316650390625	-0.04443359375	0	0	0	-0.429850240809006	-0.506829077908394	-0.411516012224784	0.623704760239633	0.147557714938277	-0.0776077891029981	0.986003930941829	0.949050193854717	0.291766684318102	-0.119062720724606	-0.278442903135488	0.953335844806313	0.116706112525933	-45.5726762332863	-80.4027124315873	-27.7420680646752
50058	1652420074823	9.51104562443092	-1.08430708973784	1.38102277372019	-0.00983515989108635	0.263927230130429	-0.144534531552296	0.0146684453240872	-0.0365696612318055	0.0202501370894342	0.701171875	0.30419921875	-0.043701171875	0	0	0	-0.429931361648073	-0.506932324664113	-0.411335287080865	0.623684154107009	0.147645799625482	-0.0771943919422557	0.986023196332428	0.948978810367315	0.291924611747073	-0.11924444863454	-0.278639436058119	0.953321061819671	0.116357284964145	-45.7020916644252	-80.4093354480519	-27.6021434552293
50059	1652420074824	9.637605067079	-1.14439885046726	1.32742363453532	-0.0349150696117782	0.190094409153826	-0.0189251383355415	0.0382433045851833	-0.0176448006421121	0.0161841118223713	0.694091796875	0.309326171875	-0.04345703125	0	0	0	-0.42988168196114	-0.507164866106055	-0.411122752708531	0.623669480019063	0.147523761585975	-0.0767676554649362	0.986074777510276	0.948851198158005	0.292359643439243	-0.119194138455699	-0.279138215802928	0.953222201777998	0.115971076203777	-45.7852194592607	-80.4270902658925	-27.4913350337974
50060	1652420074825	9.60073030318932	-1.16155402676896	1.31452399841815	-0.0517348744280993	0.175150935558458	-0.0547240377252738	0.0220421003334718	0.0282384903233967	0.0151053994967502	0.690185546875	0.310302734375	-0.048828125	0	0	0	-0.42979336681564	-0.507092055266404	-0.411078981913337	0.623818386997421	0.147743436229576	-0.0769876514146193	0.986024735278348	0.948766858288261	0.292583464940741	-0.119316238027737	-0.279308656623634	0.953135781288757	0.116270618653941	-45.7406670228301	-80.4098646991548	-27.5235767153545
50061	1652420074826	9.57546459186258	-1.23497220211897	1.16363702940578	-0.0829587101294124	0.0109179327772997	-0.0884018841963971	0.00380287996203428	0.0102727647833488	0.0135176468788522	0.698486328125	0.30810546875	-0.052734375	0	0	0	-0.42977625036415	-0.507113031251777	-0.411064842455917	0.623822445455642	0.147724137662653	-0.0769726763590043	0.986028795850283	0.948753224687751	0.292636139839247	-0.119295466404132	-0.279365169261346	0.95312081959955	0.116257496315132	-45.7389132884898	-80.4112612888098	-27.5220763237754
50062	1652420074827	9.67886944868092	-1.3150773790999	1.06549463270631	-0.11568788359295	-0.112043282046262	0.0117353711673545	0.0196541056188055	-0.0480585878327137	0.0129349579384624	0.698486328125	0.308349609375	-0.04345703125	0	0	0	-0.429846434187216	-0.50727808782097	-0.410870278521894	0.623768064957302	0.147709111688083	-0.0764721627818327	0.986069990742942	0.948678871546446	0.292835314487752	-0.1193979785014	-0.279625494198364	0.953099935425624	0.115801969266472	-45.875935995027	-80.4254412341097	-27.3715679877294
50063	1652420074828	9.79530756509053	-1.24404437073077	1.10144162294689	-0.04355478265062	-0.0592604979313502	0.12227409756794	0.0362743347315974	-0.0579556911786469	0.00818303868032676	0.692138671875	0.29833984375	-0.0517578125	0	0	0	-0.429879524603203	-0.507618774378928	-0.410599691247562	0.623646268145947	0.147462146890884	-0.0757080954774931	0.986165908715924	0.948567765116189	0.293222975748662	-0.119329298479375	-0.280132308413028	0.95304174660519	0.11505354844992	-46.0451074534897	-80.4585386391711	-27.1762806571959
50064	1652420074829	9.8896572873554	-1.16704487306979	1.14664380400228	0.0300893681632607	0.00341837832975381	0.211343222326189	0.0165991257006402	-0.0319967907825731	0.0105916754990757	0.689208984375	0.3056640625	-0.058349609375	0	0	0	-0.429920265003465	-0.507732530145025	-0.410454589146626	0.623621097959616	0.147469416162013	-0.075367275270706	0.98619092731332	0.948505290914021	0.293391191975651	-0.119412401278995	-0.280339944362097	0.953016989507206	0.114752487143764	-46.1400435756818	-80.4671902630124	-27.0702374747019
50065	1652420074830	9.84318893714183	-1.13058590341749	1.13958681880461	0.059359417291233	0.0138808475685447	0.160353034622508	0.00672614974178398	0.00844978642745938	0.00512942973792609	0.69580078125	0.309814453125	-0.051513671875	0	0	0	-0.429960665871786	-0.507750196816014	-0.410438294917906	0.623589584182795	0.147460287396363	-0.0752648658820164	0.986200113366828	0.948515316760193	0.293348463735945	-0.119437735641098	-0.280310823038095	0.953038235742682	0.114647126872778	-46.1724096564174	-80.4703688242993	-27.0401162612703
50066	1652420074831	9.77338661890511	-1.11423533126732	1.0898195961842	0.0794545388259016	-0.024657755082013	0.0838469673922582	0.00863776386245116	0.0191130856221316	0.00804733377378318	0.688720703125	0.301025390625	-0.049072265625	0	0	0	-0.429915136411302	-0.507694320909156	-0.410430409914854	0.623671652889698	0.147586710267431	-0.0754166778377801	0.986169603900034	0.948478570753393	0.293439708203153	-0.119505390971496	-0.28036862123647	0.95299814394025	0.114838904002085	-46.1407774071994	-80.4598159730634	-27.0669920585763
50067	1652420074832	9.79529721251939	-1.12045065341794	1.0822332571046	0.0784845491927573	-0.0351225362964072	0.105331218069093	0.0111607440402979	0.000111108113717759	0.00107463098148694	0.689453125	0.31689453125	-0.048583984375	0	0	0	-0.429904596784601	-0.507766079410595	-0.410401764565246	0.623639349227736	0.14748800048345	-0.0753034354909498	0.986193024877308	0.94846732201059	0.293504858610403	-0.119434655984552	-0.280458604416863	0.952987035890493	0.114711292526924	-46.1556556587701	-80.4679159702834	-27.0476431682842
50068	1652420074833	9.780733183533	-1.1425053604364	1.05957907207615	0.061771618868334	-0.0616808991059925	0.0910062720068456	-0.00517271961226821	-0.00718555593826841	0.00242161291508583	0.698486328125	0.3017578125	-0.051025390625	0	0	0	-0.429941828562069	-0.50777621800619	-0.410389801549377	0.62361329946073	0.147487046423186	-0.0752206050786559	0.98619948879979	0.948477547758309	0.293460469673935	-0.119462521893435	-0.280424521994335	0.95300724724965	0.114626672960069	-46.1834562886808	-80.4701526781251	-27.0222633471758
50069	1652420074834	9.81627748942019	-1.15272457613811	1.02032172260982	0.0670024013212245	-0.104436420875952	0.12279135420903	-0.00133780317439245	0.0251899872179092	0.00057989984771701	0.686279296875	0.296875	-0.054931640625	0	0	0	-0.429883622399932	-0.507780061940669	-0.410443735523549	0.623614800864539	0.147390697330011	-0.0753449119701974	0.986204404056673	0.948490241608264	0.293472022323576	-0.119333288261105	-0.280432244783782	0.952993870050335	0.114718959775686	-46.1294371427553	-80.471853850177	-27.0757444772288
50070	1652420074835	9.72848123746331	-1.10327684581813	1.11309438466236	0.076346380267315	0.000946397944182747	0.040926845711077	-0.014663154759349	0.0675724267655876	0.000467655530396895	0.691162109375	0.30419921875	-0.046630859375	0	0	0	-0.429791847855964	-0.507542151433935	-0.410622803274873	0.62375383402834	0.147579755896996	-0.0759801375051682	0.986127392558426	0.948530054023498	0.293335761894481	-0.119351863864641	-0.28019805899321	0.95298538787249	0.115359864068737	-45.9743982167099	-80.4452346267617	-27.2412753529555
50071	1652420074836	9.6515570414492	-1.15843348682921	1.17022294254738	-0.00145593337397484	0.0396047587694091	-0.0217544300987456	-0.0415264109223176	0.083597204529513	-0.00376283066035396	0.69775390625	0.304443359375	-0.0439453125	0	0	0	-0.429802676567718	-0.507216144566868	-0.410932955214636	0.623807300554036	0.147731778018576	-0.0766802419358719	0.986050435961633	0.948691668068666	0.292807531067583	-0.119364436442342	-0.279570099797102	0.95309175332009	0.116002883811895	-45.8182515908657	-80.4187075714835	-27.4315885262982
50072	1652420074836	9.62022114960675	-1.15082436234176	1.16272430131092	0.00518420788263368	0.0306746080591613	-0.0544083777703719	-0.028516240036536	0.0647271785685673	-0.0048363718066181	0.695556640625	0.303955078125	-0.04541015625	0	0	0	-0.429746598462837	-0.506970137132262	-0.411156974098651	0.623898296051333	0.147862445412273	-0.0773028871898853	0.985982231517795	0.948777655009197	0.292535607519324	-0.119347725946283	-0.279208987305122	0.953124956113	0.116598282331432	-45.6676289483581	-80.3952580657845	-27.6006904358591
50073	1652420074837	9.60601404181735	-1.14621733922558	1.19907068439999	-0.00236804474733733	0.0639057317498727	-0.064713235505522	-0.00100378112750288	0.0409050992356394	-0.00863344316031908	0.686279296875	0.311767578125	-0.0458984375	0	0	0	-0.429663466234552	-0.506899841063058	-0.411265309380279	0.62394126503534	0.147826792861179	-0.0776181093099702	0.985962812898906	0.948803480289558	0.292500302167307	-0.119228893404484	-0.279140099417482	0.953110173242936	0.116883713827114	-45.5690694586491	-80.3885920769166	-27.7022203911164
50074	1652420074838	9.63387440184684	-1.12792010840235	1.19321552925101	0.0211411549810767	0.0583797403289829	-0.0400906029306771	-0.0160920627346252	0.0271519617510122	-0.00450150993385137	0.700439453125	0.302978515625	-0.05029296875	0	0	0	-0.429646817665039	-0.506795417058029	-0.41137596661112	0.623964607501139	0.147856438687491	-0.0778820107914021	0.985937556812672	0.948854163376234	0.292346852330144	-0.119201906764294	-0.278952057139284	0.953135725029623	0.117124034638568	-45.5037544111795	-80.3799290583051	-27.7776038612007
50075	1652420074839	9.59849221377848	-1.1955663448267	1.15074000242838	-0.0370391916528413	-1.1027273645603E-05	-0.0718833850103397	-0.0330345081939147	0.0182786928941381	0.00316089225936586	0.69677734375	0.301025390625	-0.053955078125	0	0	0	-0.429715511887895	-0.506729973783205	-0.411492518477965	0.623893596496437	0.147797281812668	-0.0779556344228083	0.985940608023893	0.948954554715567	0.292036972159173	-0.119162326163444	-0.278641735160703	0.95322469856474	0.117138625025193	-45.4906738590895	-80.3809752351736	-27.809392955377
50076	1652420074840	9.61432090178733	-1.22586207251169	1.14312813229766	-0.0604444971456407	-0.0175521232273643	-0.0535539752612113	-0.0159662056273918	-0.00118029199900948	0.0075891100675831	0.695556640625	0.306396484375	-0.04248046875	0	0	0	-0.429787282820498	-0.506688559382666	-0.411504249746558	0.623870056788282	0.147861912462482	-0.077913760969393	0.985934227367395	0.948986957662627	0.291894287932592	-0.119253842112354	-0.278497053896752	0.953271824048068	0.117099190632985	-45.5223077315827	-80.3787876111583	-27.7863594604885
50077	1652420074840	9.62875530224212	-1.20486147437097	1.16523986504286	-0.0444112180171359	0.0104600840181629	-0.0392375130757419	-0.00351322098614186	-0.00279470400532108	0.00841996050844024	0.6884765625	0.307373046875	-0.040771484375	0	0	0	-0.429855411056145	-0.506722124846837	-0.411457389001301	0.623826763462976	0.147871010453877	-0.077721768032656	0.985948016399053	0.948990757101777	0.291854285243969	-0.119321494795062	-0.278479276074083	0.953299744549746	0.116914027552919	-45.5838789019161	-80.3835158335662	-27.7266478969304
50078	1652420074841	9.64311381531598	-1.184070750213	1.18780391138233	-0.0277836486505158	0.0371783316551591	-0.0249199255489589	-0.0139855082485483	0.00788335227640543	0.0120477175386121	0.690673828125	0.3046875	-0.047119140625	0	0	0	-0.429913899935854	-0.506647024355471	-0.411469165899469	0.623839688435808	0.148003836451484	-0.0777523962482214	0.985925671272081	0.949010788774446	0.291734328311879	-0.119455449746426	-0.278340416011305	0.953333963814401	0.116965662707383	-45.6033683472397	-80.3758549056303	-27.714760507941
50079	1652420074842	9.65664424786836	-1.18932925959104	1.15651849256985	-0.0214980169379173	0.0048356092549981	-0.0146094072107701	-0.0127188129171696	-0.0016119591359298	0.00855360084493787	0.69970703125	0.306884765625	-0.0478515625	0	0	0	-0.42997730755822	-0.506610924438251	-0.411506265610237	0.623800833269981	0.148015929206676	-0.0777335002278883	0.985925345877367	0.949058305306047	0.291564216697003	-0.119493266218132	-0.278171921355658	0.95338754474987	0.116929772449611	-45.621223798692	-80.3757433901156	-27.7071002876884
50080	1652420074843	9.63757370885759	-1.16123499333086	1.08639115306931	0.0222666279097775	-0.0509420243515031	-0.0449625405672176	0.00178020521708447	-0.0206604798958613	0.00719652428948849	0.691162109375	0.298583984375	-0.048828125	0	0	0	-0.430032849949986	-0.506667666555057	-0.4114322685906	0.62376526994851	0.148022728060091	-0.0775068389135261	0.985942169652603	0.949041801418249	0.29159047265257	-0.119560258527055	-0.278224605558986	0.953397968416067	0.116719247263091	-45.6888879784917	-80.3815107185512	-27.6372040404758
50081	1652420074843	9.65923799759376	-1.09028473311923	1.16005565055101	0.0718765209520712	0.0418657937473317	-0.0234887673649506	-0.00408271090140207	-0.0245439317972073	0.00352112790893396	0.691650390625	0.30517578125	-0.041259765625	0	0	0	-0.430141027690779	-0.506765040587291	-0.41135162832209	0.623664755948617	0.147958063030654	-0.0771301550611705	0.985981415019805	0.949051896485078	0.291537068347772	-0.11961034887193	-0.278224566424849	0.953444847361098	0.116335779871364	-45.7951261585847	-80.3949776875142	-27.5329144989975
50082	1652420074844	9.68526239678013	-1.04769722064198	1.12620119643157	0.125616330187796	0.0217515559583006	-0.00687002660159841	-0.0262961014956259	-0.00449862573689404	0.0047429748276033	0.6953125	0.3134765625	-0.048095703125	0	0	0	-0.430244947052304	-0.506718992179419	-0.41139057718024	0.623604795930839	0.147987311943966	-0.0770637019394453	0.985982221618113	0.94911684578197	0.291294157086538	-0.119686787491892	-0.277987353231195	0.953524462135415	0.116250297001268	-45.8344702569873	-80.3952546662715	-27.5080362924525
50083	1652420074845	9.6174327257195	-1.10527282218786	1.19867041725857	0.0400556721013256	0.0797371027114239	-0.0584324696209286	-0.0345957051445551	0.00597357791017246	0.00328555983313691	0.6943359375	0.309814453125	-0.047119140625	0	0	0	-0.430314339907521	-0.506668921598696	-0.411507341425641	0.623520553557596	0.147896623677632	-0.0771127655386639	0.985991992916644	0.949220375736257	0.290982553645512	-0.119623709025666	-0.277681952945951	0.953615632665969	0.116232345511939	-45.8237966442646	-80.3986106728992	-27.537373584367
50084	1652420074846	9.58834183399382	-1.14954565527278	1.15353571689239	0.00668125005749932	0.0265484249225671	-0.0870691565863968	-0.0395576239210159	-0.00271348205922391	-0.000624981391257356	0.6962890625	0.310302734375	-0.04052734375	0	0	0	-0.430441966947157	-0.506601636663405	-0.411601028148589	0.623425286981244	0.147878750713969	-0.0770797683025281	0.985997253751603	0.949330188078708	0.290608613435374	-0.119661304520776	-0.277315829136601	0.953732322570436	0.116148989641244	-45.853338230161	-80.4004180171456	-27.5301598649835
50085	1652420074847	9.63404877860321	-1.21308676699122	1.10446158273014	-0.0345848456822121	-0.0410544442307086	-0.0401017836563895	-0.0359219034417426	-0.0141635750515488	0.00166830446434478	0.6865234375	0.3095703125	-0.0458984375	0	0	0	-0.430544002556085	-0.506616997512517	-0.411681526830245	0.623289178600999	0.147715076596243	-0.076951461662487	0.986031809169549	0.949435101150427	0.290300364659409	-0.119577117301322	-0.277043759809973	0.953836553517752	0.115942159388778	-45.8842215200851	-80.4122978175426	-27.517044672738
50086	1652420074848	9.7065939865883	-1.20742301513053	1.07632019796101	-0.0109477568947475	-0.0697726534719341	0.0275013493026357	-0.0353636023194882	-0.017315146279466	-0.00160784823486204	0.695068359375	0.302001953125	-0.04638671875	0	0	0	-0.430685733425358	-0.506605923876592	-0.411736851364652	0.623163704130246	0.147646406242934	-0.0767830350818008	0.986055223730991	0.949534810611485	0.289965128504368	-0.119598777955538	-0.276738472498059	0.953952089874053	0.115720473834013	-45.9442080924453	-80.4203557999361	-27.4765404553859
50087	1652420074848	9.78052173157648	-1.2529363991634	1.01801695318826	-0.0280388209405411	-0.142520097486946	0.0991094111162738	-0.0271049268707137	-0.00433280141569353	0.000205795502238826	0.693115234375	0.310546875	-0.047607421875	0	0	0	-0.430781056143681	-0.506586178319231	-0.411814438851352	0.62306259200597	0.147558623778925	-0.0767168855441161	0.986073512483162	0.949627801240713	0.289673099242562	-0.119568117347132	-0.276466076868751	0.954046128364672	0.115596251207303	-45.9676190847178	-80.426654439222	-27.4702750554205
50088	1652420074849	9.75603937602194	-1.22173605090954	1.00416189455453	0.00206008318211862	-0.145459220458929	0.0696261993129159	-0.0112745466479049	0.0249426663367787	-0.00224375802953449	0.69482421875	0.307373046875	-0.048583984375	0	0	0	-0.430758992143302	-0.506494582737447	-0.411901823694979	0.623094548188361	0.147600250588741	-0.0769533694943194	0.986048855254958	0.949661753438419	0.289567156648876	-0.119555074532845	-0.27632719750761	0.954059243817572	0.115819856690613	-45.9091633270349	-80.4181634620578	-27.5358877471074
50089	1652420074850	9.65665926021248	-1.17127597229697	0.995311165811348	0.0373537560272157	-0.13340716444048	-0.0354481785200988	-0.0275053742356364	0.0379037063144144	0.00249123633821061	0.691162109375	0.306640625	-0.050537109375	0	0	0	-0.430759036597421	-0.506389317686718	-0.41203930350545	0.62308917795865	0.147586942599049	-0.0772109125558194	0.986030714205477	0.949738011075642	0.289340529512812	-0.119497984499024	-0.276072100532358	0.954107191547964	0.116033022644885	-45.8428332761141	-80.4119211563552	-27.6165601462975
50090	1652420074850	9.6007998808531	-1.18153618465557	1.06928703913308	1.23085689782906E-05	-0.0633000150310557	-0.0807423410747674	-0.0353760589839993	0.0139028554793153	0.00199394094653885	0.694580078125	0.3037109375	-0.056640625	0	0	0	-0.430845312528924	-0.506273873325168	-0.412150797108347	0.623049598589984	0.147636971262572	-0.0773293270377721	0.986013945082067	0.949832227749817	0.289008074229616	-0.119553637158848	-0.275720989125303	0.954198358943241	0.11611816372037	-45.8351622342088	-80.4061545069006	-27.6446583856866
50091	1652420074851	9.64731030765298	-1.21904207439117	1.0745655770418	-0.0312039413845553	-0.0695737236540664	-0.0297667217188025	-0.0218129946000066	-0.0221969948012932	-0.00105350311426077	0.694091796875	0.30419921875	-0.04443359375	0	0	0	-0.430989565749988	-0.506400473985149	-0.412104922724451	0.622877264658558	0.147456185227782	-0.0768749332809698	0.986076527492221	0.94988821479476	0.288835053761822	-0.119526947222915	-0.275624840738446	0.954287460020015	0.115613108324506	-45.9535837890107	-80.4276932014271	-27.5348716505555
50092	1652420074851	9.71015131583191	-1.18321980147368	1.20911826285477	-0.025168997746895	0.0663217868139672	0.0434773290532533	-0.0064466901261317	-0.0117957783241415	0.00724727464803503	0.70166015625	0.306640625	-0.046630859375	0	0	0	-0.431052180208974	-0.506414516382068	-0.412070481774964	0.622845304698009	0.147484511294531	-0.0767301668044385	0.986083566656689	0.949894492308293	0.288783871973678	-0.119600705559211	-0.275588048381246	0.954314600532787	0.115476711069213	-46.0050444096688	-80.4301188422378	-27.4861183002024
50093	1652420074851	9.65595356824026	-1.11932849107991	1.23466715451707	0.0212955909673563	0.114091342218849	-0.014663696567931	-0.0235255611501199	0.0247949509994367	0.00782672741622686	0.69287109375	0.3095703125	-0.043212890625	0	0	0	-0.431112830405465	-0.506305072636035	-0.412129117864369	0.622853506926906	0.147609527262714	-0.0768429069114973	0.986056081122504	0.94994135856256	0.288582635336252	-0.119714150686969	-0.275359479142441	0.954366402509946	0.115593801765616	-46.0031725524015	-80.4206509935829	-27.5006873459776
50094	1652420074851	9.55267264888983	-1.11879601790513	1.24868543797985	0.0042686974775981	0.133911329031166	-0.114928670320866	-0.0344892461445394	0.0262219403261729	0.00672807086580028	0.685791015625	0.307373046875	-0.047119140625	0	0	0	-0.431183278672455	-0.506143855775759	-0.412248998599218	0.622856436594873	0.14773832082878	-0.0770623500880075	0.98601966651665	0.950025418941246	0.288263486694429	-0.119815965565031	-0.275000167134862	0.954445156327845	0.115798754907441	-45.9767934539896	-80.4081216362462	-27.5471678224003
50095	1652420074852	9.49989472589941	-1.10623669949542	1.24364515869302	0.0096724604518237	0.136423123775263	-0.16905175260206	-0.0199994714119075	-0.00691729119972174	0.00667050198580323	0.69140625	0.310302734375	-0.055908203125	0	0	0	-0.431254225670149	-0.50614459708371	-0.412300660234067	0.622772514852062	0.147651624827043	-0.076985045513342	0.986038691154279	0.950093030683201	0.288055916824386	-0.119779054219316	-0.274813083264144	0.954514060425393	0.115674879369219	-45.998616086591	-80.4146655154152	-27.5373801412518
50096	1652420074853	9.51454070919418	-1.08518127264598	1.26460267955508	0.0262290311763376	0.163166660065955	-0.154736674973497	-0.00511243728029972	-0.0228842466073475	0.0052524291328928	0.701416015625	0.303466796875	-0.04296875	0	0	0	-0.431330273203616	-0.50620040692646	-0.412245428945288	0.622711048367777	0.147629708682404	-0.0767404468559453	0.986061039150568	0.950098686117432	0.288015803463619	-0.119830645467412	-0.274805305174916	0.954545861010123	0.115430686891161	-46.0714453877652	-80.4223581832562	-27.4661820556868
50097	1652420074854	9.66351497802317	-1.17313921181696	1.35656893716554	-0.0620713356676373	0.218172144270325	0.013227545090535	-0.0247520857561375	-0.0311812794330678	-0.00223624013968996	0.702880859375	0.3056640625	-0.04931640625	0	0	0	-0.431463747183407	-0.50632569030124	-0.412210585479439	0.622539768549869	0.147433457119342	-0.0763126056911545	0.986123603781223	0.950157324221548	0.287842936170303	-0.119781064133725	-0.274707908422724	0.954632301103145	0.114946660414851	-46.1798852255798	-80.4439269221413	-27.3664052254654
50098	1652420074855	9.80249811474304	-1.31048774970638	1.31704308811189	-0.16227220551831	0.133729368807192	0.162117551235877	-0.0314442723468255	-0.0318540657518609	-0.0041484028726964	0.69677734375	0.310791015625	-0.04296875	0	0	0	-0.431616524396205	-0.50637599347404	-0.412231422701861	0.622379131429162	0.147297214740757	-0.0760079769361028	0.986167489816865	0.950248962299865	0.28754486001068	-0.119770042704624	-0.274463914162945	0.954746427552112	0.114581058202638	-46.2684315912468	-80.4590851659827	-27.2945370713163
50099	1652420074855	9.88297713350239	-1.35453046833283	1.41249569516552	-0.220183704335671	0.207996518398942	0.257634895037489	0.00861014850671879	-0.00248929070748187	-0.0110026417461617	0.69091796875	0.301513671875	-0.054443359375	0	0	0	-0.431544802871953	-0.506467538410208	-0.412217066829469	0.622363885090886	0.147135444702428	-0.0759711623769629	0.986194475445544	0.950224898474068	0.287692345857434	-0.119606673956744	-0.274633944064034	0.954704926467933	0.114519431301825	-46.2447636883906	-80.468417864425	-27.3088847454281
50100	1652420074856	9.8579832953135	-1.24546119606623	1.48381587289299	-0.140317293906828	0.308213204738007	0.22813098128532	0.000910940460691105	0.0233886446505427	-0.00290809782770205	0.69873046875	0.307861328125	-0.044677734375	0	0	0	-0.431486174026176	-0.506409947442624	-0.412271277470778	0.62241548866334	0.147162717807544	-0.0761902758360394	0.986173502156454	0.950225838679297	0.287704150793731	-0.119570803803794	-0.274616077449454	0.954683907628115	0.114737293510824	-46.1817793294784	-80.4611636877257	-27.3718728272212
50101	1652420074857	9.7587097023656	-1.19462335888505	1.47380922161595	-0.103567463881402	0.320030127390288	0.12303143912518	-0.0147214861538906	0.00974229347291097	-0.00183368158213653	0.6953125	0.300537109375	-0.04638671875	0	0	0	-0.431517771745916	-0.506378971801548	-0.412302124518029	0.622398351301293	0.147174590070254	-0.0762092739344991	0.986170262482108	0.950255376217667	0.28759874157072	-0.119589647613664	-0.274507486249601	0.954714151153797	0.114745499169294	-46.184242911933	-80.4600436464131	-27.3758182556344
50102	1652420074857	9.69318595871787	-1.12814163302634	1.39857358283997	-0.0296932332238245	0.272854956201352	0.0418158667784034	0.00529102454065686	-0.0178613437213199	-0.0012655148138566	0.693603515625	0.30224609375	-0.040771484375	0	0	0	-0.431534937243043	-0.506455680213277	-0.41225047196696	0.62235824914704	0.147104384685452	-0.0760283235323583	0.98619470391357	0.950241604241235	0.287654292603323	-0.119565469580174	-0.274592777718861	0.954711842373259	0.1145604838367	-46.224643763669	-80.4684969163599	-27.3313893387534
50103	1652420074858	9.70105946038349	-1.02984795718333	1.34992781880093	0.0791178233628651	0.25496948530355	0.0322187972146679	-0.00513373847372006	-0.0165534101797794	0.000666466249385392	0.6962890625	0.302490234375	-0.05224609375	0	0	0	-0.431611393039057	-0.506420468424715	-0.412234621932643	0.62234438299018	0.147201851281087	-0.0759501151871565	0.986186186773308	0.950257490548288	0.287548443757872	-0.119693751504819	-0.274485549048201	0.954749952864876	0.114499829118755	-46.2704919351781	-80.4655503504766	-27.2918773622063
50104	1652420074858	9.74203237265821	-1.04195997126377	1.25552862035621	0.0996627199604333	0.158451828784679	0.0632524707903048	-0.0431165021507996	0.0212254956883251	-0.00269033449561667	0.69287109375	0.303955078125	-0.045654296875	0	0	0	-0.431695354369623	-0.506278155236597	-0.412393993250828	0.622296348114425	0.147227247721729	-0.076146696699707	0.986167236380325	0.950378407237554	0.287140630692643	-0.119712744776993	-0.274052952155044	0.954857025311724	0.114643101091828	-46.2392432101837	-80.4589975604664	-27.3482399335628
50105	1652420074859	9.76125902962811	-1.14814997975018	1.24329276094047	0.00634722687352039	0.111403121150042	0.0935606280025993	-0.0573896042315067	0.0669695699659073	-0.0102495760904831	0.703125	0.30712890625	-0.04931640625	0	0	0	-0.431713572170863	-0.505976183737639	-0.412690100569105	0.622333008915669	0.147349964765114	-0.0767877726442485	0.986099196762707	0.950534915503276	0.286620544991471	-0.119716488413134	-0.273443526697743	0.954961937022166	0.115222986187537	-46.0957176364578	-80.4355070330328	-27.5251532203126
50106	1652420074859	9.74081100941329	-1.16728201218054	1.28054040918083	-0.0240501247768036	0.137735560283837	0.0800462537091473	-0.0783947360285787	0.061989245060498	-0.0189965647402528	0.697021484375	0.30810546875	-0.052001953125	0	0	0	-0.431782185063281	-0.50566955864249	-0.4130765850762	0.622278215098418	0.147332064648189	-0.0774189062190566	0.986052521768667	0.950775334021614	0.285863759047526	-0.119616785942889	-0.272616079757946	0.955137803787005	0.115724884248576	-45.9474276984943	-80.4194255929483	-27.7206785830445
50107	1652420074860	9.70305790091901	-1.20733877125864	1.21680874028578	-0.051120305405755	0.0645241200249134	0.0402738701986554	-0.0625278120452099	0.042940881682242	-0.0300417116464035	0.703857421875	0.3115234375	-0.044189453125	0	0	0	-0.431781972669624	-0.505541140126462	-0.413363176538217	0.622192388252541	0.147118079843744	-0.0778157425530304	0.986053234259698	0.950949945550849	0.285390424719527	-0.11935873045256	-0.272122163081085	0.955247096666265	0.11598496743433	-45.8213057915105	-80.4196708741871	-27.8758819519735
50108	1652420074860	9.75396990582513	-1.16741171637866	1.25683954973175	-0.0178471299927048	0.106411424730087	0.0903819248852091	-0.0535908715809639	0.0418208191915275	-0.0316885512078342	0.695556640625	0.305908203125	-0.04052734375	0	0	0	-0.431783060673807	-0.505376511231938	-0.413681960515716	0.622113499254009	0.146923634877818	-0.0782882304446281	0.986044825800602	0.951140297694135	0.284861248118066	-0.119105849658735	-0.271561373572534	0.955366433518818	0.116315940820389	-45.6789622954108	-80.4167765853584	-28.0509137199952
50109	1652420074861	9.6546294126952	-1.11460531989847	1.249210135738	0.0188836965679426	0.116419210736678	-0.0146861342849185	-0.059137383117708	0.0533892006476082	-0.027336817546398	0.699462890625	0.309814453125	-0.0478515625	0	0	0	-0.431742641506991	-0.505132758722468	-0.414049057837557	0.622095302404563	0.146808547538519	-0.0789812445664548	0.986006700472347	0.951330650816664	0.284323338416793	-0.118870652594625	-0.270956164695274	0.955469623922322	0.116878375139988	-45.484185973529	-80.4036642564216	-28.2797206038043
50110	1652420074862	9.56511513042758	-1.11533897193441	1.23376914335215	0.00876068500687952	0.104043271428047	-0.104613845333452	-0.0572352956040543	0.0499347501900517	-0.0230523352300988	0.688232421875	0.30859375	-0.04736328125	0	0	0	-0.43175993849263	-0.504916231701443	-0.414367778345621	0.622046862178542	0.146717886466658	-0.0795071503288833	0.985977928169458	0.951517554902265	0.283765399563509	-0.118707795545942	-0.270348302202126	0.955591864269021	0.117285908954511	-45.3452088478978	-80.3937804248243	-28.4534835832527
50111	1652420074863	9.54215241644452	-1.13385118984518	1.1908093841178	-0.00214444326636828	0.0568412849197723	-0.130069814866427	-0.05254089129492	0.0163845055160319	-0.0167144808487366	0.700439453125	0.306396484375	-0.049072265625	0	0	0	-0.431800255229985	-0.504852243862503	-0.414576583599558	0.621931674528026	0.146500936395828	-0.079685962209844	0.985995752050604	0.951667273222881	0.283349591828477	-0.118500674627451	-0.269938653607947	0.955700348559802	0.117345502900631	-45.2806317913801	-80.3999020778461	-28.5430076437383
50112	1652420074864	9.57741351007025	-1.16812430342619	1.09744076993382	-0.00501727962948471	-0.0456601196721459	-0.102196637532623	-0.0318860446218105	0.00893043188845529	-0.00966639437555992	0.70166015625	0.309326171875	-0.041748046875	0	0	0	-0.431857308407188	-0.504787725732183	-0.414700801717945	0.621861610151265	0.146425194009249	-0.0797804794713108	0.985999359865249	0.951765553678055	0.283045020459586	-0.118439213206342	-0.269633071768392	0.955782711440398	0.11737723425086	-45.2580248383944	-80.4011416607351	-28.583972412043
50113	1652420074865	9.56737039626753	-1.11466564505521	1.10672203952248	0.0419441925013289	-0.0218265968096425	-0.11734551577139	-0.0265481980377007	0.0206809815208333	-0.00572127251210754	0.695556640625	0.301513671875	-0.04443359375	0	0	0	-0.431863922108523	-0.504704101713183	-0.414787268320262	0.621867224200108	0.146450583506609	-0.0799582286275056	0.98598119062451	0.951812200107962	0.282890149640917	-0.118434365628313	-0.269454564474635	0.955813708266884	0.117534644989866	-45.2184606587884	-80.3949006335521	-28.6333980245798
50114	1652420074866	9.5039903945174	-1.07352808717197	1.05684621466359	0.0856048882641923	-0.0543315200384434	-0.190580549915364	-0.0287998733507358	0.0224604718788272	-0.00215069036789584	0.703125	0.30615234375	-0.047607421875	0	0	0	-0.431902563528632	-0.504587858599033	-0.414908881623183	0.621853590905478	0.146483425809283	-0.0801595765632145	0.985959962801929	0.951890735180595	0.282621591135191	-0.118444351919199	-0.269159124386528	0.955876288287045	0.117702537143677	-45.1799842300788	-80.3876140860874	-28.6886363651393
50115	1652420074867	9.44523740593799	-1.08389641371854	1.0518482461781	0.0697871596822008	-0.0571029664400473	-0.247877129578445	-0.0428040629475109	-0.00234515624925956	-0.00165208336647802	0.70166015625	0.305419921875	-0.0439453125	0	0	0	-0.432059413958619	-0.504512917613031	-0.414948801921791	0.621778795517338	0.146568415490514	-0.080053621483709	0.985955940835058	0.951971843557466	0.28228430918681	-0.118596702571045	-0.268825796110417	0.955984825441423	0.117582757542643	-45.2459757247744	-80.3862341439744	-28.6427507014654
50116	1652420074868	9.45857424765969	-1.11314701812818	0.964712482176281	0.0668864923535991	-0.14799295015537	-0.241479652197384	-0.0349750867110203	-0.0220334254026048	-0.00502268231592805	0.692626953125	0.30810546875	-0.045166015625	0	0	0	-0.432202907447798	-0.50452847615266	-0.4149976053291	0.621633856153168	0.146456008644375	-0.0798357748233451	0.985990307553941	0.952070471956892	0.281955268729565	-0.118587701147383	-0.268537621125497	0.956100138842159	0.11730332708949	-45.31195966289	-80.3980317428153	-28.5955868654398
50117	1652420074868	9.51053311529709	-1.05003359881264	1.0523210149975	0.109997627481389	-0.0471515460222297	-0.187415109715806	-0.0233651448129539	-0.0422804259681681	-0.00440587804908196	0.697509765625	0.314208984375	-0.05078125	0	0	0	-0.432342565641397	-0.504639622393551	-0.41494984743244	0.621478383824332	0.146310951252579	-0.0794103429610644	0.986046197180625	0.952119099240799	0.28179306010082	-0.118582849265425	-0.268444270574837	0.956183386547697	0.116837514890217	-45.424765554404	-80.4172485711142	-28.4909193080503
50118	1652420074869	9.54857999304018	-1.1103101734729	0.97650853861436	0.0769259211939936	-0.135021654874514	-0.151549390657642	-0.0260949552590551	-0.0497287073549718	-0.00561873700567727	0.697509765625	0.311767578125	-0.039306640625	0	0	0	-0.432514578516244	-0.50476113277511	-0.414917680981944	0.621281462961088	0.146119033696307	-0.0789282305105513	0.986113361850518	0.952194424884986	0.281548914758963	-0.118557942863405	-0.268281578215146	0.956295217506877	0.116294676421008	-45.5521403223423	-80.4403927847502	-28.3763174838211
50119	1652420074870	9.66806694033598	-1.14056839989109	0.951608607081127	0.0688337723929253	-0.172386934833034	-0.0329370329566707	-0.0163781509421559	-0.0446775834857417	-0.00728701436533139	0.689453125	0.3046875	-0.045654296875	0	0	0	-0.43257040312381	-0.504959695290028	-0.41488808645396	0.62110098067261	0.145767163702347	-0.0785135568261072	0.986198537506869	0.952236032637642	0.281501444119752	-0.118336279749781	-0.268325310272246	0.956343326610798	0.115797104947813	-45.6213479403803	-80.4698234700758	-28.3079299688175
50120	1652420074871	9.69740258918787	-1.0969371166389	0.992890688872525	0.101995968084741	-0.118844084625914	-0.00431381356086646	-0.0350424953584692	-0.0345358851397675	-0.00523961552706813	0.703125	0.3154296875	-0.0458984375	0	0	0	-0.432739250751935	-0.505015259562835	-0.414910411268885	0.620923247340621	0.145617876458735	-0.078175189757987	0.986247470851992	0.952334889924046	0.281172182958678	-0.11832354357272	-0.268055388845295	0.956467899741833	0.115392656934674	-45.7184723705841	-80.4867721719765	-28.2291984176616
50121	1652420074872	9.69172718854838	-1.12073967407728	0.988998469885401	0.0775701904841774	-0.124571233816053	-0.00747371975208644	-0.0581673036160619	-0.0379444439483611	-0.00108121921276346	0.69189453125	0.3115234375	-0.044677734375	0	0	0	-0.432961179198119	-0.505073099661647	-0.414963992787705	0.620685641847172	0.145412097375723	-0.0777702947922912	0.986309841370709	0.952478474035315	0.28069900399412	-0.118291274640467	-0.267656642802212	0.956639874981505	0.1148915626111	-45.8352902517782	-80.5084184810489	-28.1390678178786
50122	1652420074873	9.67473810362022	-1.16672397842717	1.03854157801038	0.0168781842086574	-0.0836109911048536	-0.0130397963347484	-0.0604540078432244	-0.0516703598315847	-0.00406701696387874	0.69091796875	0.312744140625	-0.04736328125	0	0	0	-0.433247246436933	-0.505126988895866	-0.415009550004206	0.620411655233135	0.145227596988604	-0.07726376963111	0.986376832136332	0.952643277791562	0.280127793720244	-0.118318233860965	-0.267169852998921	0.956848331287576	0.114287097087623	-45.9928577472902	-80.5317229086109	-28.0138039747066
50123	1652420074874	9.64853595483966	-1.10985428512543	0.995662453479725	0.0752929515996361	-0.101120759013548	-0.0504402177925094	-0.0335905437478351	-0.053574280382889	-0.00120757943060448	0.689453125	0.30126953125	-0.038818359375	0	0	0	-0.433396782850199	-0.505311552031429	-0.415000418426793	0.620162975921872	0.144869776178351	-0.0767349870258386	0.986470724206339	0.952736590975689	0.279883762641368	-0.11814426615682	-0.267031339295705	0.95696228827256	0.113654927997371	-46.1095292064838	-80.5644816175352	-27.9093863537314
50124	1652420074875	9.62599382928494	-1.00348417110918	0.930074735761404	0.189361190926819	-0.127017502833269	-0.0926161988732747	-0.0131040129348186	-0.0514692419157621	-0.00179421817007984	0.69580078125	0.307373046875	-0.052734375	0	0	0	-0.43354078045905	-0.505458895358528	-0.414920057538829	0.619996002111199	0.144705301909823	-0.0762234657722333	0.986534519854656	0.952771641707055	0.279767475061866	-0.118137033382213	-0.266995457560665	0.957037169164906	0.113107393563788	-46.2460049632587	-80.5868042142545	-27.7780028023649
50125	1652420074877	9.54710617798157	-0.932887655151756	0.881693121373046	0.25689023750666	-0.141441177845679	-0.184141419168743	-0.0397652202302253	-0.0621369813823889	-0.0033686836769585	0.69384765625	0.31201171875	-0.03857421875	0	0	0	-0.433811229265614	-0.505579189182943	-0.41486881876457	0.619742982247532	0.144547093364017	-0.0755722188642008	0.986607813437516	0.952875937066461	0.279383361159894	-0.118204847898527	-0.26670880442859	0.957201011931633	0.112395001656349	-46.4432327843177	-80.6125151439552	-27.6015018906636
50126	1652420074875	9.50276357979617	-0.946721328927842	0.837163894777041	0.246943720775795	-0.176937993707733	-0.231072406537388	-0.0529349488195189	-0.0901630376228687	-0.00465536185744056	0.69775390625	0.301513671875	-0.0537109375	0	0	0	-0.434151896733208	-0.505769885277745	-0.414813338430775	0.619385863552769	0.144253434812104	-0.0746971256665659	0.986717429643392	0.953020945682046	0.278884049645746	-0.118214905762719	-0.266349438963571	0.957415284121965	0.11141790741819	-46.6954268871786	-80.6510985899561	-27.3759657772664
50127	1652420074875	9.54883108583449	-0.933096904201409	0.862592598129255	0.25667870311193	-0.140625661865872	-0.184123832546479	-0.0693847092693673	-0.136624193660785	-0.00259364003183896	0.693603515625	0.306884765625	-0.04833984375	0	0	0	-0.434650918537965	-0.506078475673739	-0.414676447336993	0.618875269741664	0.143856040967429	-0.0733310477946255	0.98687790374824	0.953200945010162	0.278244046076146	-0.118271760175076	-0.265919908823903	0.957707057639505	0.109926310947696	-47.0944349668048	-80.7078697049052	-27.0103493605282
50128	1652420074875	9.62361946821342	-1.02770917237193	0.890511726674334	0.16599478874577	-0.131380069937723	-0.0957735418231973	-0.0840596196318877	-0.15038561054855	-0.00484436277886822	0.70068359375	0.310546875	-0.046875	0	0	0	-0.435212064541591	-0.506390952609944	-0.414568661751718	0.618297247839281	0.143402055616366	-0.0718784213018899	0.9870508310093	0.953428229104115	0.277446567141672	-0.11831320437167	-0.265349698308461	0.958048482558399	0.10831732398448	-47.5254797219316	-80.7694337826129	-26.6217246655575
50129	1652420074876	9.65681911413696	-1.08640001620753	0.859829488613898	0.118630960654745	-0.166017547304063	-0.0591197369562213	-0.0622439293535926	-0.109293075235301	-0.00799620643549457	0.689208984375	0.31103515625	-0.05029296875	0	0	0	-0.435601879099626	-0.506662643660373	-0.414493992146846	0.617850061841971	0.142975391986503	-0.070783878066023	0.9871918151465	0.953596676658194	0.27689146679809	-0.118256052195438	-0.264974367727812	0.958290539565291	0.107087936887913	-47.8372744475778	-80.819928586134	-26.338969487927
50130	1652420074877	9.52683579269714	-1.10311155923772	0.870883915611169	0.078142541306507	-0.140642955736223	-0.184084146681529	-0.0500802899218953	-0.0937283761780359	-0.00365869631818679	0.69580078125	0.3095703125	-0.053955078125	0	0	0	-0.43594325362061	-0.506867458559665	-0.414419228244258	0.617491345961526	0.1426841654294	-0.0698696760039471	0.987299071867699	0.953731472159587	0.276420365768221	-0.118271130885225	-0.264646004972723	0.958493614878924	0.106077718151886	-48.1109782844094	-80.8585287962651	-26.0900977302991
50131	1652420074879	9.5047218684078	-1.12242104362433	0.813197152536519	0.0665122312435209	-0.186628098413867	-0.209480416770006	-0.0376396419855635	-0.153165756906345	-0.00573601691992855	0.685546875	0.30810546875	-0.048828125	0	0	0	-0.436332074192154	-0.507391543533979	-0.414167905044001	0.616954689594659	0.142037535963339	-0.0682632533575046	0.987504666631258	0.953828071828463	0.276158534925273	-0.118103653541808	-0.264645702344587	0.958684824031848	0.104336285162758	-48.5416624660226	-80.9329749694504	-25.6689438061936
50132	1652420074881	9.58816060376828	-1.16850572082266	0.761386163715675	0.0432500479979024	-0.238713775050053	-0.126663578389964	-0.0177072550104584	-0.183921547087969	-0.00389561804920422	0.6884765625	0.3037109375	-0.052734375	0	0	0	-0.436759121617819	-0.507942579126511	-0.413814411622221	0.616436078379335	0.141503938088127	-0.0664831567713394	0.987702700903095	0.953877375537678	0.275998204834771	-0.118080241214762	-0.264753825171431	0.958856079291205	0.102471611987879	-49.0481183307041	-81.005261139964	-25.16566596815
50133	1652420074883	9.70103145099955	-1.17143223681994	0.753042075856812	0.0524532580954898	-0.236917534429609	-0.0152168967985116	-0.00768165143947947	-0.188307398534106	-0.00586779709285668	0.69482421875	0.314208984375	-0.056396484375	0	0	0	-0.437166315011634	-0.508559956003994	-0.413442066313723	0.615888010900199	0.140864857902909	-0.0646174598313658	0.987917848655917	0.953918587546344	0.275902541642776	-0.117970826260755	-0.264946070251253	0.959011142479585	0.10050476833673	-49.5707969273872	-81.0844527612014	-24.6418476705985
50134	1652420074884	9.73577722315577	-1.20447517222148	0.772280729112294	0.0152976765128516	-0.213023597396253	0.0253460156270187	-0.0191945769880922	-0.16492232104899	-0.00783553445088421	0.6962890625	0.3076171875	-0.05859375	0	0	0	-0.437547895407729	-0.509057423735755	-0.413145207368566	0.615405083008068	0.140343153935801	-0.0630293124755563	0.988094684183763	0.953977330064597	0.275725753705302	-0.117909128003165	-0.265011420256139	0.959167667570432	0.0988247571275664	-50.0321661544561	-81.1500686507424	-24.1852567554828
50135	1652420074885	9.73982313384334	-1.22933105998833	0.779312255080272	-0.016664110667857	-0.196463927914224	0.0333190237656211	0.0121966426250684	-0.157857782982957	-0.0120917670954107	0.689453125	0.31201171875	-0.05078125	0	0	0	-0.437788814504977	-0.509727607071436	-0.412740558744889	0.6149503651926	0.139645995512371	-0.06132382501941	0.988300756056752	0.953936004300459	0.275972370122569	-0.117666268013423	-0.265527956412567	0.959207297414861	0.097037440967111	-50.488157252123	-81.2271470580022	-23.7080900708587
50136	1652420074886	9.81048707933483	-1.19561502258124	0.712762412609132	0.0371289006443658	-0.239390535230197	0.0930921973411696	0.0370751480564089	-0.187704189326809	-0.00967235267294364	0.694091796875	0.313232421875	-0.048095703125	0	0	0	-0.438038952358081	-0.51041541688078	-0.412255081139753	0.614527238209919	0.139043700569751	-0.0595202839458965	0.988495920644526	0.953847621857376	0.276335248582982	-0.117531037039622	-0.266160785257514	0.959216433444288	0.095195956854909	-50.9937588338825	-81.3007704264063	-23.1742611620844
50137	1652420074887	9.82958236247341	-1.19824989421727	0.740734556639948	0.0218481134194645	-0.199332116467002	0.11530061715173	0.0464172674488214	-0.176218902747423	-0.0174661546188868	0.688720703125	0.313720703125	-0.05859375	0	0	0	-0.438166201214321	-0.511095191075668	-0.411897129996532	0.614111423174457	0.138244919919892	-0.0580121887422231	0.988697591821523	0.953790742072355	0.276702268828063	-0.117128454111151	-0.266779988854877	0.959203023547538	0.0935841715454747	-51.375582133755	-81.3775035940431	-22.7645494289955
50138	1652420074888	9.77218638684927	-1.20652145476449	0.721228554880819	0.00501079881414788	-0.202638726644533	0.057995899133223	0.0461151392026274	-0.144928312832816	-0.0151541558223391	0.699462890625	0.3037109375	-0.0576171875	0	0	0	-0.43828527042732	-0.511680983921179	-0.411499773336842	0.613804960035053	0.137701014474365	-0.0566367270340846	0.988853230648309	0.953685680675729	0.277147916540358	-0.116930127988513	-0.267436072897435	0.959156563605862	0.0921771848398104	-51.7509354101434	-81.4371885791988	-22.3574722659338
50139	1652420074889	9.68947075305439	-1.25889418412127	0.736009017457407	-0.0659496517411694	-0.185007767590604	-0.0160666860471981	0.054362471509364	-0.136694144553473	-0.010302886395177	0.68505859375	0.310546875	-0.059326171875	0	0	0	-0.438389551879872	-0.512280522849917	-0.411064025466735	0.613522317180283	0.137190065751398	-0.0552370491296896	0.989003414687013	0.953550764525536	0.277681935539297	-0.116763359612148	-0.26817871901382	0.959083735175711	0.0907665334223616	-52.1401271503887	-81.4951758438927	-21.9312714562692
50140	1652420074890	9.70657811515013	-1.2867504858782	0.713117790406512	-0.0894488566455873	-0.202377250276336	0.00224743387950355	0.103703974534618	-0.171207961322182	-0.00808561218985289	0.69384765625	0.313232421875	-0.06298828125	0	0	0	-0.438403512904901	-0.513049108984098	-0.410439108959503	0.613288439056041	0.136640699214305	-0.0535900575799367	0.989170068818707	0.953280184265367	0.278684195418343	-0.116584773924463	-0.269418280013092	0.958886450500063	0.0891659432865322	-52.5906491177905	-81.5599852129699	-21.4149572660574
50141	1652420074891	9.70190000876328	-1.30896739334781	0.697305333417752	-0.114868770202767	-0.207474322781846	-0.000947967370354519	0.108282387828411	-0.187539321516384	-0.00614806658318104	0.69189453125	0.308349609375	-0.064697265625	0	0	0	-0.438414118094978	-0.513955062333706	-0.409771307868022	0.612968784037728	0.135875338299375	-0.0517037298478599	0.989375872336621	0.953004351421783	0.279761072606268	-0.116260261591556	-0.270777766098284	0.958676413903049	0.0872865099131196	-53.1013122253933	-81.6407075036827	-20.8329852745674
50142	1652420074892	9.7869484028552	-1.32855949152865	0.697941932317168	-0.128548612194923	-0.200633364790545	0.085784699028844	0.122944482659841	-0.190954268725416	-0.00906797072938213	0.6962890625	0.31201171875	-0.065673828125	0	0	0	-0.43840573074716	-0.514825086272696	-0.409056016632034	0.612722384975033	0.135256611602889	-0.0498710198896311	0.989554713188146	0.952680092507036	0.280947181010363	-0.11605741175434	-0.272224705635788	0.958426607966149	0.085511091584719	-53.6172147693765	-81.711488038552	-20.2396417755348
50143	1652420074893	9.7708999296318	-1.37377901428495	0.606343294607983	-0.155556172033825	-0.284663048887583	0.0676041628459156	0.140053256009733	-0.155554032858731	-0.00862424132900221	0.68896484375	0.30615234375	-0.06396484375	0	0	0	-0.438284757077248	-0.51568036296486	-0.408333305342849	0.612571748217262	0.134675350000429	-0.0482372081952833	0.989714970002873	0.952296578641525	0.282340766923043	-0.115822785499893	-0.273849915847912	0.958100653939258	0.0839604699323374	-54.061471116262	-81.7754273141293	-19.7062035644536
50144	1652420074896	9.88843026059796	-1.32359462362137	0.707774790278154	-0.126429243908503	-0.165517623067474	0.186837568961291	0.162330417351087	-0.18012596096263	-0.022856469039251	0.688720703125	0.305908203125	-0.0673828125	0	0	0	-0.438096835785769	-0.51662680815112	-0.407581212529847	0.612409551498655	0.133948592584572	-0.0465481152631482	0.989894462814123	0.951878394995577	0.283897435334394	-0.115454611649769	-0.275654304673911	0.957724135216401	0.0823358071481662	-54.5056468767365	-81.8476326015717	-19.1627131261598
50145	1652420074894	9.8909963747335	-1.27211684985957	0.536818960517278	-0.0380037396377927	-0.299263046324066	0.169658934786462	0.149327385501538	-0.187720617538707	-0.0360376560293152	0.6923828125	0.304443359375	-0.068603515625	0	0	0	-0.437980906621839	-0.517583840759992	-0.406875773110872	0.612153410898181	0.133118146079132	-0.0447571049855587	0.990089067073143	0.951524464301059	0.285249661380284	-0.115038361075842	-0.277273787114897	0.957407662511506	0.0805593864376935	-54.997106304729	-81.9266414441224	-18.5837212704488
50146	1652420074895	9.82652750558346	-1.17622621273951	0.503904002443308	0.0456968204106833	-0.287424924372033	0.0925312088610131	0.164214016730195	-0.1458899481153	-0.027334802135361	0.689208984375	0.313720703125	-0.0693359375	0	0	0	-0.437704970617999	-0.518437368450384	-0.406206077149367	0.612073260792742	0.132438635762326	-0.0434105301395876	0.990240139375502	0.951100982638978	0.286821963166438	-0.114630197890956	-0.279046463121437	0.956999836634443	0.079274107381076	-55.3336647956438	-81.9885100358735	-18.1480286030209
50147	1652420074897	9.79564714430864	-1.03915013816934	0.461352954630932	0.176168388758278	-0.274363844957336	0.0433286342471959	0.152621146063058	-0.171093118943241	-0.0300600725313099	0.683349609375	0.319091796875	-0.0751953125	0	0	0	-0.437534597574388	-0.519359711614707	-0.405515849707173	0.611870788249592	0.131644771175518	-0.0417709203806801	0.99041650048487	0.950722290051444	0.288240743123376	-0.114212088690398	-0.280707644038215	0.956646467726838	0.0776579317538147	-55.7864551470201	-82.0613410958143	-17.604246551753
50148	1652420074898	9.84967368521304	-1.02514210009871	0.371016329129212	0.21333363893958	-0.343962356016675	0.088867636591921	0.110556202047307	-0.19393524324655	-0.0375599294961802	0.6904296875	0.30908203125	-0.073974609375	0	0	0	-0.437492616089796	-0.520272254842048	-0.404910614283305	0.61152627592704	0.130728350564576	-0.0399964203724305	0.990611116794102	0.950457499771568	0.289295210615246	-0.113748943920635	-0.282029501092784	0.95640397713125	0.0758339834169557	-56.3094602647758	-82.1424893201423	-17.0115238321823
50149	1652420074899	9.88772089096465	-0.981571069533689	0.286551767850507	0.271352897328204	-0.394956575078046	0.116207693323592	0.125495455634926	-0.224129845165493	-0.0378150510248284	0.686767578125	0.32373046875	-0.076171875	0	0	0	-0.437429483219446	-0.521416868271993	-0.404216512961009	0.611055568128986	0.129466920262138	-0.0378312794887739	0.99086180209456	0.950163724409254	0.290528915720022	-0.113056826186144	-0.283596920601357	0.956118059353964	0.0735597933835903	-56.9501838904107	-82.2482601766904	-16.2887889348879
50150	1652420074900	10.0065115651045	-0.951753840535007	0.457786047162661	0.256361019650819	-0.208364189510871	0.24397734865861	0.0690431051175672	-0.207578745336675	-0.0402013276671783	0.689453125	0.31201171875	-0.075439453125	0	0	0	-0.437533290913571	-0.522292191628857	-0.403697109545598	0.610576882669493	0.128479020616111	-0.0359358025344024	0.991060926158294	0.950016688221742	0.291186526173741	-0.112599729462655	-0.284537226671167	0.955991121857875	0.0715509718117331	-57.5662730007237	-82.3333093477111	-15.6263972932318
50151	1652420074901	10.028331605746	-1.15599746743698	0.358749217534483	0.0794042611207017	-0.344028934348049	0.282250085907416	0.0203176328800229	-0.223354048180749	-0.0460874671179621	0.6865234375	0.3095703125	-0.07958984375	0	0	0	-0.437731878903766	-0.523234711690014	-0.403351810926815	0.609855356044452	0.127065506209453	-0.033899497616415	0.991314874897522	0.950045551439375	0.291396237626876	-0.111810924721851	-0.285075090672597	0.956001598721601	0.0692324773480937	-58.2345222480144	-82.4431553142754	-14.9378843269661
50152	1652420074902	10.0429133048174	-1.22956236327735	0.353330579170828	0.0020964439936656	-0.352887072647272	0.305227913549718	0.0272705364114878	-0.186555403941591	-0.0501934357487189	0.681640625	0.31396484375	-0.077392578125	0	0	0	-0.437892918106628	-0.523982661084816	-0.403018224021192	0.609317876203662	0.126036963978558	-0.0322358236645172	0.991501656773068	0.950029009663342	0.291652206757733	-0.111282842754107	-0.285586352105905	0.955981088707311	0.0673839263090747	-58.8042790813277	-82.5249722466758	-14.3466907439297
50153	1652420074903	9.81743260516345	-1.24548302956079	0.272260460638077	-0.0287928336830893	-0.413236419164056	0.0785071055249702	0.0107575665189195	-0.13278363341812	-0.0414317528312673	0.6865234375	0.31494140625	-0.0849609375	0	0	0	-0.438029361663785	-0.524551106409708	-0.402851933353033	0.608840483935236	0.12511291311615	-0.0310075595124596	0.991657849373801	0.950082704715165	0.291681196228281	-0.110747162347196	-0.285813948527198	0.956012871785689	0.0659528301695377	-59.2250958765915	-82.5940799532634	-13.9195221379121
50154	1652420074904	9.7063020352179	-1.1875265954558	0.282691615057748	0.00111185919641452	-0.369857892033706	-0.0369207092114472	0.0408250762598641	-0.172756114704635	-0.0386821763136476	0.687744140625	0.3056640625	-0.087158203125	0	0	0	-0.438150584813403	-0.52525833183592	-0.402477798802641	0.608390804775681	0.124230612615855	-0.0294430932917247	0.991816444281151	0.950012074379809	0.292071372997307	-0.110323939414986	-0.286432912601996	0.95594320821526	0.0642554997292388	-59.7823779372165	-82.6649129843914	-13.3332884561186
50155	1652420074905	9.61456880405398	-1.18507345136465	0.305301758521779	-0.0232228668746343	-0.326890988052085	-0.126092542618441	0.0371887589497138	-0.183455195887676	-0.027027156349626	0.684326171875	0.311279296875	-0.089111328125	0	0	0	-0.438386280978686	-0.52605400461513	-0.401973101869093	0.607866990592351	0.123369619204249	-0.0274626421101325	0.991980715712624	0.949922076818819	0.292470188046832	-0.110041978699369	-0.28710274298519	0.955880218642578	0.0621693057561218	-60.5352931664394	-82.7390057924082	-12.5496824946297
50156	1652420074906	9.70702228885079	-1.25372764805424	0.348270442672552	-0.0976485162531994	-0.290820692273862	-0.023649679699087	0.0223169963401944	-0.216194605855652	-0.0258103224600312	0.672607421875	0.315185546875	-0.085693359375	0	0	0	-0.438684116658306	-0.526827310430909	-0.401511867680524	0.607286959260244	0.122482410191663	-0.0254442958455041	0.992144468816194	0.949887389076923	0.292688931806838	-0.109759451849934	-0.287596952811164	0.955869121274821	0.0600184615517114	-61.3293604878825	-82.8136209565046	-11.7356139930023
50157	1652420074907	9.58866912237281	-1.19875497288692	0.278453419376752	-0.0494547196050426	-0.319148005144409	-0.150762007335352	0.0656248965652257	-0.179479839577801	-0.00622811034173299	0.690673828125	0.30517578125	-0.083984375	0	0	0	-0.438833389998625	-0.527645612489473	-0.400961299818103	0.606832266356282	0.121640287337573	-0.0235354828862476	0.992295178634737	0.949729534272872	0.293310583740985	-0.109465579957155	-0.288474352805005	0.955727462465548	0.0580307268858479	-62.0707022315683	-82.8829804498201	-10.9505219233975
50158	1652420074908	9.64542038236397	-1.082834086806	0.380947409496103	0.0330565402566971	-0.173779385540485	-0.100814397118974	0.0636206793178049	-0.152663126187198	0.00548226167755528	0.6845703125	0.304931640625	-0.0947265625	0	0	0	-0.438959585912323	-0.528240144448212	-0.400435129972942	0.6065711321952	0.12122811295377	-0.0220326301783345	0.992380122653156	0.949536930455345	0.29393237723847	-0.109468604231457	-0.289280767302476	0.955572247827639	0.0565536634580288	-62.6782220072593	-82.9223712363431	-10.3007998401088
50159	1652420074909	9.57704616249325	-0.938347565488554	0.435011494771222	0.144863645985193	-0.0624031564909609	-0.181246601333319	0.0693082408007005	-0.139373269451685	0.016993619036737	0.684326171875	0.307861328125	-0.092041015625	0	0	0	-0.439201581417924	-0.5287610674838	-0.399787837990604	0.60636902047201	0.121162836216382	-0.0203725253757419	0.992423562462025	0.9493033135002	0.294543310949585	-0.109851977462385	-0.29007375975352	0.955420953394194	0.0550274087867741	-63.3926461166826	-82.9425999547605	-9.54453158612154
50160	1652420074910	9.66167270339247	-1.01262599417277	0.406952790630152	0.0910673870648732	-0.0997321636941065	-0.0905123323672558	0.0113080356877357	-0.13223550012865	0.0356921866471005	0.68603515625	0.308349609375	-0.09912109375	0	0	0	-0.43952536594962	-0.529121708118006	-0.399351690328787	0.606107167188013	0.121096890859651	-0.0189750186889418	0.992459314878893	0.94922466825876	0.294671360236787	-0.110187651872838	-0.290358523541455	0.955410245979159	0.0536953413702736	-64.0196483028693	-82.9592922473023	-8.90542700744184
50161	1652420074912	9.70483897555377	-1.07992215590559	0.344444857425885	0.0509084127726672	-0.163544178612813	-0.0433771932146403	0.0308061203549969	-0.125482307299259	0.056761360693425	0.6865234375	0.311279296875	-0.091064453125	0	0	0	-0.43990688614381	-0.529545778729627	-0.398697510375738	0.605890662556436	0.121243126899641	-0.017232528259217	0.992473246062277	0.949035866625414	0.29504445348689	-0.110813782198656	-0.290914124851555	0.955328116636592	0.0521263995057792	-64.8078776002021	-82.9658071881017	-8.08938162224383
50162	1652420074913	9.7007271342453	-1.06011842107271	0.310754041194126	0.0810045076933109	-0.177834033727166	-0.0512156684178322	0.022202653296596	-0.0976947573007219	0.0588588755219199	0.693603515625	0.31201171875	-0.097412109375	0	0	0	-0.440189936882617	-0.529772638067382	-0.398236982920834	0.605789630859192	0.121496514778477	-0.016094501530144	0.99246136646077	0.948896837982217	0.295280249802779	-0.111374884708173	-0.291261716955788	0.955275112780033	0.0511475428448094	-65.3336301712357	-82.9602512962718	-7.54597084090374
50163	1652420074914	9.52793982280534	-1.01993389196272	0.381691151487213	0.0800335212871322	-0.0835877498989688	-0.223412601718307	0.011928114875525	-0.0791624088261452	0.0659501739437937	0.681396484375	0.30859375	-0.09130859375	0	0	0	-0.440516168639969	-0.529975686082994	-0.397763537292783	0.605685929940555	0.121819881122386	-0.0149138385520088	0.99244017148792	0.948765273374487	0.29545934713419	-0.112018883362018	-0.291555093596327	0.955238897664183	0.0501425546552445	-65.8854738833685	-82.9503495807226	-6.97972212226077
50164	1652420074915	9.44485622890178	-1.13127277784807	0.376030647725864	-0.0304847708095904	-0.111341023996071	-0.293593284709788	-0.0101307614133456	-0.0795036798555157	0.0659750755115285	0.69140625	0.309326171875	-0.088134765625	0	0	0	-0.440879552085425	-0.530067271081343	-0.39740677379971	0.605575564912785	0.122193088532968	-0.013928020988881	0.992408615110785	0.948711305186826	0.295386153382122	-0.112667119430748	-0.291574533396665	0.95527641581976	0.0493078173626652	-66.363813403457	-82.935632882982	-6.50272042345846
50165	1652420074916	9.60109240580703	-1.15452506098822	0.296732951237976	-0.00688503643157612	-0.185454893974456	-0.139657787819468	0.0306495994521688	-0.108352576937701	0.0679624817535335	0.688720703125	0.3056640625	-0.093994140625	0	0	0	-0.44123253522578	-0.530281573142304	-0.396916824398684	0.605452176107427	0.122516975389976	-0.0126733443294776	0.992385498223749	0.948583275933853	0.295541768734991	-0.113335041146128	-0.291855031410961	0.955245753341254	0.0482306060879084	-66.9474453765285	-82.9248713711925	-5.90575913340372
50166	1652420074917	9.62072541257906	-1.11277677053868	0.361615613193872	0.0191106320089422	-0.0995513916327566	-0.121603432477842	0.0301382873844148	-0.109866314440402	0.0664975873294294	0.685546875	0.306884765625	-0.09375	0	0	0	-0.44153528117916	-0.530542925764745	-0.396384980317876	0.605350928613661	0.122806302598763	-0.0113971920375667	0.992365213041892	0.94841087165817	0.295851085704875	-0.113969090580903	-0.292293398082496	0.95516607932909	0.0471415987900496	-67.5283029558782	-82.9154414892151	-5.30221839724356
50167	1652420074918	9.68308620642463	-1.06182417532139	0.275814946407145	0.103575964676692	-0.155764812839643	-0.0694483892817974	0.00733522769428859	-0.0738093473969255	0.0560110440228388	0.68701171875	0.3037109375	-0.101806640625	0	0	0	-0.441878406686801	-0.530657791106077	-0.396009326219663	0.605245731905152	0.123157844570936	-0.0103934705183911	0.992332666544453	0.948338347437952	0.295840174501966	-0.114599170718205	-0.292380786132221	0.955180907954734	0.0462915648847078	-68.0040856615247	-82.9003377797135	-4.82384457169443
50168	1652420074919	9.60658092954296	-1.04545922095801	0.333319749123602	0.0963853640623757	-0.0888137252990209	-0.144528107909329	-0.0118029863924102	-0.024117948698133	0.0542897443120128	0.680419921875	0.30908203125	-0.09912109375	0	0	0	-0.442105773232347	-0.530602855630854	-0.395814816846049	0.605255091375646	0.123582480723025	-0.00997269474003953	0.992284191055146	0.948303037811919	0.295746232079515	-0.115132596111856	-0.292316128420977	0.955214484589923	0.0460061897420245	-68.2186918457619	-82.877901050158	-4.61358150320688
50169	1652420074919	9.56526750833153	-0.989565458500091	0.328526816995426	0.148903041697776	-0.0713414794362953	-0.192175482514779	-0.0156849770686375	0.01109037751178	0.044418564157916	0.690673828125	0.3017578125	-0.099609375	0	0	0	-0.442294213128193	-0.53055787323226	-0.395663561897436	0.60525574592168	0.123917377875792	-0.00962993446006299	0.992245810181471	0.948280642700981	0.295652349639895	-0.115557391935885	-0.292246995089774	0.955247063599101	0.0457683443691495	-68.3931695641432	-82.8601863368664	-4.4436695842209
50170	1652420074920	9.61604181094885	-1.00466638994839	0.384929658969282	0.128101167775511	-0.020571496051737	-0.137515486179273	-0.0416187448230106	-0.0122733496039953	0.0403985685720411	0.69189453125	0.3095703125	-0.100830078125	0	0	0	-0.442551526848501	-0.530439405512452	-0.395615832736129	0.605202690056939	0.12424429993619	-0.00936199478174865	0.99220749190231	0.948349070022337	0.295272517945119	-0.115966294819305	-0.291885928611049	0.955367203330769	0.0455643663273128	-68.5496189872565	-82.8425440246526	-4.30917980902172
50171	1652420074921	9.68403743752259	-1.0512694485	0.375954815345553	0.097874626553134	-0.0375134979973241	-0.0650670156827946	-0.0351883151661296	-0.0224851232113199	0.0326181600030756	0.68505859375	0.30517578125	-0.097412109375	0	0	0	-0.442843615229929	-0.530457364964415	-0.395437567108472	0.605089784184487	0.124488228948685	-0.00873114982784062	0.992182668602866	0.948369778732574	0.295037325938839	-0.116394755421314	-0.291714661338693	0.955445834846509	0.0450090328101921	-68.8588645165455	-82.831138057331	-4.01194697563727
50172	1652420074922	9.66942941176591	-0.99381242076736	0.546236702845409	0.103117955692573	0.144900627281809	-0.0786094567368174	-0.0511614799980345	0.000115457330686129	0.0252768958747027	0.684814453125	0.310546875	-0.0927734375	0	0	0	-0.443065445121056	-0.530316191614061	-0.395487592215222	0.605018439930094	0.124708602631529	-0.00862501312275221	0.992155922009401	0.948484131092301	0.294565151486973	-0.116658581319765	-0.291248377670631	0.955592476256531	0.0449154965032784	-68.9424634472674	-82.8188685330981	-3.95635235284744
50173	1652420074923	9.60580381847024	-1.10442079004238	0.593404765544567	-0.0222680715462315	0.158951177034858	-0.12673983312866	-0.096640784277574	0.0281370123863755	0.0165333976032485	0.690673828125	0.311767578125	-0.093505859375	0	0	0	-0.443364319728829	-0.530045308776346	-0.395787060953461	0.604841014662036	0.124809146052018	-0.00877013957222866	0.992142006828483	0.948782850576557	0.293561364746427	-0.116759700153937	-0.290230562680067	0.955899999884977	0.0449601012711599	-68.940039336602	-82.8124934308554	-4.01947611788264
50174	1652420074923	9.55592822025564	-1.24151642759469	0.686027449477415	-0.183715286074427	0.207706719873468	-0.156038496549378	-0.108545399464488	0.0140321135554916	0.00639243577164754	0.686279296875	0.3056640625	-0.0986328125	0	0	0	-0.443681722536445	-0.529790178671282	-0.396077450564126	0.604641669772409	0.124890039476147	-0.00885342402505424	0.992131087569924	0.949086300248114	0.292538364483431	-0.1168610285198	-0.289201785473383	0.956212801727938	0.0449377913410896	-68.966229720332	-82.8074948167001	-4.05490028394998
50175	1652420074924	9.51721113101591	-1.27720485185277	0.860299701189997	-0.273193185528683	0.366698989532944	-0.182548604323351	-0.105930866208956	-0.00515055830991641	0.00090882864503811	0.6884765625	0.30859375	-0.0986328125	0	0	0	-0.444020705546371	-0.529663428624798	-0.396330578263162	0.604337933739985	0.124757450222022	-0.00867214693088086	0.992149370045514	0.949398264051251	0.291535371559382	-0.116833485551897	-0.288233438085472	0.956520737358759	0.0446045308470537	-69.1042111470356	-82.8158661147246	-3.97635121691656
50176	1652420074925	9.50402115734006	-1.27200440701281	0.944881882143672	-0.294107032587431	0.451951479573596	-0.192580533829554	-0.0893589084112895	-0.0152097002126987	0.00350123866310351	0.6845703125	0.30419921875	-0.092529296875	0	0	0	-0.444329993761174	-0.529540992187405	-0.396514044605642	0.604097514204328	0.124725900047307	-0.00848440587691324	0.992154960031096	0.949648188896576	0.290694938149341	-0.116896408241674	-0.287422628167725	0.956778170628525	0.0443143884747469	-69.238727691366	-82.8184276311346	-3.8915166067705
50177	1652420074926	9.57561833698769	-1.24867988053119	0.725743950500728	-0.19944891190901	0.251790832561546	-0.13409276768469	-0.0401645752884781	-0.00289040270366034	0.0197144243297077	0.6865234375	0.30517578125	-0.093994140625	0	0	0	-0.44454138324353	-0.529464549777981	-0.396537538720402	0.603993567430892	0.124850541827932	-0.00827443859056776	0.992141056438692	0.949750051937435	0.29028187793899	-0.117095133054514	-0.287031672555683	0.956905410689179	0.0441004982246574	-69.3625670770736	-82.8120582243828	-3.79171850772154
50178	1652420074927	9.59301971160783	-1.08716520764832	0.490718014261122	0.0263348973568979	0.074224995411154	-0.146118412752271	0.012323011713279	0.0184140266080619	0.0384641255892292	0.680908203125	0.314208984375	-0.089111328125	0	0	0	-0.444569386614875	-0.5293644492424	-0.396420854840041	0.604137274310281	0.125247571452363	-0.00830677245479894	0.992090743519296	0.949663686436458	0.29041713266553	-0.117459659961408	-0.28714443840897	0.956864089923808	0.0442626807263295	-69.3519332100501	-82.7890560263544	-3.79446074183067
50179	1652420074929	9.71710433623054	-1.0079200348262	0.177031141563164	0.210758783324517	-0.20585516860075	-0.0462878222493703	-0.030750175951256	0.0426715432902324	0.0575529238768066	0.686279296875	0.313232421875	-0.102294921875	0	0	0	-0.444721089809982	-0.529055889952644	-0.396522288140918	0.604229337745304	0.125739880627814	-0.00861617522901947	0.992025828264631	0.949745423029539	0.289986454571425	-0.117862155077607	-0.286658531800722	0.956991963231415	0.0446460351692755	-69.2533757929834	-82.7594852888005	-3.9199970983847
50180	1652420074930	9.80083572923358	-0.962730966554975	0.095018750711363	0.294644574124049	-0.27458520424742	0.0275383366211344	-0.0719330873895112	0.0668378291746313	0.0636386774776849	0.694580078125	0.308837890625	-0.087890625	0	0	0	-0.444973636368687	-0.528586291597126	-0.39666096225508	0.604363364454945	0.126513226716946	-0.0090407787796068	0.991923720749093	0.949868636006056	0.289317087919403	-0.118512433819542	-0.285909037628512	0.957190622058582	0.0451899905448516	-69.1276447075423	-82.7132139576625	-4.08747306270773
50181	1652420074930	9.81438032054948	-0.945100593635396	0.17747444633838	0.295435613365378	-0.194064221667245	0.0423531233899084	-0.117681192920062	0.0822575256314325	0.0611664014687652	0.681640625	0.30517578125	-0.09619140625	0	0	0	-0.445294537076787	-0.528065662964059	-0.396965906344603	0.604381915718784	0.127129449596675	-0.00954852003173401	0.991840173017029	0.950127539774643	0.288261688899156	-0.119007801739173	-0.28477317501308	0.957504059771137	0.0457188616957979	-68.9848758002897	-82.6755695048052	-4.29534306044591
50182	1652420074931	9.83762618596044	-0.907264735745514	0.150487564880908	0.348947135219103	-0.213754312296525	0.0593541964177184	-0.10621778968356	0.0746401806341295	0.0460078876856274	0.686279296875	0.303466796875	-0.092041015625	0	0	0	-0.445587938123519	-0.527543607317422	-0.397265912576898	0.604424458871244	0.127755074165931	-0.0101003319649379	0.991754316511431	0.950368604984193	0.287262368206549	-0.119498311589594	-0.283686721023837	0.957798681929853	0.046298263554704	-68.8217071551755	-82.6370842041504	-4.5204087856685
50183	1652420074932	9.7518032940417	-0.836613414578773	0.228142031897535	0.387814852551666	-0.121893023724633	-0.0308483247940003	-0.0819797043484378	0.079525497607313	0.0314044284796759	0.69580078125	0.302734375	-0.0966796875	0	0	0	-0.445796535522933	-0.527130099301002	-0.397550657605424	0.604444192596936	0.128174666096821	-0.0106088284288895	0.991694866241797	0.950579916581875	0.286437847106492	-0.119796418711889	-0.282788042820351	0.958040089194792	0.0467986146533322	-68.6618383332609	-82.6105523382835	-4.73150240421607
50184	1652420074932	9.68081018317983	-0.844965749650644	0.265554252634443	0.364125911792552	-0.0932636307820908	-0.0987137948907986	-0.111826645144192	0.0774037136273147	0.0110690108452996	0.694580078125	0.304443359375	-0.077392578125	0	0	0	-0.446008914274791	-0.526666299388602	-0.397976750980537	0.604411418782532	0.128474229534582	-0.0112876566543531	0.991648607699698	0.950879114156082	0.285381108132796	-0.119943875969728	-0.281643893253946	0.958347646696203	0.0473973149514754	-68.437929445581	-82.5899731190162	-5.02107426095296
50185	1652420074934	9.60855191673698	-0.97582006494729	0.372677787497893	0.204179912647511	-0.0333068692642394	-0.149738498325979	-0.131302119372115	0.0848623736850624	-0.00349553553454441	0.69140625	0.30712890625	-0.087890625	0	0	0	-0.446280679268107	-0.526095225578993	-0.398519401570657	0.60435060644195	0.12881220038951	-0.0121186147740173	0.991594955718701	0.951263153298419	0.284031683767526	-0.120101689384171	-0.280188918780813	0.95873830725185	0.0481147378699729	-68.1681382722208	-82.5661757097271	-5.37455101206418
50186	1652420074934	9.52498693180695	-1.05131382240581	0.543048889022717	0.0757764687310098	0.103363521391953	-0.215338304967279	-0.112715771266951	0.0840004994258002	-0.0043444207331816	0.6904296875	0.315185546875	-0.08837890625	0	0	0	-0.446441816338269	-0.525642669970144	-0.399008820635521	0.604302448436457	0.128983489123419	-0.0129062778628394	0.991562750170294	0.951581751168313	0.282963331359276	-0.120099641754283	-0.279025859692244	0.959043889036257	0.0487789762624911	-67.8952622279126	-82.551927209605	-5.71408036435399
50187	1652420074934	9.51288244794919	-1.04782464433526	0.580658354919378	0.0666102040998131	0.135767796592391	-0.22586505403228	-0.0927034688534216	0.0514310521282956	-0.00129029315425799	0.6875	0.300048828125	-0.08349609375	0	0	0	-0.446572657970673	-0.525385191784481	-0.39941321515221	0.604162515361858	0.128878967630717	-0.0133756623629968	0.991570120243038	0.951866308577507	0.282083889429567	-0.119913343374785	-0.2781020357665	0.959296497950785	0.0490865228131847	-67.7382626353178	-82.555185512281	-5.92521088787591
50188	1652420074936	9.53872295853116	-0.978171076059405	0.659394678301078	0.115961254545452	0.227781654993953	-0.204694686176142	-0.0700269351603252	0.0388512081941076	0.00937584442877174	0.681884765625	0.310546875	-0.095703125	0	0	0	-0.446730302203781	-0.525123479207781	-0.399648688595399	0.604117781878345	0.129052514577387	-0.0136926174480993	0.991543221805623	0.95204689969127	0.281425925593793	-0.120025618898296	-0.277402504079353	0.959485258162468	0.049354737355269	-67.6474523210906	-82.5433005821907	-6.05648782932279
50189	1652420074936	9.51523013609151	-0.950477093414257	0.595066102951261	0.158659403690344	0.173331361536915	-0.234488321819912	-0.0900347262799411	0.0411845005339324	0.024722696280686	0.68701171875	0.3017578125	-0.095458984375	0	0	0	-0.447005199044288	-0.524837008996538	-0.399897392689541	0.603998792494696	0.12925637861535	-0.0138653412679068	0.991514266613834	0.952284827957133	0.280536854694967	-0.120219297953818	-0.276489412147915	0.959743103892588	0.0494649320298877	-67.6349978842119	-82.5305279016791	-6.12270971952315
50190	1652420074936	9.51219407113033	-1.03158820341049	0.458233375327997	0.12263151414766	0.0175600524898206	-0.234553964934696	-0.106859206731177	0.0432144438889831	0.03308967256819	0.688232421875	0.306396484375	-0.08642578125	0	0	0	-0.447327325017928	-0.524435651914436	-0.400167430513845	0.603930077781637	0.129666549114056	-0.0141575002419725	0.991456580606408	0.952535089501643	0.279528583696505	-0.120584717790951	-0.275433275602185	0.960032986976763	0.0497310225867723	-67.5879836604843	-82.5051460298901	-6.23109464663287
50191	1652420074937	9.50906847810277	-1.08470448665895	0.483642960933445	0.0680152481923255	0.0283624781029425	-0.230023551592492	-0.0990229657622466	0.0263973709949365	0.0358355819899709	0.683349609375	0.298095703125	-0.083740234375	0	0	0	-0.447695763656667	-0.524175609814461	-0.400305495212556	0.603791308137292	0.129990881156537	-0.0140595573657021	0.991415503037363	0.952744357070039	0.278648027413008	-0.120968867441323	-0.274555205536781	0.960290375701808	0.0496168665590231	-67.6984113612586	-82.4871238538421	-6.17300223785061
50192	1652420074938	9.60537913847437	-1.18902346697469	0.512074725304059	-0.0231671815702204	0.0265546169149748	-0.120522356809039	-0.0951992478399928	-0.00240649457997681	0.0344858589390774	0.693359375	0.309326171875	-0.092529296875	0	0	0	-0.448077538365063	-0.523932402271654	-0.400437938912477	0.60363135649342	0.130288589858762	-0.0139091103551829	0.991378545259954	0.952958474673489	0.277751953384466	-0.121342482004823	-0.273669561516425	0.960552127185319	0.049442714925119	-67.8308644548989	-82.4709458308318	-6.09359836457249
50193	1652420074938	9.70183229650863	-1.29284985998223	0.537824129409017	-0.114677913193937	0.0261108516431616	-0.0110328660327976	-0.0849464470779308	-0.0271508662549157	0.0239553468770729	0.693359375	0.3046875	-0.0849609375	0	0	0	-0.448481705661996	-0.523849249456905	-0.400485838551867	0.603371541133117	0.130386113925691	-0.0134099054056783	0.991372601866911	0.953157125030435	0.27695050561183	-0.121613783943546	-0.272930313998046	0.960790607717604	0.0488922470598881	-68.0984509341087	-82.4683473746867	-5.8720900720724
50194	1652420074938	9.65695796068882	-1.43592902061984	0.460455928611905	-0.234736859657722	-0.083644747244959	-0.0418813291117495	-0.0429004943384201	-0.0135559502980891	0.0136451222331692	0.694580078125	0.307373046875	-0.091552734375	0	0	0	-0.448673364080534	-0.523791148688756	-0.400518772152772	0.603257621645352	0.130455091417098	-0.0132097303108135	0.99136621495211	0.953254277341978	0.276553851035785	-0.121754877547062	-0.272557795435353	0.960907628496305	0.0486700898399409	-68.2115169644935	-82.465556003674	-5.78199589994194
50195	1652420074939	9.67637299371152	-1.44107950280785	0.503370351262436	-0.249086034401518	-0.0407614521161739	-0.0199052930976755	-0.012782628136449	-0.0124810680857519	-0.000655165623479169	0.694091796875	0.303955078125	-0.09619140625	0	0	0	-0.448738087841882	-0.523882717081185	-0.400458171192532	0.603170191893448	0.130360303737536	-0.0129166064941566	0.991382545986226	0.953261121359839	0.276534763290288	-0.121744647503562	-0.272579209979851	0.960917106710386	0.0483620545272929	-68.3349588965791	-82.4726954537377	-5.65861911319218
50196	1652420074940	9.67658896095531	-1.44040050330208	0.501158056279784	-0.249324444689667	-0.0404666516188479	-0.0199101374883366	-0.00860053037397536	-0.0300599662417188	-0.014489545888942	0.694091796875	0.30712890625	-0.090576171875	0	0	0	-0.448785718361655	-0.524006308876661	-0.40044881169509	0.603033594805515	0.130116274938897	-0.01263507739367	0.991418231532627	0.953301268414676	0.276464256413207	-0.12159032266123	-0.272555401038019	0.960941137502786	0.0480175345041418	-68.4503184964388	-82.4883196078179	-5.54637706100684
50197	1652420074941	9.80871666681712	-1.42410158161702	0.415275749342155	-0.196325077997655	-0.114553687264814	0.104962297463553	0.00916250536582109	-0.03229981625598	-0.0183446772127905	0.68408203125	0.312744140625	-0.08642578125	0	0	0	-0.448779059209	-0.524317743384083	-0.400251352620292	0.602898925785853	0.1297795173965	-0.0120165738732274	0.99147005946558	0.953227868283206	0.276792421482224	-0.121419053439987	-0.272972357561324	0.96085459740918	0.0473765199762159	-68.6847599935991	-82.511069076442	-5.29006014695733
50198	1652420074942	9.88058725528915	-1.18814989263379	0.431448849985724	0.0306802084769649	-0.0325091367487901	0.148329355208523	0.0447743551282751	-0.0227561202227213	-0.0195064287577461	0.685546875	0.310546875	-0.082275390625	0	0	0	-0.448638174994833	-0.524538009072173	-0.400132719260054	0.602890928737082	0.129507368032311	-0.0118172232544507	0.991508040743946	0.953128323676702	0.277235189829721	-0.121190132128481	-0.273448789045744	0.960729411829696	0.0471673299518132	-68.7339588428986	-82.5277843889926	-5.21365866726082
50199	1652420074943	9.83656016779613	-0.945499789828181	0.553140248061085	0.217555463682318	0.152515065460829	0.0811116191627974	0.0116653554956563	-0.0153491310839048	-0.0169685283176132	0.698974609375	0.304443359375	-0.08837890625	0	0	0	-0.448532688012443	-0.524706362889499	-0.400238069279447	0.602752974631454	0.128985441285468	-0.0117934629097554	0.991576356197035	0.953185284365992	0.277255831367587	-0.120693900594816	-0.273496927961753	0.960723747080952	0.0470033210552124	-68.7219524753708	-82.5579435299443	-5.22417150332844
50200	1652420074944	9.83206160144097	-1.0202456728639	0.465316336098792	0.167766626438842	0.049579563192207	0.0815660871144121	-0.0349269859290492	-0.0267868308051724	-0.00717863164606026	0.686279296875	0.303466796875	-0.08740234375	0	0	0	-0.448671827724399	-0.524751861225169	-0.400283328062902	0.60257973117427	0.128817482831216	-0.011522487080018	0.991601375759695	0.953287993790725	0.27693369656267	-0.120622255834448	-0.273217966121346	0.960819941508099	0.0466581502943368	-68.8529257117238	-82.5690193360623	-5.11139907851759
50201	1652420074945	9.83563972211945	-1.07351655248169	0.322103065215405	0.156006985685739	-0.0992004600879268	0.0848788826088871	-0.012805034406336	-0.0218918203606024	-0.00239718864082475	0.68798828125	0.309326171875	-0.08642578125	0	0	0	-0.4487855014095	-0.524812829562606	-0.400221345952456	0.602483146565212	0.12878873634099	-0.0111964539412137	0.991608844661459	0.953310009386786	0.276828895937255	-0.120688808002758	-0.273154694989226	0.960853996085411	0.0463261353022277	-69.0008099682001	-82.5723288961844	-4.96860745685767
50202	1652420074946	9.74604955841277	-1.02469647542614	0.337579470534617	0.186104348801788	-0.0676861808177553	-0.00910493849746885	-0.0479638034622217	-0.00954418197602877	0.00226501619049614	0.6865234375	0.3046875	-0.090576171875	0	0	0	-0.448954357472297	-0.524758887489728	-0.400310699249441	0.60234495015199	0.128758908133934	-0.0110646780477698	0.991614197395265	0.953435834691083	0.27638265794612	-0.120717585767596	-0.27272926631199	0.960983974521083	0.0461361898143604	-69.0840017123976	-82.5747016591717	-4.91154936827691
50203	1652420074947	9.68032953848997	-1.1095102485272	0.303421503938549	0.104879569310444	-0.121054094211421	-0.0655747805844164	-0.0964210166712746	0.00302014008880041	0.00350795740334046	0.6865234375	0.297119140625	-0.08203125	0	0	0	-0.449246986456041	-0.52461399264974	-0.400563751693118	0.602084698946749	0.128657679091264	-0.0109841011931281	0.991628232318861	0.953709122195398	0.275451651979399	-0.120686775013268	-0.271819998992224	0.961252171359212	0.0459146077525278	-69.1709628254693	-82.5809266515532	-4.87977274626622
50204	1652420074948	9.56562514922013	-1.17899522811921	0.452421082567843	-0.0166410359837994	0.00622627264087669	-0.164082129133481	-0.102965850452842	-0.0102946966252773	0.00307793000502373	0.696533203125	0.30126953125	-0.08740234375	0	0	0	-0.449584839619054	-0.524450422497487	-0.400793216729228	0.60182225262178	0.12863310353209	-0.0108426348816709	0.991632977438995	0.953982471228384	0.274476538817094	-0.120747978152741	-0.270870761184535	0.961532665543824	0.0456504526538324	-69.2902039922585	-82.5830324578376	-4.81813890730378
50205	1652420074949	9.58823506384072	-1.26097284603394	0.484149307389977	-0.0984194548083499	0.0184503236087652	-0.130297394815654	-0.112863319851187	-0.040529298076345	0.00458521253146617	0.69580078125	0.304443359375	-0.08642578125	0	0	0	-0.450117314533221	-0.52424763811621	-0.400951809089459	0.601495190234191	0.12880412143493	-0.0103952913275094	0.991615568766239	0.95428704740452	0.273264099890582	-0.121090721638586	-0.269714162507902	0.961882877292868	0.0451176341739522	-69.5649257859052	-82.5753096826408	-4.61412402698001
50206	1652420074950	9.67606892397016	-1.30961633597642	0.515403508692867	-0.142818541019216	0.0403928018563003	-0.0359285125365396	-0.082682206767941	-0.0523516374989472	0.00569759401302736	0.6845703125	0.30224609375	-0.0927734375	0	0	0	-0.450485516515864	-0.52424431099482	-0.401024882014673	0.601173640310451	0.128693892789368	-0.0098422379136513	0.991635523925787	0.954500114789669	0.272483686829105	-0.121170009814829	-0.269011919485413	0.962110061669074	0.0444614035980041	-69.8501929048547	-82.5841627919779	-4.37334744249832
50207	1652420074951	9.64000138822945	-1.22511959290294	0.561437966741797	-0.0792663383691192	0.115490912839752	-0.0799521917458445	-0.086066008157517	-0.0394568769372205	0.0114385298814848	0.693359375	0.313232421875	-0.0869140625	0	0	0	-0.450892919855474	-0.524212358205714	-0.401050519388336	0.600878905626546	0.128719768805502	-0.00923831275064618	0.991637975622243	0.954692876013438	0.271708111445102	-0.121392811418659	-0.268314616835998	0.962335365531402	0.0437939566572191	-70.1624646788315	-82.5852512124999	-4.10512146622343
50208	1652420074952	9.56146375132749	-1.23227090324434	0.510611375833462	-0.0821614221433305	0.0705050826256229	-0.159238168106148	-0.113191224105301	-0.0282177744982928	0.0175639722785523	0.690673828125	0.306396484375	-0.08251953125	0	0	0	-0.451335482011268	-0.524048429354471	-0.401221562899984	0.600575377311511	0.128789002310413	-0.00888428212844744	0.991632221347688	0.954970883968239	0.270635080283503	-0.121602895084214	-0.267290111408576	0.962641014527744	0.0433390527375375	-70.3840242144535	-82.582696877132	-3.94619662679391
50209	1652420074953	9.48102573595857	-1.21499552236646	0.383840339403267	-0.0418541127178135	-0.042517981812476	-0.246610017240751	-0.0991459525889391	-0.0160381694192743	0.0242537182770324	0.692138671875	0.303466796875	-0.083984375	0	0	0	-0.451700679413059	-0.523866669315975	-0.401417613585153	0.600328333915008	0.128855224566776	-0.00870287343166243	0.991625227137692	0.955226595239191	0.269660791442763	-0.121758816133395	-0.266342791998561	0.96291604906788	0.0430604179951362	-70.5236866364331	-82.5795933089222	-3.86388510606103
50210	1652420074954	9.45087413225808	-1.10838251289516	0.432927256686182	0.0446853974059879	0.0372010586000518	-0.287374876460873	-0.100544464790622	-0.0126923461348247	0.0230677231205354	0.68505859375	0.309814453125	-0.092041015625	0	0	0	-0.452088059969071	-0.523668614400237	-0.401574350075714	0.60010466560993	0.129018447306807	-0.00848462623763319	0.99160589518828	0.955461938041212	0.26870885478934	-0.122016541142312	-0.265418019751999	0.963184075073612	0.0427751366510752	-70.6809489836785	-82.5710217740091	-3.76251841700764
50211	1652420074954	9.45135742174691	-1.06075493827118	0.462225929024229	0.0836205909931987	0.0825390167926487	-0.291489734437913	-0.142447771128345	-0.0152490348169138	0.0273798300116573	0.69482421875	0.302734375	-0.087890625	0	0	0	-0.45261996910815	-0.523425908788931	-0.401816812801033	0.599753057952553	0.129137133917803	-0.00815568709543435	0.991593205609789	0.955807761761239	0.267356825029914	-0.122277760311902	-0.264111952021233	0.963563081940111	0.0423209631460388	-70.9089993392344	-82.5654007222463	-3.61372943224823
50212	1652420074955	9.54616239626626	-1.13982027529975	0.408430345034663	0.0365117051817034	0.0134702452848155	-0.190125070073448	-0.145211757351065	-0.0275554880675996	0.0292651820623786	0.69189453125	0.313720703125	-0.084228515625	0	0	0	-0.453186973582343	-0.523168446964306	-0.40203791685725	0.599401248318116	0.129320579020078	-0.00777780816384505	0.991572333993884	0.956150308777958	0.265974160768718	-0.122614570207586	-0.262778946770336	0.963948780539476	0.0418326861524661	-71.161784159049	-82.5561644865475	-3.44182977141835
50213	1652420074956	9.64790199616379	-1.14445701565923	0.385904610252742	0.0522297154611112	-0.0050135382081401	-0.0896239486061923	-0.11521881488317	-0.0281514331773521	0.0227464691554644	0.688720703125	0.30126953125	-0.0810546875	0	0	0	-0.453631759661209	-0.523014420940095	-0.402195591230348	0.599093355421543	0.129389243767136	-0.00739350837339403	0.99156631630532	0.956417316770368	0.264913866043093	-0.122827357538426	-0.261771541194109	0.964243734546424	0.0413482842307449	-71.3948414121875	-82.553503617738	-3.27041611174694
50214	1652420074957	9.75510598755938	-1.17546271923979	0.331505623237719	0.0519378181438535	-0.0618547897135051	0.0182422138318774	-0.10374533616754	-0.0233352689666592	0.0219594277667047	0.695556640625	0.316650390625	-0.090576171875	0	0	0	-0.454046494009738	-0.522843800257481	-0.402339550697228	0.598831385078081	0.129514492954136	-0.00707631198815434	0.991552278966409	0.956657889674702	0.263929334444436	-0.123073102434544	-0.260828829384291	0.964516061156248	0.0409522836195612	-71.5952587822268	-82.5473003355011	-3.12737267589504
50215	1652420074958	9.74690590670644	-1.17611472541144	0.251476810226388	0.0714699888096268	-0.134956815474376	0.00695308954183815	-0.113820699802943	-0.017339346647039	0.0227448501105	0.683349609375	0.300048828125	-0.089111328125	0	0	0	-0.454455742918435	-0.52267142752071	-0.402533104782432	0.598541273544383	0.129563356815357	-0.00680329056817547	0.991547806113342	0.956927418152829	0.262874154565338	-0.123235933269963	-0.259813881380685	0.964806143273872	0.0405691131638319	-71.7785205780596	-82.5453248020176	-3.0058048893079
50216	1652420074959	9.70111373788876	-1.21716224968776	0.291343953958333	0.0175109283324536	-0.103319185513131	-0.0317369810175752	-0.129614041740114	-0.0090660391089223	0.0248444004512203	0.68994140625	0.3037109375	-0.0810546875	0	0	0	-0.454926281777456	-0.522399189701873	-0.402768442660116	0.598263107958455	0.129753336391942	-0.00661675863759759	0.991524225725369	0.957229242536114	0.261639319490567	-0.123519406290069	-0.258604425578716	0.965143038622589	0.0402823294939303	-71.9377410262217	-82.5349186016823	-2.91926390205404
50217	1652420074960	9.6535577232442	-1.25763601504206	0.384928594418583	-0.0496907290701043	-0.0183866216643617	-0.0700909104949332	-0.133693940467794	-0.0304374121748745	0.0188538475770773	0.691650390625	0.318603515625	-0.0869140625	0	0	0	-0.455493651583534	-0.522161445254905	-0.402991139923574	0.597888868937619	0.129891132464814	-0.00620538685099037	0.991508843571775	0.95757028051216	0.260247349020393	-0.123816296212259	-0.257269220053376	0.96552204040192	0.0397459169128139	-72.2029981738311	-82.5281381095402	-2.73515482756427
50218	1652420074961	9.77698164783791	-1.39337193681537	0.363254432067545	-0.157502407969079	-0.0696913725113934	0.0682611054837334	-0.102476178977297	-0.0407341792610344	0.0164841007203416	0.6923828125	0.306396484375	-0.080322265625	0	0	0	-0.455924767030823	-0.522057026769111	-0.403108011436958	0.597572588665366	0.129920783832674	-0.00573513919923985	0.991507790240031	0.957810052425284	0.259273075846462	-0.124005546707351	-0.256360085429417	0.9657870263777	0.0391781352177709	-72.4666639621517	-82.5276740220585	-2.52758696844754
50219	1652420074963	9.83325123382913	-1.43530392497865	0.382983948305933	-0.197141692550455	-0.0575923116558241	0.130019571767406	-0.0644806172797686	-0.0219570687210978	0.0134555568565452	0.690673828125	0.308349609375	-0.091552734375	0	0	0	-0.456134363662716	-0.522030555706701	-0.403243768293844	0.597344125715439	0.129757124481467	-0.00551844176382998	0.991530451094065	0.957982743122911	0.258671811236379	-0.123927228446347	-0.255797092487392	0.965949502237146	0.0388510823891232	-72.5938356102281	-82.5376645012631	-2.43526512862237
