// Start Time : 13/05/2022 05:33:58																																
// Update Rate : 100Hz																																
// Filter Profile : 46.1 human																																
// Firmware Version : 4.4.0																																
PacketCounter	Time_Of_Arrival	Acc_X	Acc_Y	Acc_Z	FreeAcc_X	FreeAcc_Y	FreeAcc_Z	Gyr_X	Gyr_Y	Gyr_Z	Mag_X	Mag_Y	Mag_Z	VelInc_X	VelInc_Y	VelInc_Z	OriInc_q0	OriInc_q1	OriInc_q2	OriInc_q3	Mat[1][1]	Mat[2][1]	Mat[3][1]	Mat[1][2]	Mat[2][2]	Mat[3][2]	Mat[1][3]	Mat[2][3]	Mat[3][3]	Euler_X	Euler_Y	Euler_Z
49996	1652420074782	9.72829428339038	-0.136676549428579	2.48959912943228	1.73472347597681E-15	-3.64291929955129E-15	0.230042514885413	0.0648297283607142	0.278858329574315	-0.0625789743250783	0.26171875	-0.3349609375	0.46923828125	0	0	0	-0.572319296669294	0.221761196064483	-0.740187417695233	-0.274581829817046	-0.194110882788575	0.152647607596289	0.969030274593198	-0.660320454636955	-0.750853581308745	-0.0139927346818332	0.725463894601988	-0.642586653558071	0.246545189160029	-3.24835165628349	-75.7033739384222	141.818706688024
49997	1652420074783	9.05573077625937	-0.0825194514051253	2.6903158288749	0.087325480249947	-0.173027525349101	-0.367411361177337	0.064864404889475	0.290983545322721	-0.0406725651105888	0.26318359375	-0.335205078125	0.459716796875	0	0	0	-0.562537599410769	0.222866119206196	-0.74492223560882	-0.28102136049542	-0.209156888388945	0.167936976851664	0.963353812389497	-0.669419263604656	-0.742715375710546	-0.0158656924885996	0.712833252278858	-0.648206018553567	0.267764284318277	-3.39095120178827	-74.4407986172725	141.238201258873
49998	1652420074783	9.0635399960218	-0.061454870823405	2.64108752330836	0.0209530303301973	-0.133984417318043	-0.372960963367047	0.0656367137760442	0.257222590896417	-0.0433011225017644	0.255859375	-0.34130859375	0.46435546875	0	0	0	-0.561719515157445	0.222138228882876	-0.745657346920074	-0.28128440153016	-0.210700543494209	0.169924804697914	0.962668604307641	-0.669042317602006	-0.743067385449197	-0.0152721294989117	0.712732529234482	-0.647283880094407	0.270251587120127	-3.23438946515235	-74.295100732056	141.114677823392
49999	1652420074784	9.004743866168	0.0395317396269526	2.65661623723628	-0.0369385427447508	-0.209537178441793	-0.426566198089274	0.0604423655138124	0.238669593824125	-0.0382809175365552	0.259765625	-0.34033203125	0.468017578125	0	0	0	-0.560956167266329	0.22147587580925	-0.746338117221203	-0.281524474287947	-0.21214429756553	0.17174837531169	0.962027698451672	-0.668701409055331	-0.743384813622841	-0.0147459961463153	0.712624180433026	-0.646437556499255	0.272553229680791	-3.09686449807228	-74.1600056393994	141.006964038872
50000	1652420074785	9.00766708535594	0.0390746778930831	2.70945563787402	-0.0118580358679513	-0.225466508485115	-0.408978773056162	0.0474839920421759	0.20320150653724	-0.0346752361492465	0.2548828125	-0.33984375	0.4716796875	0	0	0	-0.560302806639118	0.220915269054569	-0.746911408492275	-0.281745552999437	-0.213360416474735	0.173319045093068	0.961476906269596	-0.668436826215911	-0.743631774527177	-0.0142826213266457	0.7125093276864	-0.645733917741347	0.274514417541748	-2.97833797358371	-74.0447960989015	140.91201225251
50001	1652420074787	9.31537619710799	0.0682541567624898	2.7736421484035	-0.0618609985538043	-0.220034756684973	-0.0956036461838856	0.0479972766787671	0.17403253086903	-0.0281885906165709	0.25634765625	-0.34326171875	0.478515625	0	0	0	-0.559750126249349	0.220407462616602	-0.747412955518706	-0.281911724675547	-0.214411151308592	0.174662740618369	0.960999888259205	-0.668155160722137	-0.743892659826739	-0.0138705391486881	0.712458096588775	-0.645071033061926	0.276200693173497	-2.87492499580046	-73.9456687750867	140.833190934419
50002	1652420074786	9.40228977323845	0.125855740275043	2.68407694953109	-0.193553454114906	-0.176118394965646	-0.0374812291296163	0.0313620679628683	0.180089238927223	-0.0145937511016046	0.262939453125	-0.33642578125	0.482177734375	0	0	0	-0.559137175413373	0.219995477338708	-0.747930657557627	-0.282076834402764	-0.215596557128142	0.175932524867502	0.960502926204932	-0.66796312407903	-0.74406929888766	-0.0136434351762738	0.712280414882422	-0.644522012926302	0.277935218042538	-2.81031052037867	-73.8430268717599	140.784640089481
50003	1652420074786	8.1335557051593	0.242330170282702	2.81464452901008	0.0842300000089644	-0.559049104403508	-1.22106175720666	0.00977546431356751	0.156086141212958	0.0132815970712732	0.254150390625	-0.34033203125	0.478759765625	0	0	0	-0.558552943865243	0.219763872994855	-0.748396052008858	-0.282180435826665	-0.216785621072288	0.176865931820622	0.960063766974634	-0.667864964686637	-0.744156083525949	-0.0137154035827292	0.712011505132058	-0.644166256111373	0.279444898051543	-2.80987288611047	-73.7528488847563	140.790494942259
50004	1652420074787	8.71795034046383	0.176603981064582	2.98205281184665	0.115809264563484	-0.510385571923415	-0.612003648304919	-0.0230712632665769	-0.00647745920227278	-0.0155430250142747	0.25927734375	-0.341796875	0.482177734375	0	0	0	-0.558561704372198	0.219815933972367	-0.748330673520182	-0.282295909728625	-0.216635683518627	0.176939851062886	0.960083990978009	-0.668062901973973	-0.743979949044688	-0.0136306428893769	0.711871434763702	-0.644349380790661	0.279379555161363	-2.79318764649693	-73.756991026773	140.759347236878
50005	1652420074790	9.8619348938751	0.14590629870864	3.02171152206017	-0.0830460146737266	-0.308060312982748	0.497889262848764	-0.0360611035097232	0.0231228329549239	-0.0329805202688217	0.260498046875	-0.34228515625	0.488525390625	0	0	0	-0.5584474496338	0.219792184853132	-0.748319185286468	-0.282570767078247	-0.216580415180632	0.177421482250188	0.960007573614048	-0.668391022572877	-0.743690314140595	-0.0133475689714297	0.711580188527034	-0.644551265835084	0.279655682949983	-2.73257257447032	-73.7413451354157	140.675854817748
50006	1652420074790	8.91814493229118	0.217321387905541	3.03000224947101	0.0770944986269554	-0.53088278453493	-0.406643094110459	-0.0700756911727038	0.054541225604618	-0.0145124207965278	0.254638671875	-0.339111328125	0.482421875	0	0	0	-0.558160263711109	0.219936776431805	-0.748373887269341	-0.282880644866537	-0.216871321547675	0.177881037398162	0.959856846839319	-0.668920913929951	-0.743212710265357	-0.0134044099885655	0.710993418251733	-0.644975351338465	0.280169868773463	-2.73916292521663	-73.7105278053613	140.640893958129
50007	1652420074791	8.6828728362685	0.0809017769919759	3.09026115108946	0.260224918871964	-0.50713494400254	-0.613576705204071	-0.0862283381569206	-0.00184077561145249	-0.0382210671273487	0.255859375	-0.3369140625	0.482666015625	0	0	0	-0.558065482353809	0.220098258516912	-0.748236608286562	-0.283304874689539	-0.21660253076471	0.178299675488552	0.959839866533476	-0.669616638706448	-0.742590209149935	-0.0131658057913401	0.710420228339398	-0.645576491978552	0.280239348006066	-2.68981088665675	-73.7070595964782	140.53997543375
50008	1652420074791	9.55424514800959	-0.140967609125802	3.06142943170222	0.201587858678695	-0.167856843708023	0.217617106044264	-0.0956415334848941	-0.0202053537430128	-0.0605294619753854	0.25830078125	-0.341796875	0.468994140625	0	0	0	-0.558072115455837	0.220315758446138	-0.747989111122407	-0.283775915421415	-0.21605348755477	0.178618426699437	0.959904343233657	-0.67042675223661	-0.741864392814082	-0.0128527257834793	0.709823119094393	-0.646322427522062	0.2800329610619	-2.62787101655592	-73.7202327093853	140.418356719237
50009	1652420074792	9.77996951354976	-0.346455767060945	2.96992184124445	0.226423059397645	0.0880230291304672	0.411267583813663	-0.0865777815373578	0.0306713961351322	-0.0414767491997037	0.260009765625	-0.34130859375	0.478271484375	0	0	0	-0.557834521686471	0.220407557689183	-0.747955299099095	-0.284260488773762	-0.216033241873856	0.17932638876641	0.959776893187927	-0.671130166844926	-0.741232966071183	-0.0125693738912809	0.709164252875294	-0.646850629049176	0.28048230985663	-2.56590357491455	-73.6942036258955	140.304375018638
50010	1652420074793	9.33707406986063	-0.380448932880535	2.90289283834357	0.295565461672938	0.0812276278691109	-0.0321699534856457	-0.0577948588918655	0.0573714138775799	-0.0406081136072921	0.255859375	-0.3359375	0.473388671875	0	0	0	-0.557582514879837	0.220428868519141	-0.747993832308906	-0.28463675070427	-0.216167318497584	0.179998502228443	0.959620878060227	-0.671627633672521	-0.740786068143773	-0.0123419176604729	0.708652250473399	-0.64717581880012	0.281025706047296	-2.5146656485277	-73.6623956272935	140.216480883689
50011	1652420074794	9.42273736472673	-0.367740812487416	2.90564398755645	0.266633667328958	0.0931149876975857	0.0506899231146338	-0.0327081905437589	0.0698616752288452	-0.0379395478916243	0.256591796875	-0.3359375	0.473388671875	0	0	0	-0.557254012586248	0.220289527318154	-0.748145730927421	-0.284988517146822	-0.216499021101962	0.180911438875923	0.959374392583904	-0.671940330991	-0.7405081384968	-0.011995349420051	0.708254449650404	-0.647239328304336	0.281880979220939	-2.43673227249851	-73.6122651429021	140.11711258428
50012	1652420074794	9.57438160241322	-0.343925954368073	2.89457164501124	0.206206724541905	0.117580859030404	0.192774100395212	-0.0106266916401014	0.0897491554634024	-0.0391615097864053	0.2578125	-0.343505859375	0.477294921875	0	0	0	-0.556946208685798	0.220092248698202	-0.748328198710755	-0.285263439136183	-0.216871381845427	0.181782264186439	0.959125649830984	-0.672100438080819	-0.740368344710333	-0.0116496902299116	0.707988562667524	-0.647155253844187	0.28274064538697	-2.35940873615465	-73.5618263198398	140.030157027382
50013	1652420074794	9.2641923762104	-0.315835860628093	2.98798324318257	0.313940774885139	-0.00890940201252569	-0.0784999089731446	0.0193948553898674	0.122466666174537	-0.032654953667411	0.257568359375	-0.337890625	0.48095703125	0	0	0	-0.556473638643864	0.219716304213333	-0.74870227857759	-0.285493840931843	-0.217660712568883	0.182967115901126	0.958721465652475	-0.672032441001029	-0.740436024905635	-0.011264602262829	0.70781085923162	-0.64674378815785	0.284123670314583	-2.27040681317984	-73.4801872434116	139.949356446801
50014	1652420074795	9.43853710069312	-0.248763847125721	3.03557427140716	0.258491897696478	-0.0468029343222711	0.101623328452556	0.039671367251519	0.114441390442932	-0.0291509297394608	0.250244140625	-0.34228515625	0.47607421875	0	0	0	-0.556133770557842	0.219323279391618	-0.749022522909666	-0.28561825665749	-0.218274881418109	0.183922849702963	0.958398905205474	-0.67181517905965	-0.740639021161685	-0.0108722360952891	0.707827974388524	-0.646240068155637	0.285225056724048	-2.18294916629344	-73.4153152574885	139.881830624466
50015	1652420074797	9.40921976637311	-0.0706880321848059	2.90211472472043	0.0412498511932806	-0.084797881616207	0.0337217076342871	0.0466170815377753	0.151835090671453	-0.01842834724739	0.25830078125	-0.341064453125	0.471923828125	0	0	0	-0.555547933403982	0.218851835630022	-0.749546787610953	-0.285744607847698	-0.219433025553059	0.185192535766933	0.957889801591416	-0.671523275790641	-0.74090778625467	-0.0105897279762474	0.707746873796018	-0.645569033460727	0.286940735463868	-2.11357747797049	-73.3134252925876	139.836997117743
50016	1652420074798	8.45272135817351	-0.03051401787868	2.92884972235488	0.23474493490982	-0.298909974715692	-0.874951188580827	0.0465590787506287	0.121481414594452	0.00886898267825368	0.2548828125	-0.33251953125	0.486572265625	0	0	0	-0.555149346582281	0.218528368182922	-0.749947694037635	-0.28571491297482	-0.220352382986114	0.185910718662377	0.957539572027589	-0.671174241888143	-0.741224681606199	-0.0105407971076102	0.707792317235937	-0.64499858609475	0.28810911057715	-2.09529623560103	-73.2436812882822	139.845763000217
50017	1652420074798	9.02960358305448	-0.0862064785919348	2.92496548115195	0.134352621314537	-0.13987199599261	-0.322746471615012	0.0526699043869898	0.0575024391503764	0.00741374403367516	0.252685546875	-0.33544921875	0.483642578125	0	0	0	-0.55487913052659	0.218226932668469	-0.750266127005506	-0.28563419793912	-0.221044510947462	0.186424185543086	0.957280182195681	-0.670782468169345	-0.741580221651575	-0.0104716403606894	0.707947882669791	-0.644441461965165	0.288972312728334	-2.07534893265007	-73.1922081388029	139.856436710011
50018	1652420074799	9.25356478057884	-0.168963548018251	2.84257599978659	0.0775645861502992	0.020308419935802	-0.131219709257778	0.0572575876648774	0.0654303281870633	0.028238456933752	0.257568359375	-0.34033203125	0.48193359375	0	0	0	-0.554684582543282	0.217997010730188	-0.750550384789465	-0.285440776859007	-0.221697153589823	0.186636208027148	0.95708792592082	-0.670314531597379	-0.742001732437657	-0.010576284267254	0.708186981537755	-0.643894676878729	0.289604634402975	-2.09149716457943	-73.1541554964486	139.90758128687
50019	1652420074800	8.76647550392311	-0.275865084895086	2.84532125509994	0.251644708024112	0.0110408806070353	-0.595334239673679	0.0807845556127682	0.0388960419266296	0.0562729467361869	0.262451171875	-0.33349609375	0.4765625	0	0	0	-0.554460878805326	0.217751710323814	-0.750924625930504	-0.285078116832233	-0.222607202355627	0.186674747151424	0.956869151052197	-0.669613965821444	-0.742629319908882	-0.0109009168673409	0.708564160987753	-0.64315956961521	0.290314653050959	-2.15036768135551	-73.1109553918226	140.017354990083
50020	1652420074800	8.87917770379061	-0.474136360496602	2.89578055669804	0.392361848613081	0.146249633122176	-0.47058856667438	0.116930457421832	-0.0134278285187086	0.0597316299773365	0.261474609375	-0.33740234375	0.48583984375	0	0	0	-0.554612806918433	0.217497359132117	-0.751099692497813	-0.284514999784375	-0.222911698599508	0.186144616006898	0.956901539636721	-0.668651899389339	-0.743492227336504	-0.0111330738448202	0.709376495290415	-0.642315724408059	0.290199066345223	-2.19699357770195	-73.1173441943121	140.136097219517
50021	1652420074801	9.29216718574394	-0.626220125902063	2.87560599387013	0.383495390241701	0.348300858077421	-0.0793811792686743	0.172030551753732	-0.030330454796034	0.0861029146298758	0.25341796875	-0.338623046875	0.489501953125	0	0	0	-0.554719784998786	0.217112916631247	-0.751442502890552	-0.283693684124895	-0.223607707437089	0.185485323237815	0.956867173665233	-0.667232644974395	-0.744759750039035	-0.0115547480399541	0.710492920904355	-0.641036745893055	0.290295883125547	-2.27936061997613	-73.110565418827	140.32387909865
50022	1652420074802	9.45545627814523	-0.739986389895557	2.88845529636944	0.4298584210608	0.450723271403812	0.0821837416279383	0.242260166332479	-0.0287669088868383	0.140799985276776	0.2548828125	-0.330078125	0.48095703125	0	0	0	-0.555018138250878	0.216633791019978	-0.751824656773015	-0.282461240294983	-0.224341027887098	0.184251283324636	0.956933941189143	-0.665194016821187	-0.746570896638666	-0.0121990277249527	0.712171343983915	-0.639283474591174	0.290049333601684	-2.40835275117427	-73.1237379043528	140.603738693213
50023	1652420074803	9.43883419610266	-0.861831065081055	2.82138179495267	0.457056686115208	0.576696641559506	0.0490088890122315	0.326490437302794	-0.015512142671119	0.187161939004399	0.255126953125	-0.342041015625	0.491455078125	0	0	0	-0.55515180855613	0.215996510179656	-0.752532232752453	-0.280797463869737	-0.225918507482364	0.182796578338141	0.956841804544936	-0.662439991410336	-0.748996583749068	-0.0133182323339516	0.714236715492291	-0.636859111954987	0.290303954094135	-2.62670838875271	-73.1055629893998	141.022771850745
50024	1652420074804	9.42486402334931	-0.876541163293093	2.8437118103191	0.477713297450086	0.565129917125166	0.0430465160232689	0.420314659529287	-0.0121647964071777	0.244400555506914	0.250732421875	-0.3447265625	0.488037109375	0	0	0	-0.555522104250213	0.215109818834105	-0.753293318788856	-0.278697207375039	-0.227446116581542	0.18088497015425	0.956843190718455	-0.658878006968666	-0.752111264885027	-0.0144366604879464	0.717041167566392	-0.633726496846504	0.290245915061149	-2.8475115432066	-73.1058362859458	141.505221505313
50025	1652420074802	9.51101085584894	-0.913863794333615	2.7494101714227	0.397083828402566	0.659196986766821	0.100006070234517	0.502706070895761	-0.00740226770974588	0.314811153904753	0.25634765625	-0.337646484375	0.49462890625	0	0	0	-0.55569508774317	0.214243420356545	-0.754408150069481	-0.275991067610499	-0.230063800114655	0.178311788956621	0.956700346919501	-0.654527854050329	-0.755857374866292	-0.0165202037671832	0.72018326566859	-0.629987725895773	0.290605452584079	-3.25362202466459	-73.0776958804886	142.222395147992
50026	1652420074802	9.63884957332624	-1.07109193337581	2.77457371859396	0.471798505550515	0.775430364803957	0.233654815977509	0.594562379403154	0.0128250929105658	0.38266479260907	0.241455078125	-0.3359375	0.48486328125	0	0	0	-0.556053703181348	0.21304497099035	-0.755604075321669	-0.272907678293073	-0.232651356613988	0.175491417682948	0.956596105253048	-0.649349197936336	-0.760266478928811	-0.0184526463312168	0.724029671633081	-0.625457946897166	0.29083223902806	-3.630420996348	-73.0571887808267	142.972357226991
50027	1652420074803	9.67163042113595	-1.35383615533363	2.72206053565589	0.578771335702853	1.01477047732602	0.257968531165531	0.700131972059075	0.0339351364744563	0.468486498576381	0.23974609375	-0.338623046875	0.498046875	0	0	0	-0.556162470475722	0.211892945793375	-0.757232941966173	-0.269040810210278	-0.236600697751479	0.171759320031339	0.956304787087195	-0.643146936866626	-0.765436843928806	-0.0216438341193173	0.728273387830826	-0.620165440780668	0.291569371914696	-4.24540484800239	-73.0000060993703	144.022378090745
50028	1652420074803	9.48615770262331	-1.37496273462984	2.74557264832291	0.623017059145909	0.973531423443901	0.0908405663403418	0.822550630220656	0.0509331271438993	0.548288860204634	0.2490234375	-0.33984375	0.494384765625	0	0	0	-0.55648826322804	0.210232376477827	-0.758974396663363	-0.264728211529124	-0.240479573820062	0.167860169129278	0.956029569728474	-0.635827569371075	-0.771442643802153	-0.0244856968701125	0.733411805606504	-0.613758267515343	0.29224632153985	-4.78930946950392	-72.9461547878847	145.084089816013
50029	1652420074804	9.19926538674929	-1.16863268113571	2.84119563181077	0.589153680045765	0.688859907094151	-0.156453930814877	0.926153028286325	0.0545478063887563	0.616916894341611	0.2353515625	-0.33642578125	0.501220703125	0	0	0	-0.556593073494364	0.208744842137312	-0.761089055970809	-0.259563461027604	-0.245661920474938	0.162729952513426	0.955598861125077	-0.627473685558634	-0.778104801160881	-0.0288043806017469	0.738868726337791	-0.606689278762502	0.293259482838333	-5.60968274377525	-72.8622083320036	146.47894205945
50030	1652420074805	8.97078934954508	-0.98094453140116	2.93426380111417	0.564680626044037	0.435106005228969	-0.350185599530787	0.998246490579565	0.0267498115167467	0.671512114635678	0.2333984375	-0.32958984375	0.5068359375	0	0	0	-0.557075572448269	0.206776740873694	-0.763063228379716	-0.254253211405111	-0.250044222143242	0.157642010058988	0.955315070349748	-0.618403095223791	-0.785197367847682	-0.0322909483092077	0.74502046870567	-0.598843961470461	0.293820372030173	-6.27165457883929	-72.8071139368606	147.77035134725
50031	1652420074806	8.92361415796715	-1.03731057850481	2.91719620106877	0.558254179482899	0.457194204395432	-0.394823799664044	1.07921900123428	-0.0038868509434233	0.728732605463757	0.240478515625	-0.344482421875	0.517333984375	0	0	0	-0.55739461139934	0.205129290890767	-0.765292626684266	-0.248113717364289	-0.255501660877306	0.151083274190866	0.954930754321331	-0.608435119721591	-0.792723114548649	-0.0373733695251256	0.751349190708495	-0.590562365817579	0.29446644240326	-7.23324647823323	-72.732775616289	149.403320731522
50032	1652420074806	8.88748393300448	-0.489874219382598	3.02258222418538	0.289386116003342	-0.0640900963169348	-0.417186418971548	1.13503274005377	-0.0469370314200638	0.688939396954669	0.226318359375	-0.3349609375	0.51953125	0	0	0	-0.558262848647033	0.202760459884484	-0.767163998747352	-0.242260576144582	-0.25930481013319	0.145319920811641	0.954800050302203	-0.59809444852402	-0.800396018307056	-0.040610891678974	0.758316586978381	-0.581591209092358	0.294461575455865	-7.85245442038216	-72.7075641288728	150.732803988401
50033	1652420074807	9.30496713993244	-0.225597254854902	3.08772788283635	0.044183248278374	-0.282361849515168	-0.0103587813990238	1.13212099948722	-0.0682415580331132	0.622231668202424	0.234375	-0.332763671875	0.524169921875	0	0	0	-0.558805028805125	0.200763136961823	-0.769166760199567	-0.236249016132244	-0.2638466843173	0.139054879611628	0.954488694344235	-0.587804681743464	-0.80776113042759	-0.0448063867189333	0.764768320012821	-0.572874939778777	0.294862205238702	-8.64039649519261	-72.6476497618424	152.209464730189
50034	1652420074808	9.38924773821417	-0.169722425836014	3.08847050447083	-0.0210960293078027	-0.33564725005022	0.0672057179418495	1.13568961121858	-0.0385688209641164	0.598653030145269	0.228759765625	-0.332763671875	0.521484375	0	0	0	-0.559681579292438	0.198110553336792	-0.770890676038574	-0.230729937489921	-0.267040451493239	0.133977460255818	0.954326693229152	-0.577492769719956	-0.815031809204974	-0.0471725651755414	0.771486550879185	-0.56371374839316	0.295017476914626	-9.08455214862826	-72.6165549851094	153.356519773295
50035	1652420074808	9.32074363944547	0.2268552067605	3.0581498756603	-0.275988802361421	-0.676545864138844	-0.0276940237873298	1.10379079706679	-0.0405322124326718	0.541902118622271	0.225341796875	-0.333251953125	0.52880859375	0	0	0	-0.560128705904051	0.195876217911058	-0.77278256859912	-0.225156482803535	-0.271120782147588	0.128562225323518	0.953921000768693	-0.567425795147121	-0.821874131016802	-0.0505062349322719	0.777509799609843	-0.55497267228688	0.295776680158225	-9.6902504547436	-72.5389211437389	154.630252715405
50036	1652420074809	9.49888913663466	0.412115230974032	3.09174273744973	-0.406281648759613	-0.841305690739445	0.141443704721302	1.04591438426191	-0.027180271568299	0.490669660438398	0.218505859375	-0.32568359375	0.5380859375	0	0	0	-0.560920243574959	0.193237913560131	-0.77427067070553	-0.220300970483438	-0.273671925503727	0.12436304526245	0.953749186193169	-0.557927275430713	-0.828253182333965	-0.0520943498291394	0.783467186627203	-0.54637944592262	0.296055178221471	-9.97969653071601	-72.5061431107577	155.561820685025
50037	1652420074810	9.39834327337901	0.591842108140411	3.06599514438512	-0.511509666407684	-1.00771047985098	0.0261296619073406	0.980943266798902	-0.0086975673329905	0.448988798425773	0.220947265625	-0.32080078125	0.536865234375	0	0	0	-0.561203171917871	0.190989948178952	-0.775951853132394	-0.215574954816942	-0.277156877369989	0.120183241913361	0.953278581365233	-0.548919900803191	-0.83410055710055	-0.0544353115795961	0.788587983568563	-0.538360705296874	0.297147679047845	-10.3810667882255	-72.4166662997103	156.557049495739
50038	1652420074810	9.33424023574336	0.820350635392909	3.1204534064885	-0.576044717722106	-1.2484433487307	-0.0327183184099002	0.888867621946818	0.00359066296240819	0.400337136116756	0.228271484375	-0.3271484375	0.5498046875	0	0	0	-0.561757004524143	0.1886604852851	-0.777233566643866	-0.211528418994015	-0.27936959165191	0.116851276910854	0.95304690878495	-0.54077667325417	-0.839325898499766	-0.0556113816741914	0.793418692068946	-0.530921665777413	0.297672578320106	-10.5820481711485	-72.372779626351	157.302016877497
50039	1652420074811	9.19768344281887	1.00122969456749	3.15284880394109	-0.61465165994009	-1.44524693273763	-0.165213612212819	0.778308491362083	-0.00112826081202436	0.357502176787872	0.21435546875	-0.331298828125	0.551513671875	0	0	0	-0.561973808924992	0.186715315786522	-0.778525611311256	-0.207895890929837	-0.281929473233652	0.113846316756129	0.952656700119859	-0.533562785544868	-0.843833378770458	-0.057061219356363	0.79738731241712	-0.524389402099143	0.298645657866152	-10.8169395944996	-72.2990990057654	158.010585372279
50040	1652420074812	9.22198406277453	0.993215566422245	3.15802923465641	-0.610486387548794	-1.44970114907577	-0.141582035085262	0.655896323409073	-0.00764052227197551	0.311098836010727	0.222900390625	-0.316162109375	0.550048828125	0	0	0	-0.562389796295792	0.18504507171048	-0.77943525590661	-0.2048333964661	-0.28352199342908	0.111173821215955	0.952499690665695	-0.527443661955143	-0.84760320225565	-0.0580688814195402	0.800886048514612	-0.51885372987212	0.298952076916083	-10.9923327793605	-72.2695355412909	158.589005236505
50041	1652420074812	9.37620511325346	0.794084126895443	3.09415696401846	-0.602109534777236	-1.23625389178915	-0.00316492837584725	0.535027610202977	-0.00469427293165374	0.274390231178985	0.220703125	-0.322021484375	0.54833984375	0	0	0	-0.562535292980054	0.183564634557177	-0.780322264295209	-0.202373992738527	-0.285197622429824	0.109310693533583	0.952215043170177	-0.522357035459176	-0.850697584005913	-0.0587941159709374	0.803620211086479	-0.51416416915778	0.299716138183471	-11.0985544883105	-72.2160602768804	159.029144834513
50042	1652420074813	9.36201365014814	0.540977709038639	3.07348191105351	-0.48398129876453	-1.02133244136943	-0.00917354766453293	0.43445913061843	0.00419998343754539	0.234304752510355	0.220458984375	-0.318359375	0.550048828125	0	0	0	-0.562740338927727	0.182525842421251	-0.780968084966108	-0.200241049878115	-0.286453665774435	0.107334429655421	0.952062822283768	-0.518193047364237	-0.853175677584245	-0.0597262826737917	0.805866157018493	-0.51046114777641	0.300015255583839	-11.2591002086906	-72.1875270780197	159.458983556096
50043	1652420074813	9.33888635614911	0.240545604841318	3.0220999113089	-0.366954899643912	-0.740160946836688	-0.0288614013106159	0.356650562184599	0.0126237113149691	0.188416521797573	0.21435546875	-0.326171875	0.547119140625	0	0	0	-0.562763590052962	0.181332820737663	-0.781611812805691	-0.198742355618088	-0.28759723558815	0.106583727326338	0.95180236349322	-0.514773764097369	-0.855239768413393	-0.0597738263894333	0.807648315716118	-0.507153672562303	0.300831099668048	-11.2380542828524	-72.1388074135843	159.665260697312
50044	1652420074814	9.36794855780548	-0.00861516670502216	2.97887734852279	-0.286038277665189	-0.506545368263505	0.0002549133019496	0.298408074520251	0.0202980277925509	0.148683549127485	0.2099609375	-0.314697265625	0.552001953125	0	0	0	-0.562843790060019	0.180566653369862	-0.782086684002878	-0.197339733421994	-0.28852779520762	0.105411916385745	0.951651217241125	-0.511935194550332	-0.856905426607489	-0.0602946633737274	0.809119316277485	-0.504580437328403	0.301205103363363	-11.3197436875286	-72.1105938758425	159.930524085742
50045	1652420074814	9.30751998552829	-0.208002793698011	2.94141460922028	-0.200407939299425	-0.31561423187364	-0.0563900797634922	0.256258187539326	0.0233459281051802	0.102238059010886	0.207763671875	-0.319580078125	0.552978515625	0	0	0	-0.562831607516837	0.17945421912226	-0.782559595988958	-0.196512705810164	-0.289206676070362	0.105560794082477	0.951428619113914	-0.509570820579519	-0.858357879388775	-0.0596601182124237	0.810368482438852	-0.502074366646896	0.302033529638466	-11.1736874495338	-72.0691210498765	159.947855386789
50046	1652420074815	9.307966347929	-0.306630204473247	2.94353170822227	-0.151497631003937	-0.231416799130391	-0.0494843705896883	0.226701226751044	0.0204106985803848	0.0715300821369155	0.208740234375	-0.314208984375	0.552978515625	0	0	0	-0.562908493040152	0.178750375359204	-0.7828907214521	-0.19561301090781	-0.289739156853692	0.105047013622443	0.951323470705269	-0.507527431317688	-0.859567706545049	-0.0596595702712781	0.811459874205608	-0.500108471027927	0.302364663544417	-11.1616580918683	-72.0495628097577	160.071523384875
50047	1652420074815	9.26873250834093	-0.281778197235064	3.00835661887769	-0.100810200681649	-0.277879484851356	-0.0683746440458073	0.199560010673291	0.0150688168612723	0.0406844161659982	0.207763671875	-0.3154296875	0.55322265625	0	0	0	-0.56294757215873	0.177689577386862	-0.783211667922851	-0.195181782751811	-0.289988205364833	0.105677466858714	0.951177750868684	-0.505797131610093	-0.860660971539806	-0.0585828790958524	0.81245067690555	-0.498091322014831	0.30303289017734	-10.9415511960198	-72.0224920582776	159.977254185615
50048	1652420074816	9.30902500952665	-0.205234595195851	3.03554534266812	-0.129161201929278	-0.349785925603115	-0.0261880148446565	0.16691520878171	0.00974735295703037	0.0176770971046195	0.216552734375	-0.316162109375	0.5537109375	0	0	0	-0.56305497132781	0.177078175887318	-0.783404928774328	-0.194651320210136	-0.29015992560698	0.105572112796073	0.951137080851927	-0.504391101784131	-0.861508366329742	-0.0582490444973069	0.81326307798445	-0.496646618576662	0.303224837774919	-10.8739696824688	-72.0149437170952	160.006532522354
50049	1652420074816	9.23272728586383	-0.128856920740625	3.01893471682183	-0.156700974775892	-0.402167072477026	-0.107661413319365	0.125609856847416	0.00315830107415111	-0.00976219679070559	0.220458984375	-0.315673828125	0.55029296875	0	0	0	-0.563122985347038	0.17617097676476	-0.783568626981766	-0.194618850909924	-0.290032012488679	0.106582598849965	0.951063395023777	-0.503406304319068	-0.862174579632501	-0.0568954040967866	0.813918622777231	-0.495272797413613	0.303712580639178	-10.6104143411748	-72.0012754496587	159.822344951277
50050	1652420074817	9.33308599213439	-0.0981294648954298	2.99501965191696	-0.218484508292096	-0.401546058468003	-0.0209924657511813	0.0813807839129396	0.00153887296925781	-0.0335373423335148	0.21337890625	-0.31787109375	0.5546875	0	0	0	-0.563224212774455	0.175758251438153	-0.783612493990396	-0.194522447183224	-0.28987900737289	0.106877834338985	0.951076910460724	-0.502843045558459	-0.862540109186506	-0.0563332191342201	0.814321209731149	-0.494572227861147	0.303775046391996	-10.5058062692287	-72.0037817282917	159.761166128524
50051	1652420074818	9.43675409154032	-0.0662492334364274	3.05923192100095	-0.208205675658647	-0.434526827650419	0.0960688671733827	0.0302985277458241	0.00854029403822628	-0.0584220339155476	0.216064453125	-0.320068359375	0.55908203125	0	0	0	-0.563235365193534	0.175067288035275	-0.783649177202774	-0.194964958709755	-0.28950917654122	0.108360083132566	0.951021834177286	-0.502776434772524	-0.862680219070556	-0.0547603530102652	0.814493887844381	-0.49400499188559	0.304234736110561	-10.2036272217314	-71.9935705934021	159.47968097766
50052	1652420074819	9.59284264568814	-0.178730879664041	3.04227670272193	-0.208845986389292	-0.304507185422926	0.245825125183478	-0.00985112319977215	0.037786631865827	-0.0944722043782435	0.213623046875	-0.320068359375	0.557373046875	0	0	0	-0.563158900430541	0.174805017895485	-0.783655338089383	-0.195395930531927	-0.289344966394853	0.109360124669049	0.950957335296559	-0.503132131340099	-0.862527272100243	-0.0538958560232895	0.814332578763205	-0.494051685571139	0.304590517168847	-10.0343543864969	-71.981619623101	159.295534278925
50053	1652420074819	9.56256865800115	-0.169624266642329	3.00097635429441	-0.235993551670373	-0.274354438927702	0.204616393238771	-0.0422011362248884	0.0683022454563932	-0.123197881494206	0.21337890625	-0.314208984375	0.558349609375	0	0	0	-0.562936659211382	0.174148586856358	-0.783721434635515	-0.196355036361976	-0.289094034822431	0.111706054208431	0.95076095654127	-0.503844548973636	-0.862233938782441	-0.0518970642837437	0.813981148123002	-0.494038857039505	0.305549174823724	-9.6396077458731	-71.9452797805376	158.873447464644
50054	1652420074819	9.49356173228351	-0.183272968848586	3.02482941263118	-0.190806805752282	-0.267901234674815	0.147367689674272	-0.0713669851677247	0.0962517039888534	-0.159513198191422	0.220458984375	-0.31396484375	0.55615234375	0	0	0	-0.562626602600148	0.173886703526398	-0.783773788314728	-0.19726471842202	-0.289075873824994	0.113555260832136	0.950547390670061	-0.504888401801722	-0.861700090405208	-0.0506029240435784	0.813340544236189	-0.494548437398201	0.306429440766676	-9.37704197004514	-71.9058395558614	158.554025544979
50055	1652420074820	9.31812549541759	-0.0990465421307069	2.98703667123382	-0.213281506919696	-0.314717022307527	-0.0343902505411755	-0.0937443935311389	0.125427618685931	-0.190295695760846	0.212646484375	-0.318359375	0.553466796875	0	0	0	-0.562202840691339	0.173190691383351	-0.783874952735826	-0.198678153832152	-0.288909914216874	0.116741059535605	0.950211863999657	-0.506214254243673	-0.861063951216009	-0.0481248451093257	0.812575036699824	-0.494914534980312	0.307865900673492	-8.88443752766728	-71.8440435076652	157.997634138755
50056	1652420074821	9.18976948257486	0.0613778684632233	3.01056539101872	-0.241505022862043	-0.458817925533375	-0.156070302009613	-0.124437771046556	0.146944091532732	-0.23166577295623	0.21728515625	-0.31005859375	0.557861328125	0	0	0	-0.56170183103104	0.172883023586906	-0.783949815200424	-0.200062991127911	-0.28893170519466	0.119461268040444	0.949867082897115	-0.507896111652235	-0.860172519472805	-0.046311731908303	0.811517103640981	-0.49581472566068	0.309205026343652	-8.51825683447395	-71.780754029112	157.536936421423
50057	1652420074822	9.26981208754642	0.227387513654633	3.02159827501452	-0.341049788317013	-0.565256155110804	-0.0825639202794353	-0.163246909007169	0.149876285858031	-0.245852928104836	0.21484375	-0.3076171875	0.56298828125	0	0	0	-0.561170064024625	0.172270336247467	-0.783990805310969	-0.201914604919113	-0.288637303125914	0.123252476186093	0.949472134587528	-0.509944298672233	-0.859106847139087	-0.0434998557517557	0.810336547056768	-0.496733582831618	0.310822180983566	-7.96685336249576	-71.708515640571	156.876787879462
50058	1652420074823	8.96449443987821	0.335379621744515	3.05312838990263	-0.287356772843126	-0.688265573090048	-0.366000001795827	-0.218995639802251	0.167255001932152	-0.263579656096449	0.220458984375	-0.315185546875	0.56494140625	0	0	0	-0.560517906650446	0.17222202965917	-0.784004527406328	-0.203706037786459	-0.288647052987087	0.126345848681879	0.949062487575358	-0.512479974856475	-0.857686845338836	-0.0416839381995465	0.808731818449712	-0.498407465688038	0.312318497648556	-7.60211848181947	-71.6338787301472	156.36016629173
50059	1652420074823	8.67862465606954	0.466035231913853	3.09723570013284	-0.238658599938147	-0.826924569260107	-0.626405002282585	-0.278047439271496	0.146178723122069	-0.272694324938679	0.21630859375	-0.3115234375	0.5634765625	0	0	0	-0.559914688302727	0.171954281393919	-0.783894443723413	-0.20600186414866	-0.288117547580276	0.130407977667608	0.948673831270249	-0.515526889143591	-0.855989914155156	-0.0389010724091365	0.806982221208287	-0.500274950627446	0.313854533866323	-7.0655584690729	-71.5633360139626	155.647506242259
50060	1652420074824	8.55880696143139	0.501525863125416	3.15363322838911	-0.180831282893265	-0.881750365991461	-0.72203857847899	-0.347983126176577	0.103677608558862	-0.295546108587839	0.214111328125	-0.30712890625	0.55810546875	0	0	0	-0.559401010600644	0.172385473228523	-0.783579545706197	-0.208223085918987	-0.287427311658706	0.133453486266073	0.948459649914576	-0.519183918013697	-0.853852790220304	-0.0371950522105762	0.804881109101584	-0.50311587098444	0.314707515917513	-6.74047728921259	-71.5245723463807	155.094396230658
50061	1652420074826	8.60544322665868	0.467489166635413	3.2213575563938	-0.119815332017601	-0.853247440256944	-0.652614354052151	-0.411081828563116	0.0549057070449742	-0.308726386341107	0.2197265625	-0.312744140625	0.553955078125	0	0	0	-0.559034766618404	0.172585312476961	-0.783058329619891	-0.210983629796348	-0.285932075339728	0.137462597686295	0.948339012447158	-0.523387357215583	-0.851400435750375	-0.0343943645232617	0.802688309743454	-0.506183101497282	0.315388879258272	-6.22372944074045	-71.5027732613519	154.323956827916
50062	1652420074826	8.80300510401104	0.390048297349444	3.2328378222877	-0.12401740639424	-0.751898835074534	-0.457713879880845	-0.472976389657078	0.00954731236255888	-0.326544110709245	0.22119140625	-0.31103515625	0.560546875	0	0	0	-0.558776437695693	0.17351553045145	-0.782329767408741	-0.213591639336488	-0.284295008563327	0.140285415064053	0.948417814270844	-0.528110975026212	-0.848541944595408	-0.0327927784597226	0.800171947872982	-0.510192679859826	0.315322506736527	-5.93727907824038	-71.517009871834	153.735957623181
50063	1652420074828	8.89525440170801	0.213713418385059	3.13943913031769	-0.122126110609892	-0.517845400003892	-0.392272990400675	-0.517272126937742	-0.0270648570671606	-0.341377766631281	0.21630859375	-0.322509765625	0.55419921875	0	0	0	-0.558622053166136	0.174092205667689	-0.781449892344945	-0.216724182767599	-0.281944060640334	0.144214687843962	0.948530268615456	-0.533221669325184	-0.845445065058951	-0.0299548548574403	0.797610304617301	-0.514222486650997	0.315266611284419	-5.42762782599335	-71.537344609906	152.910207518271
50064	1652420074829	8.92823041714256	0.0836448701921915	3.09111074971112	-0.0901033816706469	-0.368223120278185	-0.371737514955633	-0.548699755758289	-0.0672798601003506	-0.348921420853749	0.216796875	-0.315185546875	0.543701171875	0	0	0	-0.558589602161957	0.175335382270841	-0.780402693349844	-0.219560461588132	-0.279541720127506	0.146810108297858	0.948843094937054	-0.538572194008194	-0.842101414862289	-0.0283760273493582	0.794856225080584	-0.518952790905398	0.314470320160969	-5.1560840944565	-71.5940259824278	152.2923806496
50065	1652420074830	9.27263330072646	-0.176005117664963	2.96363753309543	-0.129406884375272	-0.0131933910024362	-0.0772416664002744	-0.565522031219445	-0.106027457418457	-0.345804588170711	0.225830078125	-0.314208984375	0.543212890625	0	0	0	-0.5586754489242	0.176179050697094	-0.779241622406958	-0.222767095356086	-0.276513127991914	0.150324965129847	0.949180117210026	-0.5440326060868	-0.838671526644167	-0.0256630845914396	0.792192535664489	-0.523481112605845	0.31368536972963	-4.67704009841023	-71.6552806150962	151.469509121747
50066	1652420074831	9.69198651299284	-0.334663017242276	2.9404558346568	-0.158205090094993	0.202099770210355	0.317809630644737	-0.562340378206836	-0.108377758221108	-0.351326541094972	0.2216796875	-0.321533203125	0.542724609375	0	0	0	-0.558776182707139	0.177510210073016	-0.778048427904144	-0.225610165539944	-0.273738461688554	0.15269431408281	0.949606076770344	-0.549448224387379	-0.835180357049746	-0.0240919056078178	0.78941364525193	-0.528354253929161	0.312518605918143	-4.40818494631436	-71.7329835380139	150.846742935653
50067	1652420074832	10.0627825132202	-0.445479976334265	2.94710244222654	-0.170834503141438	0.367564158683895	0.674406384335096	-0.545113451068871	-0.0670605790917254	-0.335254142969086	0.220947265625	-0.30419921875	0.545654296875	0	0	0	-0.558721524181375	0.178308844540712	-0.776999155409653	-0.22871057445532	-0.271043463097517	0.156165867576468	0.949814541326987	-0.554665825163695	-0.831794858181747	-0.0215206017082606	0.786690068265503	-0.532662684732559	0.312072428749995	-3.94488751203123	-71.7711279180605	150.05094176995
50068	1652420074833	10.2179244778895	-0.470327662829176	2.97518645793631	-0.162210055597182	0.408314159511433	0.830895984284392	-0.522567521407148	-0.000708319000313519	-0.31643616141252	0.23046875	-0.321044921875	0.535888671875	0	0	0	-0.558404688957904	0.179456786685868	-0.776166427609442	-0.231398231873551	-0.269278123271243	0.158788055675456	0.949881911451274	-0.559626100278285	-0.828500239996354	-0.0201489506749628	0.783777978903998	-0.537004381453998	0.311958930124419	-3.69551374227561	-71.7834716491785	149.472976586947
50069	1652420074834	10.0476726102587	-0.461297724476299	2.92728866115735	-0.147145298298412	0.423230751063975	0.653292737553553	-0.494654595493888	0.073498484161581	-0.30476560449772	0.2236328125	-0.326171875	0.535400390625	0	0	0	-0.55784240236736	0.180051230679655	-0.775559627967518	-0.23430892411225	-0.267822364404745	0.162560661884854	0.949655312380345	-0.564321506171008	-0.825361764824204	-0.0178660247162361	0.780904871797799	-0.540695837207791	0.312786816903508	-3.26911715301794	-71.7419856168136	148.74342381528
50070	1652420074835	9.6473952845602	-0.372354374002078	2.92430420620618	-0.0904015726658446	0.303046720349267	0.270090242491056	-0.467039488348616	0.121797942987037	-0.284268876875032	0.22607421875	-0.31884765625	0.542236328125	0	0	0	-0.557075141453359	0.180927774818366	-0.7751434519109	-0.236822836807705	-0.267164461482142	0.165562610929346	0.949321954019402	-0.568724073928478	-0.822360168531252	-0.0166337292104568	0.777930638460237	-0.544346190466609	0.313864854147988	-3.03363604671348	-71.6811189314333	148.213381805505
50071	1652420074835	9.32507639929005	-0.235556129388007	2.97953919709852	-0.0377965589127418	0.1316573847147	-0.0212930725980378	-0.450715499647228	0.140185307944399	-0.277636511220865	0.2314453125	-0.320556640625	0.5390625	0	0	0	-0.556286371434872	0.1814082685474	-0.774769667051219	-0.239517172820241	-0.266353993760044	0.169311385560944	0.948888404780829	-0.572971175395007	-0.819445128053666	-0.0146189697165916	0.775086822346076	-0.547579525574636	0.315273026116916	-2.65485993439495	-71.6022497021465	147.557388462607
50072	1652420074836	9.11350533257034	-0.144056328179432	3.04319158863269	0.0116536949392058	0.00193296475807063	-0.203442438295582	-0.445647193407896	0.131866542542372	-0.251343539260576	0.233642578125	-0.324951171875	0.53125	0	0	0	-0.555466340465329	0.182278707462942	-0.774429153785697	-0.241849339842936	-0.265932082855184	0.172090986038008	0.948506626140677	-0.577089732354769	-0.816566739246351	-0.0136455548543306	0.772170685871333	-0.551002225840375	0.31646323483139	-2.46900308597691	-71.533067627235	147.092132063077
50073	1652420074837	8.99291871797723	-0.175753382645736	3.14917836891355	0.142358268894088	-0.0323468135287665	-0.28381139753918	-0.440739203125948	0.112456835833822	-0.224197321487581	0.22412109375	-0.314208984375	0.53515625	0	0	0	-0.554737586810703	0.182931749118882	-0.774042691588473	-0.24425416381756	-0.265212226474444	0.175168066671533	0.948144832473935	-0.581084534900612	-0.813751757244182	-0.0122000361206946	0.76941746680707	-0.554187897739173	0.317604369887488	-2.19980310486207	-71.4677370815474	146.55593132485
50074	1652420074838	8.87058202249575	-0.204143038075668	3.16487946111071	0.199486883682483	-0.0299968363871776	-0.394372184586876	-0.43582571223051	0.0883059881376855	-0.206532901934604	0.23583984375	-0.324462890625	0.533203125	0	0	0	-0.554049276271245	0.183938916574228	-0.773635060500242	-0.246342581779106	-0.264689463731427	0.177336069104793	0.947887865933534	-0.584980963529066	-0.810963614743807	-0.0116313314054959	0.766639915539346	-0.557575048003512	0.318391748865617	-2.09217097872591	-71.4214702404343	146.178792001713
50075	1652420074839	8.82971020935566	-0.208009527652338	3.23215738154734	0.263766199232425	-0.0592196419933771	-0.411580548372449	-0.427301931972283	0.0607975152528535	-0.193952821199724	0.22998046875	-0.33056640625	0.521728515625	0	0	0	-0.553481269589176	0.184715113049794	-0.773160002041086	-0.248520466901187	-0.263792123490339	0.179819458826931	0.947670131328221	-0.588764879959363	-0.808235809084436	-0.0105258272864681	0.764048186772859	-0.560731521443924	0.319077622449911	-1.889405006591	-71.3823539298656	145.718877446809
50076	1652420074839	8.72789504098683	-0.214900520189885	3.25752993021644	0.312913391379149	-0.0820482489015985	-0.499836673600454	-0.411513491334574	0.031239951627009	-0.177457628934985	0.234375	-0.322265625	0.5341796875	0	0	0	-0.553010125114795	0.185777178847158	-0.77264456651589	-0.250373750967593	-0.262985572693873	0.181426514731146	0.947587995020718	-0.592373158402108	-0.805599649292017	-0.0101610169417161	0.761533078572156	-0.563997894333913	0.31933328268022	-1.82250662352979	-71.367618610754	145.399273704196
50077	1652420074840	8.79159452217208	-0.235372297357157	3.29484686455871	0.339594476398749	-0.067803614786742	-0.427399532186195	-0.394575400104654	-0.00767814640494776	-0.178000403736075	0.2255859375	-0.320068359375	0.532470703125	0	0	0	-0.552702950013528	0.186582550784281	-0.772037261696429	-0.252318979352436	-0.261709163409777	0.183349855307544	0.947571181677692	-0.595848760265628	-0.803044168802752	-0.00918247471067429	0.759257906562236	-0.56701225164065	0.31941280157835	-1.64668472815518	-71.3646036692757	144.985440575316
50078	1652420074841	9.00160906405166	-0.214720549098567	3.28163563448885	0.266195156770312	-0.0377508580999449	-0.232921388805455	-0.375882637436926	-0.03054606090149	-0.171347774310153	0.233642578125	-0.326416015625	0.5263671875	0	0	0	-0.552503791153799	0.187599749472027	-0.771384977733719	-0.25399037557644	-0.260456899750436	0.184549574811626	0.94768331092683	-0.599147866022818	-0.800590446225144	-0.00876196629354148	0.757089187621046	-0.570084547983782	0.319091789517423	-1.57289402907762	-71.3847194078181	144.680105206218
50079	1652420074842	9.15021284355351	-0.194904978467953	3.22789445035493	0.180822007629875	0.00944563571735266	-0.109548819294673	-0.362398493891837	-0.0365788023179527	-0.158738400404336	0.23779296875	-0.32373046875	0.5224609375	0	0	0	-0.552300568429365	0.188391144272341	-0.770766087065791	-0.255719568867241	-0.259143168421906	0.186102870826564	0.947739700408487	-0.602297015101253	-0.798232557716222	-0.00794288372949969	0.75503849164157	-0.572879136705056	0.318945717744717	-1.42657400124998	-71.3948434831344	144.316098529579
50080	1652420074842	9.31158395809476	-0.171647217892039	3.15392662226278	0.0738764498331299	0.0632790154808414	0.0195477929778463	-0.354032059322136	-0.0267516035809624	-0.151232751617861	0.234619140625	-0.333984375	0.51708984375	0	0	0	-0.552090879939132	0.189373268373671	-0.770164585579893	-0.257254614403824	-0.258031447311949	0.187154278234934	0.947835981769241	-0.605359295728412	-0.795915657186826	-0.00764131664461787	0.752967393233798	-0.575753022383056	0.318666851027017	-1.37363302024817	-71.4121419751935	144.046030922668
50081	1652420074843	9.32751333496141	-0.189671066145904	3.12839931776673	0.0661732962080108	0.100611543889511	0.0265636087797318	-0.341375040032058	-0.015266334235738	-0.146905098970212	0.231201171875	-0.328857421875	0.525146484375	0	0	0	-0.551815148551497	0.190116453723384	-0.769630719820794	-0.258890577195965	-0.256951421736458	0.188682004257396	0.947826496853208	-0.608318560871209	-0.793662806125569	-0.00691944162986152	0.750949063097621	-0.578358410885758	0.318711551705466	-1.24373442814737	-71.4104371682714	143.709788929462
50082	1652420074844	9.34281267327782	-0.222229756151318	3.01372133725678	-0.000682919163593601	0.197359382200741	0.00470019667803889	-0.328846305539242	-0.00361105446222893	-0.147244799091666	0.23583984375	-0.31689453125	0.51806640625	0	0	0	-0.551540934220579	0.190981530708605	-0.76911692096649	-0.260360931574449	-0.256029566377552	0.189827732333215	0.94784718872704	-0.611164259796816	-0.791476480475766	-0.00657483084991495	0.748950671731813	-0.580973676590363	0.318657305614579	-1.18201154777651	-71.4141564941623	143.445691972249
50083	1652420074845	9.32034037706665	-0.194607088881407	3.00272067968471	-0.0167575405469255	0.18427508971596	-0.020409342656361	-0.323506166681287	0.006244287359986	-0.145153884343716	0.23681640625	-0.32275390625	0.515625	0	0	0	-0.551198761309865	0.191652675710538	-0.768661554072488	-0.261932420128418	-0.25514266563228	0.191397327329015	0.947770691288439	-0.613952197142495	-0.789321318357323	-0.00587843606426658	0.746970494596646	-0.583385738150983	0.318898354846923	-1.05604632435349	-71.4004097984769	143.124306807838
50084	1652420074846	9.25775500189318	-0.24696292431178	3.01183084603206	0.0404642164211776	0.211099588645402	-0.0765720171658533	-0.30997494696181	0.00672200351687273	-0.138408842940948	0.2373046875	-0.322265625	0.52587890625	0	0	0	-0.550897313003982	0.192454832842529	-0.768201306002811	-0.263324972792407	-0.254344218457741	0.192527475429404	0.94775639789025	-0.616618876579723	-0.787242192038865	-0.00555806795599967	0.745043743402145	-0.585818147788735	0.318946575681093	-0.998354052312024	-71.3978423415895	142.875867851243
50085	1652420074847	9.32271436770389	-0.211507443335281	2.99986400076472	-0.00407297786926242	0.20877208877562	-0.0191528006019901	-0.304662641657942	0.00549420612491002	-0.13562265543197	0.23095703125	-0.325927734375	0.5166015625	0	0	0	-0.550579354517682	0.193097360759719	-0.767766690420152	-0.264783105064899	-0.253504563302166	0.193952456017389	0.947690815187	-0.619214137002006	-0.785206633079643	-0.00493922105107214	0.743175140139818	-0.588075665346351	0.319151567293046	-0.886644337961033	-71.3860664040286	142.580951103066
50086	1652420074847	9.39651705521023	-0.272661559494459	2.97667674975178	-0.000136510337838208	0.287353897090537	0.0436257653644763	-0.292404216704512	0.0107788663688267	-0.126014179023602	0.2392578125	-0.334716796875	0.51025390625	0	0	0	-0.550270408159507	0.19385958083303	-0.767346891126723	-0.266082110449696	-0.25280557680521	0.19500417913478	0.947661706758353	-0.621704941817268	-0.783237546835755	-0.00468087029251457	0.741331441162569	-0.590349316376905	0.319241881646423	-0.840036695160436	-71.3808420376333	142.354832652203
50087	1652420074848	9.45595973943514	-0.244019432593618	3.0194907133536	0.000947853342555066	0.256941556159373	0.113340195051103	-0.277589000097249	0.016761355843782	-0.129609913670627	0.238037109375	-0.323486328125	0.513671875	0	0	0	-0.549940289825901	0.194446980599872	-0.766960327412742	-0.26744701444723	-0.252075544178934	0.196374041798286	0.947573298344091	-0.624110957265745	-0.781324932397713	-0.00410646253423003	0.739556240625234	-0.592426017086957	0.319512098723594	-0.736341501227199	-71.3649832005853	142.080391789524
50088	1652420074849	9.39395402596697	-0.227645002633009	3.07202398665678	0.0464081974648554	0.204862130887222	0.0712087304400057	-0.264307590523482	0.0286638878183671	-0.128366653655622	0.23828125	-0.32666015625	0.509765625	0	0	0	-0.549599713879135	0.19507017205801	-0.766610326140039	-0.268693859871592	-0.251487528342556	0.197545953597102	0.947485946758876	-0.626387996594846	-0.779502475281127	-0.00373747943015468	0.737829316854547	-0.594433753456184	0.319775564954462	-0.669632300507413	-71.3493267132909	141.850013195976
50089	1652420074850	9.28623625402061	-0.108413689453524	3.05793627741179	-0.0108832733090376	0.105880277517546	-0.0358995231315582	-0.262552838937832	0.0371324940391534	-0.126114232418804	0.237060546875	-0.329833984375	0.508544921875	0	0	0	-0.549214318203268	0.195589457399891	-0.766294568580157	-0.270001909250817	-0.250925203362866	0.19896093214309	0.947338951905841	-0.628643054117603	-0.77768746630986	-0.00318044874861639	0.736100844196634	-0.596336106759688	0.320216793669071	-0.569052910778049	-71.3230086199882	141.588773227637
50090	1652420074850	9.21645677628002	-0.0202528880131056	3.12151551966585	-0.00215828626851135	-0.00944730957256612	-0.0819500448224843	-0.258672363397171	0.033696550849942	-0.130789697447086	0.2412109375	-0.333251953125	0.50146484375	0	0	0	-0.548862020545734	0.196176633207969	-0.765957360725624	-0.271246258104839	-0.250351899733155	0.200178329356597	0.947234164690021	-0.630873942502138	-0.775880392094618	-0.00277233383824599	0.734385453948953	-0.598279410993813	0.320530421971281	-0.495550676852881	-71.30426923355	141.354594801458
50091	1652420074851	9.24418213529307	0.0362493953451587	3.1235941376928	-0.042526030765647	-0.0421602823760133	-0.0551533671839621	-0.261902970653455	0.0283290687455438	-0.132981986165975	0.236572265625	-0.3330078125	0.51171875	0	0	0	-0.548518756630979	0.196713443172854	-0.765593820517481	-0.272574938107912	-0.249660153478946	0.201561349963159	0.947123450224889	-0.63316540301025	-0.774013448781097	-0.00218026073227234	0.73264683183355	-0.600230125291143	0.320861989798171	-0.389319457015957	-71.2844895181176	141.084574507649
50092	1652420074851	9.18680177425824	0.0469396531868117	3.03305674918252	-0.101109907528128	-0.00297995841459613	-0.138560541526438	-0.276557558822206	0.0266248683405239	-0.128415766622406	0.251220703125	-0.33056640625	0.50927734375	0	0	0	-0.548164392127782	0.19738434522144	-0.765219422500797	-0.273851154630081	-0.2490426886219	0.202714305566712	0.947039940848632	-0.635510584022117	-0.772089930738549	-0.00185376589951747	0.730824217469456	-0.602315572744677	0.321110438929364	-0.330764028390844	-71.2695834583525	140.855302248754
50093	1652420074853	9.07281876253949	0.0205162844074674	2.98629959493201	-0.0890025701833153	0.0280992639998839	-0.261470970997417	-0.282757740337264	0.0145969899912822	-0.125860325296768	0.239990234375	-0.331298828125	0.51123046875	0	0	0	-0.547849335010972	0.198008746964344	-0.764810807364944	-0.275169168315474	-0.248286069873213	0.203946786861052	0.946973988890913	-0.637862628264138	-0.770148929868362	-0.00137596750793262	0.729030380005442	-0.60438095101655	0.321307284507293	-0.245362158990482	-71.2578193993195	140.599681724706
50094	1652420074851	9.20114574365704	0.0214972582071791	2.92220101859417	-0.167261102436647	0.0955978366095764	-0.160553526298099	-0.287843109268419	0.0127535994480358	-0.128641500595289	0.23681640625	-0.330322265625	0.5068359375	0	0	0	-0.547530226376403	0.198740065440202	-0.764383217648505	-0.276462174936006	-0.247558634067717	0.205013707630306	0.946934053871864	-0.640278479712446	-0.768142104436955	-0.0010843469392644	0.727157610917774	-0.60656993584816	0.321426075186059	-0.193289444305083	-71.2506995229066	140.370416186184
50095	1652420074852	9.28549798681279	-0.00948575915149567	2.88250400332936	-0.195689341663174	0.166466974576547	-0.093459781320222	-0.289014408731469	0.0249198963403688	-0.133220380036872	0.239501953125	-0.3310546875	0.496826171875	0	0	0	-0.547166645031026	0.199364678800443	-0.763985700595981	-0.277827710455879	-0.246840851736671	0.206341391161371	0.946833049807359	-0.642684200909077	-0.766130976299281	-0.000587415161309113	0.725276920779764	-0.608659640068488	0.321724774824575	-0.104612310891384	-71.2327034795863	140.106776064489
50096	1652420074853	9.35922458885599	-0.0679678704512669	2.86062484138835	-0.191722018973744	0.245120847938528	-0.0307634993798356	-0.282445278480262	0.0402265176064146	-0.136636767065149	0.248046875	-0.336181640625	0.508056640625	0	0	0	-0.54675520666441	0.200014125475401	-0.763623899464632	-0.279162378844459	-0.246254220446521	0.20763259961385	0.946703524071751	-0.645067657654267	-0.764125431696426	-0.000204164611006696	0.723357847790922	-0.61073810116313	0.322106187191337	-0.0363164988293572	-71.2096500031328	139.86363155283
50097	1652420074854	9.56888410934451	-0.120195368981453	2.89886898366525	-0.181483716098748	0.312920735927935	0.179838418231494	-0.271143193229893	0.0591888136188155	-0.128489619893556	0.2548828125	-0.3359375	0.505859375	0	0	0	-0.54630323132104	0.200554459469081	-0.763315307046851	-0.280500321324641	-0.245744698369928	0.20909327926971	0.946514418161347	-0.647347476324924	-0.762194957047677	0.000303886233968653	0.721492056864679	-0.612649041470996	0.322661376470511	0.0539618150178557	-71.1760410955046	139.607011904603
50098	1652420074854	9.59802308440063	-0.154956555546685	2.85775741856605	-0.19836057971806	0.378410346216374	0.193824903021122	-0.266169704745207	0.0874845063050863	-0.121193181991787	0.242919921875	-0.328369140625	0.50537109375	0	0	0	-0.545716232025755	0.201116654904345	-0.763116809275618	-0.281777608451594	-0.245590346957826	0.210553212749743	0.946230799584275	-0.649563705197836	-0.760306940990773	0.000590229541285736	0.719550119429351	-0.614492229472444	0.323491770447398	0.104539364591711	-71.1257430218942	139.392357907615
50099	1652420074855	9.44638559700852	-0.218840293254541	2.8737664487824	-0.11113386294467	0.394674176882159	0.0550630680526787	-0.261998289879871	0.104426540584866	-0.11051979462574	0.240478515625	-0.338623046875	0.492919921875	0	0	0	-0.5451142833847	0.201585730192039	-0.762958355620179	-0.283033847838525	-0.245484518055409	0.212111556555036	0.945910164323708	-0.651660599971895	-0.758510068721323	0.00096855182860095	0.717687824781343	-0.616174620723845	0.324427222865856	0.171051512451868	-71.0690353481778	139.171256183034
50100	1652420074856	9.51309734025982	-0.23073480750154	2.86587557786088	-0.13162610967994	0.431182666828738	0.115164798282169	-0.249372889530293	0.114541624587914	-0.0945850527063579	0.24560546875	-0.330810546875	0.501220703125	0	0	0	-0.544418944316828	0.202116783129688	-0.762884631853602	-0.284189826573456	-0.245688311082198	0.213535691043705	0.945536758908962	-0.653680513844416	-0.756769896898911	0.0010530753587551	0.715778624728119	-0.61782022611606	0.325513638092514	0.185358018871318	-71.0032002866191	139.005034583615
50101	1652420074856	9.48602966095334	-0.195431971089731	2.95798986704292	-0.0884173961634177	0.350232477146581	0.119188824034723	-0.245782395319124	0.122805923123659	-0.084191184693276	0.247314453125	-0.339599609375	0.498291015625	0	0	0	-0.543733117479434	0.202632239474337	-0.762810915412453	-0.285331350905098	-0.245880634293537	0.214952019417139	0.945165775421382	-0.65566345650202	-0.755052391432574	0.00114804171350635	0.713896452916831	-0.619428378055482	0.326588944963424	0.201408146130971	-70.9380091186312	138.839627139668
50102	1652420074857	9.53358791885231	-0.22333790010856	3.02570904775972	-0.0425524855810881	0.347808241207903	0.185877469350514	-0.240072929932386	0.133754685999843	-0.0739124275954924	0.24072265625	-0.340576171875	0.506591796875	0	0	0	-0.542954826505918	0.203155592601829	-0.762825031842286	-0.28640152297665	-0.246348448021169	0.216339882699018	0.944727207881374	-0.65755712083835	-0.753403945662511	0.00106183564677753	0.711990923391823	-0.620950521228492	0.327855723137057	0.185564820392315	-70.8612175332152	138.710833624145
50103	1652420074858	9.50621377632096	-0.314220530248723	3.12021498480644	0.082535341223091	0.360302293882835	0.190608624891754	-0.227075662909006	0.146128136448775	-0.0771690997124919	0.245361328125	-0.33642578125	0.49609375	0	0	0	-0.542208090050686	0.203578508752785	-0.762847192549374	-0.287454933297583	-0.246760096812939	0.217804548888629	0.944283131854154	-0.659332206513486	-0.751850904193749	0.00112219298695959	0.710204545236742	-0.622319368448759	0.329132355715159	0.19535202688553	-70.7837624365214	138.566537728616
50104	1652420074858	9.4375571225599	-0.28967966695908	3.09806714611338	0.0573516733486542	0.351084136744787	0.11821641871119	-0.216330253888493	0.160066781486453	-0.0910779966777821	0.243408203125	-0.338134765625	0.499755859375	0	0	0	-0.541379039461374	0.203925904822524	-0.762929099671823	-0.288551814841177	-0.247293171567488	0.219486731662681	0.943754026174262	-0.661091573559119	-0.750304150988357	0.00126979477508488	0.708381266455588	-0.623593822639125	0.330645921948391	0.220034541391701	-70.6918669711215	138.409125086796
50105	1652420074859	9.15635976591018	-0.256074107318368	3.17801751022379	0.152912711318715	0.22571424615293	-0.120941172667788	-0.194002453910292	0.162605680727399	-0.0994300054928495	0.249267578125	-0.333740234375	0.49951171875	0	0	0	-0.540646233601742	0.204149948726207	-0.762986903080066	-0.289612558870687	-0.247652431673247	0.221195377034052	0.943260768963223	-0.662686980509303	-0.74889472835892	0.00162840402927306	0.706763212787558	-0.624683352599525	0.332048897054675	0.2809825031448	-70.6065749902106	138.22977219029
50106	1652420074859	8.91280410073378	-0.249414081515183	3.1551513025429	0.18450881275157	0.19357559075039	-0.358390353971851	-0.18513140657941	0.14839559849816	-0.119953388572318	0.24365234375	-0.335693359375	0.4931640625	0	0	0	-0.539934656951903	0.204315979377906	-0.763024325226552	-0.290722248728304	-0.247902280633177	0.223021738858117	0.942764956526053	-0.664290851798925	-0.74747110933041	0.00214591067514758	0.70516815262257	-0.625738159866464	0.333451093586155	0.368719521251423	-70.5212031193142	138.024321927876
50107	1652420074860	8.88437594864686	-0.0955904230535783	3.15778139016069	0.0875990506232688	0.082225904164264	-0.384092028288819	-0.167322869523151	0.111240119809414	-0.130746155117	0.25	-0.33154296875	0.500244140625	0	0	0	-0.539476806451818	0.204418778210573	-0.762921381506116	-0.291768236887162	-0.247672142488609	0.22463407343547	0.942442593947711	-0.665750832026759	-0.746168518117308	0.00289347996352179	0.703870967927205	-0.626715306676332	0.334355476830888	0.495819758193859	-70.4658892683553	137.792550052242
50108	1652420074860	8.88279194363773	0.0115240092248868	3.16318639186537	0.0179876552619553	0.00956635848007089	-0.38350662576045	-0.162283322718124	0.0858882770072537	-0.133252333327256	0.2421875	-0.337646484375	0.5068359375	0	0	0	-0.539049599164884	0.204551515499326	-0.762791578372141	-0.292802348200361	-0.247384629057066	0.226167505792683	0.942151317267993	-0.667221155546607	-0.744850924790567	0.00360963013159454	0.702578661003413	-0.627730323596171	0.335168414294215	0.617028837009606	-70.4160385399057	137.565375733442
50109	1652420074861	8.73180697447345	0.115900670854109	3.21613044791715	0.0235774440938328	-0.126785294959445	-0.507594878388536	-0.164795074131871	0.0492875201135036	-0.124626452399087	0.2451171875	-0.33251953125	0.49560546875	0	0	0	-0.538824808307414	0.204706002462735	-0.762557752006032	-0.293715769688507	-0.246797745177532	0.227349129052058	0.942020831242365	-0.668551819197499	-0.743652998384029	0.00432238847829991	0.701519306949566	-0.628722984718798	0.33552655701641	0.738066520990473	-70.3937459275625	137.348848779019
50110	1652420074861	8.7512113697626	0.121227001356225	3.23200317646761	0.0279568564067651	-0.130714059466402	-0.483894766225653	-0.173624920934211	0.00106156189204428	-0.118719563861134	0.240234375	-0.3349609375	0.490966796875	0	0	0	-0.538688917298769	0.205044108828221	-0.762207259895978	-0.29463750062778	-0.24600598720659	0.228239706065869	0.942012574668447	-0.67005966199853	-0.742291313317311	0.00486369572204615	0.700357839694057	-0.630008129113131	0.335542327628641	0.830445820228521	-70.3923361695479	137.145421977962
50111	1652420074862	8.80157286683719	0.0543851542172613	3.24430043926049	0.0744504057863832	-0.0755968447134246	-0.43266244319739	-0.178130737769736	-0.0455531632274129	-0.11140860983132	0.249755859375	-0.337158203125	0.4912109375	0	0	0	-0.538769226117454	0.205466355617403	-0.761710868337403	-0.295479019144816	-0.244839740468035	0.228741261678239	0.942194744568973	-0.671537059314887	-0.740951451909041	0.00537809265428568	0.699350755668613	-0.631401917260101	0.335022595396205	0.919685866616516	-70.4234631953472	136.946910572768
50112	1652420074863	8.71935949867327	0.0229936005991078	3.23369735854247	0.115108907829783	-0.065929095113527	-0.513926437799121	-0.179603366285807	-0.0859490673989702	-0.0995542172826784	0.2509765625	-0.337646484375	0.499267578125	0	0	0	-0.538935592919687	0.206006081667093	-0.761146209948251	-0.296253891251896	-0.24356411720483	0.228937033480972	0.94247777454493	-0.673033072554236	-0.739590252468562	0.0057220364988152	0.698357361283202	-0.632925029647605	0.334219842000953	0.98084097258397	-70.4719185496858	136.773122888551
50113	1652420074865	8.62012711298941	-0.0764061153837369	3.15928290148068	0.164638574396668	0.0264226571152355	-0.633053345726104	-0.182751122505657	-0.134470000930619	-0.0788410055718735	0.245849609375	-0.341552734375	0.492431640625	0	0	0	-0.539331761865387	0.206648862295999	-0.760440756749402	-0.29689620042928	-0.241947793627667	0.22863935268177	0.942966230341238	-0.674448532640086	-0.738297787764851	0.0059626672857806	0.697553182186375	-0.634539536188871	0.332834996709893	1.02633176318866	-70.5558161667356	136.619921661178
50114	1652420074865	8.55018501295049	-0.182150713061705	3.1272332017315	0.242010133056346	0.0993582291053096	-0.710491771234885	-0.174738836714505	-0.184951308329274	-0.0676680753890357	0.252685546875	-0.338134765625	0.48828125	0	0	0	-0.539848237857256	0.207401589677561	-0.759658869230916	-0.297433796130234	-0.240194034003948	0.227965677046255	0.943577488136376	-0.675827207911154	-0.737035435037558	0.00602930725790168	0.696824519571407	-0.636247135622503	0.331096921363272	1.04324643186271	-70.6612991814772	136.496228648795
50115	1652420074867	8.59164466281697	-0.293614276252596	3.19032504139268	0.366989857885862	0.136571025582295	-0.651499507412062	-0.155648621109925	-0.248451406566571	-0.0456816205823723	0.253662109375	-0.33984375	0.488525390625	0	0	0	-0.540655588284672	0.208232518212732	-0.75872642187725	-0.297766636748788	-0.238053129791741	0.226682680441054	0.94442875315421	-0.677010978978268	-0.735948496796199	0.00599536540185691	0.696409966714466	-0.63796141925	0.328661506430678	1.04506013876401	-70.809128340633	136.401546422042
50116	1652420074867	8.86618155321089	-0.450958993852072	3.11760998053298	0.375640246199034	0.343580884511554	-0.417325870233007	-0.125072513384742	-0.280033720140625	-0.0414684305473674	0.24853515625	-0.337646484375	0.487548828125	0	0	0	-0.541577998432001	0.209007662267219	-0.757774735153405	-0.297970668843708	-0.235813504246442	0.225201386557784	0.945344554491888	-0.677977192108313	-0.735058555244851	0.00598726500849106	0.696231942814995	-0.639510168686789	0.32601813745596	1.05210851275694	-70.9693982707868	136.318660650881
50117	1652420074868	9.23974968016143	-0.524699727564317	3.06793959559158	0.324157715682643	0.494399059070685	-0.0807317996365668	-0.0741630199724526	-0.292558911402182	-0.0277424208837775	0.25439453125	-0.333984375	0.4814453125	0	0	0	-0.542642872369231	0.209640509025962	-0.756846294469206	-0.297948412632856	-0.233530912952863	0.223482448122727	0.946318608121216	-0.678522160053909	-0.734555200769795	0.00602788004401772	0.6964703805699	-0.640690449751766	0.323179140084412	1.06854682404921	-71.1413015293017	136.259573403686
50118	1652420074869	9.79221764794822	-0.55640849084123	3.05352774349797	0.22826825709281	0.631807374107602	0.437668530605851	-0.0189989410632029	-0.271920216367205	-0.0220028149716601	0.2548828125	-0.3369140625	0.490234375	0	0	0	-0.54367041152268	0.210053211702453	-0.756053045597101	-0.297798462272039	-0.231477119006336	0.221903436653951	0.947194387746092	-0.678702300845685	-0.734387448243786	0.00618568417833698	0.696980293984916	-0.641431165958708	0.320600263776488	1.10533168103414	-71.2971605539514	136.209690356259
50119	1652420074870	10.1840640261011	-0.468847163962918	2.97161478798851	0.0413838677613857	0.690724813845598	0.783850658190962	0.0396468572651772	-0.209069709358511	-0.010142485799074	0.248291015625	-0.34033203125	0.48388671875	0	0	0	-0.544577396948733	0.210174400528442	-0.755498606115932	-0.297462663626776	-0.229902844961211	0.220552799593045	0.947893002648723	-0.678377711373201	-0.734685370221147	0.00640995281363399	0.697816854619318	-0.641555819375591	0.318524360190104	1.15285900860306	-71.4223940174015	136.189109797247
50120	1652420074871	10.0492921269791	-0.290570488827903	2.85395838146224	-0.115876637619447	0.594128659697382	0.620497515583661	0.0906850965959291	-0.146690630666126	0.0169876283863022	0.261962890625	-0.333251953125	0.47998046875	0	0	0	-0.545253256946845	0.210091084827003	-0.755217128093119	-0.296997830463209	-0.22898234897801	0.219490000629785	0.948362390376195	-0.677701393659461	-0.735308049552721	0.00654929729038978	0.698776004803068	-0.641206840174456	0.317121243730142	1.18312400866841	-71.5069956955568	136.212539195684
50121	1652420074872	9.83455271028168	-0.196518926276763	2.72887952532011	-0.207750978913186	0.547880065565863	0.378509191654533	0.127757215480839	-0.109346030242083	0.0426561496292779	0.25244140625	-0.334716796875	0.485595703125	0	0	0	-0.545853118782863	0.209927731853872	-0.755090294010233	-0.296333204358288	-0.228462009419542	0.21833723850489	0.94875389882416	-0.676696067110685	-0.736233958786876	0.00648002206289855	0.699919668968459	-0.640537593128665	0.315949440227421	1.17495340154463	-71.5778472766135	136.298138658777
50122	1652420074873	10.0141980345044	-0.032427901634984	2.75774546706288	-0.333294147514172	0.440267000134867	0.559653140023862	0.145922359766219	-0.0824125430829232	0.0610039449227222	0.252197265625	-0.332763671875	0.482177734375	0	0	0	-0.546321609678261	0.209659845234604	-0.755106025035448	-0.295618570204785	-0.228284719497266	0.217363318681067	0.949020165505459	-0.675530135214923	-0.737304820492562	0.00637480156082948	0.701102790795018	-0.639636450939426	0.315150896189512	1.1588081323369	-71.6261844151689	136.40385437189
50123	1652420074874	10.0213120204227	0.0753488416505457	2.69622853508144	-0.448339810105715	0.39322935282269	0.548122399952003	0.155603698365934	-0.0386097615934571	0.0921303529120069	0.248291015625	-0.343994140625	0.486328125	0	0	0	-0.546644824699343	0.209402705146001	-0.755291786420064	-0.294727433526894	-0.22863035111215	0.21627260945885	0.949186136091439	-0.674148229643265	-0.738572494008375	0.00590216596695853	0.70231924864636	-0.638542738970627	0.314659885413924	1.0745874003076	-71.6563763566394	136.591053549149
50124	1652420074876	9.99549774927828	0.124052125632726	2.78128233353436	-0.418500877641253	0.291120068214983	0.550757805945288	0.15121662355363	0.00463448284333522	0.126773420170387	0.25537109375	-0.3369140625	0.476806640625	0	0	0	-0.546722790383899	0.209165166403249	-0.755646649959828	-0.29384054186384	-0.229503852864017	0.215368515309389	0.949180901690506	-0.672789969017775	-0.739815338241333	0.00518872738962134	0.703336078350623	-0.63740855651324	0.31468824727669	0.944634081082353	-71.6554234267309	136.819899042885
50125	1652420074876	10.084228545334	0.168010159861332	2.82490416275279	-0.445936629515235	0.242345286697935	0.648783557998341	0.137632051291951	0.0540832316357366	0.143666992722588	0.2509765625	-0.333251953125	0.490478515625	0	0	0	-0.546607354058007	0.209061621806967	-0.75610645942068	-0.292944808452838	-0.23080747938047	0.214445683987924	0.949073735850374	-0.671544163711853	-0.740953154975942	0.00410588793644795	0.704099668830047	-0.636397258597293	0.315027277554291	0.746718609314806	-71.6359242333423	137.104511031501
50126	1652420074880	9.96331735411921	0.183364870469882	2.88386585665208	-0.400583527077725	0.165544951515194	0.552161985208878	0.121419347584922	0.123885410022025	0.146297547138233	0.254638671875	-0.344482421875	0.47998046875	0	0	0	-0.546169221764293	0.208815000313159	-0.756783088609169	-0.2921897219903	-0.232648695121235	0.21415182810785	0.948690454877908	-0.670345132962844	-0.742042924014894	0.00311474436410131	0.704636067322283	-0.635225387903768	0.316190953683204	0.564392915121776	-71.5663479320437	137.370605100908
50127	1652420074875	9.429778680963	0.314619040557221	2.86579496969902	-0.394018423894328	-0.0346879231380976	0.0400283655201932	0.100548230372682	0.172945686154079	0.133937446805394	0.24658203125	-0.336181640625	0.487060546875	0	0	0	-0.545587727165528	0.208618554533055	-0.757504614780488	-0.291546032826991	-0.234669885418394	0.214055484550285	0.948214266087397	-0.669334376599273	-0.742958418894764	0.00206883925316032	0.704926618294543	-0.634186910403657	0.317624661341786	0.373189162747729	-71.4802577449578	137.630313304683
50128	1652420074875	8.88702688073096	0.352324186763536	2.81689937968733	-0.343724301854193	-0.14433803882779	-0.490708027302892	0.0628594911035072	0.154890372755774	0.115861145727226	0.253173828125	-0.3369140625	0.49169921875	0	0	0	-0.544977411874155	0.2084647922637	-0.758158399403136	-0.291097736761857	-0.236523456398145	0.21417918243698	0.947725663039733	-0.668613594255998	-0.743609076077155	0.00118471589669367	0.704991146149759	-0.633382048834909	0.3190841018668	0.212730463520127	-71.3923227402068	137.838202314127
50129	1652420074876	8.78324422611896	0.337708352323853	2.94006645212293	-0.235158310580682	-0.232834366491923	-0.550187976204235	0.012448014211633	0.103462538122413	0.0747186518549903	0.24560546875	-0.3369140625	0.48779296875	0	0	0	-0.544601279903151	0.208494579054075	-0.758524176486	-0.290827320104472	-0.237657831617401	0.214106277752314	0.947458314068732	-0.668291936175186	-0.74389896077183	0.000473503761823091	0.704914635338306	-0.633066219276973	0.319878912865828	0.0848125532180527	-71.3443765983422	137.984265756231
50130	1652420074876	9.07750422443913	0.252992699847365	3.02808683237171	-0.19586418121857	-0.161213188541289	-0.243463763886329	-0.0270594818562224	0.0676008436242128	0.0429542899708595	0.25048828125	-0.3388671875	0.48388671875	0	0	0	-0.544266726659542	0.208609715135433	-0.758739604016674	-0.290809095970263	-0.238407599904531	0.214218103029564	0.947244646668523	-0.668375410254132	-0.743824112904144	-5.47581866833236E-06	0.704582235991926	-0.63311633480489	0.320511434004841	-0.000978877087546045	-71.3061429392729	138.059125553603
50131	1652420074879	9.21007881265412	0.15336203934883	3.09624689132984	-0.119599454542986	-0.1023402706997	-0.0961533356982382	-0.0589702707638076	0.0700835588977962	0.0258012343347818	0.236328125	-0.33984375	0.49365234375	0	0	0	-0.543958911294919	0.208851150197003	-0.758852440764192	-0.290917295859948	-0.238951659584764	0.214313711479973	0.947085918728267	-0.668739488615386	-0.74349664806185	-0.000480299101130677	0.70405227131806	-0.633468521232486	0.320979799768471	-0.0857346502162998	-71.2777888938615	138.111339818541
50132	1652420074881	9.12129995778179	0.0232655657956807	3.19272363201289	0.0491789914102581	-0.0837852523826462	-0.1492151509843	-0.0865832953567841	0.0709018249610306	0.00258607471465499	0.24169921875	-0.34423828125	0.490478515625	0	0	0	-0.543567333407587	0.209077433526301	-0.758955534834926	-0.291217576711384	-0.239453754133027	0.214747057337453	0.946860919563431	-0.669337709407827	-0.742957899608809	-0.000768227538881616	0.703312825417171	-0.633953673996589	0.32164236168444	-0.136847994006748	-71.237667412928	138.113591353251
50133	1652420074883	8.90602729415608	-0.0237814577215902	3.16928693414585	0.108887914477456	-0.0786160184242998	-0.360479861886324	-0.104892056765951	0.068969634838332	-0.0200042596619955	0.24658203125	-0.336669921875	0.485107421875	0	0	0	-0.543186411880684	0.20935005553359	-0.759015209864843	-0.291576726420508	-0.239863069116177	0.215190129406907	0.946656704555568	-0.670054551376158	-0.742311133715966	-0.00103872104754554	0.702490289081824	-0.634560784296632	0.322242152392543	-0.184687588351952	-71.2013235956059	138.103532662914
50134	1652420074883	8.92773999118262	-0.0485473656023118	3.18273771477442	0.125615427321521	-0.0614559122125218	-0.335495763790767	-0.117484289064588	0.0352689169241314	-0.0384309132172782	0.25	-0.34228515625	0.484130859375	0	0	0	-0.542926988629953	0.209634010046922	-0.758929370824605	-0.292078888228208	-0.239840416137169	0.215702570169975	0.946545812947909	-0.670966417326763	-0.741487009766042	-0.00103979224044753	0.701627138590604	-0.635349837152952	0.322567733697715	-0.184691444240031	-71.1816167388474	138.033093710913
50135	1652420074884	9.09710149397785	-0.154276293244863	3.32662842854788	0.256509413108617	-0.0376147025657907	-0.128664372766062	-0.128431288260465	0.0200273677635534	-0.0524692185570765	0.243896484375	-0.33544921875	0.49365234375	0	0	0	-0.542790622910612	0.209995092512908	-0.758710893560885	-0.292640019123921	-0.239480317774923	0.216091606655863	0.946548252827774	-0.672025074948875	-0.740527760655293	-0.000966612030045999	0.700736381272145	-0.636335645105432	0.32256080160161	-0.171696696229358	-71.1820501226899	137.938940856375
50136	1652420074885	9.19780573375765	-0.204207235991503	3.26130311225626	0.219375499894274	0.0642775499913061	-0.0543488038404085	-0.142893320635763	0.0210768822311001	-0.0561021810920445	0.2451171875	-0.337158203125	0.49609375	0	0	0	-0.542566237360252	0.210348000255557	-0.758532991363834	-0.293263188753483	-0.239237160397757	0.21664416157433	0.94648343268151	-0.673155053713974	-0.739500841821255	-0.000882385966004429	0.699734131470057	-0.63734120547899	0.322751193730455	-0.156643466464965	-71.1705397043328	137.837197285317
50137	1652420074887	9.1924658046216	-0.222142769570301	3.22536832159992	0.207119155664549	0.100760773839982	-0.0709870828018584	-0.145675168822374	0.0245402381146504	-0.0582270388147472	0.24462890625	-0.333740234375	0.48876953125	0	0	0	-0.542376535797484	0.210632939499497	-0.758382630582185	-0.293797964331557	-0.239020899141907	0.217137817997758	0.946424945660546	-0.674107274200071	-0.738633041904869	-0.000782481252768308	0.698890830276049	-0.638178969726779	0.322922916428243	-0.13883432641542	-71.1601597054595	137.746517053977
50138	1652420074888	9.15428838240827	-0.24572138640804	3.46576190972779	0.398599575958145	-0.0408744737302569	-0.0294196724289097	-0.157674584808503	0.0448228354706159	-0.0693150686481798	0.25390625	-0.34619140625	0.4873046875	0	0	0	-0.542053659781441	0.210970088323615	-0.75823358753243	-0.29453569985313	-0.238853102859145	0.217939503751569	0.946283027407276	-0.675367937672487	-0.737480686689506	-0.000620905779941727	0.697730136957385	-0.639237521946652	0.323338903500543	-0.110024610563695	-71.1349956089964	137.621375123231
50139	1652420074889	9.0998613056772	-0.316292981276593	3.41677154948871	0.423275484530596	0.0334720317375909	-0.0966408454481069	-0.16768874331123	0.0610075960356305	-0.0707559421626316	0.238525390625	-0.3388671875	0.48779296875	0	0	0	-0.541712445757878	0.211327862200587	-0.758084998331388	-0.295288496344926	-0.238704660074742	0.218749692338915	0.946133530406904	-0.67666542469677	-0.736290477168165	-0.000486057009064067	0.696522783746908	-0.640331871245768	0.323776321537496	-0.0860130665805611	-71.1085226287075	137.497759722897
50140	1652420074890	8.91300009797324	-0.416628446642053	3.57254969163791	0.641558918618183	-0.0285948557678362	-0.222805027200163	-0.161894862021736	0.0614814371977395	-0.0895258575609673	0.247802734375	-0.338134765625	0.4833984375	0	0	0	-0.541340988977872	0.211601031172437	-0.757945336771891	-0.296131396047372	-0.238512259854987	0.219806198444462	0.945937173930838	-0.67799944437896	-0.735062399763592	-0.000147904059179305	0.695290338866209	-0.641380155273908	0.324349874518441	-0.0261269648679093	-71.0738059634513	137.337204213039
50141	1652420074891	9.2196099888997	-0.587389238956404	3.63980723149519	0.729626239042711	0.126675670903066	0.0891319625753102	-0.154563394782996	0.0600834123992	-0.114962117599521	0.247314453125	-0.343505859375	0.485107421875	0	0	0	-0.541028157668009	0.211771933116769	-0.757790943376672	-0.296974859357893	-0.238188931039439	0.220940560024027	0.94575435609177	-0.679238875303861	-0.733917162506693	0.000385816109718495	0.694190595878564	-0.642301228018749	0.324882361908693	0.068041934420133	-71.0415380460759	137.151450425993
50142	1652420074892	9.16088911950171	-0.563021661182667	3.64339458848421	0.729512968575928	0.102002486408716	0.034678030633728	-0.142595840509678	0.0798474204915361	-0.134258731379622	0.254638671875	-0.3408203125	0.483642578125	0	0	0	-0.540662005633866	0.211822868867211	-0.757653757437345	-0.297953774485075	-0.237816287868125	0.222442439320782	0.945496046746704	-0.680540747804244	-0.732709240989923	0.00120778558176221	0.693042353541734	-0.643161355615363	0.32563133577766	0.21251240730161	-70.9960356119715	136.913117998288
50143	1652420074893	8.97934938978624	-0.647793658421149	3.74638077072631	0.902573440207364	0.0660809289183934	-0.103685970024292	-0.133200832763695	0.0735379432948094	-0.136477502064904	0.248779296875	-0.342041015625	0.4892578125	0	0	0	-0.540369280729053	0.211884982721589	-0.757474756020041	-0.298894276515655	-0.237326503821098	0.22381746693786	0.945294595392132	-0.681802009780071	-0.73153393112651	0.00203151924689843	0.691969760931726	-0.644021621612283	0.326211589082876	0.356811278395706	-70.9606216804355	136.677978135978
50144	1652420074893	8.95724182660503	-0.640025724658767	3.73834226197533	0.898376185543885	0.0701421496184415	-0.127388736091817	-0.123444633211217	0.0626554609525945	-0.143582506458619	0.25	-0.341552734375	0.48779296875	0	0	0	-0.540106083418936	0.211863227558318	-0.757295541370863	-0.29983804708916	-0.236765128343233	0.225274796273899	0.945089170483064	-0.682989268501971	-0.730422236652662	0.00300255132590699	0.690990544878694	-0.644774861767327	0.326798782924859	0.526405504667097	-70.924574420547	136.424577897312
50145	1652420074894	8.79612905739184	-0.66420114448199	3.80956300213117	1.00470996120783	0.015921062847442	-0.25674099163254	-0.087942640752539	0.0693426513237447	-0.165523596256409	0.250732421875	-0.34619140625	0.489013671875	0	0	0	-0.53989886834103	0.211637199029563	-0.75716095535191	-0.300709487116021	-0.236166032644991	0.226845596586445	0.94486331304272	-0.683896333606151	-0.729567000690682	0.00421857597624925	0.690298058743316	-0.645192271197155	0.327437815901993	0.738134739494667	-70.8850172715267	136.153209771593
50146	1652420074895	8.80366948743222	-0.56266409562112	3.75657389540728	0.901823014533609	-0.00844135222074122	-0.267025729368674	-0.0548272242017749	0.071465380678614	-0.197428532612218	0.24853515625	-0.33544921875	0.4921875	0	0	0	-0.539761492743995	0.211196157562428	-0.756995760772153	-0.301680513382337	-0.235292797592287	0.228750632940608	0.944621854146127	-0.684732846011376	-0.728770101752471	0.00592185653779914	0.689766793194886	-0.645420240402302	0.328107427963281	1.03399229279344	-70.8428146189289	135.807712312284
50147	1652420074897	8.90609646386527	-0.303826754699517	3.86943350228156	0.784433622341705	-0.231825504985163	-0.132073756200928	-0.0646912537306025	0.0458039499882399	-0.203034590189254	0.24267578125	-0.330078125	0.48486328125	0	0	0	-0.539698330395123	0.210792272243296	-0.756793746895328	-0.302581484548139	-0.234340314754723	0.230455076084872	0.944444320639059	-0.685512025644476	-0.728022126342305	0.00755289698304862	0.689316965972451	-0.645657991093384	0.328584660262451	1.31677762375736	-70.8118419638453	135.478925991956
50148	1652420074898	9.10074320079942	-0.170121190348337	3.79649797675586	0.604364374477977	-0.222057243012771	0.0286171177152124	-0.0637099334917418	0.063299271610472	-0.206422296770075	0.250732421875	-0.338134765625	0.486083984375	0	0	0	-0.53958689588987	0.210371673335947	-0.756581888001573	-0.303601033578188	-0.233344788388381	0.232370489970626	0.944221459787264	-0.686425682764631	-0.727140342936179	0.00931148300569989	0.688745229945799	-0.645965074183943	0.329179481683537	1.62029069026078	-70.7730294310988	135.119865309295
50149	1652420074899	8.9240264022306	0.066411812373822	3.84402124825489	0.521410404107689	-0.44760790184382	-0.120066452206466	-0.0816884583105819	0.0928254649304813	-0.242122287573302	0.2490234375	-0.323974609375	0.488525390625	0	0	0	-0.539346935501753	0.209821667978922	-0.756454191496379	-0.30472414899212	-0.232496152371794	0.234686372257917	0.943857958492024	-0.687353066763107	-0.726236121335143	0.0112631114457248	0.688107041632087	-0.646145032283392	0.330159501622823	1.95383922703279	-70.7098847739032	134.731390988094
50150	1652420074900	9.00571415645257	0.206084271149102	3.94268269149203	0.482414338010011	-0.57296963489848	-0.0081455106841517	-0.12368814265778	0.0737878337853906	-0.30130833379035	0.251220703125	-0.330810546875	0.490478515625	0	0	0	-0.539202235078899	0.209354595843911	-0.756060687979817	-0.306274123909348	-0.230914221418962	0.237354717660481	0.943579016484994	-0.688892581672787	-0.724733628445188	0.0137178247865359	0.687099434771035	-0.646856943848472	0.330863205769904	2.3741641687884	-70.6615636175984	134.212012679167
50151	1652420074901	9.48963832859026	0.400572037516412	3.96175431217081	0.259408257705882	-0.584282979101398	0.458652856000324	-0.15041975095141	0.119463639616438	-0.360747189849346	0.25390625	-0.334716796875	0.48681640625	0	0	0	-0.538906811311401	0.208595647172979	-0.755769034861177	-0.308026736903909	-0.229397956149017	0.240766909179754	0.943084234391967	-0.690421369465465	-0.723214770665633	0.0166951512867534	0.686072088267761	-0.647295675047412	0.332134609405329	2.87762025785123	-70.5761368872917	133.614813313379
50152	1652420074902	9.70266400755295	0.649044567550127	3.94874267234707	0.0393048219058902	-0.666993889754369	0.661515151489564	-0.186386010384141	0.218331581983739	-0.465794356827715	0.247314453125	-0.328857421875	0.49365234375	0	0	0	-0.538286597852488	0.207696545257488	-0.755440271997845	-0.310515183371637	-0.227655718936146	0.245550815706723	0.942272609461524	-0.692751882636197	-0.720884931967566	0.0204876539926613	0.684300886116387	-0.648096992561978	0.334219367320997	3.50784304144042	-70.4367823371611	132.834296241371
50153	1652420074903	8.96023563019191	0.889175797416806	3.91924654885688	0.0268716546750968	-0.954755325241924	-0.0390258601352684	-0.234181524225445	0.292843641680357	-0.529483784757272	0.2529296875	-0.32666015625	0.484375	0	0	0	-0.537337131195197	0.20657801822353	-0.75525575264506	-0.313341790896616	-0.226171459033233	0.251302300877107	0.941112971270001	-0.695310459597991	-0.71828488892908	0.0247018847412321	0.682194866509863	-0.64877883127458	0.337188659651508	4.18990949956945	-70.2393132947717	131.987135436266
50154	1652420074904	8.69052687329357	1.01774100257627	3.92741820277395	0.00963127696564658	-1.07079516704495	-0.28174989253794	-0.307184028712696	0.25004490723815	-0.595439699353711	0.257568359375	-0.332275390625	0.483642578125	0	0	0	-0.536531627442546	0.205732792688009	-0.754670261603583	-0.316671165434786	-0.223706371472054	0.257200322363569	0.940108213738655	-0.698728922680358	-0.714786781989934	0.0292873505531175	0.679509640823995	-0.650329032466298	0.339615661533291	4.92880774400038	-70.0697374393253	131.015925603548
50155	1652420074905	9.04966835430032	1.16417085464461	3.87169360541903	-0.20280290519964	-0.995290860470704	0.0468174277172988	-0.369035663194495	0.239977064135431	-0.634883475627166	0.259033203125	-0.325927734375	0.481201171875	0	0	0	-0.535681800178001	0.204959883528016	-0.753957592509947	-0.32028800133449	-0.220921210318427	0.263380582046828	0.939055103725077	-0.702553699537072	-0.710814084690679	0.0340827855687432	0.676470337929324	-0.652207026952352	0.342072910204477	5.68994472933078	-69.8934741042206	129.9896148842
50156	1652420074906	8.81870659995389	1.17569186685231	3.8672697798433	-0.15470614448442	-1.0097605785594	-0.165727269051912	-0.435939675566674	0.246006045106932	-0.654212265393528	0.249267578125	-0.321044921875	0.48779296875	0	0	0	-0.534731300483869	0.204442154001849	-0.753113080585607	-0.324170525805126	-0.217951812964117	0.269630888882045	0.937974515104932	-0.706917364414573	-0.706233751732624	0.03875213288085	0.672878032866884	-0.654624374488409	0.344531683899829	6.41752524608015	-69.7141381754669	128.949787026143
50157	1652420074907	8.57068330397647	1.27728176529567	3.88279361059281	-0.155483423424293	-1.10666394913128	-0.383208799405194	-0.483924528475053	0.229003355427946	-0.662842527141665	0.267333984375	-0.328369140625	0.48779296875	0	0	0	-0.533741351920342	0.20395863579772	-0.752224455652618	-0.328145413577428	-0.21488151359669	0.275955694193361	0.936842777608204	-0.711400326219375	-0.701442924863264	0.0434442057613715	0.669130414022082	-0.657134900915733	0.347042088267559	7.13541081033432	-69.5279273629764	127.907221738577
50158	1652420074908	8.33816347453769	1.47466985238028	3.91145422886404	-0.221145402246235	-1.28250056087527	-0.576604505154901	-0.544781715227489	0.176351067435596	-0.650209073794988	0.263427734375	-0.326904296875	0.481201171875	0	0	0	-0.532852047129647	0.203966824502358	-0.751063017134566	-0.332220671639937	-0.211396242409706	0.281669040027497	0.935934923263922	-0.716405599957956	-0.696053919675066	0.0476650527520591	0.664886941550168	-0.660432807176448	0.348932460744337	7.77860263598942	-69.3797169877845	126.888699962717
50159	1652420074909	8.40367827904065	1.62264045980953	3.93733763140005	-0.31816495074134	-1.34206625149466	-0.493089421224962	-0.62104548434093	0.112398551909199	-0.640078712772726	0.268798828125	-0.32421875	0.48291015625	0	0	0	-0.532042068447532	0.204282309112034	-0.749682891100451	-0.336415722547559	-0.207511398049751	0.287036658407794	0.935173233368838	-0.721783787556613	-0.690186399613318	0.0516807295733775	0.660278110874402	-0.664268537956521	0.350399951171854	8.39010478684942	-69.2561500432593	125.864817880589
50160	1652420074910	8.5757505402029	1.52085772345538	3.90839082100655	-0.29357237423635	-1.16754976967753	-0.342599274697241	-0.695410601918521	0.072003645113158	-0.636003644346553	0.271484375	-0.32080078125	0.4755859375	0	0	0	-0.531256692907141	0.205058713747047	-0.748082921366336	-0.340718641870067	-0.203354266647169	0.291893965714164	0.934582770553818	-0.727649222182357	-0.683723461997248	0.0552162745203809	0.655113464747752	-0.668819961046437	0.351434500315549	8.92913476699112	-69.1608428620506	124.863835225882
50161	1652420074912	8.59744125110244	1.49856089037266	3.83565326614317	-0.322993989778025	-1.06295398461577	-0.344866008481482	-0.746886447405435	0.0486327534492419	-0.61626961691501	0.273681640625	-0.31396484375	0.477294921875	0	0	0	-0.530408938704408	0.205996830832551	-0.74641902621424	-0.345094625769216	-0.199152114015337	0.296645268200121	0.933991445537753	-0.733695509873581	-0.6769500099043	0.0585626406671849	0.649637848554538	-0.673602456160194	0.352463326858818	9.43365292566183	-69.0658121023442	123.875345303233
50162	1652420074913	8.39780677619246	1.44437116380694	3.78502917563457	-0.271227376449629	-1.02372554243979	-0.549093010094662	-0.798570844718523	0.0196762066080211	-0.594146962178958	0.28271484375	-0.313720703125	0.469482421875	0	0	0	-0.529574270229454	0.207349446766217	-0.744610919847938	-0.349445099092678	-0.194878430062098	0.300787409436106	0.933568064910774	-0.740015137250907	-0.669788659291704	0.0613249421014211	0.643739073022643	-0.678903591247637	0.353114598473369	9.85221577872799	-68.9980237213965	122.938969649782
50163	1652420074914	8.2314819143353	1.33958591076823	3.7320402158733	-0.191259446489121	-0.943885069757501	-0.7268532182499	-0.848791206020149	-0.0358610706559124	-0.566535868829555	0.268798828125	-0.317626953125	0.47021484375	0	0	0	-0.528752438334311	0.208961013588478	-0.742680836328612	-0.353809735742008	-0.190479059699383	0.304558129980726	0.933253488222081	-0.746512711787594	-0.662307931388492	0.0637728402960787	0.637523724229594	-0.684538201623942	0.353512307511194	10.2260488034355	-68.9477911485438	122.022997486
50164	1652420074914	8.20588407304308	1.20544876176646	3.69089903925018	-0.105958348227994	-0.820720503119195	-0.772358121049677	-0.883713677633501	-0.110644152946147	-0.549757596308664	0.284912109375	-0.314208984375	0.468994140625	0	0	0	-0.528178754004076	0.210966370076954	-0.740478834566904	-0.358066320775487	-0.185631427490014	0.307425154842968	0.933290280297506	-0.753136972779001	-0.654563401245719	0.0658137826212557	0.631130472534247	-0.690678310010828	0.35304078903051	10.559852979251	-68.9536603095715	121.124688203939
50165	1652420074915	8.3872832487121	1.06315350500825	3.64929589204149	-0.0494578790626771	-0.634173698060323	-0.626309330113713	-0.907233351900548	-0.183247363297529	-0.522949260913226	0.283935546875	-0.32080078125	0.463134765625	0	0	0	-0.527703216541551	0.213174394931226	-0.73814452257387	-0.362254960478943	-0.1806013177202	0.309807401926477	0.933489441691385	-0.759778657484504	-0.646656041908211	0.0676191917627753	0.62459551364765	-0.697033239648707	0.352171985194813	10.868865925868	-68.9854581788678	120.239922015162
50166	1652420074916	8.60532229634951	1.03682189495728	3.67426039153825	-0.039746270550101	-0.567433005683213	-0.415710061666868	-0.933387036020633	-0.2466650191835	-0.498350058299662	0.2822265625	-0.320556640625	0.45654296875	0	0	0	-0.52745811930019	0.215732383850584	-0.735581825359482	-0.366287932019693	-0.175242166482087	0.311289896368439	0.934017549891645	-0.766449086200342	-0.638585378829763	0.0690254460869956	0.617936874890409	-0.703780728894856	0.350494941884901	11.1410901488895	-69.0699985886389	119.377548100928
50167	1652420074918	9.28918410128599	1.02873589845383	3.66346873344599	-0.14442859069225	-0.345061539768659	0.218677521293806	-0.959071701058518	-0.290779613308784	-0.470844111141199	0.288818359375	-0.31884765625	0.44873046875	0	0	0	-0.527196416340782	0.218448958468282	-0.732959317116799	-0.370289927750185	-0.169898616008401	0.3124838890423	0.934605948711772	-0.773145921273717	-0.630330843901773	0.0702026469863937	0.61104815251848	-0.710659444681544	0.348687982283121	11.3833907690221	-69.1645762145076	118.533084780572
50168	1652420074918	9.83596775540002	1.04705900030983	3.63280967548852	-0.252967622292603	-0.17102622934053	0.720433464754725	-0.973083938597695	-0.244233509612038	-0.445767846183476	0.2861328125	-0.318115234375	0.44384765625	0	0	0	-0.526780704955057	0.221273439500341	-0.730412874878389	-0.374215427355193	-0.164929805632847	0.313538375341063	0.935142687723322	-0.779788689132341	-0.622001757802119	0.0710169950951067	0.603926948823428	-0.717500871413799	0.347080307717484	11.5638219622733	-69.2512093783546	117.745604023646
50169	1652420074919	9.51183983829961	0.928698953294066	3.50211906763618	-0.174689672400084	-0.107671842252036	0.36377074765976	-0.980774732257577	-0.183455287188389	-0.398220365351796	0.295654296875	-0.324462890625	0.4365234375	0	0	0	-0.525978933033811	0.224047406345721	-0.728138282905944	-0.378105226995281	-0.160765198646921	0.314937350006782	0.935397785155984	-0.786314212961642	-0.613678394057204	0.071475780246763	0.596543803419773	-0.724025755231177	0.346297843428738	11.6620690111995	-69.2925051996207	117.04282244659
50170	1652420074920	9.21703925142945	0.960983370114536	3.4099203153776	-0.201245668105333	-0.158618300361445	0.0584419867721113	-0.991309218124252	-0.173302898412311	-0.363832364750278	0.29833984375	-0.320068359375	0.43212890625	0	0	0	-0.525147862540214	0.227008590308126	-0.725870337077987	-0.381836452091796	-0.156841292646788	0.31590135641991	0.93573882143093	-0.792753660334229	-0.605336047560533	0.0714835893787742	0.589018202560469	-0.730598797245008	0.345373644791523	11.693660148867	-69.3478363304063	116.403855650388
50171	1652420074921	9.35354341222723	1.02085502998717	3.33328117677042	-0.312746814484439	-0.0981272159450206	0.163997518213032	-1.01667007645649	-0.158467171586204	-0.348055808064747	0.29443359375	-0.32470703125	0.426513671875	0	0	0	-0.524105032455819	0.229986096618375	-0.723671007859425	-0.385643076821629	-0.153186664508064	0.317083686889914	0.935944325975212	-0.799231169420156	-0.596771625323582	0.0713664139209742	0.581174142270785	-0.737103495254872	0.344840620633456	11.692568287151	-69.3812467893107	115.785706146804
50172	1652420074922	9.39507635224406	1.01976749799122	3.35833792656599	-0.303670438257038	-0.105862767979273	0.211403401360402	-1.05614326861291	-0.113092838075269	-0.345705077962183	0.296630859375	-0.31884765625	0.42919921875	0	0	0	-0.522879311058347	0.233100774511181	-0.721478888535977	-0.38952466980453	-0.149735515361642	0.318300506888683	0.936089772806962	-0.805834796422978	-0.587869121071919	0.0709942065528399	0.57289576391637	-0.74370335739765	0.344522509978872	11.6437010014943	-69.404924529227	115.193318667314
50173	1652420074923	9.41314864192335	0.949366312727998	3.33494540305441	-0.267377677060029	-0.0398255690837133	0.21514614670178	-1.09960845171649	-0.0797203305466395	-0.336553833523207	0.3017578125	-0.322509765625	0.42236328125	0	0	0	-0.521351579367368	0.236242072824404	-0.719362787563475	-0.393572602689373	-0.146586274206928	0.319912613598432	0.936038665801126	-0.812573324718527	-0.578580578879883	0.0704918839221876	0.564125035936193	-0.750266908109134	0.344764427437561	11.5556463607031	-69.3966016955982	114.617593863112
50174	1652420074923	9.1650279800991	0.867714053477303	3.35930628831458	-0.15709329865691	-0.0895774278122749	-0.0145805402437738	-1.12899756566502	-0.0485860731463556	-0.360102000717528	0.2998046875	-0.32373046875	0.410400390625	0	0	0	-0.519733147164572	0.239440335999009	-0.717177923854886	-0.397745655878585	-0.143351697936247	0.321618648636792	0.935954985855537	-0.819398966184423	-0.568933437452791	0.0700005568838562	0.555009571912678	-0.7568858491194	0.345091562470182	11.4666565690761	-69.3829812609324	114.02346424817
50175	1652420074924	9.0927364426369	0.809325041559748	3.38376277438534	-0.0916440080943739	-0.0929199065787526	-0.077920937264782	-1.14445154673457	-0.0386034970095128	-0.401691924617707	0.304931640625	-0.3251953125	0.408447265625	0	0	0	-0.518015005350214	0.242477856421567	-0.714933297596495	-0.402163304349143	-0.139850261733992	0.323825538518218	0.935723743898978	-0.826254210884324	-0.558938331560361	0.0699422655369623	0.545660960019001	-0.763364239479363	0.345729886754439	11.4367647001266	-69.3453870949373	113.358026370993
50176	1652420074925	8.92923370475742	0.9270543765783	3.45338975296191	-0.131876272451296	-0.259893488198416	-0.198551649072847	-1.15607649284134	-0.0514037559717024	-0.455592029767797	0.299072265625	-0.32861328125	0.40869140625	0	0	0	-0.516428938257934	0.245513910130042	-0.712465284715133	-0.40671524404456	-0.135767723983115	0.325960008420362	0.935583880811893	-0.833121960164407	-0.548611260388863	0.0702387675458455	0.536166881312396	-0.769919319075149	0.346048143324882	11.4736809487583	-69.3226805764291	112.612533729592
50177	1652420074926	8.95964033778979	0.940529398002668	3.45314764773147	-0.148230177174009	-0.249804394287128	-0.169057169978817	-1.180182619463	-0.0973560843288484	-0.491639697668016	0.306884765625	-0.329345703125	0.400390625	0	0	0	-0.514919264605951	0.248547882486218	-0.709787001292036	-0.41144199329449	-0.131147274183048	0.328108171513889	0.935492073862826	-0.840036542990567	-0.537878872530949	0.0708867048556546	0.526439929065809	-0.776550929605167	0.346164202098568	11.5729018388157	-69.3077888379174	111.786957171841
50178	1652420074927	9.37665890944077	0.915409764523954	3.31095896297006	-0.250924500572719	0.0155395505981557	0.170245193485808	-1.19866229217462	-0.129596612539126	-0.536879931773037	0.30419921875	-0.32275390625	0.3994140625	0	0	0	-0.513581954709812	0.25166571691986	-0.706840477423085	-0.41626251596795	-0.125918187192962	0.329960449381944	0.935559037141807	-0.846964332698536	-0.52677976945449	0.0717948022491742	0.516523019110051	-0.783344864243802	0.345795885447324	11.7292174124929	-69.3186497450155	110.887654627512
50179	1652420074929	9.10118148951792	1.03634272714134	3.3708141535733	-0.279658652397031	-0.177924444926757	-0.0577898322499735	-1.2030572194005	-0.119457136838109	-0.542637020704124	0.31005859375	-0.322021484375	0.376708984375	0	0	0	-0.512126369297504	0.254674865207942	-0.703908577306238	-0.421165062292898	-0.120693144347952	0.332071971478825	0.935500598965907	-0.853774827759924	-0.515521406670272	0.0728438243656763	0.506459977086953	-0.789915112542399	0.345734589802947	11.8977973903834	-69.3091712384865	109.973916922067
50180	1652420074929	9.02156260561078	1.07000123646196	3.26854859705496	-0.342634470160194	-0.135210906569793	-0.164826682567211	-1.22007443770863	-0.151458770874286	-0.552391182803662	0.3212890625	-0.32568359375	0.3857421875	0	0	0	-0.510794791877784	0.257852691565336	-0.700784604656866	-0.426030055182686	-0.115174145343138	0.333690983739798	0.935620245406887	-0.860530231432768	-0.504020763067098	0.0738294737047953	0.49620825974055	-0.796626259778088	0.345201340086086	12.0721826389807	-69.32858200801	109.04222197908
50181	1652420074930	9.75618014133184	0.946890852644796	3.21581643526227	-0.336237488158022	0.220346698010198	0.495537737434239	-1.23857622606623	-0.164352562081439	-0.541208443604514	0.313232421875	-0.328857421875	0.3740234375	0	0	0	-0.509377814582931	0.261061845463822	-0.697629155693864	-0.430922865463887	-0.109679452062221	0.335290484978807	0.935708666454473	-0.867206934232201	-0.492304393726833	0.0747563852580009	0.48571859241223	-0.803253804597234	0.344761909707482	12.2343246083775	-69.3429381513798	108.113836769732
50182	1652420074931	9.80082975507571	0.768455712889342	3.2771825599432	-0.146216100223868	0.277585400199855	0.545318018350782	-1.23421908483048	-0.0938176684664018	-0.49400396745526	0.31591796875	-0.328857421875	0.372314453125	0	0	0	-0.507692356697946	0.264290307766558	-0.694695995212072	-0.435656491294979	-0.104903785086067	0.336941301176671	0.935663270325382	-0.873653977986388	-0.480708109626413	0.0751561047950245	0.475104117665987	-0.8095617783102	0.344798208342287	12.2965001859697	-69.3355663921364	107.293529107206
50183	1652420074932	9.35080479788364	0.518621420507772	3.20279395557573	0.0889751312443574	0.312323702361877	0.0796805722469163	-1.20956640865492	-0.049974971329452	-0.457987158159099	0.328857421875	-0.331787109375	0.36328125	0	0	0	-0.505792377542711	0.267345546539011	-0.691984292864192	-0.440293274982361	-0.100631805649997	0.338909381864213	0.935421653895204	-0.879794740301901	-0.469336381502129	0.0753961267944137	0.464579868944763	-0.815391802683167	0.345400859130898	12.313706483947	-69.2963731604711	106.53764728809
50184	1652420074932	8.81378722124405	0.41511930782718	3.21874216921451	0.2431719230282	0.16812840905636	-0.425032139852977	-1.16909461874347	-0.0469746678437643	-0.430918221119909	0.328857421875	-0.33203125	0.36767578125	0	0	0	-0.503960598224151	0.270384246733149	-0.689337333051343	-0.444668546018002	-0.0965871992395821	0.340527245739688	0.935260449207597	-0.885579272675785	-0.458324486601566	0.0754189418411415	0.454334969763588	-0.820962764009643	0.345832149112206	12.3024259621949	-69.2702631342334	105.8354656098
50185	1652420074933	8.72150515470859	0.254941461187232	3.13192089540638	0.356612817663815	0.281367667462634	-0.553517182144619	-1.12081074376643	-0.0951901575157684	-0.417736379071171	0.328369140625	-0.324951171875	0.352783203125	0	0	0	-0.502320417680323	0.273323110060518	-0.686666310129922	-0.448840789167908	-0.0924322879211919	0.341816139452891	0.935210136257716	-0.890999254682027	-0.447672846971952	0.0755602424565976	0.444495894588157	-0.826287328290559	0.345937350976625	12.3211377088272	-69.2621204736864	105.131746896583
50186	1652420074933	8.85504100516652	0.174364573612723	3.14514496218221	0.427493531563872	0.346583363497741	-0.430192341393546	-1.06171926403858	-0.116841197913144	-0.410765641283435	0.32958984375	-0.31787109375	0.344970703125	0	0	0	-0.50090537793664	0.276179806822389	-0.683985506993457	-0.452749757460568	-0.0882229189470963	0.342668643765988	0.935304718876171	-0.896028445825337	-0.437484742845889	0.0757636063614825	0.435143356658797	-0.83137554712455	0.345637033315398	12.3636856888308	-69.2774302782437	104.437729524497
50187	1652420074934	8.84695257740035	0.186075607230766	3.06394613466363	0.389573398699588	0.400295333990766	-0.46501676154748	-0.996930347736627	-0.136413046059888	-0.380671446085546	0.327880859375	-0.33251953125	0.348388671875	0	0	0	-0.499600757008883	0.278873089442764	-0.681421953930113	-0.456391284188104	-0.0842121586265706	0.343339668066241	0.935428342884487	-0.900640494446284	-0.427873591403564	0.0759663711320339	0.426327353219339	-0.836087353158497	0.345257767161599	12.4089479681896	-69.2974572440019	103.781088547675
50188	1652420074935	8.65951373386954	0.277829829805885	3.03686910759211	0.319093595721148	0.31018008827181	-0.642687592708649	-0.94581764059665	-0.165275158216603	-0.362772881782812	0.324462890625	-0.322998046875	0.334228515625	0	0	0	-0.498518337505234	0.281548373630039	-0.678850181734109	-0.459752554355998	-0.0802141118683057	0.343492155855881	0.935723695928803	-0.904920264453279	-0.418716204138831	0.0761318289112842	0.417953360124054	-0.840648487334063	0.344419960954595	12.4644396092611	-69.3453793029742	103.144453328777
50189	1652420074936	8.46135800483497	0.442497075841301	3.02899318533113	0.191096990935806	0.169587776232344	-0.818251123322639	-0.892309825859917	-0.222475153003498	-0.352849651882427	0.32763671875	-0.331298828125	0.3251953125	0	0	0	-0.497680513471235	0.284148378854848	-0.676246933362915	-0.462886476819557	-0.0761004321771706	0.34322089870778	0.936166726023026	-0.908881343069779	-0.409991616743479	0.0764302192836268	0.410052958094589	-0.845048098566166	0.343147610610339	12.5566805819368	-69.4174625202905	102.501621506157
50190	1652420074936	8.49112674019972	0.684745037916277	2.9857076985522	-0.0387013116938507	0.10283718661128	-0.786588738363939	-0.86118209452675	-0.276766956937527	-0.34743808241435	0.335693359375	-0.326904296875	0.3271484375	0	0	0	-0.49712460379134	0.286818498715909	-0.673519370694815	-0.465804609679334	-0.071786387813574	0.342287790087591	0.936848858291257	-0.912625920224283	-0.401522428791671	0.0767702345444961	0.402443342918552	-0.849481493579578	0.341204554199311	12.6802572015084	-69.5289235168248	101.844700446364
50191	1652420074937	8.59098731155648	0.818137899978526	2.96233667072128	-0.165594889159414	0.0870849792172808	-0.690472614540303	-0.847145218915184	-0.331832213419733	-0.326777669684863	0.332763671875	-0.331787109375	0.323974609375	0	0	0	-0.496701536937153	0.289576112962794	-0.670736515715307	-0.468557130445924	-0.0674835974251022	0.340890953439911	0.937677621542391	-0.916222554915537	-0.39319978061928	0.0770075475846118	0.394945811400264	-0.853924639756799	0.338866516011258	12.8030490338861	-69.6651307200109	101.19763395316
50192	1652420074937	8.71028968283196	0.828457248763466	2.94554549922122	-0.176997295244521	0.115982895461704	-0.583013384879642	-0.838436786971851	-0.381441548077026	-0.310614452013095	0.3427734375	-0.322998046875	0.310302734375	0	0	0	-0.496474116273809	0.292492455028877	-0.667836370527164	-0.471122274810293	-0.0631145080954291	0.338835313913177	0.938726365302068	-0.919695046422052	-0.38498393185751	0.0771258309405646	0.38752752218986	-0.858474229232824	0.335923231242641	12.9306485628241	-69.8387544574415	100.551503261215
50193	1652420074938	8.92363824965126	0.819537109232742	3.00542196494118	-0.146015062734559	0.115179074238949	-0.362774400832581	-0.824310091105561	-0.405463286849448	-0.290600711585877	0.3466796875	-0.32958984375	0.31298828125	0	0	0	-0.496279832268096	0.295424813812102	-0.664954955061065	-0.473566695627736	-0.0588818257523557	0.336574287526109	0.939814172893962	-0.923027795712123	-0.376917528352625	0.077154812963079	0.380200761360217	-0.862931588132478	0.33286101493607	13.0502895259747	-70.0203725615436	99.9231609297433
50194	1652420074938	9.2759907515516	0.854287039770157	3.12078666764195	-0.142018578864847	0.0920832810789831	0.00995914023458155	-0.82534218203378	-0.406738731308116	-0.279622536912629	0.346923828125	-0.323974609375	0.298828125	0	0	0	-0.496099042177141	0.298420482497331	-0.662053543918606	-0.475937034660887	-0.05473935877825	0.334099369892773	0.940946977059705	-0.926283832024637	-0.368858309328523	0.0770831380332733	0.372829538972302	-0.867364490094306	0.329661911953967	13.1607256459392	-70.2112018026236	99.3047579767079
50195	1652420074939	9.73957657482246	0.773327423631348	3.23403272412399	-0.0391578636492792	0.148861370000335	0.477724127797559	-0.832193992372271	-0.389920057366897	-0.246582040497113	0.350830078125	-0.32666015625	0.2880859375	0	0	0	-0.495750169768227	0.301439676251321	-0.659270770040833	-0.478255101934145	-0.051007653297469	0.331721677303218	0.941997318527088	-0.929476760009106	-0.360812358110918	0.0767293609866103	0.365337066156803	-0.871650830918882	0.326731781512545	13.2158083869079	-70.389731535609	98.7416991782738
50196	1652420074940	9.94847463395861	0.567649056305698	3.28691701764226	0.168648431913376	0.215760570126993	0.676503676178115	-0.836080819754981	-0.324993667214486	-0.225292888521841	0.34619140625	-0.328369140625	0.287841796875	0	0	0	-0.495170407047637	0.304397034016584	-0.656656101942332	-0.480574112336574	-0.0477095810723844	0.329687040126491	0.94288400741901	-0.932600653078833	-0.352781936467642	0.0761638180442402	0.357742669737387	-0.875700497244791	0.324297427332369	13.2168361987418	-70.5416691447513	98.2342098776272
50197	1652420074941	9.77002408347048	0.35115535805418	3.27239744561565	0.377465971571484	0.220253131497034	0.487517608031155	-0.825064460269466	-0.258279032609787	-0.199395753602037	0.342529296875	-0.32275390625	0.285888671875	0	0	0	-0.494315112187895	0.30718586158845	-0.654294661215243	-0.482895343328201	-0.0449293145092153	0.328218462863427	0.943532721919754	-0.935604917397946	-0.344897867664202	0.0754247931483291	0.35017823353046	-0.879385070100838	0.322578832605661	13.1603643862527	-70.6535552363174	97.7946842446196
50198	1652420074942	9.23642984199423	0.350553958416276	3.25089691761634	0.395700806102973	0.0412091966362347	-0.0226648987910352	-0.803830303274021	-0.236129694083315	-0.209384280162394	0.3466796875	-0.316162109375	0.2890625	0	0	0	-0.493477859099624	0.309851273553078	-0.651961650093775	-0.485198719766437	-0.0421236098309247	0.326852429700097	0.944136161098575	-0.938471402149156	-0.337148781229092	0.0748473557577945	0.342778396114761	-0.882891946115084	0.320943581711975	13.1273379603752	-70.7581940956102	97.3436032421431
50199	1652420074943	9.08184560087224	0.267744299111527	3.1617347533126	0.451419925654744	0.0766609823589443	-0.203396280486215	-0.779668509400022	-0.250237634589809	-0.227998216036403	0.359130859375	-0.327392578125	0.276611328125	0	0	0	-0.492729721970372	0.312396673967364	-0.649598391608515	-0.48749119869056	-0.0391395045724822	0.325492744568573	0.944734127897918	-0.941201249802206	-0.329521298586739	0.0745380516815072	0.33557161166074	-0.886267559493705	0.319251478362257	13.1418581916189	-70.862426899691	96.8567204377293
50200	1652420074944	9.15007042510848	0.32828519300116	3.0915427505462	0.373294331044154	0.119201599192688	-0.156829253902849	-0.742698945659044	-0.261221547454021	-0.233675516056424	0.350341796875	-0.325927734375	0.271240234375	0	0	0	-0.492142904314788	0.31485337112907	-0.647216616376474	-0.489666588514525	-0.0360439876503053	0.323935000140439	0.945392482854755	-0.943746410143489	-0.322187973562414	0.0744152070011381	0.328699778362477	-0.889528541068671	0.317325432842531	13.1978091170315	-70.9778217751915	96.3491388388307
50201	1652420074945	9.0206021799532	0.790260921526075	3.20075509858898	-0.0159713980930764	-0.188834190099231	-0.210361678041725	-0.725203048276205	-0.284354431395981	-0.256314467556056	0.3544921875	-0.320068359375	0.270751953125	0	0	0	-0.491663654732491	0.317230815065413	-0.644765294511346	-0.491842632944442	-0.0327153500667383	0.322304396309663	0.946070600954006	-0.946187844024974	-0.314910868782425	0.07456345312598	0.32196004362247	-0.892721132740881	0.315262921176048	13.3066190176235	-71.0973897432853	95.7959289937328
50202	1652420074946	9.06489657059525	0.802425876206131	3.02088714871454	-0.0793490484737635	-0.0386121892404132	-0.224456788284485	-0.742034142029374	-0.305117036768384	-0.253586533466782	0.347900390625	-0.326171875	0.2626953125	0	0	0	-0.491234631981245	0.319733256736629	-0.642205864114856	-0.493994745898507	-0.0293154547338398	0.320364547905533	0.946840620463144	-0.948620742726265	-0.307479671122516	0.0746655095466358	0.31505442479549	-0.896003799261851	0.312918361757679	13.4204161838837	-71.2340517777478	95.2283784077776
50203	1652420074947	8.82661075350692	0.765847708236178	3.07804580435342	-0.0138129701073369	-0.176505052595691	-0.435131478520892	-0.731089238357368	-0.314056740276459	-0.219642533339344	0.355224609375	-0.331787109375	0.261474609375	0	0	0	-0.490762184000879	0.322281690704471	-0.63974014354485	-0.496003567858709	-0.0262658788522357	0.318299454614133	0.947626276968123	-0.950954120188621	-0.300229945016197	0.0744865183228264	0.308214803188304	-0.899192658615448	0.310573981182709	13.4867953407954	-71.3744850236239	94.7173250485392
50204	1652420074948	8.58522878873413	1.12453127474291	2.93792388783688	-0.386317342887837	-0.258552493650638	-0.681094930834021	-0.726813007707921	-0.363973309240233	-0.234430102473094	0.365234375	-0.32763671875	0.251953125	0	0	0	-0.490511653350264	0.324917265640597	-0.637085712192982	-0.497944659310439	-0.0228988683836031	0.315715445476133	0.948577566314193	-0.953218266161798	-0.292959773505698	0.0744950210617222	0.301414297740247	-0.902495611399467	0.307654176832456	13.6115483920974	-71.545903752971	94.1484036046049
50205	1652420074949	8.7796555171872	1.09659761558482	2.87940036519761	-0.373479229532316	-0.161427556887009	-0.5169786237068	-0.760991943537572	-0.424755007846377	-0.270238270187806	0.3642578125	-0.32275390625	0.24951171875	0	0	0	-0.490383746534902	0.327697499794229	-0.634149459800573	-0.499992592342772	-0.0190623774734948	0.312745009318486	0.949645820772902	-0.955535120035343	-0.285243512461932	0.0747580964004761	0.294260531067456	-0.90599486629051	0.304276259526009	13.8036722411571	-71.7402498686396	93.487966892934
50206	1652420074950	9.08155693045494	1.08434968937689	2.77644064000024	-0.384963465502074	0.000354091112708954	-0.262251650142577	-0.761053516493041	-0.441689020214425	-0.291627096721096	0.357666015625	-0.324951171875	0.23046875	0	0	0	-0.490368638366945	0.330482513038262	-0.631080674055163	-0.502052875617841	-0.0149630171800089	0.309555214467163	0.950763733696789	-0.957788254157798	-0.277448437319543	0.0752597158265989	0.287084949647708	-0.909504224193122	0.300639814164126	14.0541363239722	-71.9457931995786	92.7673607992411
50207	1652420074951	9.11092193219768	1.15887517626885	2.71580165213463	-0.459138590229538	0.0148636938753042	-0.246269703766846	-0.773887673095673	-0.444946134902509	-0.302518137794168	0.366455078125	-0.3134765625	0.23583984375	0	0	0	-0.490308717795853	0.333258322574608	-0.627962680760079	-0.504181637171327	-0.0107964759852537	0.306415583263519	0.951836607007515	-0.960013426608931	-0.269479534347997	0.0758617248562584	0.27974570030097	-0.912956883374491	0.297072503376291	14.3251509495828	-72.1452054311066	92.0179675585687
50208	1652420074952	9.32853847901755	1.01823152470508	2.64153487077246	-0.330818590827537	0.157080762298829	-0.0709259960156228	-0.785663601349286	-0.439883486054349	-0.308063209413095	0.365234375	-0.3212890625	0.2314453125	0	0	0	-0.490231607860227	0.336061412382111	-0.624788523682214	-0.506334867886379	-0.00659594443451955	0.303208576127398	0.952901386755111	-0.962200282254841	-0.261375457340448	0.0765080853817129	0.272262943394287	-0.916377340216828	0.293471395525035	14.6117941955785	-72.3452668182087	91.2462054523469
50209	1652420074953	9.47126597596016	0.831700524221595	2.54291341127855	-0.162188879273635	0.309638145001519	0.0229992518919122	-0.788677872292077	-0.417364840435904	-0.295641436992256	0.369140625	-0.322021484375	0.222900390625	0	0	0	-0.490020019079834	0.338814946638938	-0.621699164640103	-0.508502666188538	-0.00261083876029583	0.300219152340268	0.953866680458574	-0.964323578806449	-0.253258940826404	0.0770710337896897	0.264713465616865	-0.919634910961725	0.290169625670107	14.8747094265408	-72.5285517124994	90.498256922944
50210	1652420074953	9.47153588418383	0.666706718814168	2.50348587748676	0.00246866861378928	0.357376880185592	0.000269046745231094	-0.783081599449424	-0.391493776081562	-0.277652145426877	0.362060546875	-0.313720703125	0.212158203125	0	0	0	-0.489725833720723	0.341547125132276	-0.61869800501517	-0.510614284651995	0.00111667980825153	0.297303177272234	0.95478247460353	-0.966360979713515	-0.245237227246418	0.0774929626458055	0.25718711070608	-0.92275106239783	0.287028338200839	15.1087027740453	-72.7041766714262	89.7847963153526
50211	1652420074954	9.56211195287959	0.324979792056057	2.42772175040411	0.3274587590813	0.507547164903941	0.0396471464855583	-0.761630437254344	-0.376213538137047	-0.242167025650585	0.373291015625	-0.3193359375	0.206787109375	0	0	0	-0.489347999567073	0.34423271734606	-0.615863392061896	-0.51259599485976	0.00443223725312697	0.294479033065683	0.955647662246726	-0.968277399541012	-0.237498364724562	0.0776749914145784	0.249838413401598	-0.925676307268291	0.284084743256502	15.2921562644755	-72.8716997733019	89.1376998484123
50212	1652420074955	9.49138960843078	0.177766337330431	2.36692001998962	0.466762822595881	0.545668225846139	-0.0553993271782271	-0.723724093878728	-0.360843416795391	-0.211305311825939	0.371826171875	-0.309326171875	0.2080078125	0	0	0	-0.488978436546191	0.34685264869478	-0.613185070033443	-0.51439031734116	0.00739461996299423	0.291625993785372	0.956503841782299	-0.970039857268087	-0.230191683038152	0.0776818149335717	0.24283326565138	-0.928421277658347	0.281186657372517	15.4435716561749	-73.0390581888112	88.5474897409786
50213	1652420074956	9.32533308229787	0.0657730661144234	2.33459693327604	0.576948659222556	0.520820845843314	-0.230814811660384	-0.676244459636837	-0.365111664983624	-0.192244026396702	0.36865234375	-0.318359375	0.201416015625	0	0	0	-0.488683288465074	0.3493664129683	-0.610631692361596	-0.516004543922084	0.010144091546553	0.28871840070564	0.95736032009932	-0.971636510980023	-0.223364840282852	0.0776571867632632	0.236261693757713	-0.930994002783796	0.27826350612925	15.5932416711307	-73.2080942934005	87.9877463773943
50214	1652420074957	9.31094060955662	0.0353152632887249	2.28664000413252	0.605724840740459	0.534200686015585	-0.259091059462014	-0.62694198195046	-0.37939505252339	-0.182218480374365	0.37890625	-0.305419921875	0.19091796875	0	0	0	-0.488553780703361	0.351798309667574	-0.608132235840009	-0.517424715690816	0.01282626609454	0.285580509997583	0.958268886694957	-0.973070086930164	-0.217019225814631	0.0776998169144653	0.23015232525394	-0.933459387405975	0.275106305350979	15.7715692406914	-73.3892361255385	87.4284051210414
50215	1652420074958	9.43800040798109	0.0352419322744792	2.23380518709884	0.606178161330035	0.584678671166466	-0.15051590927508	-0.579689925416019	-0.393868807490658	-0.169224576530721	0.36767578125	-0.32275390625	0.18408203125	0	0	0	-0.488540722287778	0.354148146753285	-0.605721022372843	-0.518660867883194	0.0153622664136229	0.282295999494533	0.959204341858408	-0.974359165141445	-0.211139988555731	0.0777439549904274	0.224473201241272	-0.935803865081818	0.271814105635501	15.961527282546	-73.5777668076803	86.8850933225122
50216	1652420074958	9.48183666020986	0.0168089942056903	2.23235847057791	0.636000026831274	0.565405534397898	-0.108841377409815	-0.526983622735603	-0.400506815159702	-0.155739438836625	0.377197265625	-0.314697265625	0.1865234375	0	0	0	-0.488674925842155	0.356387033477801	-0.603399423839408	-0.519705911581087	0.0177948353583275	0.278865680916185	0.960165233614363	-0.975495309539664	-0.205788095673129	0.0778470342745528	0.219299441177323	-0.938021956931916	0.268370198444116	16.1760339409067	-73.7736409561483	86.3488211679713
50217	1652420074960	9.6879366232519	0.0393730115726139	2.2953359994334	0.642551111114374	0.52152511365559	0.109068539435206	-0.478763419531621	-0.402034609786151	-0.146503791564265	0.376953125	-0.30224609375	0.1806640625	0	0	0	-0.488896494472346	0.358510012528043	-0.601193388078911	-0.520593218107952	0.0200741620946832	0.275405824494052	0.961118442155257	-0.976502977926841	-0.200906544354298	0.0779647005742149	0.214566917571672	-0.940100096942004	0.264901577219587	16.3999853821723	-73.9702492692935	85.8311181448853
50218	1652420074961	9.90453311527193	0.102247346401072	2.28823224133187	0.59521423408805	0.537179544935623	0.321574700154102	-0.435911766990096	-0.389462206986005	-0.127232680161317	0.379638671875	-0.31201171875	0.18017578125	0	0	0	-0.489173374445228	0.360508249547448	-0.599123394428546	-0.521339016370845	0.022169920513303	0.271990728379345	0.962044457548667	-0.977394876165215	-0.19647886403543	0.0780724793594436	0.2102563926981	-0.942028184112886	0.261486423484207	16.624142968152	-74.16352395034	85.3401318369203
50219	1652420074962	9.87434022048732	0.0809190594470182	2.32639260212185	0.632715470065502	0.460168468253412	0.302105981904093	-0.399522586750461	-0.372302085728314	-0.108800070989227	0.375244140625	-0.31103515625	0.162109375	0	0	0	-0.489434997677917	0.362410477876322	-0.597220910074652	-0.52195709894883	0.0239716601901216	0.268694644512589	0.962927072793149	-0.978200130103991	-0.192438864764755	0.0780499121882124	0.206276186149212	-0.943806373859758	0.258224057146947	16.8177857551746	-74.3499043216593	84.9018400834123
50220	1652420074963	9.74467277516532	0.154761516708047	2.30681346946359	0.562439893145839	0.394742845287057	0.178895484361288	-0.357714128212775	-0.348720972307651	-0.106914400516236	0.372314453125	-0.313720703125	0.163330078125	0	0	0	-0.48974987219939	0.364112742798637	-0.595435722167382	-0.522516290635366	0.0257564225973232	0.265601391213778	0.96373881714928	-0.978898068220986	-0.188797273104622	0.0781931052042347	0.202719458188428	-0.945416041038846	0.255133946424668	17.0391834399192	-74.5232501877832	84.4611196534447
50221	1652420074964	9.73821434646856	0.188713385495155	2.3088179829944	0.537666825970501	0.352373005523873	0.176593482857253	-0.317322474143029	-0.329456457295956	-0.101493522084665	0.38134765625	-0.313232421875	0.1689453125	0	0	0	-0.490077610026084	0.365678398209299	-0.593799933226527	-0.522976944553367	0.0273618967665072	0.262665758644445	0.964498846987946	-0.979508940374765	-0.185548849097412	0.0783189652927856	0.199533361449272	-0.946878199049046	0.252206490468407	17.2514024119553	-74.6872873046334	84.0529469985087
