// Start Time : 22/03/2022 12:28:09																																
// Update Rate : 100Hz																																
// Filter Profile : 46.1 human																																
// Firmware Version : 4.4.0																																
PacketCounter	Time_Of_Arrival	Acc_X	Acc_Y	Acc_Z	FreeAcc_X	FreeAcc_Y	FreeAcc_Z	Gyr_X	Gyr_Y	Gyr_Z	Mag_X	Mag_Y	Mag_Z	VelInc_X	VelInc_Y	VelInc_Z	OriInc_q0	OriInc_q1	OriInc_q2	OriInc_q3	Mat[1][1]	Mat[2][1]	Mat[3][1]	Mat[1][2]	Mat[2][2]	Mat[3][2]	Mat[1][3]	Mat[2][3]	Mat[3][3]	Euler_X	Euler_Y	Euler_Z
6562	1647952123106	9.74637200160641	0.0539157870396231	0.189713759225019	3.46944695195361E-16	1.38777878078145E-15	-0.0643200423059582	-0.00761361995747055	0.00454556638514838	-0.00170417544105978	0.551025390625	0.4423828125	0.188232421875	0	0	0	-0.583231252373807	-0.387456104443613	-0.596853801346795	0.391771123491437	-0.0127133861054771	-0.0157071505584878	0.999795806770095	0.919613186696586	-0.392786307855276	0.00552297158877396	0.392619353404137	0.919495623579989	0.0194381467677229	15.8614685832709	-88.8421143012346	-128.98674902029
6563	1647952123107	9.74635913008366	0.054139819161604	0.190310374894449	-0.00375876592570365	-0.0108425897340718	-0.0643267967764611	-0.00606532241559172	0.00762147887169988	-0.00315966330239718	0.548583984375	0.4453125	0.186279296875	0	0	0	-0.58202013088522	-0.38843929213811	-0.596385436901665	0.393308904322297	-0.0131213460502901	-0.0169684301807667	0.99976992486023	0.921286380785506	-0.388846044208077	0.00549167395914768	0.388663395313955	0.921146473847092	0.0207349671351907	14.8342425842283	-88.7709181525064	-127.71406063457
6564	1647952123108	9.72057695484409	0.0536184308442553	0.214102378692011	0.00482604404333214	0.0110441583166913	-0.0896124486973892	-0.00154323222679036	0.00916266768449484	-0.00149027919293646	0.536865234375	0.4482421875	0.184326171875	0	0	0	-0.581992948253012	-0.388421007970516	-0.596418028487253	0.393317764722512	-0.0131706882749064	-0.017047036425293	0.999767938833547	0.921280186793962	-0.38886051304171	0.00550625261133442	0.388676408328634	0.921138914575892	0.02082665750187	14.8092889726837	-88.7656245813065	-127.689985667054
6565	1647952123109	9.74320822498655	0.0781109068566292	0.241036869139824	0.0369623002394426	0.0254011178071889	-0.0662882762893897	-0.00758026793181343	0.00608558328918597	-0.00321675934311034	0.5498046875	0.4501953125	0.191162109375	0	0	0	-0.581980378193072	-0.388401183170566	-0.5964578726073	0.39329552058818	-0.0132349457670431	-0.0170846840875259	0.999766447616729	0.921252153976498	-0.388926308793954	0.00554933523704854	0.388740665488197	0.921110438491248	0.0208867206199055	14.8790132234489	-88.7616647520909	-127.763772414199
6566	1647952123110	9.74352436491903	0.0539244948161688	0.241064109561232	0.0143080275168909	0.0345003673821835	-0.0661037654979264	-0.00607805603023277	0.00302853453195181	-0.0016740832151578	0.552490234375	0.44970703125	0.188232421875	0	0	0	-0.581980047146277	-0.388381972294591	-0.596481780651031	0.393278722627549	-0.0132621421041225	-0.0171060684365467	0.999765721561534	0.921228302623627	-0.388982579850014	0.00556480174125756	0.388796257739195	0.921086279886891	0.0209173366403626	14.8977714062024	-88.7597413353872	-127.78601826958
6567	1647952123111	9.7177477990557	0.053326302793	0.264330560227889	0.0228810701666885	0.0563730505871794	-0.0913893440221187	-0.00302749846669089	0.00304757890727381	-0.0015864344395527	0.5478515625	0.441162109375	0.188232421875	0	0	0	-0.581973181764883	-0.38837137997258	-0.596500283417154	0.393271278900337	-0.0132898337971029	-0.0171294032296339	0.999764954308082	0.921216314065877	-0.389010744820574	0.00558060149276268	0.38882371714766	0.921073951406258	0.0209497738493041	14.9160836128196	-88.7577120147777	-127.806069680609
6568	1647952123113	9.74317744984462	0.0787027104525272	0.242086024918195	0.0369503301775561	0.0253871255395777	-0.0662881944447378	-0.00603438566161036	0.00304233557140731	-0.00319935621453037	0.547607421875	0.445556640625	0.1982421875	0	0	0	-0.581969760644001	-0.388356709523147	-0.596527144780546	0.393250085065835	-0.0133311365833545	-0.0171449782867036	0.999764137442899	0.921192423429415	-0.389066873528133	0.00561132241842771	0.388878901219436	0.921049953934417	0.0209805277286355	14.9735155919259	-88.7555551118598	-127.866973447858
6569	1647952123115	9.74349884099743	0.0545167608530544	0.24196087303482	0.01425986261162	0.0344391742778179	-0.0661034784950924	-0.00302752546674656	0.00304758603166447	-0.00158639028615196	0.5576171875	0.445068359375	0.181884765625	0	0	0	-0.5819614825937	-0.3883455899109	-0.596547030952688	0.393243150526021	-0.0133613146834243	-0.0171717172510139	0.999763275679089	0.921180418304102	-0.389095054722248	0.00562808348995358	0.388906302601295	0.921037551089716	0.0210170711481969	14.9912912081539	-88.753283699984	-127.886488182097
6570	1647952123116	9.7191207147307	0.0543589159447899	0.240780859219759	0.0137577145614099	0.0336835527029032	-0.0905006777552124	-0.00454246051444114	0.00151161130176294	-0.00164359828587192	0.543701171875	0.447509765625	0.187744140625	0	0	0	-0.581962713697481	-0.388333851221588	-0.59656348116569	0.39322796543576	-0.0133823341302342	-0.0171792441490982	0.999762865235398	0.921162531659135	-0.389137174389325	0.00564356054499193	0.388947944332605	0.921019616011927	0.0210324397225468	15.0201670911358	-88.7522033178906	-127.917974163899
6571	1647952123117	9.74349341392272	0.0548163751621848	0.242111676149077	0.0142082226636302	0.0343534098490889	-0.0661031004114978	-0.00603666971278886	-0.00307720203987816	-0.00172754508813847	0.547607421875	0.44482421875	0.186279296875	0	0	0	-0.581977095106642	-0.388325340476964	-0.596572893535966	0.393200805457987	-0.0133915747168515	-0.0171529772913249	0.999763192509429	0.92113879171965	-0.389193113061281	0.00566101889530252	0.389003845888272	0.920996469111425	0.0210121814293697	15.078385953703	-88.7530647027215	-127.97966757864
6572	1647952123118	9.72192178127284	0.0555575697874221	0.191746232950274	-0.00446831387521957	-0.011686852148423	-0.0887241868089354	-0.00604704133368044	-0.0015507816145755	-0.00171415426018238	0.545166015625	0.440673828125	0.177978515625	0	0	0	-0.581990280811305	-0.388315339601515	-0.596583491774598	0.393175084934647	-0.0134013312556223	-0.0171320230221259	0.999763421069078	0.921115037174218	-0.389249099233586	0.0056768862399727	0.38905975455207	0.920973198596469	0.020997020142677	15.1291337002864	-88.7536666244302	-128.033892858794
6573	1647952123119	9.74284001203574	0.103938591275297	0.242453526438337	0.0594590599377175	0.0160542553964992	-0.0664714138436544	-0.00297571876747984	-0.00458441360167814	-0.00165328533873652	0.546875	0.447021484375	0.18798828125	0	0	0	-0.582002797374097	-0.388318371793226	-0.596582905903409	0.393154451024567	-0.0134046429765943	-0.0170936924113675	0.999764032772942	0.921103207033016	-0.389276839534858	0.00569422472741465	0.389087647632463	0.920962185912917	0.0209631719531683	15.1965815480741	-88.7552790047309	-128.103063716579
6574	1647952123121	9.76788383709314	0.0557323111353046	0.242625610880379	0.0146523820731173	0.0350078977827704	-0.0417054428090147	-0.00289879738543143	-0.00302992563596197	-0.00469026957818853	0.549072265625	0.439453125	0.18505859375	0	0	0	-0.582008426838288	-0.388329329617935	-0.596588936802217	0.393126141757206	-0.0134360555126292	-0.0170475294279751	0.999764399322493	0.921091298332382	-0.389304336851157	0.00574050914552904	0.389114754987048	0.920951418397998	0.0209330456954125	15.3353291471631	-88.7562461881419	-128.243505317219
6575	1647952123121	9.74351845659169	0.0555776937068586	0.240927399383094	0.0140285206589645	0.0341091765448914	-0.0661019823253426	-0.0061239021968838	-0.00310543815210937	0.00132298900585768	0.548828125	0.449462890625	0.185302734375	0	0	0	-0.582025665328478	-0.388311385261986	-0.59659568978671	0.393108096969243	-0.0134242979923258	-0.0170388078207526	0.999764705944084	0.921067577267674	-0.389360584346275	0.00573179411574387	0.389171307176764	0.920927800853886	0.0209207859497206	15.3216933349705	-88.7570558226991	-128.233374412806
6576	1647952123123	9.74352534839569	0.0556562234285293	0.240630383196305	0.0140285190187125	0.0341091740181279	-0.0661019823141409	-0.00141722145585051	-0.00303423381512933	-0.00312130261234722	0.55322265625	0.444091796875	0.19384765625	0	0	0	-0.582031441554238	-0.388322204866702	-0.596595746388728	0.393088770687533	-0.0134412388033195	-0.0169987117185391	0.999765160874964	0.921061642462885	-0.389374167133656	0.00576270357943653	0.389184768308068	0.920922799027629	0.0208905324995179	15.4216466367621	-88.7582580405491	-128.334163416556
6577	1647952123123	9.71915575140354	0.0555723847179058	0.239083603735948	0.0133798912037318	0.0331455484177519	-0.0904983013578118	-0.00148169541011665	4.46763910874957E-06	-0.00156899420699014	0.5556640625	0.440185546875	0.1865234375	0	0	0	-0.582022557621019	-0.388318911267539	-0.596610290053767	0.393083104920881	-0.0134708300920933	-0.0170141186670794	0.999764500521304	0.92105558230125	-0.389388191555506	0.00578364840205298	0.389198087159143	0.920916584736704	0.020916331144561	15.4568414635573	-88.7565133454121	-128.370216768503
6578	1647952123124	9.74458926012982	0.0807430313812302	0.216472945870636	0.0274480800244456	0.00215810820840267	-0.0653984175843849	-0.00308369987987666	-0.00155986113931282	0.00142412938883491	0.548095703125	0.448974609375	0.192138671875	0	0	0	-0.582036036296389	-0.388308633653277	-0.596608939105946	0.393075350615617	-0.0134516423815963	-0.0170052998565214	0.999764908913104	0.921043771821402	-0.38941634753747	0.0057687658628689	0.389226699631772	0.920904842015377	0.0209009149654258	15.429793735668	-88.7575920527348	-128.344929926651
6579	1647952123125	9.74632079352521	0.0567157369856437	0.191519488213603	-0.00448292634060779	-0.0116286067869877	-0.0643280088291114	1.04435653785665E-05	-0.0015264079258846	-1.35774538812944E-05	0.5439453125	0.44384765625	0.190673828125	0	0	0	-0.582029833606619	-0.388308077765672	-0.596615004458902	0.393075878156221	-0.0134652536071347	-0.0170161618176016	0.999764540870645	0.921043705377842	-0.389416381507288	0.00577707517910669	0.389226386219062	0.920904627011271	0.0209162190675611	15.440191913681	-88.7566198806506	-128.355323869908
6580	1647952123127	9.76757584931384	0.080454344960756	0.241943807584548	0.0368466948305246	0.0253107963819991	-0.0418865062465432	-0.00308368964578843	-0.00155985894115103	0.00142415246830658	0.5439453125	0.453857421875	0.186767578125	0	0	0	-0.5820433122564	-0.388297799661953	-0.596613653225225	0.39306812414712	-0.0134460648741259	-0.0170073441133683	0.999764949168359	0.921031893941829	-0.389444537114301	0.0057621917492694	0.389254998274047	0.920892883433268	0.0209008028705688	15.4131251583241	-88.7576984318192	-128.330017999502
6581	1647952123127	9.74459474957118	0.0806759938546484	0.216250743660527	0.0270338949574041	0.00166364733584501	-0.0653971631162111	-0.00756018534527613	0.00303298325128106	-0.00324192510322466	0.548583984375	0.444580078125	0.1845703125	0	0	0	-0.582030874532433	-0.388275589683718	-0.596655230152533	0.393045371272071	-0.0135107944252224	-0.0170483908670293	0.999763377406297	0.921001914959872	-0.389514805154721	0.00580424030588217	0.389323684193819	0.920862404995515	0.0209642550935444	15.4754760257002	-88.7535516141519	-128.396710345469
6582	1647952123129	9.7191557399687	0.0555781553617199	0.23908274250673	0.0129666655912915	0.0326523635810587	-0.0904960725593664	-6.44908636719056E-05	0.00303858084271769	0.00155254030209494	0.55419921875	0.45068359375	0.182861328125	0	0	0	-0.582024947134079	-0.388264910333263	-0.596661149469725	0.393055712375411	-0.0135083357652611	-0.0170824184816371	0.999762829796983	0.92100187412458	-0.389515132745923	0.00578871496431649	0.38932386611132	0.920861635828502	0.0209946406349503	15.4147809891399	-88.7521100797003	-128.3360377929
6583	1647952123130	9.74351945605383	0.0560323151810984	0.240781663793061	0.0132026288546114	0.0331172204259787	-0.0660974076156044	0.0031604710808634	0.00311481618603634	-0.00446078588209015	0.550537109375	0.4521484375	0.183837890625	0	0	0	-0.581986870279774	-0.388277742344964	-0.5966864361949	0.393061031498266	-0.0135886166789441	-0.0171232760502991	0.999761042906783	0.921013468316868	-0.389486840634033	0.00584740556600427	0.389293643251064	0.920872843768468	0.021063355242902	15.5152052439189	-88.7474177818383	-128.434663451904
6584	1647952123131	9.71880793319299	0.0805009248046674	0.239894796680983	0.0353575866209925	0.02326582422294	-0.09067799716229	-0.00142755869470043	-0.00150766570535565	-0.00310788529701529	0.547119140625	0.443359375	0.191162109375	0	0	0	-0.581988145295306	-0.38828549471184	-0.596690918063009	0.393044681471757	-0.0136113542049896	-0.0170972738295025	0.999761178614326	0.92100749347916	-0.389500505926292	0.00587816624445059	0.38930698425785	0.92086754699618	0.0210483466642224	15.6034399878075	-88.7477735272198	-128.523736642533
6585	1647952123132	9.76649289186859	0.0564831384471067	0.266557680719946	0.0224585652331206	0.0561509354137915	-0.0425814549757337	-0.00453223994338283	-1.48905333182418E-05	-0.00165660705916159	0.54541015625	0.4482421875	0.190673828125	0	0	0	-0.581976537998815	-0.388272381461607	-0.596720021888946	0.393030638105864	-0.0136604534580234	-0.0171276692199515	0.999759988676489	0.920989334674277	-0.38954295060846	0.00591058774465558	0.389348221297534	0.920849028113918	0.0210957340260923	15.6517716631467	-88.7446576428488	-128.57468587385
6586	1647952123133	9.72019810600233	0.0813302572050271	0.215603752628491	0.0259407592032279	0.000263689580239092	-0.0897928439529227	-0.00302799115746314	0.00304764418670567	-0.00158545290343443	0.551025390625	0.446044921875	0.18505859375	0	0	0	-0.581970316995447	-0.388261968279545	-0.596737886059716	0.393023013912538	-0.0136869213426498	-0.017149563476126	0.999759251348413	0.920977326503819	-0.389571109045598	0.00592579639067004	0.389375695505049	0.920836708363412	0.021126388247826	15.6684171911906	-88.7427308036201	-128.593070963825
6587	1647952123134	9.71879549445157	0.0810948507918734	0.240198494680536	0.0346441848324009	0.02247972152973	-0.0906735793478859	7.67357632206382E-05	0.00155497587213237	-0.00303674087486502	0.544921875	0.442626953125	0.187744140625	0	0	0	-0.581939244680362	-0.38826260427371	-0.596768272530939	0.393022257033727	-0.0137604419539287	-0.0171959334551088	0.99975744563861	0.920976920129802	-0.389571311197423	0.0059754564800143	0.389374065424826	0.920835758083127	0.0211977312468911	15.7426836386037	-88.7380244144805	-128.66731487112
6588	1647952123136	9.74629752933999	0.0581380668261725	0.192275455892924	-0.00568735705279068	-0.0129562141727803	-0.0643303111856017	-0.00297526325925003	-0.00458443839199239	-0.00165398885022908	0.547119140625	0.44775390625	0.189453125	0	0	0	-0.581955554836625	-0.388267535883684	-0.596763972007047	0.392999763979549	-0.0137578354136306	-0.0171473017600589	0.999758316798155	0.920965098841012	-0.389599012181662	0.00599136243590975	0.38940211694532	0.920824945225433	0.0211521055472176	15.8148455821405	-88.7402928036183	-128.741200637967
6589	1647952123138	9.74596143483083	0.0826972731923833	0.192566977677437	0.0165640930204903	-0.0224770324042813	-0.0645128877060177	3.30441161821602E-05	0.00154071489530887	-0.00151149729122442	0.549072265625	0.44580078125	0.1845703125	0	0	0	-0.58192708114308	-0.388264259030711	-0.596791763000219	0.393002963101702	-0.0138190864511537	-0.0171988884877044	0.999756585917014	0.920964836367396	-0.389599072305229	0.00602768891711319	0.389400568854788	0.920823957710535	0.021223474783255	15.8551012168856	-88.7357897980533	-128.781430959309
6590	1647952123136	9.74490195801401	0.0579808775875448	0.216573541966125	0.00299694611411057	0.00926410079810508	-0.0652115222020786	-0.0030069459842399	-5.23705607516782E-06	-0.00161283726163725	0.545654296875	0.44775390625	0.181396484375	0	0	0	-0.581929863105629	-0.388259955528693	-0.596800788960509	0.392989388730579	-0.013833949542059	-0.0171926289546158	0.999756488025808	0.920952880035457	-0.389627094556045	0.00604317319069131	0.389428317658675	0.920812217934495	0.0212236827174417	15.8936277856129	-88.7355356064257	-128.821693694304
6591	1647952123136	9.76926953087858	0.0584413721245382	0.218125217977257	0.00310381796587503	0.0096813101693835	-0.0408135497262414	0.00307300864529158	0.00308671483257687	-0.00141011146039918	0.5419921875	0.44287109375	0.19189453125	0	0	0	-0.581892837090695	-0.388265627682831	-0.596824246506173	0.39300298635626	-0.0138987577152074	-0.0172494471391778	0.999754610445667	0.920965397687825	-0.389596910150237	0.00608143594018423	0.389396405730305	0.920823926804023	0.0213010570051995	15.9340048253435	-88.730669991208	-128.86016173548
6592	1647952123137	9.7201809075235	0.0823677299584568	0.215984919096379	0.0247667736618655	-0.000914271696135506	-0.0897898220369413	0.00155832567892067	0.00155051309592983	-0.00146766683944114	0.547119140625	0.4501953125	0.1884765625	0	0	0	-0.58188230149987	-0.388271527126639	-0.596828596366722	0.393006151329582	-0.013918304436648	-0.017257959700408	0.99975419160341	0.92097127894568	-0.389582772479714	0.00609645340978443	0.38938179741581	0.920829748766838	0.0213164168479238	15.9604256130471	-88.7295871330894	-128.885693349639
6593	1647952123138	9.74421176086839	0.107238196386674	0.217827480748496	0.0474435175320692	-0.00965526762674029	-0.065571502959294	-0.00299629732360026	-0.00153172524288667	-0.00162661887672923	0.5478515625	0.4482421875	0.19091796875	0	0	0	-0.581867498317856	-0.388267429207636	-0.596855445562866	0.392991342041738	-0.0139760389631078	-0.0172776496906356	0.999753046084917	0.920958440536045	-0.389612416993453	0.00614128080573867	0.389410093783298	0.92081683702335	0.0213572356356269	16.0426084215816	-88.7266302575759	-128.969692509901
6594	1647952123139	9.74315513010091	0.082597382731084	0.241686480563853	0.0338753649565133	0.0220858335339226	-0.0662689817963464	-0.00143799603084911	1.88241842005138E-05	-0.00309427481156333	0.549560546875	0.44873046875	0.184326171875	0	0	0	-0.581864217493813	-0.388272085939488	-0.596864440442376	0.392977937568919	-0.0140047459687832	-0.0172658467068016	0.999752848271935	0.920952380546284	-0.389626255728556	0.00617200235559034	0.389423394079607	0.920811202899076	0.0213576393610228	16.1184138940657	-88.7261203466137	-129.046344650388
6595	1647952123140	9.76926036440714	0.059111695063057	0.218354995815646	0.00205733537690343	0.00892020858357864	-0.0408125489610942	-0.00153592943624713	0.00151656559004179	-3.00857180946606E-05	0.54541015625	0.4404296875	0.185302734375	0	0	0	-0.581838020125231	-0.388264459185454	-0.596896462448352	0.392975624163663	-0.0140693542998613	-0.0173174713485296	0.999751048239349	0.920945568218364	-0.389641737093213	0.00621104612271595	0.389437175483466	0.920803682606166	0.0214304561403547	16.1628212897735	-88.7214896694201	-129.091684206403
6596	1647952123141	9.74313962171964	0.0828914788911212	0.242210512494778	0.0333046927850163	0.0217165588430282	-0.066266185235893	-0.00301649469967478	0.00764104998643688	-0.0030693430721491	0.5517578125	0.448974609375	0.187255859375	0	0	0	-0.581815136628007	-0.388249364766098	-0.596930645359294	0.39297249544999	-0.0141275292206838	-0.0173759362205809	0.999749213432337	0.920933365049077	-0.389670097157058	0.00624119547775692	0.38946392651631	0.920790580002894	0.0215071550985107	16.1822840824699	-88.7167867281392	-129.112883724541
6597	1647952123141	9.72155076155761	0.0836430447212652	0.192589681700514	0.0141418303034173	-0.024710945064501	-0.0889110623104212	-0.0076477473642165	0.0030035044533744	-0.000191950963889211	0.547607421875	0.445068359375	0.191162109375	0	0	0	-0.581797526188121	-0.388219289316888	-0.596977053187828	0.392957783853241	-0.0141916372610637	-0.0174435153777032	0.999747128629594	0.920903603950006	-0.389739927022881	0.00627228156977239	0.389531962313417	0.920759747738501	0.0215948438473463	16.1960838938164	-88.7114638314841	-129.130997860662
6598	1647952123142	9.74520107826736	0.0348311966080786	0.217704195774128	-0.0215869642062022	0.0168750973244307	-0.0650311507923629	0.00160207632436884	0.00156512732713854	-0.00299267369169495	0.550048828125	0.44482421875	0.1923828125	0	0	0	-0.58178390760047	-0.388229659734854	-0.596984385340298	0.392956562254856	-0.0142252500759474	-0.0174463265924152	0.999746601869048	0.920909400540192	-0.38972574296601	0.00630248096361491	0.389517032049924	0.920765698187124	0.0216104323185753	16.2588319840888	-88.7101223875261	-129.192846567524
6599	1647952123144	9.74345794926965	0.0588515212547155	0.242591194490896	0.009631343327887	0.029944496150873	-0.0660829603132171	-0.00309430617869097	-3.41865434151586E-05	0.00143734350042372	0.54931640625	0.451904296875	0.195068359375	0	0	0	-0.581768548512781	-0.388210283220654	-0.597013909084665	0.392953590545397	-0.0142656632776256	-0.0175004523866936	0.999745080016657	0.920894584334756	-0.389760503358439	0.00631779745589278	0.389550581303849	0.920749957473818	0.0216762639261438	16.2493731098619	-88.7062546637214	-129.185531321298
6600	1647952123143	9.76887833801698	0.0840350728047196	0.22044296784425	0.0236895136917437	-0.00105675414069709	-0.0409895247545595	-0.00306024506878998	0.00762674419586616	-0.00154384902062391	0.546142578125	0.44482421875	0.191650390625	0	0	0	-0.581748818969966	-0.388190435504257	-0.597045163754442	0.392954920884695	-0.014309483559105	-0.017565015395357	0.999743321515294	0.920882324955509	-0.389789231871037	0.00633232200087791	0.389577954028212	0.92073656653331	0.0217529948201305	16.2303392156664	-88.7017998541923	-129.168264137645
6601	1647952123144	9.72326516081089	0.0600647983568181	0.16911736304156	-0.0187905346915949	-0.0392194899407859	-0.0878633241004376	-0.00152427039435893	0.00611022517686213	-0.00151372661361779	0.548095703125	0.439697265625	0.180908203125	0	0	0	-0.581702036825164	-0.388173891160008	-0.597100684388643	0.392956159485722	-0.0144163941513765	-0.0176656972670618	0.999740011562877	0.920871869787567	-0.389812973887861	0.00639099543521143	0.389598725631415	0.920724588858564	0.0218875411503079	16.2774025888864	-88.693455949555	-129.216752546341
6602	1647952123145	9.74447813296588	0.0839330817028842	0.220229400786503	0.0225273697972017	-0.00229691047547512	-0.0653858347942666	-3.21344847596292E-05	0.00457923610041994	4.1647188255691E-05	0.55126953125	0.44189453125	0.1884765625	0	0	0	-0.581688445714466	-0.388164342155	-0.597114265556261	0.392965074110755	-0.0144340053028349	-0.01770867749397	0.999738997054898	0.920871528973651	-0.38981378801701	0.00639044580291442	0.389598879126529	0.920723418521135	0.0219339912033292	16.2434278271456	-88.6909091702019	-129.182820191407
6603	1647952123147	9.74587229539013	0.084392632885671	0.196306565091522	0.0132460077228046	-0.0251918949867556	-0.0645144522108847	-0.00155741154524432	0.00456934543799735	-2.43105362218734E-06	0.5478515625	0.4501953125	0.18798828125	0	0	0	-0.58166564260756	-0.388148927011917	-0.597139715273473	0.392975382323813	-0.0144708581947732	-0.017776625705008	0.999737258404253	0.920868205936296	-0.389821518693901	0.00639772294253527	0.389605366439908	0.920718836095865	0.0220109813388624	16.2070611792831	-88.6865560141468	-129.146916978577
6604	1647952123148	9.744799401123	0.0594430861495802	0.220751519591941	-0.000315099950593846	0.0065447828409157	-0.0652088614223558	-8.67709638420046E-05	0.00609116823691493	0.00158078675144087	0.545654296875	0.450927734375	0.187255859375	0	0	0	-0.58165083383987	-0.388131693197489	-0.597154537301691	0.39299179992595	-0.0144795053686929	-0.017839426920279	0.999736014541556	0.920867918872279	-0.389822467853224	0.00638118708861674	0.389605723669604	0.920717219565257	0.0220721924580693	16.1248601508881	-88.683450516803	-129.064771678442
6605	1647952123148	9.74759518479465	0.0602897934960526	0.172905204626767	-0.0191254240464244	-0.0388623122430168	-0.0634685841490547	-0.00466143444282461	0.0121816878355956	-2.13300962946457E-05	0.54052734375	0.4404296875	0.18701171875	0	0	0	-0.581601312698516	-0.388103561604844	-0.597220170277665	0.392993138299533	-0.0145926126336957	-0.0179637761617085	0.999732143327669	0.920849939731095	-0.389864037438239	0.00643590006099121	0.389643996686414	0.920697200527062	0.022231077073997	16.1457377017857	-88.6738319540994	-129.088180281666
6606	1647952123149	9.74441428498979	0.0836868086592513	0.223129216425086	0.0217060309041898	-0.00267951127300922	-0.065384068837492	-0.000108280284182066	0.00914398573448517	0.00160877479386315	0.544921875	0.447509765625	0.18310546875	0	0	0	-0.581577364373708	-0.388080374055444	-0.597243903440679	0.393015409779386	-0.0146133138481439	-0.0180545926813009	0.999730204976067	0.920849637114613	-0.389865021897855	0.00641954254368726	0.389643936029115	0.920695007254681	0.0223227850422351	16.0440726773612	-88.6690419644518	-128.98656750772
6607	1647952123149	9.7461515758333	0.0595124192745999	0.199131072544005	-0.0103637087138434	-0.0162196520512331	-0.0643390446639902	0.00138354733135906	0.00761292062117272	0.00316437250388837	0.5400390625	0.449462890625	0.186767578125	0	0	0	-0.581545827716206	-0.388070533047963	-0.597264524419858	0.393040455316323	-0.0146473015012193	-0.0181366425372426	0.999728222446585	0.920859839951831	-0.389840923729214	0.00641945089873336	0.389618546430506	0.920703598550277	0.0224114232914844	15.9836483786149	-88.6641605679729	-128.924627552569
6608	1647952123151	9.72317830314381	0.0595016253611559	0.174233035165058	-0.019937091170498	-0.0396063636529144	-0.0878671750223372	0.0045011181388814	0.0107144892325481	0.000230553216222371	0.53955078125	0.449951171875	0.18505859375	0	0	0	-0.581505436836725	-0.388062151791931	-0.597286537655395	0.393075037634771	-0.0146868834355068	-0.0182363543401414	0.999725827832478	0.920877358730405	-0.38979956227008	0.00641805513897031	0.389575648151504	0.920719141016649	0.0225183865518934	15.9082931369762	-88.6582882099019	-128.846679835105
6609	1647952123151	9.7203247080317	0.0586371391718918	0.2240097764004	-0.00236426091479325	0.00586757094005463	-0.089607036521329	0.00149485232242267	0.010709298009716	-0.00138357588069607	0.5537109375	0.439208984375	0.185546875	0	0	0	-0.581450415134868	-0.388071585030272	-0.59732942420648	0.393081948973415	-0.0148039922615033	-0.0183100600567072	0.999722753324062	0.920887596928297	-0.389774052566708	0.00649782804882565	0.389547013384455	0.920728477699287	0.0226317192631662	16.019383955878	-88.6507860012004	-128.956123398221
6610	1647952123152	9.71888567429308	0.0583142348905989	0.249195724148272	0.00671471469217682	0.0285124341100271	-0.0904767217470805	0.00305215326542429	0.00613988598899802	-0.00138064146883639	0.54541015625	0.448974609375	0.180908203125	0	0	0	-0.581423143796828	-0.388072920948359	-0.597344254492912	0.393098432340208	-0.014841500698169	-0.0183610245767613	0.999721262469453	0.920899335457613	-0.389746061036559	0.00651320659987298	0.389517835035512	0.920739312011265	0.0226930717680431	16.0141671923223	-88.6471630934816	-128.949146069651
6611	1647952123153	9.74608143462546	0.0596956969558889	0.202480918622773	-0.0109937442287345	-0.0159680825901336	-0.0643393195055672	0.00152689015071319	0.00613002579139043	-0.00142523227038902	0.55029296875	0.4423828125	0.176513671875	0	0	0	-0.581397481003768	-0.388075742644215	-0.59735826768767	0.393112308480414	-0.0148793640073456	-0.0184052567770951	0.999719886293009	0.920910293625149	-0.389719861784682	0.00653149491093069	0.389490482068535	0.920749518519286	0.0227483741072276	16.0197886172652	-88.6438274524045	-128.95311810843
6612	1647952123154	9.72169795809519	0.0595221937377668	0.201649026829179	-0.0114794721397034	-0.016705274830929	-0.0887372625637592	1.62879888874165E-06	0.00612015337231662	-0.00146986951238976	0.548095703125	0.44287109375	0.181640625	0	0	0	-0.581376321052606	-0.388068336859645	-0.597378772932895	0.393119753886161	-0.0149168648476429	-0.0184553083834661	0.999718404719844	0.92091027638532	-0.389719650062947	0.00654654127976284	0.389489088410742	0.920748606269532	0.0228090784926537	16.0142582645859	-88.6402454908299	-128.947555771497
6613	1647952123153	9.74286116963873	0.0833894072773037	0.253000131432433	0.0300659209331464	0.0205329212430182	-0.0662530906416219	0.00451147606999238	0.00918825978363483	0.00021703556554357	0.55419921875	0.4423828125	0.186279296875	0	0	0	-0.581348339400677	-0.388076651602164	-0.59737685507551	0.393155839047853	-0.0149251889973078	-0.0185089634317732	0.999717288540154	0.920939831308146	-0.389649997407663	0.00653503101237157	0.389418882238033	0.920777007636969	0.0228612415146556	15.9529208859768	-88.6375531503655	-128.881880848329
6614	1647952123154	9.71847383600199	0.0830669305925777	0.252237479460251	0.0295898932970112	0.0198026285504901	-0.0906510608119824	-0.00460791460065306	0.00454963198611977	-9.28685023013968E-05	0.544677734375	0.444091796875	0.1904296875	0	0	0	-0.581343938618884	-0.388054790627094	-0.597398433896636	0.393151135926494	-0.0149428187015824	-0.0185491450081799	0.999716280445966	0.920922346540504	-0.389691327582141	0.00653458870943369	0.389459553498928	0.920758708037418	0.022905409004892	15.9226975695537	-88.6351260867785	-128.854220838938
6615	1647952123154	9.72023200125183	0.059118050419748	0.227872653628397	-0.00226418804607723	0.00603082229400781	-0.0896071125901567	-0.00155740619823746	0.00456941398852721	-3.2949756117736E-06	0.548583984375	0.442626953125	0.191650390625	0	0	0	-0.581327413377177	-0.388033315905839	-0.597424531658398	0.393157110041348	-0.0149718505602731	-0.0186145969898215	0.999714629516698	0.920912212348664	-0.38971526514211	0.00653523238343662	0.389482401191494	0.920747255708168	0.0229771684066402	15.8769647350053	-88.6311606415003	-128.809963542307
6616	1647952123155	9.71879259687044	0.058800909292348	0.252686987541472	0.00683705415697577	0.0286846757924029	-0.0904773136722756	-0.00146814506367084	0.00459831130344898	-0.00305368083972495	0.55078125	0.443359375	0.183349609375	0	0	0	-0.581311109645139	-0.388029078219229	-0.597445913829793	0.393152907031802	-0.0150163709911613	-0.0186439675645079	0.999713414472223	0.92090642370131	-0.389728452297558	0.0065644691647011	0.389494374013181	0.920741079752177	0.0230216565189454	15.9151408512457	-88.6282494901163	-128.848937141626
6617	1647952123156	9.74492610496477	0.0353194469263281	0.229608630200228	-0.024449342837143	0.0156621302285678	-0.0650358856114632	-0.00306124771902664	0.00150661503604569	-7.5862233067697E-05	0.549072265625	0.4462890625	0.188720703125	0	0	0	-0.581308553377054	-0.388008957302616	-0.597462768786946	0.393150931242762	-0.0150254220672528	-0.0186802365290886	0.99971260142849	0.920891939196778	-0.389762788631772	0.0065578136891703	0.389528269852264	0.920725810087456	0.0230588296472287	15.8754819530842	-88.6263049456486	-128.81141089932
6618	1647952123156	9.72021052287489	0.0594844598115849	0.228691984264405	-0.00225809821819672	0.00583021865040653	-0.089606988817243	4.46772751947798E-05	1.44827010212251E-05	-0.00152519096589745	0.54345703125	0.44384765625	0.1884765625	0	0	0	-0.581306128718007	-0.388013579215547	-0.59746475273634	0.393146939829028	-0.0150373368359095	-0.0186735351403828	0.999712547478646	0.920892221635612	-0.389761892094823	0.00657142311003073	0.389527142355845	0.920726325547404	0.023057294118449	15.9077686241901	-88.6261760119769	-128.843635253509
6619	1647952123157	9.7234089044697	0.0361494851352268	0.179662584215731	-0.0433569172341674	-0.0305878232483778	-0.0876963230002428	0.00154842176264752	0.00307727602089586	-0.00145256999682959	0.54638671875	0.445556640625	0.1826171875	0	0	0	-0.581279514843217	-0.388012558458916	-0.597487742497822	0.393152359355323	-0.0150906959139555	-0.018719927829661	0.999710875803042	0.920894934765957	-0.389754953623018	0.00660266981778801	0.38951866453257	0.9207283206399	0.0231207602036018	15.9379228697338	-88.6221868851403	-128.873330140942
6620	1647952123158	9.72053688791475	0.0355139982411643	0.228920916364917	-0.0251626212406521	0.014705481144478	-0.0894341024021727	0.00313077583158508	0.00769546839641798	-0.00441646872094622	0.546142578125	0.441650390625	0.18017578125	0	0	0	-0.581242433832793	-0.388019610100737	-0.597511846920433	0.393163589462627	-0.0151592500659888	-0.0187728798637554	0.999708845674109	0.920906730062969	-0.389726348196271	0.00664590447788616	0.38948811491773	0.920739351012664	0.0231960305788077	15.9875595420702	-88.6173578521439	-128.921151030964
6621	1647952123159	9.72160619854844	0.0607470203476686	0.2056675358819	-0.0114130569587341	-0.0167956131618588	-0.0887373400015754	0.00157156464493258	0.00614462262432763	-0.00295007199212147	0.547607421875	0.4482421875	0.189697265625	0	0	0	-0.58121865378746	-0.388035660896429	-0.597514487489836	0.393178890076671	-0.0151904737751404	-0.0187930370964692	0.999707992997544	0.920927294887469	-0.389677372541497	0.0066680477205992	0.389438271151842	0.92075966847264	0.0232264047243285	16.018195704551	-88.6153346262381	-128.948723175107
6622	1647952123160	9.7448813253463	0.0364156838679744	0.231331429945103	-0.0244719899364464	0.0157019795631916	-0.0650360065516296	0.00309530085832308	3.44229709892163E-05	-0.00143519268029918	0.550537109375	0.4560546875	0.18359375	0	0	0	-0.581210492784114	-0.38804930294495	-0.597510110567225	0.393184141759976	-0.0152011874922379	-0.0187863468542326	0.999707955890468	0.920939653210898	-0.38964793830482	0.00668126624191462	0.389408627334601	0.920772261390772	0.0232242031231721	16.0497591986097	-88.6152466458967	-128.978449184307
6623	1647952123161	9.72016578819822	0.060724588825656	0.230262057431292	-0.00271679318480933	0.00598489081109973	-0.0896072001405059	0.00467618720261687	-0.00146759292975633	-0.00292918688069849	0.54736328125	0.445556640625	0.18212890625	0	0	0	-0.581185377968106	-0.388093493188055	-0.597508262368453	0.393180459054868	-0.0152653661069481	-0.0187486187232849	0.999707686223123	0.920965672825133	-0.389585134324994	0.00675667009164194	0.389344574991577	0.920799604913548	0.0232139939623276	16.2281765847692	-88.6146074363186	-129.152923387106
6624	1647952123164	9.76890996424433	0.0616658111675859	0.232844636661637	-0.00173044161791702	0.00748963201418207	-0.0408112844272566	-0.0029283393041841	-0.00457060662872428	-0.00318165320630996	0.551513671875	0.43896484375	0.189697265625	0	0	0	-0.581199252815079	-0.388103655977171	-0.597505636547745	0.393153907570588	-0.0152748669783433	-0.0186922418709305	0.999708596808407	0.920954461345859	-0.389611114358263	0.00678672937958402	0.389370721248983	0.920789758665002	0.0231659614886959	16.328540587843	-88.6167670393231	-129.254897970189
6625	1647952123165	9.72126448980468	0.0862703898385839	0.205451571306981	0.0112906314519727	-0.0258780771379738	-0.088910369733048	-0.00286182345136519	-0.00760906677984547	-0.00473442582609248	0.548095703125	0.445068359375	0.190673828125	0	0	0	-0.581229131526189	-0.388110198980659	-0.597488819245558	0.393128835102507	-0.0152448313525156	-0.0186182592135878	0.999710435846745	0.920942074773528	-0.389640384916278	0.00678714624315979	0.38940119418007	0.920778871861291	0.0230863402250108	16.3827929528402	-88.6211389334826	-129.310986650595
6626	1647952123166	9.74456540449818	0.0621025470219332	0.230148731604509	-0.00176530751140342	0.00662337973914642	-0.065209069270951	0.00013305944744824	-0.00607687922648962	-0.00310563574327472	0.548828125	0.440185546875	0.182373046875	0	0	0	-0.581241930091177	-0.388132018108112	-0.597475450882118	0.393108688299327	-0.0152467557749315	-0.0185483749039508	0.999711705556538	0.920942788245323	-0.389638191405813	0.00681619959643759	0.389399431454735	0.920781210487285	0.0230227104464145	16.4921339881803	-88.6241654841348	-129.420189219423
6627	1647952123168	9.74885613776772	0.0637890361323084	0.156675919016264	-0.0287166924413518	-0.0614514334344188	-0.0625995959724843	-0.00142500845134455	-0.00150768257142738	-0.00310904712329117	0.55078125	0.44189453125	0.178466796875	0	0	0	-0.58125109622136	-0.388127168123998	-0.597474738186378	0.393101007038435	-0.0152375228136708	-0.0185371586314485	0.999712054367844	0.920934526412914	-0.389657799258828	0.00681157378219055	0.389419331773765	0.920773138849435	0.0230089290110252	16.4908847864461	-88.6249980963178	-129.420164889333
6628	1647952123167	9.74564787325945	0.0874980781155283	0.205856226364421	0.0121464718613016	-0.0252443383821008	-0.0645131558195935	-0.00301682529977184	0.00152061126603613	-0.00160104300690892	0.5517578125	0.449462890625	0.18359375	0	0	0	-0.581250526200545	-0.388120044351901	-0.597486438012018	0.393091100580488	-0.0152544248720198	-0.018543242983077	0.999711683767622	0.920923163017161	-0.389684435633399	0.00682410752744661	0.389445542201077	0.920761743756087	0.0230213139277361	16.5111734604595	-88.6241134907351	-129.442102136783
6629	1647952123168	9.7692891723085	0.0386184054668044	0.230848812266006	-0.0231192295005823	0.016846343475449	-0.0406366462327465	0.00457575465740421	3.04320420584297E-05	0.00013454380738439	0.549072265625	0.44384765625	0.186767578125	0	0	0	-0.581256005335894	-0.388155950303872	-0.597441445789886	0.393115928648469	-0.015202645807623	-0.0184915433075776	0.999713430132131	0.920963451791522	-0.389589649773101	0.00679891564274648	0.38935228267559	0.920802892923223	0.0229528290093154	16.4999493809281	-88.6282869707379	-129.425006831209
6630	1647952123169	9.74599719663916	0.0633117963046758	0.205415837938169	-0.00998770948265944	-0.0156109499622525	-0.0643376584050657	-0.00142497393207828	-0.0015077152051613	-0.00310904690548016	0.544677734375	0.439208984375	0.1806640625	0	0	0	-0.581258770413631	-0.388164265147062	-0.597443541013934	0.393100445663455	-0.0152205628728542	-0.018462877506878	0.999713687322525	0.920958411418444	-0.389601085764069	0.006826302738284	0.389363504842775	0.920798629519845	0.0229334901601519	16.5759797365797	-88.62890268001	-129.501738947962
6631	1647952123169	9.74492631254673	0.0387427104672879	0.229047080566195	-0.0230945427562768	0.0162667126512847	-0.0650335717804022	0.00164752180571204	-0.00454024280952129	-0.00304701957357271	0.538818359375	0.452392578125	0.187255859375	0	0	0	-0.58127772764708	-0.38818587729683	-0.597413423779026	0.393096844425595	-0.0151821484881743	-0.0183950540904719	0.999715521712198	0.92097027272963	-0.389573191139861	0.00681802709123325	0.389336948048338	0.920811788983023	0.0228558560174755	16.6101303901239	-88.6333022196318	-129.534173438612
6632	1647952123170	9.74457348429618	0.063521867003016	0.229418081539742	-0.000383470985440733	0.00719972823127052	-0.0652093256278636	0.00163702884520385	0.00310635404466452	-0.00450316454963534	0.55224609375	0.443359375	0.182373046875	0	0	0	-0.581258244533239	-0.388198269279543	-0.597425398908481	0.393095217001616	-0.0152300070651801	-0.0184032445878746	0.999714643022415	0.92097702271695	-0.389556508197641	0.00685934022228224	0.389319111414041	0.920818683297369	0.0228819137810095	16.6872199965662	-88.6311930349257	-129.610199830642
6633	1647952123170	9.72127035016681	0.0883583372867948	0.204283463394384	0.0124441457539662	-0.0250337180766086	-0.0889095670907185	3.35740737926051E-05	0.00154085448017893	-0.00151139769215602	0.542724609375	0.447998046875	0.17724609375	0	0	0	-0.581240946528084	-0.388222997472059	-0.59742872242722	0.393091322636263	-0.0152763482944204	-0.0183858883303579	0.999714255321535	0.920990298388877	-0.389524232603765	0.00690959391103996	0.389285889105109	0.920832683675353	0.0228837326258929	16.8013485174675	-88.630263440011	-129.722295512632
6634	1647952123171	9.72019202517938	0.0636382979389557	0.22835979556192	-0.00108000135532887	0.0067385055605218	-0.0896073736440108	-0.00606743091192919	0.00149990546479862	-0.00169074632327152	0.545654296875	0.445556640625	0.18310546875	0	0	0	-0.581246693667927	-0.388207743447539	-0.597445463258513	0.393072445560984	-0.0152926672816196	-0.0183897639943401	0.999713934537099	0.920967633335016	-0.389577600936154	0.00692179154053707	0.389338866126557	0.920810028957691	0.022894058054945	16.8221714780561	-88.6294947680212	-129.746430612159
6635	1647952123171	9.74563006576434	0.0889120462020603	0.206093285067179	0.0129060763972339	-0.0235772404075789	-0.0645099572557282	-0.00459791168344268	0.00302212268597127	-0.000106861196013132	0.544189453125	0.436279296875	0.193359375	0	0	0	-0.581240791363399	-0.388236836543217	-0.597434628340091	0.393068907529331	-0.0153119527778958	-0.0183477811460587	0.999714410733957	0.920984125581267	-0.389537985369227	0.00695689455086945	0.389299093923214	0.92082762604165	0.0228626024123296	16.9245569958947	-88.6306359984194	-129.846340712327
6636	1647952123172	9.72125479401227	0.0885123138913203	0.204955985131141	0.0124650655246833	-0.0242783358113181	-0.0889076785062013	-0.00769308937759537	0.00298713188699957	0.00132858508196192	0.5439453125	0.444091796875	0.1796875	0	0	0	-0.581251105024285	-0.388205786986749	-0.597452531602531	0.393057110786425	-0.01530652113655	-0.0183758464817123	0.99971397843422	0.920956017133193	-0.389604749220454	0.00693930047144731	0.389365798339893	0.920798820400498	0.0228868397160918	16.8673279908609	-88.6295999299834	-129.793268991249
6637	1647952123172	9.74705006901717	0.0893856476337807	0.182175111180621	0.00416024701636528	-0.0463764340729943	-0.0636364068542612	-0.00753686022843897	-2.2038143677278E-05	-0.00327486553721131	0.548583984375	0.439453125	0.18701171875	0	0	0	-0.58127167752271	-0.388169949337374	-0.597476015446567	0.393026383729451	-0.0153069972049709	-0.0183832802016104	0.999713834477445	0.920912070662572	-0.389708704247943	0.00693425853017532	0.389469708635397	0.920754680054584	0.0228946546827115	16.85034026215	-88.6292550906619	-129.782749715211
6638	1647952123174	9.74704577101445	0.0896920240745206	0.182254475125034	0.00421151496158862	-0.0463359112013332	-0.0636362361829104	-0.0105984621955822	0.00148389849404417	-0.00335066856390601	0.554931640625	0.44384765625	0.184814453125	0	0	0	-0.581283235301262	-0.388146391157205	-0.597504428219525	0.392989360730535	-0.0153383254206068	-0.0183797865145724	0.99971341854602	0.920871746604048	-0.389803482768487	0.00696212093887533	0.389563810023083	0.920714629116556	0.0229043587786728	16.9074304159456	-88.6282592402965	-129.84572125049
6639	1647952123173	9.74310590240744	0.0641762761224303	0.255059965333453	0.00970263149075064	0.0307351222121652	-0.0660854921271472	-0.00449746108135219	0.0015250133964713	-0.00317103456131355	0.552490234375	0.454345703125	0.1923828125	0	0	0	-0.581314246348845	-0.388116026441577	-0.597499566677435	0.392980870821156	-0.0152795643210418	-0.0183770492427369	0.999714368695024	0.92084655086991	-0.389863970375695	0.00690755773699375	0.389625672492394	0.920689072740646	0.0228793940221529	16.799681951761	-88.6305352116756	-129.741767894972
6640	1647952123175	9.74452866798016	0.0649450386994917	0.230918267797579	0.000688533675118237	0.00812813726690023	-0.0652100723624542	-0.00450860852677665	0.00305145048554424	-0.00315692706478329	0.5419921875	0.44775390625	0.191162109375	0	0	0	-0.581310033857015	-0.388106548411317	-0.59751991570428	0.392965522602377	-0.0153134851659922	-0.0183889902858978	0.999713630100308	0.920829913474346	-0.389902810252189	0.00693318168476315	0.389663659612876	0.920672386679274	0.0229039032348194	16.8414538541402	-88.6287656671226	-129.785939098854
6641	1647952123174	9.74595408906175	0.0657149353605451	0.206702312977898	-0.00929083825880316	-0.0147321392699129	-0.0643356016214405	8.94824054794466E-05	2.95501327592461E-05	-0.00305037845729987	0.54638671875	0.447265625	0.19189453125	0	0	0	-0.581278751423692	-0.38811622087707	-0.597564890399816	0.392933854480461	-0.0154359982928832	-0.018399526816577	0.999711552083714	0.920814375931397	-0.38993757019046	0.00704105333259142	0.389695541461247	0.920657454630595	0.0229616244708304	17.0478643296921	-88.6237993042308	-129.994448264126
6642	1647952123176	9.74309392350491	0.0650683998623543	0.255291426403254	0.00892690650133882	0.030589141433824	-0.066084291526117	0.00163711914488861	-0.00301296797913398	-0.00303371803478503	0.54541015625	0.442626953125	0.180419921875	0	0	0	-0.581280318882152	-0.3881366259425	-0.597556157725661	0.392924660522066	-0.0154468040677656	-0.0183567374390528	0.999712171794805	0.920821464229849	-0.389920341511182	0.00706811781174882	0.389678363856257	0.920665605671461	0.0229263009644709	17.1343917314248	-88.625278507773	-130.079897631719
6643	1647952123175	9.74452599356737	0.0658387951368912	0.23077797064615	-0.000188947948568005	0.00805746549567693	-0.0652099912008133	0.00161468582967747	3.98965582076784E-05	-0.00300545861941372	0.551025390625	0.443115234375	0.187255859375	0	0	0	-0.581271402973484	-0.388155822140516	-0.597556739282503	0.392918003102074	-0.015477997847033	-0.0183338428622479	0.999712109453792	0.920829360094023	-0.389901001153397	0.00710625699024697	0.38965846734221	0.920674252656976	0.0229172276473163	17.2278072907365	-88.6251296325042	-130.172093141961
6644	1647952123175	9.74595520715091	0.0666821514881274	0.206339542673844	-0.00922039756748334	-0.0145551808456636	-0.0643352689199528	0.00167064169369897	-0.00147177839155435	-0.00454476749564938	0.548583984375	0.4443359375	0.181884765625	0	0	0	-0.581265343978495	-0.388177722923646	-0.59755540148713	0.392907364997057	-0.0155088048412645	-0.0182993211961294	0.999712264512223	0.920836351756137	-0.389883715913765	0.00714852080660261	0.389640719454273	0.920682259473395	0.0228973106307511	17.3383191859646	-88.6254999541172	-130.281513154747
6645	1647952123176	9.72480687059157	0.0431805925222178	0.155571354223016	-0.0498790890499439	-0.0512584030656002	-0.0868033234564862	0.00310647994233871	-0.00149083461580761	-0.00144947483724711	0.557861328125	0.438720703125	0.181884765625	0	0	0	-0.581282216994249	-0.388194044678703	-0.597519327023247	0.392921139309056	-0.0154479249806485	-0.0182553596367065	0.999714010834263	0.920856539295911	-0.389836723920126	0.00711074673875312	0.389595425601677	0.92070303058465	0.0228327357644797	17.2980361468513	-88.6296775541906	-130.238337648564
6646	1647952123177	9.72159246788747	0.0669432300855846	0.204389130677315	-0.00899571356116693	-0.0150276275032161	-0.088731910211715	0.00322971973108633	-0.00604068040827251	-0.00454210469997824	0.55126953125	0.445068359375	0.191650390625	0	0	0	-0.581287100426382	-0.388229488730577	-0.597501241596432	0.392906397566401	-0.0154597392585654	-0.0181785331457842	0.99971522814986	0.92086970836264	-0.389804853662776	0.00715236192103841	0.389563828765153	0.920718044242433	0.0227663419157686	17.4408342484127	-88.6325971982021	-130.379146374946
6647	1647952123178	9.74739330335607	0.0679725083078504	0.181235667499793	-0.016212097409414	-0.0370085220744554	-0.0634560909329913	-0.00153656985265454	0.00151595466033981	-3.07952869984819E-05	0.55126953125	0.44873046875	0.18896484375	0	0	0	-0.581333771597979	-0.388180443497364	-0.597475910405372	0.392924325756412	-0.0153230404570761	-0.0182008359456597	0.999716926935836	0.920850441061256	-0.389852835030119	0.00701656727116179	0.389614770803729	0.920697288249433	0.0227339785717167	17.152208242375	-88.6366820635373	-130.093577523139
6648	1647952123181	9.77212418459644	0.0440470060957685	0.182222571074339	-0.0382881119321835	-0.027136967400266	-0.0388777730045593	0.00620164011626293	-0.00145511144087845	-0.00288499856623593	0.54736328125	0.446044921875	0.180908203125	0	0	0	-0.581323026500756	-0.38821023753142	-0.597461584583334	0.392932570911311	-0.0153350671540579	-0.018173132501465	0.999717246510464	0.920875333302834	-0.389793612385653	0.00703990466821619	0.389555459761219	0.920722909999761	0.0227127006716	17.2210598097703	-88.6374518743365	-130.158737346225
6649	1647952123182	9.76997092801532	0.0927586162174491	0.207340782040732	0.0162696461165405	-0.0222057936575301	-0.040115106931033	0.0123472859375592	-0.00139843674856335	-0.00423078578836257	0.5458984375	0.446533203125	0.181640625	0	0	0	-0.581300503310239	-0.388286788457162	-0.597418562986554	0.392955665896252	-0.0153511389825916	-0.0180954073565971	0.99971840973573	0.920940629592056	-0.389638429099312	0.00708881764528052	0.389400435668124	0.920790123101687	0.0226461895217716	17.3814112078661	-88.6402576016945	-130.309423822682
6650	1647952123185	9.7484582475298	0.0937239495835015	0.156875044198293	-0.00230100876931327	-0.068208711819305	-0.0627553408478878	0.000123389433052912	-0.00455014473725059	-0.00309217557578154	0.550537109375	0.4453125	0.18505859375	0	0	0	-0.581310585423494	-0.388305376016069	-0.597407227864562	0.392939616642039	-0.0153529218956031	-0.0180378832825872	0.999719421915945	0.920941985102551	-0.389634785260453	0.00711295932879752	0.389397159548757	0.920792793673867	0.0225938764632277	17.4749410553516	-88.6427037229295	-130.402726125142
6651	1647952123184	9.74845455895307	0.0940997871506874	0.156879297792833	-0.00199646138711404	-0.0675660058488507	-0.062750798663183	-0.0060013899516706	0.00458076220975342	-0.00471303390072282	0.546142578125	0.44091796875	0.183837890625	0	0	0	-0.581309813016311	-0.388324096263322	-0.597407180428157	0.392922331161127	-0.0153818859316937	-0.0179960283953358	0.999719730998232	0.920942459549575	-0.38963287587236	0.00715599316755133	0.389394894398943	0.920794420596383	0.022566595104431	17.5941116868282	-88.6434515565427	-130.52176314227
6652	1647952123184	9.74986628382228	0.0947843094144582	0.133481573864066	-0.0109858246013129	-0.0901692324311073	-0.0618698277135152	0.00141092214887626	0.0152748960168048	0.000184564837161074	0.545166015625	0.448974609375	0.181884765625	0	0	0	-0.581264634131772	-0.388298380478181	-0.597444163718269	0.39295834902017	-0.015430322086	-0.0181331122877163	0.999716507515547	0.920949576538153	-0.389616207306729	0.00714762045142175	0.389376145435901	0.920798784340358	0.0227115856513597	17.4694417648592	-88.6356723974377	-130.396030462504
6653	1647952123187	9.72224687616045	0.117833052663407	0.182638026897364	0.0294849059235564	-0.0539636360968154	-0.0882056783618363	-0.00624864049679668	0.0136809260977057	0.00147099871542039	0.548828125	0.4521484375	0.191162109375	0	0	0	-0.581245949996966	-0.388288190879826	-0.59746062477254	0.392971027280388	-0.0154538346606432	-0.0181875541917993	0.999715155365168	0.920951307713989	-0.389612105082937	0.00714817408397489	0.389371118361614	0.920799446375465	0.0227708528707935	17.427996996617	-88.6324224541787	-130.354318073244
6654	1647952123186	9.7233195574747	0.0443867834022573	0.182627750232545	-0.0383978849961747	-0.02664340906244	-0.0876638722078002	-0.0139197314694338	0.0136134224833288	0.0027708615254452	0.54931640625	0.439453125	0.181884765625	0	0	0	-0.581240913010279	-0.388212816095545	-0.59751716980846	0.392966973480255	-0.015471917593492	-0.0183186843049041	0.999712481452201	0.920899370983569	-0.38973553434587	0.00711068141646615	0.389493219822948	0.920744611210664	0.0228996209242876	17.2503653922613	-88.626018233134	-130.184357416381
6655	1647952123187	9.72113853092733	0.0925851205744681	0.208637979335978	0.0162832157519863	-0.021821448071796	-0.0889074987028131	-0.0106881021129607	0.00145258572900432	-0.000302068938049273	0.5498046875	0.44970703125	0.1796875	0	0	0	-0.581272931297857	-0.388184201158109	-0.597526823472916	0.392933201119483	-0.0154505575967846	-0.0182943180225568	0.999713257988528	0.92085819198532	-0.389833050858473	0.00709807804280715	0.389591414848268	0.920703812518697	0.0228696106232752	17.2428594929389	-88.6278750163039	-130.182931060624
6656	1647952123188	9.74766678986794	0.0445901073260399	0.185254107788688	-0.0375200588811745	-0.0254852258665422	-0.0632638963207217	-0.013784223985798	0.00753726132294011	-0.000335666391182404	0.54833984375	0.43994140625	0.189697265625	0	0	0	-0.581279833051624	-0.388130112860709	-0.597571472742625	0.39290852134106	-0.0154732990901142	-0.0183574330898471	0.999711749288573	0.920806261913772	-0.389955818696629	0.00709136693648643	0.389713234360413	0.920650565695255	0.0229375423564176	17.179508607275	-88.6242698448299	-130.127208439274
6657	1647952123188	9.72184083607914	0.0438519460500469	0.208989321480976	-0.0283785727884775	-0.00299415001537018	-0.0885434717842504	-0.00917489019978059	0.00911031191714152	-0.00171083927168956	0.551025390625	0.447265625	0.19287109375	0	0	0	-0.58129021403329	-0.388106872903702	-0.597583342916951	0.392898066350858	-0.0154655930537772	-0.0183732253951347	0.999711578416533	0.920784134267072	-0.390008329325333	0.0070768028729653	0.389765818811161	0.920628007202389	0.022949484548082	17.1378973022748	-88.6238621263389	-130.088869214781
6658	1647952123189	9.7210929753565	0.0928108523802307	0.210650629993045	0.0170389535475593	-0.0211201664728114	-0.0889072451315993	-6.0301860563512E-07	0.00612077497822864	-0.00146771520148423	0.543212890625	0.44091796875	0.189453125	0	0	0	-0.581272298620753	-0.388100098913519	-0.597599000564245	0.392907447885731	-0.0154925045041354	-0.0184185231607162	0.999710328199508	0.920785869522327	-0.390004101238478	0.00708403170370203	0.389760650646266	0.920628893214712	0.0230016561589256	17.1177439295427	-88.6208826449259	-130.068438645612
6659	1647952123190	9.74436986021842	0.0684793652069088	0.236530502159847	0.00395338697777876	0.0109380719473223	-0.065213597890283	5.59771134658066E-05	0.00460935821936338	-0.00300725837506009	0.54638671875	0.4423828125	0.185791015625	0	0	0	-0.58126673029802	-0.388051509199273	-0.597650876026551	0.392884772982502	-0.0155410868142743	-0.0184929936220217	0.999708199329948	0.920738721379917	-0.390115162733309	0.00709695408190458	0.389870082940853	0.920580343583579	0.0230900289136303	17.0853405413162	-88.6158239393728	-130.042921952844
6660	1647952123191	9.74255179115509	0.0925534422774129	0.26158176793294	0.0357895070043879	0.0245312215455352	-0.066281670837574	-0.00610095161471111	-4.23503719797731E-05	-0.000181567721789073	0.550537109375	0.4462890625	0.1943359375	0	0	0	-0.581281603972281	-0.388034175523993	-0.597658487390816	0.392868308671684	-0.0155323778497253	-0.0184879023197173	0.999708428846206	0.92071641409831	-0.390167941333731	0.00708959557011613	0.389923107866517	0.920558078028331	0.023082351017655	17.0740030682048	-88.6163684358106	-130.034873990663
6661	1647952123191	9.74399780806245	0.0931120382601837	0.237142756446305	0.0269234604903478	0.00160732088690732	-0.0653968480033136	-0.00299383541260595	-0.00153254762129307	-0.00163037066754445	0.54638671875	0.4453125	0.185302734375	0	0	0	-0.581307276426583	-0.387993615536256	-0.597680052349902	0.392837574195277	-0.0155209813477564	-0.018495339983516	0.999708468273075	0.920669387656652	-0.390279189206947	0.00707340822331026	0.390034585351003	0.92051076955724	0.0230856093532238	17.0350134211816	-88.616461992313	-130.002814689196
6662	1647952123192	9.74725539772818	0.0698964288434177	0.18780188368533	-0.0137961042986565	-0.0345584817442006	-0.0634433801106784	-0.0014234303744104	-0.00150685850121666	-0.00311016603509906	0.54833984375	0.452392578125	0.180908203125	0	0	0	-0.581311679849841	-0.388001065076278	-0.597680393908474	0.392823180460677	-0.0155333595258293	-0.0184663246221967	0.999708812403287	0.920664528314271	-0.390290244784865	0.00709585298828802	0.390045562781712	0.920506664658501	0.0230638087396603	17.1011323422517	-88.617278851842	-130.069615079388
6663	1647952123193	9.76728523262391	0.0687108725559001	0.262575618085015	0.0136875031948197	0.035285796609677	-0.0417050431551562	-0.000181458439367474	0.00606045677341855	0.00463330646382995	0.5419921875	0.4423828125	0.18017578125	0	0	0	-0.581291757776352	-0.388056055238732	-0.597646917429043	0.39284927443155	-0.0155386798397663	-0.0184227428255445	0.999709533802505	0.920717888687464	-0.390163891142317	0.00712091985524449	0.389919374845283	0.920561100957166	0.0230247806676653	17.1853737985087	-88.6189927999891	-130.145989114508
6664	1647952123194	9.74289990609775	0.0682159041413299	0.261791624553328	0.0132834572027445	0.0345730918420571	-0.0661025729731541	0.00456359628788563	0.00767906734092478	-0.00131670104715234	0.5478515625	0.44384765625	0.180908203125	0	0	0	-0.581260309449959	-0.388059003635384	-0.59765847851764	0.392875305168994	-0.0155708944930148	-0.0184839211930174	0.999707903290765	0.920737107344801	-0.390118408571766	0.00712786446003633	0.389872705383456	0.920579150291143	0.0230933247113019	17.1530902281138	-88.6151219423335	-130.110857834404
6665	1647952123194	9.74397106763685	0.0932499334058786	0.238185022795002	0.0273506917878476	0.00395413076130155	-0.0653987069450164	5.67348772816714E-05	-0.00151137591277042	-0.00153958302823759	0.553955078125	0.447265625	0.180419921875	0	0	0	-0.581273799604307	-0.38812989265756	-0.597593646361816	0.392883939792901	-0.0155259594927601	-0.0183504174655295	0.999711061637647	0.920789367245815	-0.389994792556878	0.00714163465664369	0.389751056122855	0.920634196604362	0.022951912638407	17.2838645453072	-88.6226297724025	-130.233962189264
6666	1647952123196	9.74579481048548	0.0696285203597237	0.212839991306414	-0.00428224168980938	-0.00954821436694106	-0.0643256589399712	-0.00284581187617374	-0.00913466414178296	-0.00475290462525901	0.544189453125	0.444580078125	0.18798828125	0	0	0	-0.581300711225467	-0.388154360346295	-0.597576766796165	0.392845622933956	-0.0155235993407977	-0.0182420229366622	0.999713082070393	0.920779645874932	-0.390017018171582	0.00718117532050455	0.389774116131308	0.920626935373785	0.0228513513458505	17.445641355698	-88.6274541568072	-130.397123551532
6667	1647952123197	9.74906673888838	0.0465697491020957	0.162830366971702	-0.0446716873143018	-0.0450783452674575	-0.0623562352838327	-0.00290251584684187	-0.00762330076451267	-0.00321330012517254	0.55908203125	0.455322265625	0.186279296875	0	0	0	-0.581335518218806	-0.388203795099215	-0.597525910887637	0.392822624788516	-0.0154788014230662	-0.0180900845910419	0.999716537597531	0.920796702185079	-0.389976397849656	0.00720016425438474	0.389735602622584	0.920647140852399	0.022693657455678	17.6030097183974	-88.6357447886125	-130.551987747419
6668	1647952123197	9.74832728604463	0.095682740496142	0.163682962388274	0.000754981512205228	-0.0631865533110232	-0.0627212579778806	0.00156930002702573	0.00614664989320375	-0.0029471988312896	0.546875	0.4462890625	0.189697265625	0	0	0	-0.581311785288536	-0.388206458300259	-0.597540921875681	0.392832280626969	-0.0155188151641384	-0.0181287475466032	0.999715216893438	0.920804704886857	-0.389957090062767	0.00722242120119876	0.389715103420602	0.920654558682121	0.0227447080372477	17.6168776617852	-88.6325701719331	-130.564633139873
6669	1647952123199	9.77304996667106	0.0718303600264029	0.165494178315688	-0.02143737497819	-0.0529095768699646	-0.0381390604299749	0.00301466415892356	0.0107215669753665	-0.00133331596994981	0.550537109375	0.44873046875	0.183349609375	0	0	0	-0.581270214695564	-0.388225067372336	-0.597552784979211	0.392857358000467	-0.0155760675453325	-0.0181786802220729	0.999713419788495	0.920833353268943	-0.389888786657276	0.00725737875483601	0.389645122678697	0.92068250207349	0.0228124691430367	17.6475375150813	-88.6282622140336	-130.591012238878
6670	1647952123198	9.72284283173269	0.0708722611139453	0.188144536806588	-0.0132635387444884	-0.0317207982198656	-0.0878268647900402	0.00151150941624862	0.0137788531127687	-0.00287512214971332	0.546875	0.445068359375	0.189208984375	0	0	0	-0.581223875863713	-0.388212485397383	-0.597589943974097	0.392881828503924	-0.0156453499147545	-0.0182877289254965	0.99971034904956	0.920841190610905	-0.389869870026001	0.00727915655838823	0.389623824605653	0.92068835303628	0.0229397446151002	17.6050852053719	-88.620932281402	-130.547345961524
6671	1647952123199	9.74573166546703	0.0710906818797748	0.215234643699767	-0.00359009935381339	-0.00785945934946436	-0.0643238716615251	0.00309368800078431	0.0122782327139616	-0.0043691376405413	0.548095703125	0.446533203125	0.193115234375	0	0	0	-0.581178780926039	-0.388231180894812	-0.597610194165512	0.392899262676582	-0.0157227879790427	-0.0183377604514306	0.999708217671432	0.920864658171124	-0.389813439138436	0.00733239377307837	0.389565238784911	0.92071125180954	0.0230155495646857	17.671064602902	-88.6158674442029	-130.609772719496
6672	1647952123199	9.74716251708551	0.0718590644282758	0.191838541230498	-0.0125569948749991	-0.0304405472098208	-0.063427978101922	-1.27495921522634E-05	0.00764729057132934	-0.00145326810445779	0.548828125	0.441650390625	0.187255859375	0	0	0	-0.58115651499101	-0.388222070239557	-0.597629629892294	0.392911637314569	-0.015755100692577	-0.0183957020113301	0.999706644446098	0.920866843543395	-0.389808138883394	0.00733970862428063	0.389558767408194	0.920712339988867	0.0230814585248323	17.6402239852441	-88.6121408112834	-130.578584935535
6673	1647952123200	9.72240254829084	0.0961356798572249	0.191729767674178	0.00991440063957422	-0.0407593073437372	-0.0880097852378601	9.44755827632872E-06	0.010715252490932	-0.00294967953508551	0.551513671875	0.44384765625	0.181640625	0	0	0	-0.581142089473454	-0.388153581372934	-0.597690046865763	0.392908738751628	-0.0157931897100658	-0.0185305183255146	0.999703553584446	0.920820051588199	-0.389919040559939	0.00731945366280412	0.389667817187778	0.920662675304807	0.0232213382195863	17.4950486680359	-88.6048482077913	-130.440290480329
6674	1647952123202	9.74857897615685	0.0727665529615906	0.16948588336158	-0.0212078432288057	-0.0535024140698011	-0.0625335123723083	0.00147740551981498	0.0122374662427946	-0.00136433992520749	0.544677734375	0.44677734375	0.179443359375	0	0	0	-0.581103399617447	-0.38813892285856	-0.597720107064135	0.392934713567637	-0.0158422996531291	-0.0186322629318014	0.999700885425106	0.920827653319653	-0.389900974871431	0.00732548128982935	0.389647859513588	0.920668272817277	0.0233340310304858	17.4291494672739	-88.5985834440784	-130.373240590628
6675	1647952123199	9.74709236166906	0.0723453872038018	0.195191342392127	-0.0113501247461361	-0.0293641152992859	-0.0634231967944903	0.00140834412781327	0.0152753627339021	0.000189546573173708	0.54541015625	0.437255859375	0.1875	0	0	0	-0.581075194168772	-0.388194967669152	-0.597672696643431	0.392993172313515	-0.0158159704733677	-0.0186216456907642	0.999701500143795	0.920903510545535	-0.389722067182613	0.00730989848230784	0.389469612862026	0.920744234118617	0.0233125715961399	17.4093572077759	-88.6000243015204	-130.342328936844
6676	1647952123200	9.72269932345442	0.0720627256631777	0.194983947689437	-0.0117387100735791	-0.0300583956072319	-0.0878196242755607	-0.00308645945901578	0.0106786363547013	-0.00151671118986641	0.5458984375	0.4443359375	0.193603515625	0	0	0	-0.581050174079873	-0.388170934820983	-0.597706467857051	0.393002543050044	-0.0158593927158961	-0.0187067452296017	0.99969922343953	0.920893902231519	-0.389744653032806	0.00731616464711793	0.389490565348494	0.920732948859361	0.0234080411239067	17.3565930243611	-88.5946952615386	-130.290946889324
6677	1647952123200	9.72267829442372	0.0722768094538934	0.195950856112311	-0.0113000228255137	-0.030860839999565	-0.0878216180047122	0.001546757594124	0.00919968856638373	-0.00291796915060532	0.5517578125	0.447021484375	0.1884765625	0	0	0	-0.581049040858594	-0.388074971401019	-0.597777237723613	0.39299135200273	-0.0158796187367496	-0.0188613898713435	0.999695996631424	0.920823749526497	-0.389911227646329	0.00727027257372626	0.389655565874195	0.920659265161359	0.0235596573788133	17.149698086238	-88.5871767570022	-130.094407284822
6678	1647952123204	9.72303386168476	0.0480832518093213	0.196384157172365	-0.0338380179766737	-0.0217187546688015	-0.0876346922164721	-2.44048441657823E-05	0.00917382174451681	-0.00143898057125287	0.5458984375	0.44189453125	0.191162109375	0	0	0	-0.581022730215285	-0.388061803728844	-0.597801025253976	0.393007070757243	-0.0159160586159758	-0.0189346022718824	0.999694033149613	0.920825517051085	-0.389906957643055	0.00727540577144953	0.389649902124632	0.92065957075259	0.0236412469197864	17.1053324236314	-88.5826213322468	-130.049756360241
6679	1647952123203	9.74700925007973	0.0729799787179437	0.199066497820625	-0.0102598414463976	-0.0303383719110879	-0.0634249715212896	-0.00305135559904531	0.00609920892426202	-0.00156017178207706	0.546875	0.45068359375	0.1826171875	0	0	0	-0.581033851243494	-0.387997740375378	-0.597841444121429	0.392992397971714	-0.0159132776911908	-0.0190146427361473	0.999692558217145	0.920773928192464	-0.390029457200086	0.00723848583789333	0.38977190862624	0.920606031849576	0.023714834345508	16.9737769499842	-88.5792089832452	-129.925826533695
6680	1647952123214	9.72557545500727	0.0738144442234038	0.149527680320946	-0.0287963951665261	-0.0763487122725337	-0.0860246958589705	3.33718773736943E-05	0.00766246770005065	-0.00297838170643365	0.543212890625	0.44970703125	0.188232421875	0	0	0	-0.581009035080489	-0.387991586661739	-0.59786399837562	0.393000851501446	-0.0159576637479547	-0.0190688861159865	0.999690817478085	0.920775355658726	-0.390025718797689	0.00725831164204482	0.389766721744243	0.920606493708708	0.023782059669091	16.9722487672781	-88.5751921861248	-129.924041756697
6681	1647952123216	9.74882467681123	0.0494111758409114	0.175956817315546	-0.0429796170839875	-0.0427576494044651	-0.0623381767963025	0.00141924041775137	0.0137490947605199	0.000175782996040365	0.5498046875	0.445068359375	0.183349609375	0	0	0	-0.580927523693969	-0.38806336218863	-0.597886684560931	0.393015968589557	-0.0161233212968118	-0.0190846528138336	0.999687858552526	0.92083140494422	-0.389890550720937	0.0074082472272195	0.389627465893788	0.920663420846891	0.0238600782832997	17.2488961356918	-88.5683902495023	-130.19218640569
6682	1647952123216	9.72442849334081	0.049119939614905	0.176107065135739	-0.0433783201561641	-0.0434679289671488	-0.0867342190377886	0.001418353131067	0.0198700781988078	-0.00129189127541655	0.549560546875	0.45166015625	0.1943359375	0	0	0	-0.580866258579791	-0.388033387169875	-0.597938837942176	0.393056772191179	-0.0162015269563326	-0.0192568155997746	0.999683292636843	0.920838822837411	-0.38987292855225	0.00741363186996402	0.389606689983237	0.920667298558523	0.0240489601699772	17.1330889324335	-88.5579571247513	-130.075239875869
6683	1647952123218	9.74727333399646	0.0490410445146699	0.203894588084869	-0.0338164613485707	-0.0197545820505872	-0.0632370509248403	0.0013719586585749	0.0198550898830659	0.00023323591882239	0.550048828125	0.4462890625	0.18212890625	0	0	0	-0.580809942202289	-0.388007433445386	-0.59798801708366	0.393090796196566	-0.0162788739690471	-0.0194100215158975	0.99967907316651	0.92084432148979	-0.389859715073347	0.00742550624109478	0.389590469393577	0.920669676717812	0.0242200852601965	17.0447353477071	-88.5483822794753	-129.986021668114
6684	1647952123218	9.72398334052248	0.0735619186953728	0.180278149186725	-0.0206320824507146	-0.0522002511531748	-0.0869168113225971	0.00139551851076503	0.0168021833449601	0.000204533525253268	0.546142578125	0.44580078125	0.180419921875	0	0	0	-0.58076069266998	-0.387979041685587	-0.59802850403248	0.393129990495372	-0.0163316568451859	-0.0195599262309884	0.999675290417108	0.920851834194015	-0.389842147571684	0.00741616061150324	0.389570502536074	0.920673942969244	0.0243785621244363	16.9201955303028	-88.5398518065231	-129.860359907099
6685	1647952123219	9.74682781976013	0.0735646294866965	0.207553993871151	-0.0102115433275273	-0.0270709608556165	-0.0634153006089217	-0.00152619672926989	0.0122310454449157	-0.00298248523903034	0.54443359375	0.4482421875	0.1826171875	0	0	0	-0.580742121729493	-0.388055210862853	-0.597972641508648	0.39316721808727	-0.0163162533412872	-0.0194864668991441	0.999676976570278	0.920926492917862	-0.389665383887407	0.00743527012874468	0.38939462569341	0.920750327834679	0.0243034827426256	17.0106710858992	-88.5436480772297	-129.939843691172
6686	1647952123210	9.74941744752069	0.0989972484809892	0.160476984425632	-0.00557387134070639	-0.0813771403235748	-0.0617878927838777	-0.000141259648795886	0.0121968580186571	0.00163986811667458	0.546630859375	0.439453125	0.179443359375	0	0	0	-0.580712757755753	-0.388027947319305	-0.59799899334311	0.393197417386613	-0.0163369678804118	-0.0195977608164156	0.999674462638442	0.920928878312805	-0.38966020611933	0.00741113058583531	0.389388115599325	0.920750156957915	0.0244140101577505	16.8862209236588	-88.5379917202299	-129.815060381922
6687	1647952123210	9.72391294104757	0.073674916104195	0.183990660402144	-0.018852823055562	-0.048842707643959	-0.0868957585137675	0.00144256259556731	0.010696329048807	0.000147452702073159	0.550048828125	0.44384765625	0.19482421875	0	0	0	-0.580701896965641	-0.388093918188564	-0.597936254145534	0.393243758378899	-0.0162893067130887	-0.0195356507165267	0.99967645607861	0.921003148688235	-0.389484914322172	0.0073960544756167	0.389214412108754	0.920825640317716	0.0243368350511096	16.9042214216386	-88.5424751672891	-129.822179706312
6688	1647952123211	9.74825563044805	0.0741598212382363	0.186614522778734	-0.0182212399924947	-0.0479774853584872	-0.0624987217916857	0.00152459776409175	0.0122529019337099	-0.0028884735307546	0.541259765625	0.450439453125	0.184326171875	0	0	0	-0.580660595403246	-0.388085399315425	-0.597967610522608	0.393265473376467	-0.0163510807918613	-0.0196282327643336	0.99967363406038	0.92101182889954	-0.38946398057634	0.00741746997007636	0.389191280971276	0.920832525659352	0.0244459915682684	16.878990908616	-88.5361322040881	-129.795612609151
6689	1647952123214	9.74822886815211	0.0742923276201181	0.187955151780289	-0.0188385890745824	-0.0479329938759196	-0.0624996762169605	0.00445726099921361	0.01529772399529	0.000284866937867154	0.548828125	0.44580078125	0.1884765625	0	0	0	-0.580596473598814	-0.388069281224556	-0.598029061088274	0.39328260819461	-0.0164730498725326	-0.0197655454599334	0.999668926115326	0.921012170223949	-0.389462046123002	0.00747642488477573	0.389185329794521	0.920830406666915	0.0246199356289561	16.8921518595913	-88.525611023114	-129.808585282855
6690	1647952123216	9.74480447404146	0.0977979395672013	0.238551131265228	0.0220644114665302	-0.011625777275228	-0.064504804697874	0.00299103414620285	0.0137753262152712	-0.00130189273062121	0.546630859375	0.44580078125	0.174072265625	0	0	0	-0.580550462279702	-0.388057474022884	-0.598059387854229	0.393316064000985	-0.0165272690911931	-0.0198788370691703	0.999665784756668	0.921026620809486	-0.389427741307503	0.00748318517715874	0.389148831601286	0.920842476288379	0.0247451152036048	16.8258731344049	-88.5186323593737	-129.740142092904
6691	1647952123221	9.74515146870618	0.073451919317796	0.239359945013332	0.000295332878016627	-0.00074593302459916	-0.0643200753185429	0.00143045601224245	0.0122229564840465	0.000161505569920492	0.549560546875	0.441650390625	0.19091796875	0	0	0	-0.580534044894839	-0.388137343989924	-0.597986347061822	0.393372537991842	-0.0164765381437886	-0.0198089294939391	0.999668009892834	0.921116698618778	-0.389214897108609	0.0074693637197194	0.388937721513919	0.920933966243529	0.0246592498369701	16.8517243689532	-88.5235721886717	-129.752778915497
6692	1647952123222	9.74663302375594	0.0740649919914036	0.216337945421512	-0.00864635273329292	-0.0232964865079378	-0.0634040368596285	0.00150142797295091	0.0153059018380861	-0.00286024104302678	0.555419921875	0.447021484375	0.182373046875	0	0	0	-0.580483682727282	-0.388123413627966	-0.598026145957764	0.393400099939045	-0.0165501109106437	-0.0199284741810008	0.999664418565382	0.921125708162784	-0.38919315432345	0.00749122082001202	0.388913259725683	0.920940576011602	0.0247978197622945	16.8091421171022	-88.5156075414436	-129.708802974638
6693	1647952123217	9.74811814052144	0.0746760017862568	0.19346515996014	-0.015929297384717	-0.0454583277617375	-0.0624826374694791	0.00140652342308362	0.0152760540571219	0.000189971144355648	0.54541015625	0.44384765625	0.18505859375	0	0	0	-0.580500300830735	-0.388076266119753	-0.598003828574953	0.39345601205176	-0.016423534631502	-0.0200196247099996	0.999664684850215	0.921133181621141	-0.389178356509751	0.00733951911795316	0.388900924692552	0.920944852556786	0.0248324248199521	16.4656727479219	-88.5161966260914	-129.364486443051
6694	1647952123218	9.7206845508359	0.0733553661645722	0.241924207401102	0.00181122118934375	-0.000835239638561497	-0.0887163417497625	0.00754275068968107	0.0107403624352647	0.000338432275471069	0.551025390625	0.446044921875	0.193603515625	0	0	0	-0.580458509909577	-0.388079708981177	-0.598011760996583	0.39350221277701	-0.0164478536263002	-0.0201095632349519	0.999662479828861	0.921166241640377	-0.389100296033362	0.00732904420042152	0.388821582957055	0.920975876499081	0.024924115501277	16.3862015592887	-88.5113256258268	-129.280146203111
6695	1647952123224	9.72103222687167	0.049007342606114	0.242733627706962	-0.0204096606768693	0.0081506962670598	-0.0885264358403752	0.00297932217454483	0.015301952078369	-0.00128778785474124	0.549072265625	0.44482421875	0.189697265625	0	0	0	-0.580431192078779	-0.388027896968537	-0.598056682383622	0.393525332211889	-0.0164748883390597	-0.0202539196385718	0.999659120297259	0.921147898827649	-0.389144328163395	0.0072965980887052	0.388863892049163	0.920954108844483	0.0250679648723648	16.2288315232667	-88.503934737399	-129.125502302615
6696	1647952123219	9.74689190302	0.0499667556073952	0.221171447560204	-0.0288119418117473	-0.0136229652040742	-0.0632104810836793	0.00454009293563501	0.0107333909566144	-0.00128222216490586	0.541748046875	0.438720703125	0.192626953125	0	0	0	-0.580392247292896	-0.388026647407674	-0.59807377055803	0.393558032765643	-0.0165138282558786	-0.020338157382162	0.999656767511046	0.921168788976035	-0.389094791494394	0.00730105803015307	0.388812751453397	0.920973182338244	0.0251603203677255	16.1817479109568	-88.4987803243542	-129.075315781145
6697	1647952123219	9.74687382947012	0.0501783233354893	0.221918621916327	-0.0283992463596061	-0.0144542441407984	-0.0632104671955282	0.00616062859407474	0.0046531161150463	-0.00281566302433923	0.5390625	0.446044921875	0.194091796875	0	0	0	-0.580398409138218	-0.387946585399952	-0.598128042468866	0.393545395550128	-0.0165194166222396	-0.0204539121325956	0.999654313426863	0.921108236119539	-0.389238937035623	0.00725722041357874	0.388955943812681	0.920909706417438	0.0252702670926883	16.0232271516304	-88.4934227762506	-128.925762036899
6698	1647952123221	9.72211452323496	0.0745184702273802	0.221427338444405	-0.00611341830733473	-0.0242343091897995	-0.0877982035021443	0.00918710440475309	0.00772818288210281	-0.00269137430174276	0.546142578125	0.44921875	0.185546875	0	0	0	-0.580356595868753	-0.387968324138021	-0.59813067241992	0.39358163042457	-0.0165594436479409	-0.0205065387126593	0.999652572995287	0.921146442319247	-0.389148159315745	0.00727611872925438	0.388863750725965	0.920946899647962	0.0253336021943371	16.0247094767401	-88.489634729279	-128.921574255187
6699	1647952123225	9.74837302789706	0.0511406434051858	0.198979163127423	-0.0387784964337169	-0.0369820474482543	-0.06229694654224	0.00912722980012374	0.00924002952300763	-0.00115230150607185	0.5458984375	0.444091796875	0.18896484375	0	0	0	-0.580271729584956	-0.388000508129072	-0.598192824726309	0.393580576225536	-0.0167580997249178	-0.020582701435727	0.999647697188973	0.92116560516332	-0.389099871419115	0.00743087651107499	0.38880984292801	0.920965603300816	0.0254806510721317	16.2581737171994	-88.4790727694111	-129.151918872448
6700	1647952123222	9.77387034215893	0.0764252018556149	0.177575115992787	-0.0245432593559268	-0.0678535572284602	-0.0371715887551378	0.00601698757927522	0.0107298681488066	0.000290255103309434	0.543212890625	0.450927734375	0.18603515625	0	0	0	-0.580232325944687	-0.387998390015525	-0.598205204601691	0.393621938491273	-0.0167844349343814	-0.0206749678987682	0.999645351335321	0.921191801104777	-0.389038037767465	0.00742096674143206	0.388746637697704	0.920989658396024	0.0255753945483572	16.1806360141144	-88.4740172273986	-129.070520521609
6701	1647952123223	9.74602347463231	0.0995245876820224	0.226459880103191	0.0150455416401673	-0.0317970979767081	-0.0635886762979449	0.0136068580588204	0.015364709738145	0.000573348413929946	0.550537109375	0.447265625	0.183349609375	0	0	0	-0.580142233353482	-0.388054491867974	-0.598221250275897	0.393675038755399	-0.0169099058811383	-0.0207559486230604	0.999641558599805	0.921263146923608	-0.388867350404047	0.00750985420272321	0.38857209009848	0.921059918999026	0.0256974008414455	16.2905682565048	-88.4658787483759	-129.169761502537
6702	1647952123224	9.72317039609402	0.0997619869140008	0.201961058926408	0.00557669365384914	-0.0551514052888585	-0.0870660273903603	0.0045643768164834	0.0138009380860974	-0.00278111693922728	0.5478515625	0.451416015625	0.186767578125	0	0	0	-0.58009020963995	-0.388051265501199	-0.598251629436786	0.393708714532746	-0.0169775935617024	-0.0208642800740781	0.999638156101418	0.921283239896632	-0.388819326887781	0.00753146228144608	0.388521496448289	0.92107774528295	0.0258231280455929	16.2596252060886	-88.4586142003078	-129.135792652317
6703	1647952123228	9.77070800374497	0.0759575701565448	0.229955535177519	-0.00678459983123863	-0.0204198658983717	-0.0390022356210213	0.00924787922705695	0.00621592111378631	-0.00422924584965467	0.55224609375	0.449462890625	0.18212890625	0	0	0	-0.580044476836951	-0.388173259309228	-0.598188614097951	0.393751581091139	-0.0170161945583535	-0.0207599149473403	0.999639672609152	0.921390935419801	-0.388562426290959	0.00761478831668017	0.388264334247915	0.921188507747607	0.0257398512963982	16.4801417519825	-88.4618478025671	-129.340304926026
6704	1647952123226	9.74594401780115	0.100145961865701	0.229583670270648	0.0154755488312444	-0.0301894708050511	-0.0635842386064702	0.00598019569084714	0.00918928483863016	0.00180126184156898	0.543701171875	0.4453125	0.18701171875	0	0	0	-0.580012379759779	-0.388170735694046	-0.598193402877642	0.393794073126816	-0.0170237345911798	-0.0208423689475389	0.999637828474505	0.92141769759957	-0.38849941584187	0.00759147158551637	0.38820048816414	0.92121322154384	0.0258182385522825	16.385193798633	-88.4579165020912	-129.241434645883
6705	1647952123230	9.72156207816591	0.0997050249495041	0.228917716195956	0.0154171251804931	-0.0296621172718461	-0.0879767719872699	0.00297836417148177	0.00918145474596737	0.000178892766332281	0.5478515625	0.44677734375	0.185546875	0	0	0	-0.579989983223979	-0.388237641821718	-0.598143269975666	0.393837252447477	-0.0170076758889431	-0.020794317300141	0.999639102540951	0.921490090768522	-0.388327504114668	0.00760014233378825	0.388029317933939	0.921286788093748	0.0257663056651209	16.4341816340253	-88.4606314673035	-129.279739540832
6706	1647952123227	9.74590111024298	0.10004792757677	0.231440396359515	0.0160477340998463	-0.0287696986775901	-0.0635808705317285	0.00449150247411362	0.0107191114801285	0.000241176217899915	0.546142578125	0.443359375	0.185791015625	0	0	0	-0.579953330504871	-0.38823271705532	-0.598157973851932	0.393873749012933	-0.0170352085496097	-0.0208837327917039	0.99963676971906	0.921511161860457	-0.388277654492682	0.00759220575670133	0.387978066694835	0.921305775910662	0.0258589836883025	16.3622555197144	-88.4556639830447	-129.204698182325
6707	1647952123228	9.74936756580236	0.0766136243744626	0.183402658867494	-0.024052855881666	-0.0642183211185913	-0.0615350472546474	0.00452809422330104	0.0122599651604991	-0.00127036849931921	0.5458984375	0.442626953125	0.18603515625	0	0	0	-0.579931167595793	-0.388252844338344	-0.598139988168848	0.393913853865965	-0.0170234331668869	-0.0209114051028195	0.999636391824466	0.921551106460914	-0.388183209191298	0.00757326102882172	0.387883695073508	0.921344945847412	0.0258791394283315	16.3115658672219	-88.454860801283	-129.148142631629
6708	1647952123232	9.72498077734566	0.0764640142607285	0.183104526884222	-0.0244521558684712	-0.0649054602826833	-0.0859297135109145	0.00456476599699388	0.0138007949604029	-0.00278194824410788	0.5498046875	0.45263671875	0.190185546875	0	0	0	-0.579879463788461	-0.388250971110616	-0.598169107905459	0.393947597093392	-0.0170901964414979	-0.0210170355437609	0.999633037370486	0.921572095315654	-0.388132948352013	0.0075952313387922	0.387830888817674	0.921363716791868	0.026001981816141	16.2831901737526	-88.4477494174115	-129.116603081207
6709	1647952123231	9.72339659833635	0.076066893993789	0.208652492219592	-0.0153695427377585	-0.0417683091267156	-0.0868566756792042	0.00596756962607927	0.0107162028966998	0.00181532117965466	0.55078125	0.4501953125	0.19189453125	0	0	0	-0.57984372872019	-0.388265827487758	-0.598168556156033	0.393986390495051	-0.0171119487370948	-0.0210735304048403	0.999631475858326	0.921607550985368	-0.388048742619855	0.00759574340684088	0.387745668160422	0.921397894325479	0.0260617949382256	16.2488306412616	-88.4444501254748	-129.076995118647
6710	1647952123231	9.71986842568623	0.0995558776809512	0.258616689488867	0.0255235404133398	-0.00542193996577248	-0.0889043893073822	0.00610129276561408	0.00616487708837652	-0.00127510435505433	0.541015625	0.443115234375	0.1865234375	0	0	0	-0.579814695035793	-0.388279289547918	-0.59816963040581	0.394014220541456	-0.0171354268633174	-0.0211146056359508	0.999630206914062	0.921634757067714	-0.387983974638545	0.00760328800019638	0.387679960419608	0.921424228492238	0.026108225457428	16.2367185118556	-88.4417741389435	-129.060842092298
6711	1647952123232	9.74616242185744	0.0759477604765909	0.235993333384689	-0.00597603444047173	-0.0181213225045648	-0.0633910415344836	0.0029532575366597	0.00611438645749952	0.00167680995927792	0.542724609375	0.44482421875	0.184326171875	0	0	0	-0.579793550552584	-0.388269290808	-0.598192851043715	0.394019935426208	-0.0171754584487113	-0.0211677557051205	0.999628395827912	0.921631878457536	-0.38799049660436	0.0076193933837958	0.387685032259322	0.921420262780839	0.0261727931061635	16.2312735601788	-88.4379628065181	-129.055779401629
6712	1647952123233	9.77051061186387	0.0762959198896637	0.238086714867399	-0.00534590368352506	-0.017223281021822	-0.0389951870220848	0.00458827181260884	0.0046271442902004	-0.00133752813637714	0.542724609375	0.4404296875	0.18701171875	0	0	0	-0.57977179306363	-0.38828133751737	-0.59819283806484	0.394040098710066	-0.0171941371526906	-0.0211947953862676	0.999627501770589	0.921653064448628	-0.387940007088568	0.00762756137804599	0.387633835520106	0.921440899650464	0.0262045418070117	16.2291074100858	-88.4360847350224	-129.050462902407
6713	1647952123233	9.74731831158047	0.100865284288925	0.213176244995341	0.00806571798124666	-0.0492131093924202	-0.0626440208576646	-0.00158516991887692	0.00762169394249696	1.73922536420215E-05	0.548828125	0.45166015625	0.1826171875	0	0	0	-0.57977415353253	-0.388269061295526	-0.598199410372853	0.394038744752215	-0.0171907970594756	-0.0212107568387005	0.999627220663178	0.921644222260635	-0.38796120734958	0.00761768767053811	0.387655006507139	0.921431606461481	0.0262181338726594	16.2012406752956	-88.4354947019246	-129.023916747491
6714	1647952123234	9.74925291218634	0.0768990165516381	0.18928360184117	-0.0235432043650301	-0.062693652282679	-0.0615238815993795	0.00296611360796281	0.0107082305184089	0.000191810575538365	0.54931640625	0.4423828125	0.187255859375	0	0	0	-0.579740420911475	-0.388259904831945	-0.598217059240698	0.394070603692646	-0.017218807333399	-0.0212995940478016	0.999624849614801	0.921659436649084	-0.387925211210405	0.00761008167205102	0.387617589267706	0.921444712286506	0.0263105813225511	16.1320024352539	-88.4305267909644	-128.952424908724
6715	1647952123234	9.72134689524784	0.100038207672806	0.237740470450398	0.0175468962898384	-0.0259902478561003	-0.0879698750031359	0.00909054190498337	0.00769963503618314	0.000362538434303496	0.54443359375	0.44921875	0.179931640625	0	0	0	-0.579723373811241	-0.388335041678996	-0.598142152767326	0.394135345210187	-0.0171562790259178	-0.0212441266688759	0.999627105060713	0.921751728793982	-0.387706450120437	0.00758017152271262	0.387400842223258	0.921538059776744	0.026233410522169	16.1167054210521	-88.4352521215668	-128.923562939504
6716	1647952123235	9.74765274783966	0.0763507652653801	0.215055452712572	-0.01353127850923	-0.0386664625089503	-0.0624497145621508	0.00145188901967501	0.00305029222178592	0.00160092888638736	0.544677734375	0.446533203125	0.185546875	0	0	0	-0.579718503868087	-0.388332730849216	-0.598137219979678	0.394152270701464	-0.017140887547654	-0.0212669474302712	0.999626883852709	0.921761626353934	-0.387683355304141	0.00755779078000901	0.387377973245033	0.921547249449056	0.026248292848276	16.062938470981	-88.4347880431875	-128.868369949367
6717	1647952123237	9.74568521588834	0.10023165906095	0.240283004219528	0.0178982052689042	-0.0232219491487655	-0.0635692991880354	0.00147709880031271	0.00611741182255461	0.00010230981348283	0.553955078125	0.43798828125	0.188720703125	0	0	0	-0.579678227502623	-0.388459382929793	-0.598075222580967	0.394180781505072	-0.0171893281029367	-0.021136624164562	0.999628816170431	0.921862410378581	-0.38744163861171	0.00765983034188383	0.387135923585455	0.92165189729572	0.0261449207464454	16.3293101236579	-88.4388465655369	-129.119682203626
6718	1647952123237	9.74801294133633	0.0520791134104531	0.215676152859197	-0.0363741565545323	-0.0276311158205894	-0.0622566976835124	0.00314996478139661	0.00617042032254139	-0.00442342004017069	0.54345703125	0.444580078125	0.1904296875	0	0	0	-0.579648869542266	-0.388474454173586	-0.598087476120526	0.394190509019036	-0.017242061275372	-0.0211632568841858	0.999627344504456	0.921878369715257	-0.387402882107696	0.00769924579360792	0.387095573178145	0.921667577542307	0.026189572985815	16.3823521174139	-88.4357546123443	-129.170283319748
6719	1647952123237	9.72166945471112	0.0758223817320474	0.239766381823967	-0.00342387610231688	-0.0154565157833748	-0.0877789720002919	0.00290460807520506	0.0122209871831292	0.00172957292656819	0.543701171875	0.448486328125	0.188232421875	0	0	0	-0.579692013612262	-0.388338614407788	-0.598114361578239	0.394220116670695	-0.0170953379326093	-0.0213438401086887	0.999626025026552	0.921811013506476	-0.387567240343966	0.0074892983867923	0.387262449508255	0.921594311343976	0.0263005798279994	15.8947228797995	-88.4329875903872	-128.692964839828
6720	1647952123239	9.76916153483913	0.0515950818115904	0.268141452888658	-0.0158589579398223	0.0179875891807055	-0.0397398139640366	0.00446706592902877	0.0137726546459449	0.000267271940625771	0.546142578125	0.447021484375	0.187255859375	0	0	0	-0.579646908887736	-0.388328060491855	-0.598136776237243	0.394262825237232	-0.0171325713056958	-0.0214598707582239	0.999622903372815	0.921832510352119	-0.38751628414118	0.00748013257390395	0.38720963037916	0.921613044326334	0.0264215569030526	15.8071987308256	-88.426460668653	-128.602252827678
6721	1647952123240	9.74558093053277	0.100482827935943	0.244373243733393	0.0191996000190323	-0.0230516869068484	-0.0635713711826558	0.00446705664360669	0.0137726887538629	0.000267263975974778	0.55419921875	0.442138671875	0.1884765625	0	0	0	-0.5795774536367	-0.388358388705887	-0.598168467779757	0.394286978369541	-0.0172555078484311	-0.0215325433844176	0.999619226017733	0.921867607482858	-0.387431081219968	0.00756779879217712	0.3871206035885	0.921647170494287	0.0265354743155313	15.9179130940306	-88.4188064107558	-128.707596368426
6722	1647952123241	9.72474977846133	0.0766661088942348	0.194908056867845	-0.0219705579954014	-0.059986436226854	-0.0858922114279306	-4.65753697254608E-05	0.0122265463279296	-0.00142032301173768	0.537841796875	0.44970703125	0.188720703125	0	0	0	-0.57954230805914	-0.388342550044052	-0.598198713277361	0.394308351963381	-0.0173032734828159	-0.0216276220178185	0.999616347751793	0.921871373098226	-0.387421974794411	0.00757528272669616	0.387109504131285	0.921648772262109	0.0266415539895361	15.8726177239974	-88.4128411692329	-128.661707657766
6723	1647952123242	9.74629169813955	0.0517198453153179	0.24584227344351	-0.0260097653208275	-0.00464946958406292	-0.0631941936740574	0.0014031702561438	0.00915684747035612	0.00165349724930931	0.5439453125	0.447021484375	0.189208984375	0	0	0	-0.579525062123089	-0.388318983043364	-0.598222512350002	0.394320802769838	-0.0173236137483618	-0.0217019970661235	0.999614383514983	0.921864328153245	-0.387438943822236	0.00756473981556549	0.387125371017277	0.921639890702031	0.0267181395587953	15.8084744180377	-88.408783099025	-128.598608528488
6724	1647952123243	9.74747788892718	0.076484084073257	0.222794583637215	-0.0122707746103042	-0.0362504612190069	-0.0624387649391345	0.00602817291151577	0.00920413066756919	0.000278368621695216	0.54833984375	0.455078125	0.192138671875	0	0	0	-0.579490210735806	-0.388322236885212	-0.598229012451429	0.394358954080194	-0.0173442219962937	-0.0217760655295238	0.99961241535577	0.921891805073568	-0.387373711354482	0.00755694975857363	0.387059010619236	0.921665563380508	0.0267938720036733	15.7505869627724	-88.4047272764292	-128.536654941871
6725	1647952123244	9.74585999981908	0.0761060417296015	0.248120261519311	-0.00472001909544752	-0.0133996026136597	-0.063382719532985	-3.43199978280462E-05	0.0106999580868351	-0.00143382677018803	0.54248046875	0.4462890625	0.190185546875	0	0	0	-0.579407929862329	-0.388349165719261	-0.598299106221497	0.394346999218153	-0.0175537900405766	-0.0218497420003807	0.999607149449086	0.92190008669302	-0.387350739385584	0.00772236057457293	0.387029836848031	0.921673474432219	0.0269427525956077	15.9934181678863	-88.3939260713817	-128.777928901891
6726	1647952123246	9.74622158222311	0.0517645986411537	0.248597074377977	-0.0272875432886808	-0.0042228125618958	-0.063197492138654	0.00146489780508095	0.00764414303870508	0.000115277938983432	0.53955078125	0.44384765625	0.1806640625	0	0	0	-0.579385883977173	-0.388342541102879	-0.598310877597263	0.394368053937614	-0.0175716709628979	-0.0219090199698114	0.999605537811558	0.921909765821144	-0.387327817606435	0.00771656606522592	0.387005969027836	0.921681700237234	0.0270041364354972	15.9475507297529	-88.3906348330144	-128.730626709724
6727	1647952123247	9.72344335148096	0.0518393153452296	0.223378151462296	-0.0374624577427847	-0.0268065073497852	-0.0866494403163536	0.00451503791702719	0.00766646433467711	0.000215642788896398	0.5458984375	0.439697265625	0.18408203125	0	0	0	-0.579340394082253	-0.388399671864186	-0.598311130232832	0.394378237381228	-0.0176610273293917	-0.0218905399751589	0.999604367924264	0.921953015812019	-0.387223001551737	0.00780920638643445	0.386898855967283	0.921726180234054	0.0270208053608257	16.1196728234531	-88.388249932775	-128.89617663027
6728	1647952123248	9.74740447818402	0.0766683208867342	0.225920974299338	-0.0141785618226808	-0.034936934752746	-0.0624365574662935	0.00612624610536031	0.00311157360210037	-0.00129810807761616	0.552978515625	0.44970703125	0.178466796875	0	0	0	-0.579319742664871	-0.388420491234188	-0.598303545464619	0.394399575598867	-0.0176752210522819	-0.0219020107659815	0.99960386578142	0.921980646876191	-0.387156993513652	0.00781979278690664	0.386832358194752	0.921753635359187	0.0270363154961997	16.1316103555926	-88.3872273595583	-128.904002398704
6729	1647952123249	9.74938626042849	0.0528407624330142	0.201300078517409	-0.0437736164204483	-0.046535713522737	-0.0612892765450859	0.00462526582036041	4.72071701691781E-05	-0.00137424640331191	0.54443359375	0.45263671875	0.188232421875	0	0	0	-0.579367338010347	-0.388526946150251	-0.598146362672559	0.394463215754717	-0.017464518126506	-0.0216938303508888	0.99961210893592	0.92209312049633	-0.386891167063216	0.00771375277047798	0.386573754592769	0.921870165789723	0.0267605995239296	16.079646196523	-88.4040967583551	-128.835642980216
6730	1647952123249	9.7242555820151	0.101441341632698	0.200518768276723	0.00115833650178171	-0.0653231650990425	-0.0860550419592467	0.00462526480629831	4.72109997863574E-05	-0.00137424729028331	0.54345703125	0.438232421875	0.18994140625	0	0	0	-0.579359294497525	-0.388550067283812	-0.598131781492429	0.394474365531867	-0.0174655656351224	-0.0216751243003123	0.999612496422295	0.922115495734372	-0.386837640303953	0.00772350766313634	0.386520331345711	0.921893068110741	0.0267433061861511	16.1087982195107	-88.4048941281532	-128.861467227789
6731	1647952123250	9.77174793546523	0.0773806738672205	0.228052725211533	-0.0117872774635142	-0.0320809587656408	-0.0380321068889202	0.00298980475085608	0.00765540553491637	0.000164854995682404	0.5498046875	0.453369140625	0.181884765625	0	0	0	-0.579332907765689	-0.388524469013741	-0.598176637095493	0.394470315474396	-0.0175331043785645	-0.0217558327452429	0.999609560774812	0.922095874232647	-0.386883814374242	0.00775325082584222	0.386564081329321	0.921871790389965	0.0268442379146847	16.1099682832313	-88.398863039513	-128.865466661528
6732	1647952123250	9.74935848126909	0.0531128479893589	0.202570092982675	-0.0439190055139484	-0.0463657395964406	-0.0612891206046786	0.00454085537468058	0.010733433521214	-0.00128418215802538	0.549560546875	0.44189453125	0.18408203125	0	0	0	-0.579293060387489	-0.388525833140332	-0.598193351525242	0.394502143670357	-0.0175752176527805	-0.021836481173203	0.999607062707357	0.92211775685105	-0.386831471244209	0.00776243228825196	0.386509966526668	0.921891848833156	0.0269344543390164	16.0768293338786	-88.3937487583249	-128.829049908947
6733	1647952123251	9.74773482172175	0.0527412399699147	0.227747518256114	-0.0336691447214162	-0.0218693816309533	-0.0622323563958727	0.00452687864024406	0.00614005364629818	0.000202433505655372	0.54248046875	0.4482421875	0.19091796875	0	0	0	-0.579292748488543	-0.388631140024249	-0.598079911895929	0.394570865040237	-0.0174674880199787	-0.0217074138941651	0.999611762157839	0.922232218905696	-0.386559338929703	0.00772087420611306	0.386241661754073	0.922009037736756	0.0267714971040857	16.0875107537206	-88.4033834956921	-128.822883850937
6734	1647952123251	9.71976605214753	0.0758435678193782	0.275702797832961	0.00666652316560871	0.013725762210192	-0.0887281096309103	0.00297571918425228	0.00306209524868163	0.00165147650574109	0.536376953125	0.44921875	0.1884765625	0	0	0	-0.579284972293593	-0.388635048535749	-0.598070837427904	0.394592186114618	-0.0174518550641955	-0.0217272717374526	0.999611603783022	0.922249045030855	-0.386519611413806	0.00769993066186886	0.386202190173095	0.922025225064568	0.0267834398488544	16.0393341437115	-88.4030578519712	-128.772248654443
6735	1647952123252	9.74732606154015	0.077133397811045	0.229123356680947	-0.0133501796962282	-0.0307573258156946	-0.0624213075814772	0.00461540353699608	0.0076936786861465	-0.0028349151526662	0.5458984375	0.4443359375	0.18310546875	0	0	0	-0.579174754203481	-0.38868723710314	-0.598167463272759	0.39455610714865	-0.0177641648100808	-0.0217855814412844	0.999604833366599	0.922256921486249	-0.386495420049661	0.00796624449436178	0.386169140687482	0.922033990003569	0.0269576716129306	16.4629036729654	-88.3891983479462	-129.194121177162
6736	1647952123252	9.74730794930405	0.0774223750542304	0.22979539688298	-0.0132593349439889	-0.0306144914686252	-0.0624207340926173	0.00157737285961075	0.00614463761437321	-0.00294869151995262	0.5546875	0.4423828125	0.1904296875	0	0	0	-0.57915077886649	-0.388694538779325	-0.598180011963526	0.394565082272599	-0.0178055423791116	-0.0218164015180312	0.999603425006832	0.922267381018819	-0.386469902748691	0.00799325829095504	0.386142254317336	0.922043957137739	0.0270018617229326	16.4901334716645	-88.3863302917278	-129.219739888771
6737	1647952123253	9.74568478952738	0.0771342313452694	0.25459995763733	-0.00202886950775114	-0.00763818879601641	-0.0633755718622026	0.00455094573941235	0.00308696005515498	0.000177130198959553	0.547119140625	0.44775390625	0.185791015625	0	0	0	-0.579214897261891	-0.388654932730822	-0.598115578660017	0.394607654028772	-0.0175898043436125	-0.021812516802162	0.999607329351835	0.922271424530202	-0.386464285291818	0.0077958764046685	0.386142484425356	0.922046403552793	0.026914892107796	16.1536160376543	-88.3942938818858	-128.883008225182
6738	1647952123253	9.74690555727033	0.10196733017445	0.230796142281607	0.0117170691096841	-0.0392066416144712	-0.062602352645392	0.00305010804047412	2.24893299866481E-05	0.000101201604572825	0.5439453125	0.447021484375	0.182861328125	0	0	0	-0.579212830166127	-0.388669444267268	-0.598100989304158	0.394618508254878	-0.0175774606272798	-0.021798782743667	0.999607846082048	0.922288097996228	-0.386424592071335	0.00779095225261472	0.38610322087804	0.922063364261588	0.0268971209278361	16.154054801088	-88.3953508036145	-128.880987929297
6739	1647952123254	9.71970505273464	0.0763374478470449	0.277709699499208	0.00665600047379221	0.0157107380608701	-0.0887311068957484	0.00606389085201799	0.00462483020387453	0.000240322306901278	0.5400390625	0.446044921875	0.185791015625	0	0	0	-0.579183711128577	-0.38876914245635	-0.598038252490931	0.394658119382685	-0.0175823951373042	-0.0217037946936693	0.999609826220777	0.922378813494242	-0.386207045358154	0.00783852873181051	0.385886231677408	0.922156745576163	0.0268095652741672	16.2977618791688	-88.3994074459566	-129.011172829593
6740	1647952123255	9.72330445398455	0.0528517653578194	0.22911327727897	-0.0339778339608564	-0.0204136284132766	-0.0866211238346857	0.00305211372044426	0.00614233036675176	-0.00137338823587801	0.53857421875	0.4462890625	0.178466796875	0	0	0	-0.579160462396646	-0.388776410763148	-0.598043976561811	0.394676403308791	-0.0176073909354791	-0.021739839726818	0.999608602980735	0.922395543032791	-0.386166878210721	0.00784884489771276	0.385845101015534	0.922172717847171	0.0268521224612538	16.2935814605352	-88.3969002243313	-129.004481795339
6741	1647952123255	9.72290953435539	0.0773275764177418	0.229812932857196	-0.0122733777986323	-0.0277465122802342	-0.0868021658482281	0.00457515116244112	3.37766744922324E-05	0.000152044902722743	0.549072265625	0.451904296875	0.189697265625	0	0	0	-0.57911467878044	-0.388924854848808	-0.597987434346188	0.394683005038126	-0.0177030287102051	-0.0215667703545908	0.999610662803753	0.922495139896578	-0.385925565629817	0.00801090884349848	0.385602541020776	0.92227779557451	0.0267272922037223	16.6849278098961	-88.4011244168056	-129.380774287932
6742	1647952123256	9.72452465293781	0.077675095527939	0.205455184838103	-0.0212042039831458	-0.05024529425647	-0.0858353136093886	0.00299961681793964	9.21011075366845E-06	0.00162639310221418	0.55126953125	0.447509765625	0.182861328125	0	0	0	-0.579115409929122	-0.388936343164024	-0.597969416732097	0.394697909295069	-0.0176778047614544	-0.0215564975975657	0.999611330783191	0.922512616828635	-0.385884162728597	0.00799279345625009	0.385561884800353	0.922295359614574	0.0267077258976439	16.6608096388083	-88.402496676848	-129.354099508028
6743	1647952123257	9.74604678373593	0.0527016348076791	0.255166232343123	-0.0248170017333182	0.0059962171991515	-0.063191819845116	0.00461146244385807	-0.00454610727182243	0.000114508342387883	0.543212890625	0.444091796875	0.1904296875	0	0	0	-0.579125131279508	-0.389027715452404	-0.59787992959081	0.394729158693482	-0.0176059471952572	-0.021409829648717	0.999615751085271	0.922592736779678	-0.385692655774039	0.00798857455068874	0.385373419769373	0.922378877943539	0.0265430378607527	16.7500532193272	-88.411607373215	-129.431489548078
6744	1647952123257	9.74850290550113	0.102437815606077	0.207102300180783	0.0025923750311201	-0.0572374538677756	-0.0616150661325001	0.00156339702270185	0.00155111955553253	-0.0014619091363012	0.544189453125	0.442138671875	0.18701171875	0	0	0	-0.579118173482577	-0.389041085558908	-0.597874971388467	0.394733699443803	-0.0176148953312275	-0.0214012727649474	0.999615776679475	0.922604324279162	-0.385664680541112	0.00800093772710947	0.385345268926272	0.922390773862771	0.0265383497787013	16.7773174239796	-88.4116602776271	-129.457010456395
6745	1647952123257	9.72130036648153	0.0769669094126448	0.253947045075174	-0.00226270281063409	-0.00417762810466307	-0.0877672467345896	0.00766359723728364	0.0015961732828255	-0.00125927974759477	0.552978515625	0.446044921875	0.191650390625	0	0	0	-0.579129614654638	-0.388992643660631	-0.59790239082571	0.394723122774413	-0.0176050915543733	-0.0214574779886824	0.999614744483958	0.922566117295364	-0.385756759050259	0.00796756334136783	0.385437180315963	0.922350963291852	0.0265872252157676	16.6822315252181	-88.4095280766626	-129.367650791863
6746	1647952123258	9.74726956035374	0.0778185989240141	0.231285005488551	-0.0106615936356991	-0.0258453883148595	-0.0624037395272907	0.00305009871745156	2.25516881996882E-05	0.000101337771212426	0.54345703125	0.445068359375	0.179931640625	0	0	0	-0.579127343572858	-0.389008487279863	-0.597887294106626	0.394733708082215	-0.017593639259821	-0.0214416335045349	0.999615286102735	0.922583440967266	-0.385715393055796	0.00796429612790478	0.385396235465002	0.922368631249172	0.0265678335009565	16.6872656888574	-88.4106465391907	-129.370122245798
6747	1647952123258	9.74565483758607	0.0774697030446104	0.255642467252257	-0.000503249131778537	-0.00253818138411591	-0.0633727120394738	0.00310057111406903	3.57121783343243E-05	-0.0014236947054703	0.539794921875	0.4423828125	0.18994140625	0	0	0	-0.579158778800954	-0.38902986425095	-0.597829748660521	0.394753676708873	-0.0174892873252291	-0.0213708604660016	0.99961863285545	0.922611104852727	-0.385650598891428	0.00789713727336983	0.385334755804984	0.922397366592959	0.02646174731735	16.6169958385123	-88.4175752355162	-129.295890891042
6748	1647952123259	9.77362453725881	0.054407135270109	0.208304369566292	-0.0405933571609014	-0.0378249203173149	-0.0368493472997144	0.00460135092916154	0.00310024342782748	-0.00134830864064424	0.5439453125	0.44482421875	0.184326171875	0	0	0	-0.579141689595134	-0.38904842554089	-0.597823070916218	0.394770568605804	-0.0175022030710865	-0.0213775822583713	0.99961826307068	0.922634232266682	-0.38559504149361	0.00790806077435458	0.385278790406802	0.922420437193543	0.0264724519140955	16.6323545921829	-88.4168081898697	-129.307790832849
6749	1647952123259	9.72250823559579	0.102222515869781	0.230580362261171	0.0125555317151632	-0.0349438574729056	-0.0869789350174237	0.00306415694954356	0.00461556803169058	-0.001386678111005	0.541748046875	0.443115234375	0.189697265625	0	0	0	-0.579132497508674	-0.389026174295613	-0.59785853959599	0.394752267472189	-0.0175523953098624	-0.0214166284341303	0.999616547204677	0.922607428098384	-0.385658566076969	0.00793750774121965	0.38534068956778	0.922392973974743	0.0265283720845694	16.6576167923306	-88.4132538148023	-129.336968505486
6750	1647952123260	9.74724307773337	0.0782449252105165	0.232255252193853	-0.00948446038119572	-0.0249052447683806	-0.0624000766873394	0.00148857802730002	0.00459118043179165	8.76252359761986E-05	0.5458984375	0.448486328125	0.1962890625	0	0	0	-0.5791197824988	-0.389028200588987	-0.597859627932684	0.394767275686865	-0.0175581511306256	-0.0214429793023101	0.999615881210135	0.922618686946285	-0.385631714386531	0.0079334328520641	0.385313469562624	0.92240358818575	0.0265546733300747	16.6339595775299	-88.4118763656631	-129.311640099067
6751	1647952123260	9.74924092342777	0.0541733074101906	0.207877368419313	-0.0420695376202	-0.0398655046650841	-0.0612522256375776	0.00602530137045933	0.00308543637141384	0.00175265062880351	0.547119140625	0.44091796875	0.1875	0	0	0	-0.579101456463003	-0.38893058852812	-0.597961486545223	0.394736065033621	-0.0176498841684045	-0.0216133879217369	0.999610595707842	0.922534469040325	-0.385832872537887	0.00794656539947736	0.38551087536064	0.922315486117254	0.0267490008591986	16.5455768665834	-88.4009866437438	-129.235698371849
6752	1647952123261	9.74845757863308	0.102981209104171	0.208958084309109	0.00337680970687176	-0.0578153924741149	-0.061618715778831	0.00307639207377894	0.00308887725863128	-0.0013989784841582	0.5458984375	0.446044921875	0.17724609375	0	0	0	-0.579086878413523	-0.388943948618262	-0.597958935842742	0.394748151519842	-0.0176645682418981	-0.0216216950510303	0.999610156677066	0.922551043383747	-0.385793003409805	0.00795806959023188	0.385470537629516	0.922331968882768	0.0267619841650325	16.5606199727599	-88.4000854416732	-129.248255763341
6753	1647952123263	9.74760882084068	0.0538200328692671	0.232831232338524	-0.0312922129130567	-0.0157069609528951	-0.0622125640089592	-2.43080430994697E-05	0.0030532509635146	2.4434927192464E-05	0.548583984375	0.448486328125	0.184814453125	0	0	0	-0.579130068904603	-0.388985132998659	-0.597864729100317	0.394786898585009	-0.0175033359923588	-0.0215123505970026	0.999615352023433	0.922604298102521	-0.385667742023291	0.00785505476824588	0.385350415014561	0.92238690988893	0.0265978591931309	16.4532712926543	-88.4107827215531	-129.133224293905
6754	1647952123264	9.72447657251631	0.0783540731090483	0.207463275291806	-0.0180716972046573	-0.0480942779620172	-0.0858181157661626	3.84825639514731E-05	0.00153962444189102	-0.00151281100166332	0.54541015625	0.4404296875	0.179931640625	0	0	0	-0.579126309605899	-0.388993031080512	-0.597863121764755	0.39478706529818	-0.0175117811910058	-0.0215050574788928	0.999615361037609	0.922609451687173	-0.385655189688093	0.00786602340050285	0.385337692390732	0.922392328225616	0.0265942785860961	16.477099348762	-88.4108013444081	-129.15626733626
6755	1647952123264	9.72486186713764	0.0540210124010656	0.20722137771448	-0.0392791821650446	-0.0376241496898529	-0.0856200303997436	-0.00306224958949523	0.00150397362447484	-8.94684357466129E-05	0.54833984375	0.444580078125	0.184814453125	0	0	0	-0.579170859812761	-0.389042225134229	-0.597769110949677	0.394815592651541	-0.0173635258859181	-0.0213732915478408	0.999620773282158	0.922660971685685	-0.385533589723641	0.00778347755378794	0.385221026550779	0.9224462226077	0.0264145244127096	16.418483433534	-88.4220224523976	-129.090187591968
6756	1647952123265	9.74882612210905	0.0788659966060567	0.209388144669193	-0.0159437182545911	-0.0456615077513829	-0.0614138645246491	3.84929618850291E-05	0.0015396487857152	-0.00151278740783366	0.553955078125	0.443115234375	0.185302734375	0	0	0	-0.579167461006912	-0.38905042303352	-0.597766831175313	0.394815952052182	-0.0173708322318727	-0.0213650696874178	0.999620822104474	0.922666452535372	-0.385520264685136	0.00779377205814663	0.38520756943934	0.922451982118503	0.0264096408964934	16.4419027868336	-88.4221240378923	-129.112774702192
6757	1647952123265	9.72245587954235	0.102493753923473	0.232658169064808	0.0176123080210852	-0.0322453750109156	-0.0869774566188859	-6.28498924097318E-05	0.00151360453701256	0.00153726663325113	0.548095703125	0.454345703125	0.186767578125	0	0	0	-0.579248351641486	-0.389020261985432	-0.597679264836594	0.394859569049297	-0.0171145357016506	-0.0213200628657552	0.999626203931808	0.922677444906557	-0.385498312989979	0.00757517937663893	0.38519271193576	0.922462197383329	0.0262691657708151	16.0858536239107	-88.4333624787959	-128.755518111227
6758	1647952123266	9.72607671790728	0.0789146053614987	0.184073154313895	-0.022978020340102	-0.0683659718396214	-0.0848162278728157	-2.23202389640767E-05	0.00917279223234021	-0.00145158883134452	0.547119140625	0.44873046875	0.181884765625	0	0	0	-0.579222957544374	-0.389012762621049	-0.597698458069505	0.394875156464452	-0.0171487525214472	-0.0213822985217719	0.999624288218771	0.922682790073256	-0.385485362650229	0.00758314479964406	0.38517838619215	0.922466168752192	0.0263396719429769	16.0610157365469	-88.4293528327069	-128.729856168595
6759	1647952123267	9.72443785217205	0.0784198990915276	0.20924580958766	-0.0145593503219375	-0.0440424576349733	-0.0857930340870148	-0.0047375182612476	0.00757309773848408	0.00295839919129301	0.541015625	0.452880859375	0.189697265625	0	0	0	-0.579173020057582	-0.389124374846981	-0.59765091941433	0.394910385100888	-0.0172088011536957	-0.0212964307673376	0.999625089320704	0.922777788199915	-0.385256017278829	0.00767820000568059	0.384948062428849	0.922563961569618	0.0262816674746525	16.285745022831	-88.4310283173391	-128.940302917396
6760	1647952123268	9.72241378503396	0.102259401093394	0.234512971919697	0.0172715851059569	-0.0302330896599728	-0.086970382061228	0.0015007216315109	0.0030645752220909	7.5554135914164E-05	0.539306640625	0.44091796875	0.181640625	0	0	0	-0.579165656372552	-0.389129820958579	-0.597646250919984	0.394922883207067	-0.0172061175959372	-0.0213071047632113	0.999624908054959	0.922789617441647	-0.385227797520323	0.00767241549579567	0.384919824715711	0.922575498972443	0.0262902498385914	16.2690938160251	-88.4306490480282	-128.92190094859
6761	1647952123268	9.76988489132014	0.0781548596118596	0.261963698643501	0.0032617649091897	0.00386019543469757	-0.0389798560890142	0.00151287860449983	0.00153794449506765	6.32914068607814E-05	0.548095703125	0.43896484375	0.184814453125	0	0	0	-0.579115793594701	-0.389200315779066	-0.597663890200404	0.394899843197203	-0.01735802290401	-0.0212506535701353	0.999623483499516	0.922818852528943	-0.385154456080601	0.00783647742434279	0.384842908805696	0.922607421758626	0.026296023613311	16.5945816593103	-88.4276715796045	-129.242740640239
6762	1647952123269	9.7244167070805	0.0782647287381635	0.210283934149579	-0.0157327917150224	-0.0429900835433768	-0.0857901531710734	-0.00461157850871859	0.00454596429768016	-0.000116370653915767	0.54150390625	0.45068359375	0.18408203125	0	0	0	-0.579115292702557	-0.38918556272471	-0.597676087788834	0.394896656873815	-0.0173642162958311	-0.0212739557766031	0.999622880289386	0.922807200068323	-0.38518245631307	0.00783242304091958	0.384870569795215	0.922595195171883	0.026320151049364	16.5720974844331	-88.4264125053857	-129.221991827509
6763	1647952123269	9.72642319530154	0.0543512945376739	0.185980649467828	-0.0468999697401369	-0.0558087005189542	-0.0846075512342423	-0.00456069958855001	0.0045590414214551	-0.00164139186724135	0.547607421875	0.455322265625	0.1865234375	0	0	0	-0.579129805631592	-0.389198092883516	-0.597658296146553	0.394889951470214	-0.0173411889139325	-0.0212260793545315	0.999624297785067	0.9228109428898	-0.385173541447372	0.00782985643087208	0.38486263374078	0.922600019794128	0.0262670254498962	16.5986298670804	-88.4293728298333	-129.247984078448
6764	1647952123270	9.72641481409555	0.0545740780343733	0.186353346264204	-0.0467791352877089	-0.0556260726606333	-0.0846059234333136	7.74869989888891E-05	0.00307948104548617	-0.00302539751859289	0.553955078125	0.44873046875	0.189697265625	0	0	0	-0.579118864748992	-0.389208822474265	-0.597662647508402	0.394888835969418	-0.0173682954371137	-0.021224271510811	0.999623865567667	0.922816957197165	-0.385158599469828	0.00785600176987333	0.384846990144105	0.922606299324515	0.02627566600007	16.6458194267456	-88.4284695881536	-129.294229196866
6765	1647952123270	9.74711237550329	0.078873485117773	0.237469400071866	-0.00576846846709177	-0.0177770768804271	-0.0623815681982176	0.00316629429775686	0.00464191644342396	-0.00443582861836429	0.546875	0.447509765625	0.188720703125	0	0	0	-0.579067222203414	-0.389291990717508	-0.597642433761283	0.394913179699933	-0.0174494653378201	-0.0211812842989011	0.999623363750004	0.9228862110622	-0.384990652924976	0.0079522695916564	0.384677212206133	0.922677381513089	0.0262657962656432	16.8442871852771	-88.4274215475206	-129.482217851044
6766	1647952123271	9.72274210524233	0.0786514929309756	0.236354141767425	-0.00619226303726888	-0.0184450799279527	-0.0867743052029404	0.00295017002879897	0.00611622230452161	0.0016765308904777	0.546142578125	0.4443359375	0.17626953125	0	0	0	-0.579050573173139	-0.389291889482779	-0.597640740429848	0.39494025354381	-0.0174452596772194	-0.0212253876336339	0.999622501664801	0.922904154580264	-0.384948041827358	0.00793262578026926	0.384634351525291	0.922694146515022	0.0263045169815727	16.781680761759	-88.4256227204758	-129.416968269974
6767	1647952123271	9.74910520318121	0.0550935520576512	0.213913095793767	-0.0364199947948304	-0.0297727645496897	-0.0611934513414116	-0.00148407813177468	0.00764794909746521	-0.00303989476697827	0.55078125	0.44189453125	0.187744140625	0	0	0	-0.579049905696861	-0.389356903702663	-0.597581135605076	0.394967333611882	-0.0174040241839524	-0.0211358987504972	0.999625116594323	0.922964212236292	-0.384804013837191	0.00793308677802407	0.384492084279047	0.922756275903229	0.026204816503063	16.8428441187845	-88.4310853909184	-129.469212776644
6768	1647952123272	9.7247395283566	0.0549518198971423	0.212646907519774	-0.0368402274176807	-0.0304366301463819	-0.0855853416927381	-0.0029989770864555	-9.70623739068768E-06	-0.00162756260182337	0.54638671875	0.4482421875	0.18115234375	0	0	0	-0.579057081836798	-0.389361071347385	-0.597579305183855	0.394955473578794	-0.017406139729606	-0.0211098634490199	0.999625629905955	0.922959006470085	-0.384816260018734	0.00794470899081068	0.384504484597343	0.922751764934838	0.0261817041877371	16.8801618319517	-88.4321599493889	-129.507289450385
6769	1647952123273	9.75073020831399	0.055809766585369	0.189857093980866	-0.043823859132449	-0.0514171790473007	-0.0601832843398409	0.00306230878702197	-0.00150383508852546	9.02451777533021E-05	0.54638671875	0.4453125	0.181884765625	0	0	0	-0.579107292409448	-0.389384725685918	-0.597496815127469	0.394983335336102	-0.0172458173699339	-0.0210115013883566	0.999630481024188	0.922993638178627	-0.384735400418542	0.00783680716655316	0.384428570302761	0.922787726659924	0.0260285585614011	16.756257342479	-88.4423518011598	-129.378460444229
6770	1647952123274	9.75072731635817	0.0558085451131214	0.190005959327309	-0.0436906790874551	-0.0512195789541016	-0.0601816470054626	-0.00308681549359329	0.00455711461282367	-6.56839801139667E-05	0.54833984375	0.445556640625	0.188232421875	0	0	0	-0.579104361919594	-0.389375079201972	-0.597504860203428	0.39498497153112	-0.017250020540521	-0.0210332668170145	0.999629950770962	0.922988493971612	-0.384747839922037	0.00783196471783038	0.384440732476888	0.922782044343262	0.0260503714043155	16.7332450784019	-88.4412345340437	-129.356218186248
6771	1647952123274	9.74907238921231	0.0553872594501083	0.215328370016569	-0.0337244105347113	-0.0278697763570784	-0.0611781319966127	-0.00622265481277311	0.0152208168635857	-8.21592127452103E-05	0.55029296875	0.451171875	0.188232421875	0	0	0	-0.579107016182275	-0.389339067046731	-0.597511368846595	0.395006732573906	-0.0172094900594993	-0.0211040561664647	0.999629157370479	0.922979997768956	-0.384769544184937	0.00776669724752754	0.384462946420472	0.922771378338665	0.0261003093592883	16.5714830195637	-88.439564297552	-129.195828902514
6772	1647952123275	9.72632201668723	0.0554294775086315	0.190889612847841	-0.0431391444851315	-0.0512036177971187	-0.0845648182312857	0.0059652616307192	0.0168387005541265	0.000341496790337324	0.5517578125	0.4501953125	0.185791015625	0	0	0	-0.579050494647917	-0.38933103068932	-0.597536290796356	0.395059811132095	-0.0172565405525508	-0.0212404965682942	0.999625456415397	0.923009800178031	-0.38469818834133	0.00775968183693154	0.38438928260745	0.922797998043142	0.0262437463807884	16.4717558711518	-88.4317966846382	-129.091644315478
6773	1647952123277	9.74455577926825	0.127745042641456	0.267746786825653	0.0527746231433691	-0.00857749135518976	-0.0637635376093613	0.0106506143053596	0.00313310206431051	0.000385398499956494	0.55322265625	0.445556640625	0.190673828125	0	0	0	-0.579016057956247	-0.389418765595609	-0.597468764164733	0.39512593622574	-0.0172317983010816	-0.0211913725137385	0.999626925836982	0.923110246711166	-0.384457039047449	0.00776257326652935	0.384149108477634	0.922899621225327	0.026186859261602	16.5114087009026	-88.4348761125765	-129.116339650362
6774	1647952123277	9.74744365889897	0.152986243258138	0.21965178346732	0.0576011045045646	-0.0627324394968577	-0.0619409119187661	-0.0106873753025179	0.00144684632741975	-0.000348737699515258	0.54833984375	0.44287109375	0.187744140625	0	0	0	-0.579037092551859	-0.38939353321152	-0.597482788557262	0.395098771347086	-0.0172260126582265	-0.0211828326614217	0.999627206556693	0.923076029978599	-0.384539274346143	0.00775818047551119	0.384231580387203	0.922865555802025	0.026177443484278	16.5081861581125	-88.435465098845	-129.118225974811
6775	1647952123277	9.77624881279397	0.0808366005920672	0.172160937546678	-0.0262155483750959	-0.0806802278214044	-0.0349566392985743	-0.026138382220044	0.0135199340222086	0.00228388897698465	0.554443359375	0.447509765625	0.186767578125	0	0	0	-0.579127606158649	-0.389182456412782	-0.597561065385612	0.3950556980233	-0.0170844224885501	-0.0213671989123657	0.999625712613912	0.922912416277475	-0.384936022159672	0.00754524517568678	0.384630724707615	0.92269588795796	0.0262964628109305	16.0097757113044	-88.4323331578048	-128.644539118987
6776	1647952123278	9.75516425520125	0.0807520371346135	0.123658500717841	-0.0446251184294224	-0.126690930969595	-0.0573298884645599	-0.0188049651036105	0.0242103021341965	0.00872975792686596	0.554443359375	0.44482421875	0.177490234375	0	0	0	-0.579114661845215	-0.389061037648426	-0.597638788473432	0.395076696265219	-0.0170812250081239	-0.0216044137102299	0.999620668584068	0.922848218729897	-0.385091826104179	0.00744651964372928	0.384784870985435	0.922625349085958	0.0265154348396643	15.6867158490198	-88.4218046271873	-128.331162101217
6777	1647952123279	9.77618513925048	0.0793754012143835	0.176405340835043	-0.0232172037486621	-0.0787509916843995	-0.0349333314183333	-0.0218550332026411	0.0241879008660177	0.00862597604933169	0.546875	0.441650390625	0.185302734375	0	0	0	-0.579181536326739	-0.388983173910504	-0.597571248495405	0.395157489318312	-0.0167986132276928	-0.0216857639470331	0.999623696315599	0.922853253029981	-0.385085298100316	0.00715447824601634	0.384785238757425	0.922626165263605	0.0264816767854177	15.1184992002539	-88.4281160290072	-127.762718006967
6778	1647952123280	9.77026843238983	0.0279275657295468	0.275674269890149	-0.0324320471150656	0.0301720003718531	-0.0385910606943156	-0.0280035812304604	0.0302499389931777	0.00846890809436859	0.544921875	0.45068359375	0.187255859375	0	0	0	-0.579168853341299	-0.388823237968815	-0.597683861508855	0.395163169623176	-0.016819017385379	-0.0219766805192184	0.999616999739173	0.922753916066616	-0.385325117977623	0.00705434896041846	0.38502250718356	0.922519148293892	0.0267598578695425	14.7681521790432	-88.4141904558225	-127.427263837087
6779	1647952123281	9.72107322611392	0.0507839101308047	0.276449212253486	-0.0107443482865847	0.0200779980761991	-0.0875782325967762	-0.0143471148641825	0.0456310155970297	0.00754461936608821	0.54736328125	0.438720703125	0.191650390625	0	0	0	-0.579082752526049	-0.388700985144446	-0.597801935298784	0.395231016024325	-0.0169112193984686	-0.0223596597648269	0.999606950893029	0.922719805312959	-0.385407976240233	0.00698947305772113	0.385100209739846	0.922475331629854	0.0271494197491834	14.4369913438888	-88.3935202219942	-127.101208744197
6780	1647952123281	9.67019274758228	0.0734918473706144	0.301772699097748	0.0199835171556159	0.0322032270436083	-0.137582285930772	-0.0171558564244484	0.0349641809724064	0.00277256313603331	0.54541015625	0.43603515625	0.1875	0	0	0	-0.579023420999375	-0.388580737262322	-0.597918275351076	0.395260198557919	-0.0170025067402693	-0.0226718968251723	0.999598369275829	0.922661288121528	-0.385548772129249	0.00694922380927659	0.385236371811477	0.922408873224872	0.027473777125702	14.1946872410168	-88.3760762592653	-126.867607549311
6781	1647952123282	9.67389639648957	0.0499057207419203	0.254267282132216	-0.0184501481945135	-0.00514058193707423	-0.135340252073107	-0.0212850761834108	-0.00166718040020094	-0.00227892732095748	0.54638671875	0.452880859375	0.186279296875	0	0	0	-0.57918861116623	-0.388339365384448	-0.597986968266546	0.395151459280517	-0.0167917538476217	-0.0227473708861283	0.99960021714708	0.922434321678904	-0.386095723042563	0.00670930972761696	0.385788749436141	0.922178209331586	0.0274661799762744	13.7271238543419	-88.3798165881631	-126.434164193058
6782	1647952123282	9.72223992182581	0.0750400407350633	0.257261406806495	0.00555923413950981	-0.0122261305657456	-0.0867641168721782	-0.0121325413981601	-0.0153694205623099	0.000967671181634284	0.546875	0.439697265625	0.185546875	0	0	0	-0.579266766508712	-0.388337859326325	-0.597951302450143	0.395092343801505	-0.0167041061759502	-0.0225895309586283	0.999605265056128	0.92239439529813	-0.386191493766563	0.00668652861726116	0.385888004943741	0.922141986482245	0.0272874404647778	13.7684908578425	-88.3900784855129	-126.481528525603
6783	1647952123282	9.80165922069029	0.102280685252419	0.16468363423267	-0.00575718828707793	-0.108315926732498	-0.00971128167767432	-0.0106869209010493	0.00144945938696617	-0.000355980148456743	0.54736328125	0.4482421875	0.184814453125	0	0	0	-0.579288243517171	-0.388364408086608	-0.597924191652397	0.395075788287714	-0.016680504863266	-0.0225008710965761	0.999607658812898	0.922400614316883	-0.386176416080761	0.00669943063679029	0.385874160142066	0.922150468450196	0.0271964349086605	13.838430668815	-88.3949676822696	-126.550541228126
