// Start Time : 24/06/2022 04:55:19																																
// Update Rate : 100Hz																																
// Filter Profile : 46.1 human																																
// Firmware Version : 4.4.0																																
PacketCounter	Time_Of_Arrival	Acc_X	Acc_Y	Acc_Z	FreeAcc_X	FreeAcc_Y	FreeAcc_Z	Gyr_X	Gyr_Y	Gyr_Z	Mag_X	Mag_Y	Mag_Z	VelInc_X	VelInc_Y	VelInc_Z	OriInc_q0	OriInc_q1	OriInc_q2	OriInc_q3	Mat[1][1]	Mat[2][1]	Mat[3][1]	Mat[1][2]	Mat[2][2]	Mat[3][2]	Mat[1][3]	Mat[2][3]	Mat[3][3]	Euler_X	Euler_Y	Euler_Z
5843	1656046560012	6.24042953506423	-1.8114315467538	7.35493541789001	1.44253099049196E-14	2.63596653185538E-15	0.00155320055686658	0.0591991441131005	0.0108796372107051	-0.00717201020548552	0.389892578125	-0.599853515625	0.4072265625	0	0	0	0.167289941669401	-0.312011855861937	0.654404741904117	0.668144528520023	-0.0511939288500085	0.770081005146978	0.635888690857701	-0.978866785816198	0.0875370183793084	-0.184816357607023	-0.197987366452424	-0.631911794418399	0.749325354435677	-13.8551096104355	-39.4859282129451	93.803348563598
5844	1656046560012	6.23815364191932	-1.78286429308178	7.35375670930658	-6.90609678818954E-14	-1.58923709695641E-14	-0.00601094976715188	0.0502179042000725	0.00616136992003887	-0.00378312757352555	0.390625	-0.602294921875	0.4150390625	0	0	0	0.169735827508827	-0.310300098274463	0.657291233514936	0.665486162301792	-0.0566358332894542	0.769498353099559	0.636132585994992	-0.980174528926303	0.0783159664086156	-0.182001379801319	-0.189869100255172	-0.633828757617191	0.749807195741505	-13.6435889184481	-39.5040369587479	94.2094355165324
5845	1656046560012	6.23649974725868	-1.75224481584074	7.37634463577667	-0.0511047586245846	-0.0133799626105555	0.00423473300788224	0.0412022551300346	0.00110152300455622	-0.00649075308035668	0.400146484375	-0.6025390625	0.4111328125	0	0	0	0.168642683958218	-0.31109363228866	0.656006417917513	0.666660315863308	-0.0542473367999216	0.769739561331551	0.636048924352095	-0.979594221777433	0.0824304495959189	-0.183304068798019	-0.193526192306391	-0.633013608620506	0.749560794192748	-13.7419012355648	-39.4978247107876	94.0312504782291
5846	1656046560013	6.21547626981419	-1.80188217301431	7.35867646684247	0.00536560911664534	-0.0223711488547074	-0.0132734029183208	0.0351483923515123	-0.000635180704448664	-0.0063476815572108	0.386962890625	-0.59814453125	0.411376953125	0	0	0	0.168771798488848	-0.310975104270696	0.656039385328541	0.666650500228969	-0.0541863811577248	0.76973031353231	0.636065311524462	-0.979665624064399	0.0822568098642947	-0.183000224742186	-0.193181523758798	-0.633047440290718	0.749621129116454	-13.7189216570504	-39.4990414872736	94.0267838461577
5847	1656046560013	6.23847810386558	-1.7757897854611	7.33136995342902	-0.0131912480601465	0.0140387406330954	-0.023884989179054	0.0294445664749444	-0.0133745057656019	-0.0117043709158366	0.388427734375	-0.589599609375	0.412841796875	0	0	0	0.168934510475086	-0.310914214539587	0.656032209045287	0.666644750270288	-0.0540918162152153	0.76963257507054	0.636191617996362	-0.979729137602504	0.0821657437314078	-0.182700868880577	-0.192885697632542	-0.633178087071366	0.749586964735549	-13.6979266923144	-39.5084206807855	94.0202882573127
5848	1656046560014	6.23976652242558	-1.77041091754621	7.35539677398651	-0.0205870120175377	-0.000882427976719138	-0.00603259849877347	0.0231793265980175	-0.00893516192353602	-0.0103780006832569	0.394287109375	-0.595458984375	0.416748046875	0	0	0	0.169057212940778	-0.310859196682492	0.656026097522381	0.666645316461586	-0.0540073615850575	0.769567471963431	0.636277542421886	-0.979779429596036	0.0820988362445044	-0.182461092915079	-0.192653767767692	-0.633265889799152	0.749572437181225	-13.6808807077887	-39.5148019311018	94.0143703006602
5849	1656046560014	6.26691668282369	-1.79050153707991	7.35735310461712	-0.000397674378261345	0.0159264476488769	0.0163782458190678	0.0218001322533506	-0.0137296069262037	-0.0131549082390276	0.39404296875	-0.595703125	0.408447265625	0	0	0	0.169195736354348	-0.310822088630407	0.656004408612326	0.666648819019529	-0.0539043097987537	0.769469584223988	0.636404654555011	-0.97982867286806	0.0820620373614033	-0.182213045223745	-0.192432058687566	-0.633389596518808	0.749524864037883	-13.6638144022141	-39.5242430965939	94.0072434820552
5850	1656046560015	6.29254819582966	-1.78637118466441	7.35636861355495	-0.00330240301935111	0.035104600919713	0.0312041499819404	0.0187282954116979	-0.014010753635069	-0.016173975693893	0.385009765625	-0.5908203125	0.414794921875	0	0	0	0.169329252361105	-0.310793674677993	0.655967743210165	0.666664245285992	-0.053772776704175	0.769367559774751	0.636539116199286	-0.979873402061891	0.082067848325184	-0.18196973430472	-0.192241006076172	-0.633512767225349	0.749469792149958	-13.6472168533808	-39.5342315391324	93.9980254405214
5851	1656046560015	6.2671521671525	-1.76715249093611	7.30505159933574	-0.00868078821357307	0.0481127578201075	-0.0269113408111412	0.0187461501271531	-0.0138370280037734	-0.0131253892605941	0.390625	-0.596923828125	0.409912109375	0	0	0	0.169458652642731	-0.310767625786774	0.655940945281086	0.666669876408944	-0.0536700818667878	0.769267611542601	0.636668566951404	-0.97991666414583	0.0820504826965301	-0.181744462415161	-0.192049091749276	-0.633636378470182	0.749414495614724	-13.6319210195962	-39.5438491070727	93.9909315175391
5852	1656046560016	6.31729056676826	-1.75887726804633	7.3278366842327	-0.0218859434322696	0.0715477792619841	0.0205929313569637	0.0171814304296781	-0.0121945674928017	-0.0101478085211485	0.39453125	-0.590576171875	0.41015625	0	0	0	0.169571685837679	-0.310743324223139	0.655923479388974	0.666669647576055	-0.0535940487259708	0.769182010979571	0.636778385253913	-0.979955088384859	0.0820196650968582	-0.181551092770109	-0.191874184531895	-0.633744276915241	0.749368059625841	-13.6187699339065	-39.552009123583	93.9857379754664
5853	1656046560016	6.26990572573393	-1.75781973647697	7.35259962391387	-0.0234442437895653	0.0181773370404497	0.00879363218057172	0.0125441098284883	-0.010834465201887	-0.0101884507921377	0.39111328125	-0.596435546875	0.40625	0	0	0	0.16966895413507	-0.310731813602294	0.655898108305534	0.666675226432904	-0.0535131769266958	0.769098956082221	0.636885496497174	-0.979985123403799	0.0820202350478689	-0.181388640630921	-0.191743312275691	-0.633844994297448	0.749316372036282	-13.6079408014139	-39.5599689175339	93.9801713486755
5854	1656046560017	6.24622485434355	-1.76079484008554	7.32838999159793	-0.0131438945962176	0.0139207424845422	-0.0238847569633389	0.00941584927123315	-0.00959490260540288	-0.0132929244193058	0.39990234375	-0.595458984375	0.41455078125	0	0	0	0.169752459040213	-0.310721639471693	0.655860284276506	0.666695922383334	-0.053401299454472	0.76902722960599	0.636981492149584	-0.980010279115295	0.0820627803170824	-0.181233421076224	-0.191645907978583	-0.633926510102841	0.749272330827649	-13.5974980729869	-39.5671034511326	93.9722461207182
5855	1656046560017	6.2735481246667	-1.77903740591302	7.35448193920426	-0.000304626517755253	0.0156950963228287	0.0163786212888173	0.00943420389076007	-0.00942026748214602	-0.0102442867843845	0.393310546875	-0.591064453125	0.41064453125	0	0	0	0.169836440734771	-0.310715387933992	0.655830507665228	0.666706739365324	-0.0533154141668038	0.768951647547113	0.637079924614488	-0.980034829820045	0.0820838572282275	-0.181091061960913	-0.191544248025926	-0.63401546047168	0.749223062199146	-13.5880736827153	-39.5744198544657	93.9662665324904
5856	1656046560019	6.24808185672472	-1.75441292060386	7.35217052605564	-0.0204849937721233	-0.00111535971108409	-0.00603240858968945	0.0290480388779414	-0.00279844747022388	-0.0138404303314142	0.40087890625	-0.592529296875	0.422607421875	0	0	0	0.169963949911116	-0.310617706628569	0.655827113512426	0.666723100875752	-0.0531851249784658	0.76892254885695	0.637125934443385	-0.980097798180646	0.0820061058251415	-0.180785244444468	-0.191258067757873	-0.63406081133179	0.749257792118839	-13.5653699646351	-39.5778399916541	93.9567540731063
5857	1656046560018	6.29461970368945	-1.72897712176071	7.30052326766469	-0.0345162414813435	0.0693259173124358	-0.0196673778510767	0.0426543643365881	0.00252192047862289	-0.00966756603966999	0.395263671875	-0.603271484375	0.41552734375	0	0	0	0.170119538316173	-0.310462945432784	0.655860660411382	0.66672250323582	-0.0530808927241089	0.768922496684141	0.637134689779673	-0.980185748449358	0.0818122736156756	-0.180395815978656	-0.190835838783974	-0.634085913720579	0.749344204392584	-13.5357217355833	-39.5784908380342	93.9490244488265
5858	1656046560019	6.27355409225835	-1.77528880898983	7.30774166565012	0.014558266239826	0.0454134081262396	-0.0193251316338294	0.0485680604976876	0.00909349677699609	-0.00550530832934223	0.390380859375	-0.60107421875	0.414794921875	0	0	0	0.170260165927537	-0.31026866943968	0.655925415356487	0.66671334031342	-0.0530095954928987	0.768975659055751	0.637076462102827	-0.980281239619414	0.0815466507754949	-0.179996763852922	-0.19036458188409	-0.634055659644384	0.749489657324917	-13.5043524226544	-39.5741624757477	93.9434651580112
5859	1656046560020	6.22617159836615	-1.79630472977466	7.33735985621044	0.0361469581500002	-0.0104699884125768	-0.0235425898562713	0.0452809387745597	0.0149855023605881	-0.00734877152249939	0.401123046875	-0.59814453125	0.407958984375	0	0	0	0.170384521304077	-0.310068877038523	0.655979340950734	0.666721464059686	-0.0529032085241792	0.769049138812159	0.636996603303443	-0.980372887554165	0.0813204382916434	-0.179599520224203	-0.189921699330425	-0.633995590212054	0.7496528127841	-13.4728112000403	-39.5682266004796	93.9352009154005
5860	1656046560021	6.24977079472042	-1.79078244113494	7.33842700050151	0.0332426107383103	0.00870726217381952	-0.00871544620455644	0.0455057490179651	0.00889593132731785	-0.00699807699701933	0.392578125	-0.59228515625	0.4140625	0	0	0	0.170517886618905	-0.309883997180715	0.656034122322538	0.666719422983028	-0.0528177227204003	0.769099854391571	0.636942463760657	-0.980462911576669	0.0810857613830393	-0.179213778274817	-0.189480255407347	-0.633964126174185	0.749791117268649	-13.4425361291787	-39.5642027171387	93.9286037275255
5861	1656046560022	6.2493098736253	-1.78992204261924	7.315235154684	0.0406462012616401	0.0233995726657993	-0.0265666092363528	0.0427791348434522	-0.000436592216154085	-0.00796324485437286	0.387451171875	-0.595458984375	0.411376953125	0	0	0	0.170682375206558	-0.309745757263364	0.656069762846488	0.666706501340542	-0.0527399357282028	0.769075669325672	0.636978111107952	-0.980548235565132	0.0808799861448023	-0.178839552592046	-0.189059929412585	-0.634019749449878	0.749850185302386	-13.4144632286029	-39.5668521548318	93.9229589529226
5862	1656046560023	6.26921903478416	-1.70363365130407	7.37975222132107	-0.053699194006128	0.00491185898008204	0.0190626919088892	0.0396864663455188	0.00115488278799953	-0.00497275915106375	0.39794921875	-0.593505859375	0.422607421875	0	0	0	0.170818581555496	-0.309607472442327	0.656115621456811	0.66669072026209	-0.052688991423567	0.76907897392534	0.63697833718951	-0.980625811051662	0.0806666069514219	-0.178510272035575	-0.18867137801489	-0.634042924721103	0.749928450406485	-13.3893076428917	-39.5668689583407	93.9191645857794
5863	1656046560026	6.24818419799313	-1.75359896339002	7.36236398174649	0.00279548140768943	-0.00433556110146226	0.0015518447816536	0.0335771195379791	0.000935786252873531	-0.00491143951327866	0.388916015625	-0.5966796875	0.4228515625	0	0	0	0.170944634217289	-0.309497755954965	0.656147771370034	0.666677713154786	-0.0526375176300432	0.769064230051581	0.637000393871869	-0.980692152782755	0.0804960683169097	-0.178222569995627	-0.188340630794509	-0.634082481259882	0.749978142182316	-13.3676496450474	-39.5685083405521	93.9154225539637
5864	1656046560027	6.31892245485988	-1.72735494098576	7.31011467907265	-0.0142120541961452	0.0854083100675209	0.00275025805071927	0.0290601610504886	-0.000661028682742912	-0.00325218110818546	0.38916015625	-0.59130859375	0.41162109375	0	0	0	0.171048702708227	-0.309401835656527	0.656181330091213	0.666662513895848	-0.0526068677358028	0.769057424971071	0.637011141632463	-0.980748555389444	0.0803368066831193	-0.177983899815345	-0.188055280618618	-0.634110932399706	0.750025690788408	-13.3495733960602	-39.569307191306	93.9131842762273
5865	1656046560028	6.27234028223686	-1.74981547186306	7.33871916322046	0.00732463006600787	0.029408706224868	-0.00146996834041069	0.0305405247898361	0.00100614532010667	-0.0018327947815167	0.3916015625	-0.590576171875	0.408935546875	0	0	0	0.171163415081392	-0.309307280455405	0.656217451654314	0.666641393658746	-0.0525846751968012	0.769039252163475	0.637034913145496	-0.980807613892615	0.0801634829639861	-0.177736435570645	-0.187753232900854	-0.634154905863643	0.750064183189913	-13.3310159050095	-39.5710740935657	93.9116307451025
5866	1656046560029	6.27341712588932	-1.77735661998195	7.29380368869804	0.0452000358311535	0.0568881238530447	-0.0295870674417777	0.0319557746439238	0.00410545653858806	-0.00202733785211512	0.39013671875	-0.600341796875	0.41015625	0	0	0	0.171259589839739	-0.309187003978487	0.656263624749711	0.66662703537218	-0.0525570971976453	0.769063670208734	0.637007710078322	-0.980868628149268	0.0799764154365898	-0.17748382260501	-0.187441953272819	-0.634148913220692	0.750147098917462	-13.3113247702599	-39.5690521325579	93.9094619105494
5867	1656046560030	6.29387218079455	-1.72483019400007	7.28842236495199	-0.00392480318606594	0.0803331648755482	-0.029922035377318	0.0335012696379667	0.00434143745916679	0.00100540051069776	0.389892578125	-0.591552734375	0.41552734375	0	0	0	0.171369582121557	-0.309080948143622	0.656315300207727	0.666597075099616	-0.0525616115842394	0.769061573072981	0.637009869476274	-0.980929864773409	0.0797653860734471	-0.177240186132194	-0.187119954529944	-0.634178034945287	0.750202867636245	-13.2927480146347	-39.5692126350416	93.909807300416
5868	1656046560030	6.32007467266913	-1.73901211434798	7.34029349868952	0.00146499506820225	0.0672901888164634	0.0281908943717575	0.0348603560699456	0.00896291182637749	0.000719872888800978	0.390869140625	-0.59228515625	0.411865234375	0	0	0	0.171455233990063	-0.308937318901626	0.656379234045048	0.666578680158407	-0.0525519317913781	0.769118966425186	0.63694137088907	-0.980994647627351	0.0795388077036974	-0.176983274338466	-0.186782750251421	-0.634136888655855	0.750321671454575	-13.2721351825641	-39.5641214926329	93.9087986988182
5869	1656046560031	6.2718891570833	-1.77035803411472	7.29681916487885	0.0451277082827836	0.0557570560288395	-0.0295802218370174	0.0303130977852029	0.00916289027529573	0.00686232164746787	0.39453125	-0.59423828125	0.419921875	0	0	0	0.171537570631354	-0.308836087800923	0.656446696333747	0.666537971616189	-0.0526039885113406	0.769139314447565	0.63691250212555	-0.981047283346212	0.0793051934688042	-0.176796250321927	-0.186491415973274	-0.634141467860292	0.750390265467428	-13.2574364973906	-39.5619759400976	93.9125554532296
5870	1656046560032	6.29566032301864	-1.76370889603167	7.32178101272882	0.0348280281440939	0.0600052286360044	0.00309946031568487	0.0317025578709867	0.0119879759151744	0.0020934764697459	0.394287109375	-0.597412109375	0.410400390625	0	0	0	0.171600646842408	-0.308693882331681	0.656512891826751	0.666522413636284	-0.0526021802474579	0.769216974718585	0.636818856848635	-0.981105254256227	0.0790880817370876	-0.176571672127699	-0.186186709257234	-0.634074381387496	0.750522610028523	-13.2389369550623	-39.5550165954979	93.9120276045356
5871	1656046560033	6.24850070980241	-1.78333469035372	7.37534284224229	0.0487759877987171	-0.0114123499449026	0.0167183113197566	0.0318152184514891	0.0089435502833476	0.00227471021470247	0.398193359375	-0.600830078125	0.415771484375	0	0	0	0.171697008989959	-0.308595397034292	0.656564448543269	0.666492417767991	-0.0526159883233593	0.769220640142509	0.636813288610959	-0.981160266777936	0.078886524025949	-0.176356024063122	-0.185892680514874	-0.634095042644123	0.750578036066299	-13.2223943826235	-39.5546028082084	93.9130327340354
5872	1656046560034	6.21985807916778	-1.73471716505075	7.37110340733719	0.00551077075326535	-0.0258462822228823	-0.0132820330640531	0.0241044402790766	0.0100084652156165	-0.000788726711912475	0.39501953125	-0.6005859375	0.409423828125	0	0	0	0.171745716641461	-0.308482254987193	0.65660757169462	0.666489762837076	-0.0525896096973789	0.769283437563653	0.636739605837525	-0.98120546137945	0.0787398112172104	-0.176170044810741	-0.185661454025917	-0.634037092621345	0.750684214346655	-13.2071367499375	-39.5491275209042	93.9107587800305
5873	1656046560035	6.24522840622904	-1.75837434988818	7.35012164923666	0.0327928361388069	0.0051134400748843	-0.00871139834537793	0.0212739814620695	0.00381035088229103	-0.000393979204708502	0.394287109375	-0.59814453125	0.424072265625	0	0	0	0.17181986025467	-0.308435929774526	0.656630213194842	0.66646978623632	-0.0525919193123601	0.769257558945794	0.636770679309121	-0.981239232351307	0.0786293974835238	-0.176031209579424	-0.185482233428594	-0.634082191719761	0.750690425692379	-13.1969875352389	-39.5514365043243	93.911061158013
5874	1656046560036	6.197987038157	-1.78466798656479	7.35461799317361	0.0616859223877249	-0.0356029546638686	-0.0307951067179157	0.0166435980318207	0.00526051605626526	0.00108401054182202	0.39111328125	-0.591064453125	0.412109375	0	0	0	0.17185638247857	-0.308364812381642	0.656663938335135	0.666460050097832	-0.0525927708499506	0.769291640201363	0.636729434509369	-0.981269484759731	0.0785157117831395	-0.175913277732409	-0.185321878723742	-0.634054930837608	0.750753052572428	-13.1873936168317	-39.548371734435	93.9109515536941
5875	1656046560037	6.19934416351165	-1.81064438784112	7.33372295911707	0.0918405900490089	-0.0236571461651313	-0.0410549940154539	0.0153321842412655	-0.00097509113773879	-5.92525628936715E-05	0.391845703125	-0.59130859375	0.422607421875	0	0	0	0.171920972352764	-0.308349142850933	0.656680347900814	0.666434472434644	-0.0526165464320768	0.769245473496806	0.63678324455519	-0.981292211349101	0.078428199892293	-0.175825519783806	-0.185194748810953	-0.634121769825267	0.750727970736751	-13.1814695470948	-39.5523702147009	93.9129481791028
5876	1656046560038	6.2223119844592	-1.78060002919971	7.35471743688126	0.058454015074618	-0.017046076238325	-0.0159601582895856	0.0153799944144499	-0.00258965932204858	-0.0014917995076087	0.3896484375	-0.593017578125	0.413330078125	0	0	0	0.171983050475173	-0.308306029275104	0.656696819075391	0.666422171358469	-0.052606639742235	0.769227817395602	0.636805391308702	-0.981321462974084	0.0783422363310352	-0.175700541584413	-0.185042502580987	-0.634153813322486	0.750738445323746	-13.1722494604132	-39.5540159475322	93.912303252018
5877	1656046560038	6.24483000867822	-1.75630982462547	7.32719818063242	0.0393423113808582	0.0189711957922509	-0.0265516937387709	0.0168992895282405	-0.00262749206778495	-0.00303102187617138	0.38720703125	-0.595703125	0.421142578125	0	0	0	0.172051675509508	-0.308288980157717	0.656709915999538	0.666399438696916	-0.0526200181176117	0.769178967663077	0.636863289409953	-0.981345509972088	0.0782606143645009	-0.175602580553115	-0.184911123924237	-0.634223140498716	0.750712251335371	-13.1656045437171	-39.5583185597133	93.9135428544631
5878	1656046560040	6.2697473301186	-1.75020246371278	7.35102529212744	0.0290401225118183	0.0232111495420849	0.00612778240848044	0.0122912363675298	-0.00306970129808008	-0.00755780510311456	0.388671875	-0.594970703125	0.419921875	0	0	0	0.17211440785988	-0.308252267458989	0.656701044026531	0.666408965266749	-0.052551443238287	0.76915361350829	0.636899571864131	-0.981372239448967	0.0782407387630153	-0.175462002828924	-0.184788726529766	-0.634256340626531	0.750714340426869	-13.1553962297044	-39.5610149729329	93.9085869457283
5879	1656046560042	6.22096194670497	-1.75536079855655	7.32792095179569	0.0416190254646023	-0.000610154665112096	-0.0413848947891608	0.0152678614030149	0.000455143340346496	-0.00167578789546378	0.391357421875	-0.603759765625	0.412109375	0	0	0	0.172160049862982	-0.308233863836139	0.656720621502366	0.666386395201288	-0.0525801790436175	0.769128260499643	0.63692781668925	-0.9813904899696	0.0781578850494444	-0.175396839201356	-0.184683596913667	-0.634297299304823	0.75070560483164	-13.150828066017	-39.5631141240141	93.9108460915362
5880	1656046560044	6.24562003863482	-1.74916685654023	7.3519855898894	0.0313148188735807	0.00363224613993304	-0.00870590535719628	0.0182979228558448	0.000286106459647436	-0.00627832610598347	0.392333984375	-0.59228515625	0.41015625	0	0	0	0.172229718785655	-0.308167183295442	0.65672830930541	0.666391655757802	-0.0525181702067785	0.769125436206225	0.636936343113435	-0.981427625477991	0.0780897034477433	-0.175219331593506	-0.184503814992436	-0.6343091214826	0.750739822213534	-13.1374027989794	-39.5637478190405	93.9062625405273
5881	1656046560045	6.26977147527643	-1.74875316760271	7.32759537376184	0.0348905769873825	0.037204796476642	-0.0117065842889943	0.0167788106678019	0.000324262412945079	-0.00473916712449549	0.388916015625	-0.5986328125	0.41015625	0	0	0	0.172278250996137	-0.308156453609141	0.656736679025345	0.666375823957855	-0.0525269309564032	0.769089581495809	0.63697891421844	-0.981444200939629	0.0780342773129467	-0.175151169011852	-0.184413128508449	-0.634359414842129	0.750719608665498	-13.1328106753855	-39.566911846027	93.9070937156481
5882	1656046560047	6.27007863492745	-1.74418563832293	7.3521727086204	0.0274869080478127	0.0222744706094895	0.0061344229235285	0.0198426289106126	0.00052715482675527	-0.0032455848535216	0.391845703125	-0.5947265625	0.414306640625	0	0	0	0.172347479316005	-0.308086766566301	0.656757003952424	0.666370113675258	-0.0524944359476858	0.769090523504957	0.636980455625922	-0.981482434018239	0.0779331682657093	-0.174981864768046	-0.184218799008593	-0.634370702301849	0.750757781280281	-13.1199115855974	-39.5670264112976	93.9046793613062
5883	1656046560047	6.24571369094012	-1.74428453052809	7.35306591975041	0.0294820641476884	0.0025661700154383	-0.00869988567415092	0.0182503366496126	0.00190102126596679	-0.00484691087605583	0.392822265625	-0.605712890625	0.405029296875	0	0	0	0.172396948816258	-0.308065719837943	0.656769785503588	0.666354450085798	-0.0525020777793974	0.76906375823453	0.63701214085685	-0.981502118774313	0.0778654817768313	-0.174901565428094	-0.184111712474742	-0.634411461527803	0.750749608599149	-13.1142368015782	-39.5693814613062	93.9053815142802
5884	1656046560048	6.29253600746282	-1.71506856915535	7.34956424942069	0.000572361287144253	0.0432757288621402	0.0133846384180902	0.0167311662833994	0.0019395065089541	-0.00330776244939363	0.392578125	-0.593505859375	0.4130859375	0	0	0	0.172451139673366	-0.308001671118667	0.656786319744763	0.666353738797641	-0.0524665984315237	0.769073561094702	0.637003228935411	-0.981534517917563	0.0777846692429739	-0.174755644736009	-0.18394903148797	-0.634409491461056	0.750791150026931	-13.1029732541117	-39.5687190619412	93.9027009397329
5885	1656046560049	6.26951291969444	-1.74264281443412	7.3292721116347	0.0328789139345623	0.0359638630524441	-0.0116949973525866	0.015099150678753	0.00502222157313431	-0.00195401948608329	0.394775390625	-0.598388671875	0.409912109375	0	0	0	0.172473763719291	-0.307995551552701	0.656802505503202	0.666334758073572	-0.052501582023073	0.769058373242998	0.637018682952006	-0.981542981183371	0.077726539186436	-0.174733972643444	-0.183893882374415	-0.634435027131174	0.750783082104499	-13.1015402932133	-39.5698677218284	93.9053720122551
5886	1656046560050	6.22275463119194	-1.7660915360887	7.35784050948618	0.0543634770057045	-0.0196808465013501	-0.0159415440683137	0.0168608951135401	-0.000917351674626976	-7.39512760421353E-05	0.389892578125	-0.593017578125	0.414794921875	0	0	0	0.17253261572873	-0.307943815112155	0.656827441096558	0.666318854503248	-0.0525033612865629	0.769052312477948	0.637025853263378	-0.981573720153086	0.0776204182646997	-0.174608426409623	-0.183729227284187	-0.63445536591689	0.750806206487947	-13.0920618848898	-39.5704006802915	93.9055346379433
5887	1656046560051	6.22275444367087	-1.764977161005	7.35810805748397	0.0534280961101315	-0.0203172701360241	-0.0159376973615561	0.0106207111218509	0.00171923141527022	-0.00324716840162155	0.390869140625	-0.599609375	0.4169921875	0	0	0	0.172557204737165	-0.307953942707843	0.656831769222877	0.666303539840166	-0.0525272077795208	0.769019322742455	0.637063712427276	-0.981578008908273	0.0775920760656824	-0.174596913373312	-0.18369949610861	-0.634498818738501	0.750776760527981	-13.0917241367817	-39.5732147629465	93.907470096775
5888	1656046560052	6.1963399682087	-1.74442261406533	7.3316684854191	0.0406486125704745	-0.0221789686650019	-0.0562096329334594	0.0137242521726681	0.000213286847073083	-0.00470849539154188	0.3876953125	-0.594970703125	0.424560546875	0	0	0	0.172608992370466	-0.307904917047829	0.656837337636928	0.666307293744151	-0.0524814521123952	0.769016702786874	0.637070646018933	-0.981605332697025	0.0775416952777704	-0.17446563075349	-0.183566522015693	-0.634508153082571	0.750801395621244	-13.0818044454646	-39.5737301512052	93.9040901478116
5889	1656046560053	6.2249981842175	-1.78363913805623	7.38576141357255	0.0681204912806422	-0.0378710338854199	0.0095001660910512	0.0153649654818207	-0.00277575764552502	-0.00453744715031519	0.391357421875	-0.596435546875	0.422119140625	0	0	0	0.172652333010795	-0.307900046009656	0.656849089821819	0.666286730149588	-0.0525063302649988	0.768980341962829	0.637112485324871	-0.981618987073622	0.0774808902123569	-0.174415813126157	-0.183486374149855	-0.634559646783997	0.750777467146363	-13.0785999279216	-39.5768402349812	93.9061192223453
5890	1656046560054	6.2247666474217	-1.78812944889128	7.33742117514109	0.0829189672329832	-0.00799768591028448	-0.0261692631741752	0.0168844203722992	-0.00281481818852914	-0.00607668281799104	0.385986328125	-0.603271484375	0.41455078125	0	0	0	0.172726582848399	-0.30784927403073	0.656852591206543	0.666287494615889	-0.0524530041919947	0.768957828382547	0.637144050054956	-0.981652840925301	0.0774204020055313	-0.17425206241703	-0.183320435998066	-0.634594310975524	0.750788704112535	-13.0665537273853	-39.5791866605895	93.9022782766176
5891	1656046560055	6.24580071749356	-1.736528856097	7.33108451333165	0.0325006694007435	0.0157921268164203	-0.0265209339972348	0.0153651581753644	-0.00277569551048693	-0.00453753159602693	0.3955078125	-0.5908203125	0.41259765625	0	0	0	0.17275238503634	-0.307854176927307	0.65686824996417	0.666263102236403	-0.0525001841251611	0.768929069348267	0.637174871583958	-0.981659242578633	0.0773614313065298	-0.1742421889387	-0.183272644240129	-0.634636348830899	0.750764838425334	-13.0662398450572	-39.5814779155548	93.9059230315881
5892	1656046560055	6.2272254249582	-1.80912423979964	7.34062621717767	0.104631298057854	-0.0104894513919572	-0.0185563532426176	0.0168594995358635	-0.0030980006173546	-0.0106487188185262	0.392333984375	-0.589111328125	0.406005859375	0	0	0	0.172834241376867	-0.307800436200313	0.656856478017593	0.666278308043195	-0.0524030824775593	0.768901535829249	0.637216089836307	-0.981695355373849	0.0773357845880117	-0.174050009076616	-0.1831069255497	-0.634672832742649	0.75077443296516	-13.0521610854844	-39.5845421754249	93.8988603145597
5893	1656046560056	6.22439611880346	-1.75624162987613	7.35880967207242	0.0501015472897293	-0.0213247904063975	-0.0159222615810659	0.0124800204633344	-0.00745170359534106	-0.00422619485422117	0.39306640625	-0.596435546875	0.41796875	0	0	0	0.172897247074634	-0.307835071038207	0.656854179243764	0.666248225665867	-0.0524396875021951	0.768808190213674	0.637325698395293	-0.981703535555795	0.077298258328027	-0.17402053768652	-0.183052581112433	-0.63479047403047	0.75068822198583	-13.051474046021	-39.592691387655	93.9020476199809
5894	1656046560059	6.2247611051861	-1.75789113738973	7.33437470697506	0.0574924102500031	-0.00638970825321078	-0.0337539862700371	0.0123896446687892	-0.00630805592342762	-0.0104157726838839	0.38427734375	-0.59228515625	0.4248046875	0	0	0	0.172974611021166	-0.307807213687168	0.656833175930683	0.666261721953941	-0.0523502036020913	0.768759939550012	0.637391254666928	-0.981731271778199	0.0772999258777772	-0.173863255094484	-0.182929402217301	-0.634848703867584	0.750669006288437	-13.0404036238551	-39.5975658444729	93.8956533619344
5895	1656046560060	6.24998536641715	-1.75152496703425	7.35796775023261	0.0460483268078548	-0.00204617871626189	-0.00107580582212208	0.0154621320274757	-0.00600805985328415	-0.00739875810791374	0.40087890625	-0.60693359375	0.41552734375	0	0	0	0.173017623804365	-0.307802581741236	0.656842724923274	0.666243279322118	-0.0523695892224033	0.76872355951608	0.637433537845009	-0.981744644690951	0.0772450731369199	-0.173812114930783	-0.182852067927373	-0.634899431186546	0.750644945053042	-13.037102562986	-39.6007100052216	93.8972753658456
5896	1656046560061	6.25230644209102	-1.77430244719638	7.36086631567532	0.0691077349195352	-0.00441456348659354	0.00653065377675688	0.0108306729100719	-0.00455744258126519	-0.00592235887321129	0.397705078125	-0.599609375	0.414794921875	0	0	0	0.173077062657515	-0.307777443018292	0.656836105722943	0.66624598022779	-0.0523212484243165	0.768690398633079	0.637477496083305	-0.981767261792466	0.0772213212011327	-0.173694879672594	-0.182744440779594	-0.634942468733404	0.750634751901938	-13.0287800970459	-39.6039788741406	93.8938564335011
5897	1656046560062	6.25098288851419	-1.74891842481864	7.35774037300466	0.0439708806560624	-0.00279900814886581	-0.00106646167063396	0.0124153813230103	-0.00602399137681984	-0.00584391454472512	0.386962890625	-0.59375	0.41650390625	0	0	0	0.173099034386168	-0.307850287066057	0.656825927488092	0.666216650968234	-0.0523841965344926	0.768599564507163	0.637581842113493	-0.98175391421372	0.0772328505479675	-0.1737651827101	-0.18279810688154	-0.635051018608454	0.750529850095845	-13.0356330123006	-39.611738981751	93.898986037939
5898	1656046560063	6.25240320336933	-1.78055924203392	7.28810097798426	0.0892765800080576	0.0396383424578707	-0.0469405361966757	0.0214679639549284	-0.00264728731595104	-0.00612553339810617	0.396728515625	-0.586181640625	0.41796875	0	0	0	0.17318791348007	-0.307784256859803	0.656836357060641	0.666213777924912	-0.0523302974548713	0.768577835336486	0.637612461451127	-0.981795888326739	0.0771438933354502	-0.173567431811838	-0.182587988742395	-0.6350881283338	0.750549595707357	-13.0209729422526	-39.6140162756671	93.895096432678
5899	1656046560064	6.25307594498609	-1.77213524381642	7.33701091817423	0.073563034082045	0.00957786428788619	-0.011276882821825	0.0319913555151975	0.00230709670687495	-0.00651758885103025	0.392822265625	-0.595947265625	0.406982421875	0	0	0	0.173275994250981	-0.307700440678495	0.656874975007422	0.666191515880826	-0.0523285879694822	0.768574871108686	0.637616174811608	-0.981843270268811	0.0769813940506658	-0.173371444009282	-0.182333517239611	-0.635111433112555	0.750591737245188	-13.006064792685	-39.6142924596034	93.8949845581816
5900	1656046560065	6.27761844176802	-1.7644625776664	7.3614865219208	0.0632018549744712	0.0137998116575849	0.0213921380056838	0.0319174919412199	0.00363821473268898	-0.00966011535386989	0.3955078125	-0.592041015625	0.41455078125	0	0	0	0.173384684742501	-0.307575799067009	0.656895109227147	0.666200941457222	-0.0522281133965095	0.768590414500227	0.637605676660277	-0.981906146322853	0.0768531331403959	-0.173071995828064	-0.182023470971318	-0.635108156666936	0.750669757850069	-12.9830587240178	-39.6135116546679	93.8874504897428
5901	1656046560066	6.27724912587195	-1.76456223492526	7.33805707636723	0.069047387816946	0.0280900547654781	0.00357775039509889	0.0319178438458027	0.00363817014204029	-0.00966032380224437	0.387451171875	-0.596435546875	0.4208984375	0	0	0	0.173462020301741	-0.307526804475374	0.656915992756203	0.666182835641339	-0.0522227140194062	0.768563876062472	0.637638107826279	-0.98194075926742	0.0767446119479399	-0.172923711000787	-0.181838206738218	-0.635153393243545	0.750676384084007	-12.9722008658489	-39.6159237662917	93.8871836425701
5902	1656046560067	6.25310164435059	-1.76045140397149	7.36351608526209	0.0645278974576764	-0.00602328769373891	0.00656096356984825	0.0273263158884915	0.0033751733527991	-0.0111376706079225	0.394775390625	-0.598876953125	0.4091796875	0	0	0	0.173558549614798	-0.30741736024885	0.656923592590976	0.666200712976655	-0.0521080797700101	0.768576109168186	0.637632741034033	-0.981995753852987	0.0766576467059475	-0.172649774445872	-0.181573917282705	-0.635149092432161	0.750743992946474	-12.9512174049091	-39.615524598091	93.8786153996665
5903	1656046560067	6.25312938399937	-1.75795255481036	7.36408948774737	0.0625739089820816	-0.00621824052775441	0.00657348839757965	0.0244024690626386	0.000411999848793017	-0.00786853845323818	0.395751953125	-0.609130859375	0.41650390625	0	0	0	0.173590488054917	-0.307402655226364	0.656947432806617	0.66617566793259	-0.0521526438228472	0.768560435792853	0.637647989313999	-0.98200914359334	0.0765728259713016	-0.172611251724338	-0.181488687364698	-0.635178289031251	0.750739900033274	-12.9484932619836	-39.6166587319487	93.8820012677204
5904	1656046560069	6.22739308686301	-1.73038859697693	7.38612087494105	0.0349720694967979	-0.0379546929499341	0.00193372110792289	0.0198765854207269	-0.00127738402237132	-0.00772653529429854	0.394287109375	-0.5927734375	0.419189453125	0	0	0	0.173671901626793	-0.307336430815357	0.656950999056943	0.666181487071725	-0.0520805937364777	0.768545782212231	0.637671539587463	-0.982048591727808	0.0765069108468354	-0.172415939164866	-0.181295822460101	-0.63520396191811	0.750764777758021	-12.9339206254802	-39.6184103865179	93.8767282464715
5905	1656046560069	6.22913224019863	-1.75866930176721	7.34083579998074	0.0706633148488004	-0.0107752192997147	-0.0260757620980261	0.0184957901515055	-0.00618810787593344	-0.011996047780447	0.392822265625	-0.5927734375	0.416259765625	0	0	0	0.173704641810816	-0.307375027396522	0.656941363522427	0.666164645444096	-0.0521027251474365	0.768477282945952	0.637752280770691	-0.982047159087962	0.0765094846133407	-0.172422956973437	-0.181297223805202	-0.63528652146902	0.750694579892728	-12.9355981920028	-39.6244162016575	93.8787152665658
5906	1656046560070	6.2767043295446	-1.72889353595081	7.33665699002286	0.0416883729900332	0.029913116721576	-0.00401809493870076	0.0170256398273684	-0.00776594573819934	-0.0118848241182797	0.389404296875	-0.59521484375	0.414794921875	0	0	0	0.173804024659206	-0.307336498481809	0.656921064955635	0.666176517246561	-0.0520020177630101	0.768418133594481	0.637831766308131	-0.982083415037706	0.0764937508596329	-0.172223320103003	-0.181129666417328	-0.635359959426622	0.750672875426406	-12.9214849322158	-39.630329126614	93.8715381469714
5907	1656046560073	6.2326565461265	-1.77578877718682	7.36785681348056	0.0847385202699375	-0.0282072214356529	-0.000614652240473745	0.0169852525279886	-0.00605074813912459	-0.00893298687788786	0.39208984375	-0.596923828125	0.417236328125	0	0	0	0.173846948897036	-0.307348116584415	0.656925055776882	0.666156021277106	-0.0520267873508941	0.768366098232236	0.637892430183424	-0.98209222750204	0.0764534189034634	-0.172190973683446	-0.181074763780121	-0.635427740837101	0.750628747182408	-12.9198735047194	-39.6348422491577	93.8736381395571
5908	1656046560077	6.2295587780552	-1.72566885075864	7.36167345752026	0.0385557403583934	-0.0234640381382713	-0.0158749090481329	0.0185217819600534	-0.00589780829233516	-0.00742499753549639	0.40234375	-0.59033203125	0.412109375	0	0	0	0.173938160406159	-0.307302441877542	0.656923592637044	0.666154726026514	-0.0519667946941217	0.768322268889966	0.637950110413811	-0.982128754603967	0.0763938195827207	-0.17200899310682	-0.18089378549104	-0.635487903470504	0.750621451141242	-12.9067978292576	-39.6391336748924	93.8694050294822
5909	1656046560078	6.20750445089281	-1.74902897389914	7.36547810815034	0.0630590504593026	-0.0456979040641004	-0.0230798152569989	0.0335927022224246	-0.00115841744030011	-0.0139670415806062	0.387451171875	-0.5986328125	0.415283203125	0	0	0	0.174047034097954	-0.307259561327575	0.656925677276388	0.6661440132805	-0.0519195669845099	0.768258983481201	0.638030166108604	-0.982169444870413	0.0763125689133292	-0.171812611262368	-0.180686303097623	-0.635574170436685	0.750598383788983	-12.8929378318736	-39.6450902829128	93.8662166488576
5910	1656046560071	6.28034407212265	-1.74327474120953	7.34049657859205	0.0616417091860708	0.026704069874671	0.00363091636215884	0.0379539257598837	0.00519476131294215	-0.0128763046865689	0.3916015625	-0.5869140625	0.418212890625	0	0	0	0.174175154675816	-0.307108734536543	0.656945125339072	0.666160898701094	-0.0517853450708124	0.768280887505965	0.638014698834552	-0.982243732866752	0.0761722355737727	-0.171449817065179	-0.180320623556726	-0.635564527346155	0.750694481330037	-12.8650282271853	-39.6439393880228	93.8561423301524
5911	1656046560073	6.23305025928587	-1.7707522005624	7.32134460987265	0.0965538389076947	0.00123488052579612	-0.0362237525937541	0.0349157944231884	0.00527696562870229	-0.00979726352939601	0.392333984375	-0.590576171875	0.40966796875	0	0	0	0.174231503671631	-0.307007283446959	0.656991960194473	0.666146737047226	-0.0517838156993136	0.768325419833406	0.637961194485559	-0.98228678236583	0.076009894736294	-0.171275138568218	-0.180086405986138	-0.635530129214972	0.750779822077683	-12.8509440089686	-39.6399583635196	93.8558059684802
5912	1656046560077	6.23325200313714	-1.76436792291919	7.34640294550722	0.0890660879382038	-0.0137230927355405	-0.0184064357383988	0.0350152371145267	0.00203785977177742	-0.0126513892624025	0.391357421875	-0.587158203125	0.4091796875	0	0	0	0.174359580468046	-0.306876734860177	0.65700510506876	0.666160414775714	-0.0516580769697113	0.768327789113485	0.637968534929253	-0.982355384095982	0.0758860572251893	-0.170936261970511	-0.179747996988637	-0.635542063749364	0.750850812601127	-12.8251869706451	-39.6405045202538	93.846459817409
5913	1656046560078	6.23336912799739	-1.76122474788998	7.34705773730021	0.0876854294802147	-0.0142560759383358	-0.0183947390699366	0.0304985498322085	0.000444505496691011	-0.0109832088953785	0.39013671875	-0.590087890625	0.41259765625	0	0	0	0.174448607770479	-0.306830834024889	0.657019865889537	0.666143691980212	-0.0516405297638284	0.768286854702606	0.638019250945368	-0.982391701969394	0.075785158146872	-0.170772227561544	-0.17955444741746	-0.635603586125685	0.750845045077066	-12.8133812427232	-39.64427810125	93.8453614286101
5914	1656046560081	6.21150661623308	-1.78129411567783	7.37524359135904	0.106194060242685	-0.050763092599305	-0.00778111264853898	0.0245533442534184	-0.00444542357768215	-0.0121516823830069	0.40087890625	-0.606689453125	0.415771484375	0	0	0	0.174562331376156	-0.306757327762874	0.6570126034792	0.66615491681574	-0.0515312385334724	0.768247803833144	0.638075107930686	-0.982440901037172	0.0757248626680087	-0.170515750425527	-0.179316500703298	-0.635657971773706	0.750855868656603	-12.7945927558208	-39.6484344400309	93.8374419719967
5915	1656046560082	6.23673793681429	-1.77378276853246	7.39904031611266	0.093131024329753	-0.0470088060496206	0.0248997001322841	0.023075480892211	-0.00612232802828976	-0.0135621505607763	0.39306640625	-0.599853515625	0.41357421875	0	0	0	0.174601370613777	-0.30679954208232	0.657004047111371	0.666133683607989	-0.0515605538852844	0.768169810992804	0.638166632441968	-0.982440293197813	0.0757200869181394	-0.170521373260082	-0.179311403944193	-0.635752789939918	0.750776804715738	-12.7963038518715	-39.6552453526946	93.8400071802044
5916	1656046560082	6.25965213825881	-1.74837647616156	7.37122494404585	0.0744986600790206	-0.0105613693086647	0.0142836948898228	0.0230672130340557	-0.00622100710685847	-0.0150860557557536	0.384033203125	-0.594482421875	0.41357421875	0	0	0	0.17472013906099	-0.306735116929631	0.656982972679113	0.666152996434295	-0.0514261166962376	0.768116747143336	0.638241347202989	-0.982487956282672	0.0756924932324478	-0.170258809545219	-0.179088721814201	-0.635820186236798	0.750772882097349	-12.7773123070969	-39.6608058440298	93.8302885201896
5917	1656046560083	6.26021098752445	-1.74888983601037	7.34693663782297	0.0791939197209467	0.0047839379232244	-0.00350594809481031	0.0231845039534452	-0.00926436168337231	-0.014890424797857	0.3896484375	-0.59765625	0.4130859375	0	0	0	0.174742949774855	-0.306757997464137	0.656989886509	0.666129658190255	-0.0514723599666322	0.768073302381568	0.638289901477485	-0.982488491757211	0.0756583810577483	-0.170270881070021	-0.179072498514167	-0.635876726688745	0.750728864991549	-12.7789131081298	-39.6644196351939	93.8339387180247
5918	1656046560084	6.28310590240534	-1.72344207961021	7.31911541763792	0.0605416191431767	0.0412350956638613	-0.014128455203597	0.0244867625456615	-0.00302177415179308	-0.0137751920816684	0.390625	-0.59228515625	0.412109375	0	0	0	0.174853038624466	-0.306680044720511	0.656978496228449	0.666147896902349	-0.051346788672736	0.768041811735561	0.638337906377926	-0.982537562555035	0.0756113407543946	-0.170008421314162	-0.17883916087202	-0.635920357100855	0.750747530108033	-12.759553851604	-39.6679927234251	93.8247696331535
5919	1656046560085	6.25975265680703	-1.71934993390158	7.34387390063486	0.0535596275477423	0.00715901441734706	-0.0111450980692371	0.024704788839021	-0.00930671164971411	-0.0164298351171977	0.3955078125	-0.5966796875	0.416259765625	0	0	0	0.174905399343332	-0.306700161903784	0.656973835305316	0.666129485680498	-0.0513592191751689	0.767972257442058	0.63842058425858	-0.982546314627841	0.0755869620095455	-0.16996867589475	-0.178787500169794	-0.636007250724013	0.750686223937484	-12.7576761814021	-39.6741470151045	93.8260382783956
5920	1656046560086	6.26404529445677	-1.76820983757629	7.3258710425098	0.10702019685816	0.0173116103007153	-0.0136331979275948	0.0215574254004336	-0.00607989181380975	-0.0120232300731514	0.39404296875	-0.599853515625	0.414794921875	0	0	0	0.175012445468663	-0.306644254434713	0.656961230417321	0.666139540097881	-0.0512575140985233	0.767922582069598	0.638488508272469	-0.982588825499733	0.0755451713192749	-0.169741353515861	-0.17858294221872	-0.636072193259463	0.750679890306515	-12.741274907429	-39.6792034838089	93.8187304089744
5921	1656046560087	6.24069873382617	-1.76458723660473	7.35053383377596	0.099687232040822	-0.017102021211534	-0.0106362521335051	0.0200886557010549	-0.00765886471329853	-0.0119084791970443	0.3935546875	-0.589111328125	0.408447265625	0	0	0	0.17503440784351	-0.306702607993428	0.656958119809181	0.666109972255098	-0.051320921866369	0.76784569116933	0.638575882359708	-0.98257972866609	0.0755379697753151	-0.169797208271213	-0.178614780444565	-0.636165866480525	0.750592932641803	-12.7467589338517	-39.6857084191593	93.8238220787586
5922	1656046560088	6.26560316888458	-1.76367056230877	7.32563301834549	0.104062605759537	0.0169641088749163	-0.0136007352829921	0.0201391853296532	-0.00928017880216958	-0.0133335742823754	0.391845703125	-0.598388671875	0.420166015625	0	0	0	0.175148801042475	-0.306661616093754	0.656936119679839	0.666120473614306	-0.0512128242504728	0.767774369581819	0.638670309350239	-0.982620027120094	0.0755156643067604	-0.169573779655976	-0.178424014456561	-0.636254588869541	0.7505631014163	-12.7310224746649	-39.6927391269689	93.8161451712051
5923	1656046560089	6.24095010851102	-1.73284746803662	7.3710602338465	0.0667774149850598	-0.0298796141174159	-0.000480927600317926	0.0172106462140263	-0.012338564643309	-0.0115793490606476	0.390625	-0.593505859375	0.41845703125	0	0	0	0.175193118652482	-0.306719958571357	0.656927527969571	0.666090430186916	-0.0512618199804535	0.767675827223606	0.638784823010725	-0.98261673160391	0.0755071883452114	-0.169596648788384	-0.178428093596107	-0.636374487864459	0.750460476381605	-12.7343678571889	-39.7012663797797	93.8202741785953
5924	1656046560090	6.24165478477669	-1.73373428483694	7.34656188723657	0.0741014946646704	-0.0149756012919309	-0.0182836203891288	0.0215902410479653	-0.00790101078477073	-0.0164972273713937	0.392333984375	-0.590087890625	0.412109375	0	0	0	0.17531231809906	-0.306667372542076	0.656898397594884	0.666112009333376	-0.0511207642891728	0.767610687168207	0.638874401117813	-0.982660959031005	0.0755001727200159	-0.169343330295332	-0.178224877766144	-0.63645389217476	0.750441427481747	-12.716278311961	-39.7079375426697	93.81011538923
5925	1656046560095	6.26482846407658	-1.70853230073209	7.31836715355352	0.0536337532911003	0.0216418011792126	-0.0289094306118987	0.0218638977523329	-0.0135866119724527	-0.010005910927956	0.3916015625	-0.593994140625	0.41650390625	0	0	0	0.175375784286864	-0.306693146690396	0.656906227208573	0.666075713949629	-0.0511729551445174	0.767525466299347	0.638972602889785	-0.982671670844285	0.075435085880731	-0.169310174349529	-0.178150823691271	-0.636564377262926	0.750365296117821	-12.7151175130636	-39.7152516782304	93.814416015403
5926	1656046560097	6.27012451161552	-1.74786350625139	7.37291735046745	0.0846443450887229	-0.0130445123054024	0.0220502019281117	0.0229899714840137	-0.00490123872143138	-0.0182372069195387	0.3916015625	-0.59765625	0.417236328125	0	0	0	0.175492143124143	-0.306624681100654	0.656876186298689	0.666106214139537	-0.0510100383727771	0.767478174385453	0.639042430380941	-0.982719064069896	0.0754323671507697	-0.169036088157586	-0.177935991577858	-0.636621716428212	0.750367625283235	-12.6951632646047	-39.7204529496725	93.8025415402595
5927	1656046560097	6.27004084006189	-1.75140557316175	7.32477867453839	0.0969446556438233	0.0171796707555683	-0.0135281063563646	0.0290190863873946	-0.00122443362204677	-0.0124087719263381	0.39501953125	-0.593017578125	0.411376953125	0	0	0	0.175509792459823	-0.306602163210476	0.656904731856914	0.666083778161098	-0.0510574264426956	0.767483807308706	0.639031880835364	-0.982730535439919	0.0753449720294115	-0.169008372289238	-0.177859028219034	-0.636625274952873	0.750382852530733	-12.6928999263755	-39.7196671158163	93.8060358517798
5928	1656046560098	6.24416301000337	-1.72639544568316	7.32246901721216	0.0766931178052406	0.000366857128715641	-0.0360477089351701	0.0244951459813662	-0.00292010011583027	-0.0122588147932395	0.39697265625	-0.5908203125	0.416259765625	0	0	0	0.175614841470677	-0.306527749048377	0.656898959221263	0.66609603203486	-0.0509510071252872	0.767453936259238	0.639076247871192	-0.982777224481214	0.0752863696585001	-0.168762820504533	-0.177631421527613	-0.636668216784728	0.750400333037129	-12.6747689432468	-39.722972069134	93.7982735498549
5929	1656046560099	6.26973729677154	-1.7123114336577	7.39481476205572	0.0492666910104449	-0.0260618291694553	0.0321993608058086	0.0244355532072105	-0.00139864853547918	-0.0123588675077367	0.397705078125	-0.596923828125	0.415771484375	0	0	0	0.175675438659332	-0.306537291769171	0.656894758088347	0.666079804379869	-0.0509516688982527	0.76738651753731	0.639157148233862	-0.982790810325281	0.0752548340958059	-0.168697756610422	-0.177556049113116	-0.636753203876645	0.750346058013346	-12.670927039826	-39.728998841252	93.7986554635795
5930	1656046560100	6.22079344468239	-1.72023509795501	7.34775461372704	0.0699931407904925	-0.0345360769864979	-0.0330715389580973	0.0168047491511134	-0.00158869560031011	-0.0107510097799911	0.3974609375	-0.591552734375	0.41064453125	0	0	0	0.175748189223379	-0.306485729842544	0.656882988003005	0.666095947638049	-0.0508575250497458	0.767365568677084	0.639189796660359	-0.982822816847615	0.0752346281138952	-0.168520210705669	-0.177405813967676	-0.63678083729134	0.750358142775173	-12.6578241474715	-39.731431175191	93.7917603564881
5931	1656046560101	6.22379765822556	-1.73616043580781	7.39932495561639	0.0755603545744855	-0.0677922583799563	0.0102253799481904	0.0139979771804405	-0.00768991709362159	-0.00879279052650305	0.3955078125	-0.59033203125	0.415771484375	0	0	0	0.175778136609436	-0.306579536729909	0.656865284636793	0.666062333560166	-0.0509260290050022	0.767246489261755	0.639327274786	-0.982806408017625	0.0752600890582785	-0.168604517597939	-0.177477051838472	-0.636921301033693	0.750222068697178	-12.6661752543955	-39.741674347486	93.7974404051923
5932	1656046560102	6.22616776581327	-1.76200584714383	7.37806067517916	0.10590404036796	-0.0552905883511671	0.000127526527727184	0.0109329426409718	-0.00790800237683529	-0.0102825876714979	0.40283203125	-0.592041015625	0.412353515625	0	0	0	0.175851261474727	-0.306569784871678	0.656840017800347	0.666072437395153	-0.0508476839604552	0.767184696470465	0.639407659116919	-0.982827430069346	0.0752750497075729	-0.168475249205356	-0.177383076247826	-0.636993962603291	0.75018260168296	-12.6574215337842	-39.7476643006546	93.7919199482235
5933	1656046560103	6.22512335025672	-1.73649118813231	7.37444767457129	0.0810695018782639	-0.0539717510354588	-0.00755832590222027	0.00952538557620666	-0.0110093392140533	-0.0100648296552134	0.38134765625	-0.59912109375	0.410400390625	0	0	0	0.175907513866704	-0.306665435277838	0.65680224516801	0.666050799949486	-0.0508657569037701	0.767037812988393	0.639582417066471	-0.982816830222694	0.0753347146149926	-0.168510412155732	-0.177436616868175	-0.637163773467905	0.750025714742179	-12.6625409342742	-39.7606884359523	93.793988055111
5934	1656046560104	6.22823592707684	-1.75928198214801	7.37696504438679	0.10392320159894	-0.0564347951450111	0.000142190861103231	0.0113038383173391	-0.0169350705830629	-0.0081565208009848	0.39501953125	-0.597900390625	0.41015625	0	0	0	0.176008584700322	-0.306687160034371	0.656775995491318	0.666039980577915	-0.0508234447671195	0.766918996595336	0.63972824708872	-0.982837288528979	0.0753325397163552	-0.168392021001261	-0.177335393362433	-0.637307038342655	0.749927927963684	-12.6555279913378	-39.7715585535769	93.7914268631353
5935	1656046560105	6.22565515922078	-1.71283035131367	7.34536643101431	0.0610401386961466	-0.0361497128160782	-0.0330173917814687	0.0130037601697738	-0.0215423698361001	-0.00939589492118169	0.399169921875	-0.592041015625	0.412353515625	0	0	0	0.175967134358324	-0.306838965165167	0.656782760490947	0.665974340799989	-0.0510274900434802	0.766813785114335	0.639838115634329	-0.982788078752687	0.0753439462952205	-0.168673892521233	-0.177549394596163	-0.637432277748224	0.749770834164177	-12.6785981746892	-39.7797492494794	93.8071247216469
5936	1656046560106	6.27778152184276	-1.73172329932612	7.34651649058948	0.077879527589189	-0.000296810469113569	0.00437153030281401	0.011234168152254	-0.0155153794674132	-0.00978109990726779	0.383544921875	-0.591064453125	0.423095703125	0	0	0	0.176064136196809	-0.306856217678409	0.656752792459672	0.665970308057195	-0.0509699374629523	0.766702969219243	0.63997548583162	-0.982808468827919	0.0753543790833892	-0.168550381646191	-0.177453033434603	-0.637564329729442	0.749681363234744	-12.6710773480628	-39.789991564119	93.8033914044123
5937	1656046560110	6.28110304859424	-1.75461847503063	7.34883239552161	0.0990089868354943	-0.00179021894301421	0.0121013249063573	0.00831854486547493	-0.0184721344670891	-0.0064974491640515	0.398681640625	-0.597900390625	0.408935546875	0	0	0	0.176068162937585	-0.306919377797568	0.65675975808365	0.665933268198881	-0.0510657686114821	0.766638882206775	0.640044616854845	-0.982793806281832	0.0753332443233789	-0.168645298285433	-0.177506680466362	-0.637643886968629	0.749600995064275	-12.6792976201194	-39.7951465463846	93.8108389056783
5938	1656046560111	6.25598186656493	-1.7342883785285	7.32105703200608	0.0862125579684171	-0.00368339601658342	-0.0282356792435952	0.0128129753444242	-0.0170799272232041	-0.0112222371630848	0.396728515625	-0.591796875	0.415771484375	0	0	0	0.176177326930004	-0.306935232961791	0.656726473481462	0.66592991468404	-0.050997796409413	0.766517551144828	0.640195336243806	-0.982817666680213	0.0753437770088022	-0.168501481676897	-0.177394077755279	-0.637788490843935	0.74950462448498	-12.6704105194484	-39.8063867733344	93.8063819639143
5939	1656046560111	6.25772621896672	-1.7294420653606	7.34440801687295	0.075849058257463	-0.0195188643793946	-0.0104273206579375	0.0128230211310445	-0.0169780228670666	-0.00969872905477595	0.390625	-0.596923828125	0.416748046875	0	0	0	0.176219386745814	-0.307072291350753	0.656698552254815	0.665883133204286	-0.0510927612979445	0.766344797355387	0.640394551280132	-0.982793160829233	0.0753874784027179	-0.168624823579936	-0.177502486659303	-0.637990893090497	0.749306671239055	-12.6826267541228	-39.8212464892488	93.8143061861965
5940	1656046560112	6.28370214836715	-1.72270621759678	7.36727688924657	0.0650870268152275	-0.0153891929938457	0.0221956890319141	0.0126916318138655	-0.014037300346446	-0.0114243047858168	0.391357421875	-0.59228515625	0.41357421875	0	0	0	0.176318203330209	-0.307079448158295	0.656666624990653	0.66588516075716	-0.0510176877156359	0.76624172913372	0.640523854414741	-0.982816515449331	0.0754016695955841	-0.1684822993143	-0.177394736393684	-0.638112999990099	0.749228207386408	-12.6735377737897	-39.8308931028202	93.8092289188582
5941	1656046560114	6.25840896080722	-1.70273107461692	7.3395561437454	0.0496133026745877	-0.0164218580193469	-0.0181312823911046	0.00691388269222152	-0.0194397494621697	0.00276448767354114	0.393310546875	-0.59326171875	0.414794921875	0	0	0	0.176272265523103	-0.307198911415382	0.656703643207639	0.665805709070125	-0.0512616923539617	0.766172773466752	0.640586856011949	-0.982775365792433	0.0753368268103349	-0.16875112715979	-0.177552300150006	-0.638203450103817	0.749113834465115	-12.694979959106	-39.8355938050288	93.8277369135123
5942	1656046560115	6.28753445527486	-1.75140887873242	7.32040035681991	0.0999197910687413	0.0128351343593426	-0.00561670138193016	0.0126399171491056	-0.0124143500543598	-0.0100026588590198	0.3896484375	-0.587158203125	0.417236328125	0	0	0	0.176362471065809	-0.307202524232474	0.656678313816286	0.665805136709051	-0.051199597462808	0.766081596426055	0.640700857527873	-0.982797581591228	0.0753397419259236	-0.168620392909542	-0.177447217047999	-0.638312549542809	0.749045775809515	-12.6865786387182	-39.8441005529745	93.8235676822645
5943	1656046560115	6.28888419028133	-1.7468936799994	7.34401640914909	0.090607197993072	-0.00136171182439781	0.0121824696127284	0.00962518264031861	-0.0121233902311497	-0.00387165014752674	0.390625	-0.590087890625	0.41650390625	0	0	0	0.176354832984201	-0.30724347964235	0.656698489510899	0.665768361349861	-0.0513029238172696	0.766050409449578	0.640729880831176	-0.982785899600823	0.0752921335144373	-0.168709721642367	-0.17748207107649	-0.638355594330447	0.749000834200751	-12.6938187479321	-39.8462664286799	93.8314166108471
5944	1656046560116	6.28603555731855	-1.69760732599044	7.33690814764155	0.0442482965831674	0.00334541937116908	-0.00328547043165628	0.00966551601966648	-0.0138494696756438	-0.00681769174167837	0.392333984375	-0.588623046875	0.41845703125	0	0	0	0.176434540477621	-0.307264374591692	0.656678298735564	0.665757515168242	-0.0512755678469174	0.765952927389738	0.640848600813849	-0.982801122334654	0.0752889297924317	-0.168622451021376	-0.177405665297708	-0.638472936054303	0.748918914066454	-12.688807943818	-39.8551266667307	93.8298655972224
5945	1656046560117	6.26664431157097	-1.74669202258301	7.34331262686429	0.0918548919671357	-0.0196364571922137	-0.00263225537432632	0.00962550916234246	-0.0121232749954711	-0.00387183781902203	0.3984375	-0.593994140625	0.409912109375	0	0	0	0.176432922302588	-0.307286018293272	0.656701754958087	0.665724816965843	-0.0513637840071275	0.765934570860823	0.640863475985889	-0.982796051621657	0.0752284579254758	-0.168678985161269	-0.177408237151915	-0.638502084787827	0.748893453778472	-12.6933418632635	-39.8562369022194	93.8365266332784
5946	1656046560118	6.26749420632139	-1.74579738557891	7.3428000168301	0.0915606318904182	-0.0196904223990084	-0.00262961269926443	0.00797527681960671	-0.00913975279478954	-0.00405592665177219	0.392822265625	-0.59375	0.415771484375	0	0	0	0.176486995594298	-0.307298843980555	0.656692762958372	0.66571343380798	-0.0513559288673719	0.765869888924277	0.64094140278912	-0.982806887819194	0.0752139109283952	-0.16862232609594	-0.177350471736952	-0.638581381534077	0.748839521748625	-12.6901005567488	-39.8620534042744	93.8362646584763
5947	1656046560119	6.24161183677162	-1.72605623768529	7.31552253953342	0.0762216432929738	-0.02198780169856	-0.0429603865283354	0.00644728521171392	-0.00919896277222341	-0.00403724210973365	0.395263671875	-0.59912109375	0.42138671875	0	0	0	0.176460742919724	-0.307420128803542	0.656689809932364	0.665667307403352	-0.0514972841251801	0.765778706519491	0.641039002221445	-0.982769043788092	0.0752401994784304	-0.168831036703225	-0.177519115307536	-0.638687627110297	0.748708941229266	-12.7074419880384	-39.8693389783887	93.847248840444
5948	1656046560121	6.24479262340681	-1.74602870477246	7.3424022390042	0.0914098665108886	-0.0393787049267227	-0.0174326367056707	0.00807639801715293	-0.0123876491974283	-0.00690035687588442	0.40283203125	-0.587646484375	0.406982421875	0	0	0	0.176529740111393	-0.307441887963346	0.656668470668668	0.665660015331708	-0.0514679896895886	0.765690615343259	0.641146572643551	-0.982781161669361	0.0752475409717527	-0.168757209758653	-0.177460514777609	-0.638792367794861	0.748633472763475	-12.7033044864544	-39.8773697605374	93.8455079244553
5949	1656046560120	6.27025842453317	-1.74347501432267	7.34099165534774	0.0861206621607115	-0.021093129781624	-0.00258326377112716	0.00371937632178702	-0.0167188395793488	-0.000444927620274678	0.39453125	-0.597412109375	0.425048828125	0	0	0	0.176546126919165	-0.30759509103017	0.656654249501524	0.665598919512024	-0.0516190868285371	0.765527273960938	0.641329449422777	-0.982746161883835	0.0752733233628641	-0.168949424658681	-0.177610391524757	-0.638985069944395	0.748433450087967	-12.7205914656215	-39.8910247762802	93.8575837892123
5950	1656046560121	6.22274047416722	-1.74707808876696	7.34127035639581	0.091813574141885	-0.0594845372285436	-0.0322444782311937	-0.000998191387807889	-0.0139567365962539	-0.00211453192981072	0.3916015625	-0.598388671875	0.411865234375	0	0	0	0.176582751791342	-0.307656905384343	0.656633013296106	0.665581584923143	-0.0516393711619886	0.76543187748421	0.641441670206256	-0.982739489325714	0.0753032352389469	-0.168974906073009	-0.177641412586786	-0.639095817302495	0.748331520678253	-12.7241240769116	-39.8994054076709	93.8595746020612
5951	1656046560123	6.27235552294304	-1.74608158141923	7.31486600694472	0.0900106872093838	-0.00502992598812717	-0.0203239188035429	0.00839342652693758	-0.0198916798238347	-0.00487051167214785	0.3935546875	-0.596435546875	0.412353515625	0	0	0	0.176528430168497	-0.307765394731053	0.656657329977547	0.665521844972082	-0.0518367744144045	0.765380911538077	0.641486561879089	-0.982698279506319	0.0752777286580098	-0.169225751655632	-0.177811811400797	-0.639159857798685	0.748236350296571	-12.7439647563595	-39.9027581981225	93.874541056055
5952	1656046560125	6.2738582081668	-1.74508368443866	7.31381538613827	0.0896693310149704	-0.00509269519072036	-0.0203208194757281	0.00517003773212138	-0.0173787461863234	-0.0111294541195186	0.39306640625	-0.59814453125	0.420166015625	0	0	0	0.176609688146506	-0.307810573557045	0.656613268032669	0.665522865950326	-0.0517766659001173	0.765257629116009	0.641638479167212	-0.982706946732437	0.0753360685925041	-0.169149441656891	-0.17778142116678	-0.639300584896315	0.748123337718554	-12.7402670716983	-39.9141055471286	93.8706834732462
5953	1656046560126	6.27367188635089	-1.71675105500027	7.33377414072642	0.0557020585914895	-0.016851570157979	-0.010287181990595	0.00520405638101445	-0.0170703678804444	-0.00655880239075432	0.392333984375	-0.597412109375	0.406982421875	0	0	0	0.176548405910059	-0.307935376499929	0.656622038793813	0.665472736061156	-0.0519533958597924	0.765197129739593	0.641696343527781	-0.982659129117099	0.0753563170817477	-0.169418008011842	-0.177994046589939	-0.639370610924653	0.748012928540928	-12.7616553779039	-39.9184281769867	93.8841610930261
5954	1656046560127	6.2769310299203	-1.74017900003949	7.33606967123415	0.0783575498698746	-0.0192935963559392	-0.00251448084341987	0.00362598906608845	-0.0155056895678606	-0.00511734855253763	0.3896484375	-0.59716796875	0.410400390625	0	0	0	0.17660814580695	-0.307985183026832	0.65659778335414	0.665457767829778	-0.0519510441392816	0.765090806324885	0.641823298961619	-0.982661574766417	0.0753778274581228	-0.169394251984176	-0.177981230725106	-0.639495301941172	0.74790937974112	-12.7616332850431	-39.9279130598085	93.8845239096603
5955	1656046560127	6.30240546503934	-1.73739937655579	7.3346716168361	0.0707753887727339	-7.31584270619659E-05	0.0123454402716092	0.0127442405928515	-0.0135244488238838	-0.00381348488993816	0.386962890625	-0.5927734375	0.41552734375	0	0	0	0.176538888684129	-0.308142400834505	0.656622623718995	0.665378848183877	-0.0522100183433395	0.765007376123676	0.641901728040172	-0.982603844122807	0.0753615016051108	-0.169736058605431	-0.178224014935338	-0.639597028254661	0.747764563180241	-12.7889331182378	-39.9337731791605	93.9042528309505
5956	1656046560128	6.27863483583103	-1.74151230072742	7.31056691920467	0.0809454890510368	-0.00435044376433335	-0.0202444630570042	0.0111046265205696	-0.01043840000001	-0.00247362425259341	0.394775390625	-0.594482421875	0.413818359375	0	0	0	0.176601293564788	-0.308154749598965	0.656623485534384	0.665355718135435	-0.052227502911447	0.764935326730023	0.641986163293313	-0.982617436319265	0.0753151627118411	-0.169677930524402	-0.178143935571744	-0.639688652538187	0.747705266821686	-12.7856779172097	-39.9400826330199	93.9059230035586
5957	1656046560128	6.28368886384159	-1.78526224695599	7.34089979596254	0.116642290951257	-0.0230106184396674	0.0131246511864855	0.0171552285468408	-0.00867888550619619	-0.0026549483513099	0.388916015625	-0.597900390625	0.409912109375	0	0	0	0.17655975426859	-0.308184825805078	0.656672085296704	0.665304846448745	-0.0523922289288549	0.764948167524095	0.641957440450218	-0.982600315977907	0.075216851129387	-0.169820624031058	-0.178189992390103	-0.639684864841829	0.747697532632218	-12.7962044076448	-39.937936243226	93.9181384397903
5958	1656046560129	6.25968873535235	-1.78915271196556	7.3170601133072	0.126803411468426	-0.0272803553985082	-0.01945930880321	0.0125594122487271	-0.00896079970442784	-0.00411873497706874	0.390625	-0.594482421875	0.411865234375	0	0	0	0.176623773894202	-0.308186236103039	0.656671638612125	0.665287641110579	-0.0523927941617828	0.764885018707422	0.642032634121403	-0.982617083038495	0.0751728030756734	-0.169743093522729	-0.178097342037552	-0.639765549115215	0.747650572744023	-12.7913315362135	-39.9435554301376	93.9185030557369
5959	1656046560129	6.2832275503673	-1.75855916202605	7.33698069929603	0.0890412284641476	-0.0199943500990154	0.0053794644185583	0.0141374878026884	-0.0105257893826816	-0.00556035622461738	0.400146484375	-0.5986328125	0.407958984375	0	0	0	0.176546783369956	-0.308291326414705	0.656705851018939	0.665225613289713	-0.0526122334100952	0.764859420951287	0.642045184607489	-0.98257078902878	0.0751373170384252	-0.170026551266643	-0.178287962136996	-0.639800320233063	0.747575382678367	-12.8132337380058	-39.9444933668728	93.9349949364882
5960	1656046560130	6.25817692493201	-1.73174664520848	7.35811688457503	0.0610233033808929	-0.0517455030494626	0.000528589501151089	0.0157631907998284	-0.011677294432005	-0.000907796608475213	0.39892578125	-0.6015625	0.4140625	0	0	0	0.176623994252738	-0.308295131987798	0.656719210137524	0.665190164752293	-0.0526520187420531	0.76478168393403	0.642134519272571	-0.98259095441547	0.0750476873811117	-0.169949583464167	-0.178165039284601	-0.639903758808914	0.747516152493671	-12.8086061200998	-39.9511699949115	93.9383602366225
5961	1656046560130	6.25872290710564	-1.73380540398644	7.33343222573605	0.0643861475565949	-0.038135314639268	-0.0172128098775541	0.0126711999357431	-0.0121071259992513	-0.00543806068746768	0.393798828125	-0.59619140625	0.417724609375	0	0	0	0.176612463305071	-0.308480983090393	0.656715674663811	0.665110549854501	-0.0528719885551182	0.764613874334705	0.64231625855267	-0.982540219560161	0.0750651209123419	-0.170234968702339	-0.178379566578961	-0.640102219022313	0.7472950417538	-12.83307389417	-39.9647547026296	93.9556270271757
5962	1656046560131	6.28562198726698	-1.75799531493401	7.31133901601913	0.0914334174423054	-0.00648240732925921	-0.0123370033674703	0.0141993909249204	-0.0120474606142571	-0.00545843931466811	0.388916015625	-0.592041015625	0.41845703125	0	0	0	0.176692065288418	-0.308488934026045	0.656710686317751	0.665090645042956	-0.052868695880915	0.764529174195983	0.642417343164909	-0.982559361682721	0.0750219770803628	-0.170143479818058	-0.178275073315076	-0.640208438524644	0.747228983295176	-12.8275016362527	-39.9723117768971	93.9558182820868
5963	1656046560131	6.26241451372964	-1.75508312213935	7.33590687845988	0.0845704223487283	-0.038877090249686	-0.00937066759617977	0.0185481885669641	-0.00567953342775781	-0.00440586102659961	0.39501953125	-0.594482421875	0.40966796875	0	0	0	0.176640763389391	-0.30846536291777	0.656763923984004	0.665062635202396	-0.0529794639337165	0.764603177611376	0.642320136059803	-0.982553406351297	0.074918377724693	-0.170223501158227	-0.178275012463218	-0.640132187493871	0.747294321178444	-12.8322500036181	-39.9650445692203	93.9636974871967
5964	1656046560132	6.33370452094937	-1.72310911404833	7.33095001159515	0.0519192660952638	0.0209649355193116	0.0272623482862642	0.0305129944910294	0.000779626327795257	-0.00650340747736661	0.392333984375	-0.58740234375	0.4091796875	0	0	0	0.176733349077086	-0.308375759549287	0.656792772362026	0.665051102111261	-0.0529447098091899	0.76460095271748	0.64232565012363	-0.982602075754822	0.0747771549940032	-0.170004522920183	-0.178016904886971	-0.640151357254303	0.747339428492795	-12.8155398749695	-39.9654567802193	93.9611171013362
5965	1656046560132	6.28647295505226	-1.75185136717124	7.31208208077263	0.0860512202757382	-0.00534989633796434	-0.0122875839564074	0.0303638391121965	0.0056555551364618	-0.00224143956631061	0.39697265625	-0.59521484375	0.410400390625	0	0	0	0.176748703066031	-0.308362106372532	0.656845900377007	0.665000880056478	-0.053067450977172	0.76460099887229	0.642315466239357	-0.982611408376508	0.0746267182447889	-0.170016684629328	-0.177928822215854	-0.640168856980336	0.747345414635943	-12.8163271232193	-39.9646954726748	93.9702705448081
5966	1656046560133	6.26164337490652	-1.751499949514	7.31370339832997	0.0885725694838559	-0.0245608495845395	-0.0270990618098867	0.0287241283772326	0.00874245888347925	-0.000903719432388396	0.39697265625	-0.590087890625	0.404052734375	0	0	0	0.176800110366197	-0.308257804831274	0.656897453652174	0.664984648033618	-0.0530742777082123	0.76465341619132	0.642252500308637	-0.982653471852963	0.0744549127195799	-0.169848815795804	-0.177694331088723	-0.640126252452486	0.74743769347021	-12.8025613274494	-39.9599885730367	93.9705083287341
5967	1656046560134	6.2600679035	-1.71857983427963	7.35959525737643	0.0472469589545902	-0.0537537126650308	0.000593792368412949	0.0258921036423863	0.0023288938327177	-0.00349706657224764	0.3916015625	-0.59716796875	0.414794921875	0	0	0	0.176831813512531	-0.308329748757257	0.656918302100859	0.664922266228227	-0.0532177792075774	0.764554195054187	0.642358739958645	-0.982644229584622	0.0743777081895881	-0.169936089717605	-0.177702521198375	-0.640253730445602	0.747326551522313	-12.810764838588	-39.9679305060011	93.9817242643956
5968	1656046560135	6.28741618169027	-1.76978072340289	7.31775209376954	0.10483777128997	-0.00956841933340762	-0.00441845056116818	0.0182015815836411	0.00365562981199552	-0.00197515353518313	0.3916015625	-0.6015625	0.41650390625	0	0	0	0.176866281922845	-0.308277672148856	0.656944885619369	0.664910980832642	-0.053223411773927	0.764571885154729	0.642337217410051	-0.98266758784592	0.0742834711546856	-0.169842214158589	-0.177571620019146	-0.640243546116754	0.747366390346543	-12.8032612585561	-39.9663215158067	93.982052494589
5969	1656046560135	6.28364490986578	-1.71680940458533	7.33582826909638	0.0469327559299717	-0.018433657869986	-0.00231215901513693	0.0182757929854519	0.00223930697326304	-0.000348194487424158	0.398193359375	-0.59619140625	0.417236328125	0	0	0	0.176725822601538	-0.308316069916053	0.657022876587126	0.664853460770498	-0.0534757186546047	0.764673044454301	0.642195828855471	-0.982622688763053	0.0741778465339751	-0.170147872780273	-0.177744195523915	-0.640134971836857	0.747418369314659	-12.8246789687716	-39.9557524822397	94.0003407922869
5970	1656046560136	6.28476126005542	-1.74642815740545	7.29114057897791	0.0845616212710822	0.00899107454034634	-0.0299610165471869	0.013753470519629	0.000538590256249227	-0.000183402301396265	0.394775390625	-0.595703125	0.41064453125	0	0	0	0.176751578180525	-0.308291153338991	0.657046597221255	0.664834726427237	-0.0535073322942295	0.764672893643557	0.642193375174132	-0.982636685210601	0.0740972973813281	-0.170102132259136	-0.177657283186129	-0.640144480760064	0.747430888767217	-12.8211376368169	-39.9555690798297	94.0026988056621
5971	1656046560137	6.28587798256052	-1.73546344648196	7.36392260709612	0.0586901027075516	-0.0361606703303213	0.0233026426781251	0.0106971887236649	0.000418896558982784	-0.000142672484106239	0.3935546875	-0.595947265625	0.413818359375	0	0	0	0.176692467335002	-0.308371117210373	0.657078530678438	0.664781791702331	-0.0536898828162165	0.76465397871759	0.642200661253584	-0.982601392936597	0.0740551530170698	-0.170324211169985	-0.177797353979861	-0.640171951231056	0.747374052114991	-12.8382660873626	-39.9561136852103	94.0164091898568
5972	1656046560138	6.28473339665717	-1.74458635352991	7.29160551229846	0.0809358277786953	0.00858865936677117	-0.0299299856800737	0.0122014017862408	0.000268328066004084	-0.00320994038756458	0.395263671875	-0.594482421875	0.410400390625	0	0	0	0.176718164213287	-0.30835034874402	0.657089469488655	0.664773782540831	-0.0536930169668832	0.764649489070303	0.642205744908529	-0.982613919328583	0.0740082390484066	-0.170272329210224	-0.177727165820859	-0.640182739081177	0.747381505733054	-12.8343612315005	-39.9564936707114	94.0166663872013
5973	1656046560138	6.26076343862304	-1.74251639723681	7.31660197690641	0.0730755242761374	-0.0257396161157301	-0.0269740943772039	0.00460853555273494	0.000390181740504358	0.00298567674550618	0.38916015625	-0.594482421875	0.4091796875	0	0	0	0.176619801271369	-0.3084596529219	0.657125142616065	0.66471394995139	-0.0539216210777658	0.764640333122787	0.642197492787242	-0.982560663519993	0.0739839854813563	-0.170589895349768	-0.177952244390163	-0.640196478320654	0.747316176636326	-12.8585897109789	-39.9558768544548	94.0337596086409
5974	1656046560139	6.28718382330724	-1.76424587979274	7.31928805670004	0.0923678433585688	-0.00903989282344737	-0.00429258946529742	0.0108835024079446	-0.00414456753385475	0.000169361408994234	0.4013671875	-0.5927734375	0.41015625	0	0	0	0.176649728125342	-0.308461831086519	0.657141398863364	0.664688915370112	-0.0539670386746937	0.764609810113618	0.642230018774194	-0.982568604507533	0.0739201109062878	-0.170571845976182	-0.177894620977713	-0.640240310728417	0.747292344631989	-12.8576708228629	-39.9583080867359	94.0373065996784
5975	1656046560139	6.2854329589166	-1.73937034555836	7.31595466161422	0.0662564507360676	-0.00759213985732812	-0.012135250739794	0.0076789590779205	-0.00143278454597367	-0.00304485670691938	0.389404296875	-0.59375	0.41064453125	0	0	0	0.176608127202511	-0.308579439517841	0.657147436495472	0.664639410222045	-0.05412804757143	0.764536895429666	0.642303269486366	-0.982527443055451	0.0739336322269032	-0.170802932260124	-0.178072957264781	-0.64032581827731	0.747176597825755	-12.8764379234873	-39.9637837020568	94.0496966648642
5976	1656046560142	6.28962351953959	-1.78681192678563	7.32258869059983	0.111580216810979	-0.0124639561215858	0.00361339024884799	0.0108836441091594	-0.00414440732525691	0.000169397541238675	0.39306640625	-0.594970703125	0.416748046875	0	0	0	0.176637596160608	-0.308582863718595	0.65716337509784	0.664614229663983	-0.0541741707015051	0.76450559008085	0.642336642239828	-0.982534931135286	0.0738709161052364	-0.170786992633376	-0.178017606791531	-0.640370432241297	0.747151551683667	-12.8756935430581	-39.9662785175501	94.0533013784643
5977	1656046560143	6.28557876522557	-1.74123989396735	7.29167672891117	0.070146964956491	0.00812370942723011	-0.0298462784556897	0.00935549064606522	-0.00420426962394978	0.000189853984725023	0.38720703125	-0.60009765625	0.40966796875	0	0	0	0.176543991343615	-0.30864531715297	0.657207555860203	0.664566411911005	-0.0543674065603973	0.764537182158229	0.64228271205245	-0.982495086957034	0.0738208952814488	-0.171037655284254	-0.178178531841483	-0.640338482770948	0.747140574640016	-12.8941430379384	-39.9622469546444	94.0675432819921
5978	1656046560144	6.26383165232563	-1.76336342616719	7.31977468877429	0.0879056281341423	-0.0284444206963673	-0.0190362277015677	0.00778942111759243	-0.00253174648765785	0.00315283502698317	0.3935546875	-0.603271484375	0.411376953125	0	0	0	0.17655240345202	-0.308656568706725	0.657230545498277	0.664536215336337	-0.0544417346835445	0.764518880524872	0.64229820087374	-0.982495116710575	0.073754517798704	-0.171066118048416	-0.178155671154528	-0.640367982042574	0.747120742859012	-12.896547921893	-39.9634048005207	94.0731826759998
5979	1656046560144	6.24405031677073	-1.80968997387589	7.35119598632556	0.123486143132206	-0.0667721691420173	-0.000270880035470711	0.00783940768539256	-0.00415856193330507	0.00173380024667073	0.3994140625	-0.5947265625	0.417724609375	0	0	0	0.176364665591675	-0.308830722708031	0.657288139211978	0.664448185710238	-0.0548082264742178	0.76453416890684	0.642248832528855	-0.982401477446189	0.0737356135639841	-0.17161117796894	-0.178559221050875	-0.640351906272067	0.747038178884744	-12.9376409874875	-39.959714405049	94.1004276568905
5980	1656046560145	6.26430525191408	-1.76242269259522	7.31959596022455	0.0813731456220164	-0.0279489406904364	-0.0189783458633048	0.00936764869185915	-0.00409875453196533	0.00171320247976376	0.398681640625	-0.59765625	0.417236328125	0	0	0	0.176383868774957	-0.308842266455309	0.657308017190075	0.664418058020986	-0.0548747500232003	0.764505045008883	0.642277819923635	-0.982404220203336	0.0736698027472611	-0.171623740461085	-0.17852369572851	-0.640394250691826	0.747010370573454	-12.9390216383628	-39.9618812542492	94.1055434093285
5981	1656046560146	6.2650467051405	-1.75870560737204	7.34355353337819	0.071860258607951	-0.0431705099059097	-0.00123453817095864	0.00177648361198056	-0.00602468153438826	0.000397383606920792	0.391845703125	-0.599853515625	0.4150390625	0	0	0	0.17635620748909	-0.308929639933025	0.657318399148225	0.664374508686277	-0.055010000575867	0.764447857609986	0.642334315471426	-0.98237449632822	0.0736620204425603	-0.171797135331749	-0.178645595525102	-0.640463410149106	0.746921931301832	-12.9531354280655	-39.966104574564	94.1159344965917
5982	1656046560148	6.31180840632772	-1.73052652346306	7.33889580003558	0.0419773625898521	-0.00252326923917456	0.0204845818146957	0.0106843971103704	0.0023629898191249	0.00584436402369443	0.397216796875	-0.591064453125	0.4111328125	0	0	0	0.176352292665863	-0.308919212424251	0.65735952577044	0.664339704477715	-0.0551052518519133	0.76446284345279	0.642308315529554	-0.982377288890988	0.0735566455007136	-0.171826313973953	-0.178600877628108	-0.640457633948381	0.746937578133349	-12.9549989872656	-39.9641609185121	94.1229562440045
5983	1656046560149	6.23799644426064	-1.74303997795671	7.29254450248532	0.0636973030351081	-0.0302001631523216	-0.0593790053689229	-0.00129324452044694	-0.00419945885434315	0.00642792431274358	0.396484375	-0.589599609375	0.41845703125	0	0	0	0.176253667776384	-0.309045506902644	0.657393754947663	0.664273264714509	-0.0553513487617999	0.764437383401222	0.64231745659677	-0.982318999806834	0.0735361911023687	-0.172167973841416	-0.178845214665509	-0.640490371088317	0.74685103851732	-12.9813402862358	-39.9648442633804	94.1414426588718
5984	1656046560150	6.26711956042439	-1.78637223225307	7.32225171480707	0.0981476230049667	-0.0308471900138792	-0.0110191916633742	-0.00106982468178735	-0.0104957341860534	0.00379948066988794	0.388916015625	-0.59814453125	0.41748046875	0	0	0	0.17625564812529	-0.309115260464707	0.657398623770351	0.664235464061216	-0.05545038957463	0.764368338709358	0.642391077984991	-0.982301581023857	0.0735219919375654	-0.172273389179999	-0.178910195947723	-0.640574398083649	0.746763404503541	-12.9904916494955	-39.970348114655	94.1492005884335
5985	1656046560151	6.21864839358102	-1.79370043455777	7.29886584352291	0.110327340455835	-0.0528989342059057	-0.0583333984952166	0.00339095233699092	-0.00727448756210166	0.00352804316176734	0.386962890625	-0.593017578125	0.4150390625	0	0	0	0.176179423027624	-0.309145048787527	0.657438685504864	0.664202171415788	-0.0555925727764118	0.764414412315677	0.642323961950803	-0.98227439762461	0.0734703714065801	-0.172450318342961	-0.179015288797657	-0.640525339677875	0.746780299423622	-13.0030958217141	-39.9653305784043	94.1595526236758
5986	1656046560152	6.26867622278791	-1.78291338507969	7.34545416236658	0.0880536530285712	-0.0445041717214492	0.00673443555790243	0.00494393220615449	-0.00905371635992373	-0.00095831563991763	0.387451171875	-0.594482421875	0.414306640625	0	0	0	0.176203661763167	-0.309185586520569	0.657438834077106	0.664176725063833	-0.0556430949294653	0.764351878475601	0.64239400048373	-0.982270408512868	0.073452898057174	-0.172480481002827	-0.179021480684957	-0.640601965059289	0.746713085338367	-13.0064236809871	-39.9705666064828	94.1636589260942
5987	1656046560153	6.24424732274658	-1.79110596093346	7.29728750269398	0.103607247016104	-0.0317839373444214	-0.0434834371298116	0.00493149736686893	-0.00915967537966462	-0.00248170446326029	0.38671875	-0.594970703125	0.41015625	0	0	0	0.176081259668481	-0.309230955255646	0.657476175133806	0.664151101359219	-0.0557974091137961	0.764427499405323	0.642290625253952	-0.982226603924931	0.0734409382499646	-0.17273484631383	-0.17921369277565	-0.640513096463991	0.746743212610483	-13.0244437295719	-39.9628384928649	94.1747535956107
5988	1656046560154	6.24562888647379	-1.7837032869505	7.34529853273157	0.0875048080054444	-0.0616895310999674	-0.00802391129818858	0.00940477948440496	-0.00583245763102111	-0.00123055869025733	0.390380859375	-0.595703125	0.40576171875	0	0	0	0.176109086481417	-0.309245720361729	0.657486097833133	0.664127024937847	-0.0558417688117686	0.764386609561442	0.642335432604442	-0.98223053480621	0.0733952416296816	-0.172731916565607	-0.179178328349943	-0.64056713124331	0.746705348193272	-13.024868276566	-39.9661880883869	94.1782835411229
5989	1656046560156	6.27025011905022	-1.78454279161661	7.32001735150387	0.0876850903150952	-0.0272729470998993	-0.0109094142133692	0.00505557328961996	-0.0122019984598037	-0.00227202987212629	0.39111328125	-0.59375	0.410400390625	0	0	0	0.176004419641126	-0.309409880952112	0.657508059423493	0.66405656508248	-0.056102645275297	0.764330073853211	0.642379974311667	-0.982160099966037	0.0734111921198843	-0.173125200090112	-0.179482676678887	-0.640632761474998	0.74657593967198	-13.0556945090264	-39.9695179882849	94.1980430363684
5990	1656046560155	6.27064560006366	-1.78729113495423	7.29531182972601	0.0945810043497096	-0.012385885611773	-0.0286247362944376	0.00952892944842811	-0.00887461509853289	-0.00102153929512246	0.390869140625	-0.5966796875	0.41064453125	0	0	0	0.176041093307116	-0.309435674913064	0.657516557509442	0.664026409986278	-0.0561569206159424	0.764269929339219	0.642446787971392	-0.982163507418904	0.0733630201363354	-0.173126289081331	-0.179447053365419	-0.640710029876464	0.746518193116663	-13.0567491402085	-39.9745132244656	94.2024193057787
5991	1656046560156	6.27380378380834	-1.80704946877227	7.32240250278621	0.106370480907389	-0.0294545210073953	-0.00292499623116171	0.011081070355647	-0.0106545581979504	-0.00550800610658544	0.388671875	-0.586181640625	0.4150390625	0	0	0	0.175990897292936	-0.309542058287428	0.657533045208288	0.66397380421243	-0.0563319827794032	0.764216265668848	0.642495297261624	-0.982122604020474	0.0733549970582861	-0.173361573246849	-0.179615974757772	-0.640774955576246	0.74642183644242	-13.0755142542343	-39.9781401870958	94.2157676146371
5992	1656046560160	6.27257284619955	-1.78177895105765	7.31870051552513	0.0825979392057367	-0.0270986696009268	-0.0108647422538066	0.0124980001748276	-0.0074463792937687	-0.00421576946885699	0.40185546875	-0.6083984375	0.407470703125	0	0	0	0.176036871870106	-0.309551291880356	0.657537020795844	0.66395337465843	-0.0563538720437426	0.764162965628565	0.642556770307056	-0.982132730052437	0.0733121720502277	-0.173322318208087	-0.179553729188299	-0.640843418777969	0.746378034874782	-13.0733960299102	-39.9827367056914	94.2176929521812
5993	1656046560161	6.27517762862845	-1.80475815793135	7.32179033931772	0.10218523431533	-0.0300856706379407	-0.00288242249274084	0.0109698334219845	-0.00750615808026397	-0.00419447542589432	0.393798828125	-0.60302734375	0.41748046875	0	0	0	0.176008741681641	-0.309672415849309	0.657549684074386	0.663891806461997	-0.0565371843285442	0.764073590703017	0.642646944113484	-0.98209379969162	0.0732986716506412	-0.173548475480275	-0.17970897416511	-0.640951521352786	0.746247835427396	-13.0920727758751	-39.989479823314	94.2318559953059
5994	1656046560162	6.25188595653204	-1.80220319950232	7.34637395670842	0.0967770605413263	-0.0642334304960613	4.58368904325823E-05	0.0109699009640788	-0.0075061690398681	-0.00419451437933209	0.39013671875	-0.595703125	0.40966796875	0	0	0	0.176049343626958	-0.309687853577823	0.657551155240878	0.663872382462372	-0.056560176824504	0.764019417338058	0.642709324911344	-0.982100790744527	0.073266213699809	-0.1735226173992	-0.179663527786126	-0.641019806137461	0.746200123909757	-13.0909974369452	-39.9941449938431	94.2338698399781
5995	1656046560163	6.29873521827963	-1.77656731324662	7.31724738710505	0.0713153651541261	-0.00773194172231716	0.00399335448239491	0.010894773415595	-0.00609162595238373	-0.00582302687269045	0.393798828125	-0.595703125	0.412353515625	0	0	0	0.175947352008147	-0.309776329613057	0.657581088275592	0.663828492364611	-0.0567485240924979	0.764033475054493	0.642676010140008	-0.982050774695373	0.0732592833272195	-0.173808381059718	-0.179877405289106	-0.641003842736172	0.746162309865568	-13.1124534518607	-39.9916534969748	94.247839370698
5996	1656046560163	6.22846272358425	-1.80513368723951	7.32234770104682	0.102806920208247	-0.067680393730403	-0.0324071386785931	0.0125969236338674	-0.01070159216328	-0.00705225893563429	0.393798828125	-0.583984375	0.407470703125	0	0	0	0.176007315415262	-0.309795080508284	0.657573251023193	0.663811609232595	-0.0567511447366894	0.763957115001793	0.642766547052048	-0.982061916798266	0.0732376889182039	-0.17375451791662	-0.179815736646134	-0.641097315046676	0.746096866026357	-13.1096403549908	-39.9984246525748	94.2484578682617
5997	1656046560164	6.27582395208732	-1.77584425145013	7.31735570525553	0.0720890754024761	-0.0275539604365769	-0.0107830893142502	0.0123476649857947	-0.00461735562648851	-0.00747355682455649	0.397216796875	-0.59814453125	0.411376953125	0	0	0	0.176045567429166	-0.309834858969494	0.657567282620682	0.663788812185584	-0.0567847420115882	0.763881503812529	0.642853436801723	-0.98206171803901	0.0732264540307899	-0.173760376358778	-0.179806215234471	-0.641188688736152	0.746020636711793	-13.1113604287702	-40.0049236723819	94.2513830129139
5998	1656046560165	6.2521295188179	-1.77638847863031	7.31783531255831	0.0743665431573915	-0.046773501092718	-0.0255695610838629	0.0125349574200258	-0.0091805344614332	-0.00715740440615171	0.390869140625	-0.591552734375	0.406005859375	0	0	0	0.176100595224103	-0.309849072234017	0.657560025281732	0.663774770497435	-0.0567832688255872	0.763814297639246	0.642933417317334	-0.982072721839432	0.0732067870264089	-0.173706463184762	-0.179746569926578	-0.641270991902124	0.745964265594871	-13.1083891055543	-40.0109064548811	94.2516458098692
5999	1656046560166	6.23080788997702	-1.80084313583067	7.32140892148224	0.0972134301728382	-0.0690914129099914	-0.032359807624017	0.0142112337377989	-0.0140043606662397	-0.0114326788405892	0.39208984375	-0.5888671875	0.416259765625	0	0	0	0.176125156927146	-0.309976252309384	0.657543442476079	0.663725299622008	-0.0568973114781274	0.763667204580487	0.643098045864537	-0.982045668907202	0.0732331007081904	-0.173848258953805	-0.179858277894475	-0.641443149163579	0.745789304203235	-13.1216906517535	-40.0232228150574	94.2609708888324
6000	1656046560167	6.25618771383468	-1.79727246341294	7.32022245164377	0.0931960050591334	-0.0499868998060509	-0.017558710415507	0.0125086925399802	-0.00939438109990877	-0.0102043888506417	0.394775390625	-0.597412109375	0.4140625	0	0	0	0.176185099540873	-0.309989599236942	0.657525620825345	0.663720812558215	-0.0568669873536715	0.763595781867693	0.643185531291853	-0.982057975460478	0.0732377373160338	-0.173776772519504	-0.179800663468701	-0.641527642231178	0.745730518129385	-13.1174798158203	-40.0297687695678	94.2591051803219
6001	1656046560168	6.27997605287786	-1.76622906851767	7.33983068870339	0.0578150846115423	-0.0425149069760583	0.0069678460072442	0.0142250674140877	-0.0138973010184348	-0.00990935558324437	0.39697265625	-0.602294921875	0.409912109375	0	0	0	0.176210708105492	-0.310005995620668	0.657526377848438	0.663705606019501	-0.0568893097744968	0.763555134156878	0.643231811663613	-0.982060638177942	0.0732176975649483	-0.173770169202951	-0.179779057108763	-0.641578308444075	0.7456921380564	-13.1176503762894	-40.0332318770214	94.2609968688021
6002	1656046560169	6.25680347684674	-1.76638079048054	7.33997259134022	0.0600814465750199	-0.0617383159001826	-0.00781782327962332	0.0156773494166208	-0.0124232657355803	-0.0115605748139689	0.3896484375	-0.599853515625	0.41357421875	0	0	0	0.176293099122422	-0.310017534486601	0.657506525450398	0.66369800399188	-0.0568514053980119	0.76346363323226	0.643343763812215	-0.982079440980002	0.0732118243839135	-0.173666347847779	-0.179688311552749	-0.641687859868157	0.745619743025322	-13.1113127716765	-40.0416098559514	94.2586767480775
6003	1656046560169	6.30805887602771	-1.78826974907464	7.31732104602724	0.0797989019881055	-0.010506434879376	0.0120886760632697	0.0156416843496262	-0.0106876165127316	-0.00861997729900874	0.39404296875	-0.59814453125	0.411865234375	0	0	0	0.17621890831564	-0.310142891214997	0.657530122196723	0.663635759874955	-0.0570689491344699	0.763414921145863	0.643382307198871	-0.982027087992915	0.0732020695120128	-0.173966248069314	-0.179905345926248	-0.641746924566853	0.745516566761694	-13.1349248081947	-40.0444945022518	94.2751841786114
6004	1656046560170	6.28256548992705	-1.76430796772022	7.31436067154342	0.0591028384937219	-0.0273279919681037	-0.0106955510586939	0.0170306970252408	-0.0076926947276331	-0.010377594106286	0.398193359375	-0.591796875	0.41162109375	0	0	0	0.176287359419679	-0.310136298177854	0.657520773534372	0.663629923852245	-0.0570361821534018	0.763354703611832	0.643456657747091	-0.982047139875704	0.0731783985591968	-0.173862983542388	-0.179806254027253	-0.641821251173568	0.745476486922749	-13.128079476229	-40.0500593564103	94.273074419695
6005	1656046560171	6.33372619266391	-1.78623356611597	7.29177321269134	0.0810875814044931	0.0230688684179071	0.0092048545434622	0.0157818637898568	-0.013621976455437	-0.00688431326099509	0.3974609375	-0.598876953125	0.4013671875	0	0	0	0.176330261760468	-0.310220710206469	0.65752290256649	0.663576960379892	-0.0571465128809359	0.763231500062022	0.643593002897503	-0.982036696198921	0.0731425427760458	-0.173937045378387	-0.179828260805297	-0.641971841866394	0.745341499492959	-13.1357740605409	-40.0602654501407	94.2819980796418
6006	1656046560172	6.28642420891186	-1.78496434503964	7.31699345273472	0.0787416178963881	-0.0302570904681989	-0.00266676125922416	0.0170442868228418	-0.00758527161824773	-0.00885505343319733	0.392822265625	-0.594482421875	0.412841796875	0	0	0	0.176395924334146	-0.310215595163288	0.657518516587822	0.663566245931737	-0.0571286302767267	0.763172654062182	0.643664368824615	-0.982055720668963	0.0731077564449036	-0.173844233292211	-0.179730022823314	-0.642045758524483	0.745301524791579	-13.1296875070303	-40.0656081443701	94.2809919567869
6007	1656046560173	6.2624095250331	-1.78864016617961	7.29331338036627	0.0856935272598582	-0.0356059713511397	-0.0351204184989768	0.0155930555586162	-0.00905901954936918	-0.00720302018976401	0.39208984375	-0.5927734375	0.414794921875	0	0	0	0.176390518023514	-0.310362071893166	0.657523406809432	0.663494339824611	-0.0573232923442004	0.763036264168333	0.643808744674112	-0.982015970712679	0.0730987092982304	-0.174072433096592	-0.179885167315307	-0.642208874325922	0.745123538963155	-13.1493553758649	-40.0764178893797	94.2962895848493
6008	1656046560175	6.24099530274051	-1.81288257360223	7.29710158705208	0.110853173587882	-0.0572496265931881	-0.0418792684703391	0.0171432442350365	-0.010843231430175	-0.0116889797337282	0.385498046875	-0.596435546875	0.406982421875	0	0	0	0.176471064298008	-0.310366287206865	0.65750660488708	0.663487600306757	-0.0572843354094179	0.762953620873511	0.643910146924787	-0.982036296975977	0.0730860559907874	-0.173963041596259	-0.179786585535216	-0.642308493494918	0.745061462461908	-13.1424357468762	-40.0840111301697	94.2938440663828
6009	1656046560176	6.26508265423405	-1.77797166875872	7.34103405727645	0.0657801434299379	-0.0641940636995165	0.000302837758836105	0.0170167952866338	-0.00780137509082411	-0.0119022879824783	0.388916015625	-0.59521484375	0.4091796875	0	0	0	0.176402009571106	-0.310401766081035	0.657525104623774	0.663471032843594	-0.0573770391934601	0.762986729948425	0.64386266027469	-0.982008711192884	0.0730861356175422	-0.174118660464019	-0.17990766107835	-0.642269154407327	0.7450661492661	-13.1537038776305	-40.0804551118722	94.3005808565408
6010	1656046560177	6.26555029985458	-1.77944170177685	7.31657000114268	0.0725805325581939	-0.0493292541909221	-0.0173809258757451	0.0156015560708088	-0.011012316451372	-0.0131894644069267	0.393798828125	-0.59521484375	0.4140625	0	0	0	0.176479389816194	-0.31041056152713	0.657501383228767	0.663469848082619	-0.0573255713106599	0.762902552708185	0.643966982030323	-0.982026818671424	0.0730939120447239	-0.174013239243685	-0.179825210368258	-0.642368255047939	0.745000616525032	-13.1471327420853	-40.0882674479227	94.2972099563152
6011	1656046560178	6.26651635361501	-1.77746332959804	7.31622353327284	0.0694389861079656	-0.0484601501710671	-0.0173538134343172	0.0170805396764281	-0.0093221627150918	-0.011795986087149	0.394775390625	-0.59423828125	0.41064453125	0	0	0	0.176444548947636	-0.310455107896186	0.657512560890636	0.663447194129925	-0.0574102834955892	0.762893504293683	0.643970154941563	-0.982005950218613	0.0730891068354067	-0.174132984231141	-0.179912126006549	-0.64237954790646	0.744969894255665	-13.1563888980061	-40.0885050715551	94.3035871193834
6012	1656046560179	6.29135348790186	-1.77688620628271	7.29101255878488	0.0730574192130944	-0.0144219665095302	-0.0202529580786646	0.0186586129909	-0.0108905751448576	-0.0132352815256814	0.39794921875	-0.5986328125	0.4130859375	0	0	0	0.176531062365309	-0.310453715583269	0.657493912818695	0.663443312655332	-0.0573595098261891	0.762810430687959	0.644073080842656	-0.982029327596646	0.0730770772530759	-0.17400615081148	-0.179800685128224	-0.642479562020302	0.744910549001437	-13.1481501413416	-40.0962137820687	94.3002618175063
6013	1656046560177	6.29427669908224	-1.79898667887214	7.29414652994082	0.0932216069548432	-0.0171367222524747	-0.012184232730954	0.0155029659115324	-0.00775378514575357	-0.0103571298985194	0.391357421875	-0.596923828125	0.39990234375	0	0	0	0.176540547875856	-0.310524403387105	0.657494187764374	0.66340743356767	-0.0574480240857018	0.762732766775279	0.644157163288569	-0.982013359986411	0.0730696560235183	-0.174099357198139	-0.179859626756115	-0.642572604345947	0.74481605971355	-13.1565589245188	-40.1025118463718	94.307309701003
6014	1656046560177	6.26875236282061	-1.77486265785134	7.29122989175013	0.0724932109245824	-0.03396395921862	-0.03500779656639	0.0185952415183459	-0.00936982038206621	-0.013342603959258	0.388671875	-0.60009765625	0.40625	0	0	0	0.17662177356935	-0.310518637122397	0.657476312541779	0.663406228149338	-0.0573938511077716	0.762659056371964	0.644249260448816	-0.982036466031544	0.0730592950953643	-0.173973327796086	-0.179750730844954	-0.642661266246843	0.744765850201733	-13.1482214624014	-40.1094109094337	94.3036775552527
6015	1656046560177	6.29386085766036	-1.77111996736278	7.29025148381238	0.0632548918383496	-0.0152563733866667	-0.0201859963400608	0.0140177058354402	-0.00748839060540972	-0.00576450624670886	0.39453125	-0.597412109375	0.415771484375	0	0	0	0.176505095058751	-0.31071888120119	0.657503732744636	0.663316342110046	-0.0577147634160985	0.762579010529817	0.644315341104951	-0.981952873181677	0.0730695856903424	-0.174440220411725	-0.180104305706647	-0.642755076484353	0.744599456566764	-13.1851197439744	-40.11436148907	94.3281025326057
6016	1656046560178	6.2945026456241	-1.7694790423799	7.29009585874692	0.0622234878439324	-0.0153255998612647	-0.0201794963778497	0.0169676230590346	-0.00617188815895175	-0.010488091218887	0.390380859375	-0.5966796875	0.414794921875	0	0	0	0.176564588502589	-0.310712161545205	0.65749577136777	0.663311547757401	-0.0576854733971854	0.762527545607846	0.64437887019068	-0.981970605391762	0.0730485134408251	-0.174349203699422	-0.18001698893571	-0.642818525614625	0.744565797509636	-13.1790553146564	-40.1191212519229	94.3262052358357
6017	1656046560179	6.27167693054209	-1.7627187583382	7.3390814046565	0.0471096687862116	-0.062819265793939	0.000419128026429405	0.0170107574817286	-0.00584454246466245	-0.00591855541908556	0.39501953125	-0.593994140625	0.422607421875	0	0	0	0.176499932602476	-0.310714254987905	0.657533955885737	0.663289923333595	-0.057788502790871	0.762589204249384	0.64429666653451	-0.98195338450536	0.0729937412971494	-0.174469092936011	-0.18007787094382	-0.642751599993136	0.744608851077265	-13.1870652645139	-40.1129624054738	94.333553580693
6018	1656046560182	6.25005944918697	-1.78709822854555	7.34309825030261	0.0721749889337616	-0.0844530689011643	-0.00627551761253109	0.0171247832284525	-0.00899549994688229	-0.00722643936417803	0.39111328125	-0.60498046875	0.415283203125	0	0	0	0.176563566700086	-0.310719118705795	0.6575351155439	0.663269559087035	-0.0577975978052698	0.762522700660884	0.644374556189777	-0.981969404023294	0.0729457574816297	-0.174398985167825	-0.17998757526584	-0.642835941311828	0.744557872369677	-13.1828223283767	-40.1187980253115	94.3346095865753
6019	1656046560182	6.29910752343124	-1.78490962257228	7.31713679708785	0.0709576728001815	-0.029003463235064	0.00562574749111455	0.0171747083878312	-0.010625742783326	-0.00864190178803917	0.397216796875	-0.58984375	0.40869140625	0	0	0	0.176498932919874	-0.31070947576783	0.657566487585536	0.663260177268806	-0.0578681278549958	0.762595548401787	0.64428201071917	-0.981955112086248	0.0729088821651357	-0.174494850208009	-0.180042877188305	-0.642753704352771	0.744615496692453	-13.1888304631282	-40.1118644238915	94.339465899604
6020	1656046560183	6.27571971406067	-1.78527184666572	7.31747257124061	0.0731066981581828	-0.0482173699959984	-0.00913756767239171	0.015754282111252	-0.0118795868124758	-0.00394100023151574	0.39697265625	-0.594970703125	0.409912109375	0	0	0	0.176561765175265	-0.310730852905967	0.657574621416037	0.663225374514637	-0.0579160913562277	0.762513973352958	0.644374244366969	-0.98196672488693	0.0728431206955007	-0.174456960257186	-0.179964100800281	-0.642857931590507	0.74454456026105	-13.1872790990256	-40.1187746620403	94.3435117217901
6021	1656046560184	6.2746227823582	-1.75959948395151	7.31359340100794	0.0483322381606843	-0.0469144177542071	-0.0172194038693707	0.015631780281357	-0.0107973594622494	-0.0101418492400937	0.390625	-0.60205078125	0.413818359375	0	0	0	0.176642360524141	-0.310805595183092	0.657560145753322	0.663183242541768	-0.0579709265604913	0.762362871259347	0.644548077492225	-0.981968607248355	0.072824262370659	-0.174454238093819	-0.179936172162363	-0.643039251784348	0.744394716942687	-13.1896422372152	-40.131800325048	94.3484668184242
6022	1656046560185	6.32454612523573	-1.75066819918597	7.33590313843047	0.0330599897960096	-0.0235455231262253	0.0300028278055464	0.0156554615562152	-0.00861802864732934	-0.00111108462271593	0.391357421875	-0.601806640625	0.419921875	0	0	0	0.176689891303192	-0.310819569507616	0.657579935282684	0.663144408282229	-0.0580403521505571	0.762303562260192	0.644611973583845	-0.981978266065015	0.0727386220497752	-0.174435597967407	-0.179861064430816	-0.643119251638233	0.744343755044732	-13.189153585962	-40.136588814176	94.3539919244793
6023	1656046560185	6.27857112422843	-1.77738539612417	7.3406538625907	0.0583241115018293	-0.0619494102151906	0.00859125748643841	0.012411094983744	-0.00613929789419937	-0.00737282092791498	0.399658203125	-0.59326171875	0.41015625	0	0	0	0.176536426834909	-0.310856405825939	0.657622001136914	0.66312629911505	-0.0581968028446799	0.762417929374602	0.644462592480589	-0.981927845947617	0.0727363872420883	-0.17472012855891	-0.180085639325657	-0.642983918103021	0.744406369914684	-13.2088411491639	-40.1253944506197	94.3650306700296
6024	1656046560186	6.30252679757302	-1.78089005619973	7.29146297830986	0.0696796108858224	-0.0129710006868525	-0.0119821819104953	0.0169963356877278	-0.00595418149145336	-0.00744434699236167	0.397705078125	-0.59814453125	0.41064453125	0	0	0	0.176588366822633	-0.310851502707954	0.657626150986409	0.663110652535399	-0.0582016223939847	0.762372293834763	0.64451614156965	-0.981943330584999	0.0726887884834327	-0.174652900200514	-0.179999629639474	-0.64304340881618	0.744375783934244	-13.2044602983836	-40.1294071154715	94.365651063073
6025	1656046560186	6.30302141112411	-1.77922796567079	7.29144119427687	0.0673513601345502	-0.0141419488971821	-0.0119675250882931	0.0169467168101976	-0.00432332782592721	-0.00602977276998852	0.3935546875	-0.600830078125	0.411376953125	0	0	0	0.176634235074279	-0.310921081027082	0.657640168487297	0.663051911364921	-0.0583250196700992	0.762260526780329	0.644637170347055	-0.981937756043075	0.0726195115834478	-0.174713049868842	-0.179990097887561	-0.643183718582768	0.744256856745351	-13.2108851293601	-40.1384771981318	94.375510062848
6026	1656046560187	6.27906705252381	-1.77958273160562	7.29228068331772	0.069488470141285	-0.0333618566700506	-0.026727346404499	0.0168822418257337	-0.00280258882960921	-0.00613846788631577	0.388671875	-0.60791015625	0.404052734375	0	0	0	0.176673465248724	-0.310907962996829	0.657650811480753	0.663037054304567	-0.0583367025922604	0.762235339218269	0.644665895466382	-0.981952088002557	0.0725637936714306	-0.174655640376796	-0.179908104314622	-0.643219856265973	0.74424545044434	-13.2068915941391	-40.1406300805136	94.3765271572805
6027	1656046560187	6.30167775536515	-1.75196365828538	7.28812719053012	0.0368973249377491	-0.0113690515003191	-0.0200459273919389	0.016961843450186	-0.00421299409753531	-0.00450665131965348	0.3896484375	-0.59228515625	0.402587890625	0	0	0	0.176510716910612	-0.311072741780871	0.657709192562111	0.662945196947628	-0.0586952653195442	0.762234955068525	0.644633802325593	-0.981865645720891	0.0725251696699956	-0.175156939678211	-0.18026291793424	-0.643224667620903	0.744155432273266	-13.2450097837347	-40.1382247770488	94.4033239320404
6028	1656046560188	6.25548479989235	-1.77852476769673	7.29314859926115	0.0651231689939126	-0.0521696196383973	-0.0414390256782156	0.0154335483697967	-0.00427489506992636	-0.00448271908299915	0.4013671875	-0.600830078125	0.415283203125	0	0	0	0.17654588367798	-0.311072154703322	0.657722220855748	0.662923182365179	-0.0587288104783697	0.762201598644549	0.644670186873482	-0.981875632403394	0.0724660622978873	-0.175125418793145	-0.180197584090995	-0.643270854958262	0.744131331049187	-13.2431240273015	-40.1409517175754	94.4060226412523
6029	1656046560189	6.28361388890083	-1.78853724290954	7.36841178636591	0.0580763490337572	-0.0807871811158888	0.034457481771641	0.015274419634141	-0.00145468055766525	-0.00774699842489681	0.396240234375	-0.59716796875	0.413330078125	0	0	0	0.176529075999549	-0.311148165568615	0.657740785108597	0.662873565617726	-0.0588722426639758	0.762144562620712	0.644724533976642	-0.981851355287841	0.0724290898629434	-0.175276761326354	-0.180283041806887	-0.643342593498448	0.744048608780062	-13.2555864513997	-40.145025115315	94.4170700781639
6030	1656046560194	6.28049218952278	-1.77343172798664	7.29255189156357	0.0575889302142872	-0.0336695720168749	-0.0266511387462724	0.0185555196339711	-0.00567146107678626	-0.00442164095583789	0.398193359375	-0.59765625	0.4091796875	0	0	0	0.176578757181869	-0.311142777579859	0.657757471299506	0.662846304524417	-0.05890943818086	0.762101808306074	0.644771674214856	-0.981866628190739	0.0723501029235716	-0.175223819877032	-0.180187686978232	-0.643402126499098	0.744020228943994	-13.2522115904491	-40.148558545429	94.4200967043922
6031	1656046560189	6.27881167843053	-1.74783628905766	7.28910274893687	0.0320181940723666	-0.0317631538910213	-0.0347840878947956	0.0153691414882761	-0.00275406225833351	-0.00459197370132878	0.39697265625	-0.5947265625	0.408203125	0	0	0	0.176575181571909	-0.311204123148907	0.657785321280104	0.662790819260797	-0.0590590703128985	0.762046294876043	0.644823596559145	-0.981849993079822	0.0722793527225569	-0.175346189748055	-0.180229346397663	-0.643475826768732	0.743946397975935	-13.2624091207061	-40.1524506344468	94.4316007744574
6032	1656046560190	6.33090583647237	-1.7596018987762	7.33928870536448	0.0315701982151151	-0.0257280385822566	0.0382043491618518	0.017216932864877	-0.00833088300915501	0.00191363558072601	0.399658203125	-0.600830078125	0.41796875	0	0	0	0.176619148091861	-0.311218100072441	0.65781839225851	0.662739717778431	-0.0591634860125407	0.761990599858608	0.64487983969881	-0.981858902680857	0.0721612786674693	-0.175344931741468	-0.180146543539387	-0.643555029184136	0.743897941429211	-13.2631506918855	-40.1566668611417	94.4397276814816
6033	1656046560194	6.30713392164733	-1.7987047854638	7.24687928706838	0.0868908139613046	0.0120181107957657	-0.0390062714305461	0.0138706974435204	-0.00259440537254461	-0.00152209701404586	0.39111328125	-0.593994140625	0.411865234375	0	0	0	0.17661650318614	-0.311266032728855	0.657853774442774	0.662682789215878	-0.0593162633587292	0.761947311765474	0.64491695201361	-0.981846184810247	0.0720700445073921	-0.175453635067117	-0.180165619014063	-0.643616502878904	0.743840135343079	-13.272077027179	-40.1594491026161	94.4513982013281
6034	1656046560197	6.28186375014936	-1.76840993693448	7.29259002764939	0.0503795504421645	-0.0346553982758485	-0.0266148100481871	0.0138058968228727	-0.00107373515947815	-0.00163172707140429	0.396240234375	-0.59814453125	0.41455078125	0	0	0	0.176630774643956	-0.311264403155351	0.657876025686013	0.662657660941602	-0.0593727876881623	0.761935431444465	0.644925786731833	-0.981850922038138	0.0720014085525042	-0.175455305019009	-0.180121178585403	-0.643638248922477	0.743832081554038	-13.2723374969677	-40.1601114418715	94.4556921991223
6035	1656046560198	6.23594703244417	-1.79167562627291	7.32192852819241	0.0695422362562796	-0.0895628166600683	-0.0303095046698765	0.0153842798725351	-0.00264372825774674	-0.00306941389910851	0.40478515625	-0.597900390625	0.408935546875	0	0	0	0.176584809910582	-0.311276418485766	0.657910294346598	0.662630244402027	-0.0594779282251061	0.76196914389908	0.64487626704644	-0.981835892650904	0.0719436990032321	-0.175563048720781	-0.180168409984803	-0.64360479171572	0.743849592407035	-13.279897528291	-40.1563990320287	94.4633540350045
6036	1656046560199	6.28505913075955	-1.78646120644347	7.32028462557672	0.061886552030224	-0.051276249382609	-0.000780332522429816	0.0141155676962982	-0.00878845899595351	-0.00260594449750016	0.3955078125	-0.5966796875	0.409423828125	0	0	0	0.176626669360961	-0.311298510008617	0.657923223570751	0.662595871722078	-0.0595394608946261	0.761907185696419	0.644943790558944	-0.981841661695826	0.0718801031134516	-0.175556834486096	-0.180116639860831	-0.643685242304468	0.743792514673738	-13.2804270672084	-40.161461209667	94.4683147563525
6037	1656046560199	6.26072327314052	-1.79059891057999	7.29685393058059	0.0704577210882849	-0.0571642108571569	-0.0331809639654352	0.0152740705413239	-0.00145779690082503	-0.0077490849512368	0.38720703125	-0.590087890625	0.407470703125	0	0	0	0.176674555877665	-0.311382758237647	0.657938850993379	0.662527997545203	-0.0596855075483461	0.761778997872473	0.645081699158414	-0.981832639950868	0.0718051393178835	-0.175637948902418	-0.180117481982748	-0.643845307793689	0.74365375835549	-13.288736714128	-40.1718012675085	94.4799813808889
6038	1656046560201	6.2839238574482	-1.75905719965247	7.31678052555446	0.0352845588715844	-0.0505858926196168	-0.00894041803419654	0.0231615018816614	-0.00734148276453396	-0.00895408505438054	0.398681640625	-0.591796875	0.414306640625	0	0	0	0.176751593228739	-0.311365573974414	0.657945545009168	0.662508878006382	-0.0596817217076534	0.761720807073526	0.645150760803446	-0.98185825217976	0.0717330681873835	-0.175524185099751	-0.179979067450962	-0.643922183963	0.743620707269373	-13.2810037983508	-40.1769799369349	94.4800392015524
6039	1656046560202	6.2858562532664	-1.78475341887706	7.29632389610383	0.0646102093134461	-0.0376624457071692	-0.0183990862205192	0.0166876125775116	0.00175724651667073	-0.00647144737437526	0.387939453125	-0.596923828125	0.40625	0	0	0	0.176744891603081	-0.311336141346651	0.657961508014363	0.66250864473987	-0.059687077874313	0.761756228822323	0.645108440950217	-0.981864519040064	0.071695794527361	-0.175504356918326	-0.179943099298224	-0.643884431320935	0.743662100767188	-13.2788436834429	-40.1738064856232	94.480232135264
6040	1656046560203	6.28650538046123	-1.77954202342148	7.3207280567056	0.0555651130313826	-0.0526603987343011	-0.000749828831368759	0.0200355298241198	-0.00397683391756197	-0.00303308506305939	0.4033203125	-0.603515625	0.40380859375	0	0	0	0.176791242583532	-0.3113232706724	0.657985976180451	0.662478024415504	-0.0597354474246023	0.761724043451579	0.64514196728221	-0.98188095492095	0.0715986233912601	-0.175452066080739	-0.17983733395629	-0.64393331856354	0.743645355367221	-13.275315744	-40.1763205223503	94.4840367362241
6041	1656046560204	6.31061322521382	-1.77938004675498	7.29599437126223	0.0552951582070436	-0.0198146362710894	-0.00360401909929386	0.019875031157627	-0.0011599147557274	-0.00630016204839661	0.393798828125	-0.592041015625	0.415283203125	0	0	0	0.176751790685262	-0.3114626370227	0.658026621029916	0.662382666020458	-0.0600160164903666	0.761627697449828	0.645229670924936	-0.981834012751092	0.0715195410110083	-0.175746768558241	-0.180000136582497	-0.644056057910217	0.743499660456839	-13.2993355864924	-40.182897589894	94.5055786757148
6042	1656046560204	6.28487814834167	-1.75197270598774	7.31766059626938	0.0266070082521377	-0.0515868634993768	-0.00891824310639499	0.0183618442571095	-0.00110994637560162	-0.00475271279919418	0.397216796875	-0.59228515625	0.41015625	0	0	0	0.176785156996286	-0.311445696548114	0.658045079038056	0.66236338993128	-0.0600434958890821	0.761611985838336	0.645245659906987	-0.98184789127864	0.0714473644391945	-0.175698584246945	-0.179915249473483	-0.644082647757319	0.743497172734917	-13.2958617436103	-40.184096703618	94.50772574159
6043	1656046560205	6.28707071369032	-1.77445314157176	7.3214777774661	0.0484599792440284	-0.0537935963017003	-0.000718312232624641	0.0167682076163281	0.000348290804563969	-0.00483900276156137	0.3935546875	-0.594482421875	0.406494140625	0	0	0	0.176804619073471	-0.3114134076701	0.658064395831241	0.662354185566034	-0.0600541190748815	0.761624756066645	0.645229597684858	-0.981862071736579	0.0713827552270965	-0.175645593002902	-0.179834298361832	-0.644074710885789	0.743523632395162	-13.2915377969609	-40.1828920972114	94.508444699375
6044	1656046560206	6.28660445175225	-1.7762938763837	7.29774353072712	0.0551629092234807	-0.0389545356835271	-0.0183463752040431	0.0212734814678128	0.00194335944237758	-0.00654662191905684	0.400390625	-0.595703125	0.405517578125	0	0	0	0.17684052070094	-0.311375048648132	0.658084092888012	0.662343065190054	-0.0600581884657281	0.761627419000093	0.645226075593255	-0.981882321944957	0.0713055138519659	-0.175563747813402	-0.179722340987969	-0.644080117936864	0.743546018635188	-13.2851782322592	-40.1826279564127	94.5087332419981
6045	1656046560209	6.29121603516928	-1.81893896218956	7.32946509229034	0.0899849627659415	-0.0601736502298228	0.0157040746310138	0.0165924133953871	0.00305123576429426	-0.00963008762779557	0.39501953125	-0.59814453125	0.409912109375	0	0	0	0.176853585615875	-0.311451399248426	0.658094328333364	0.662293507575353	-0.060180238156689	0.761540608650368	0.645317162573436	-0.98186579545903	0.0712693285405333	-0.175670835704128	-0.179771796016531	-0.644186761883391	0.743441670322011	-13.2947936774349	-40.1894593949587	94.518370825793
6046	1656046560211	6.287124097856	-1.76908526733639	7.32273083449995	0.0430464243780655	-0.0554534530611826	-0.000702309316920946	0.0168189601835939	-0.00128473225112323	-0.00625066275801164	0.392578125	-0.602783203125	0.40966796875	0	0	0	0.176884771677357	-0.311439621217323	0.658104777375109	0.662280334813527	-0.0601930713358637	0.761521852024121	0.645338099799561	-0.981877557185355	0.0712197590894147	-0.175625193554242	-0.179703246656466	-0.644214416793818	0.743434279769319	-13.291589527597	-40.1910297646427	94.5194412100537
6047	1656046560211	6.31310608232642	-1.79302739140968	7.30172744258026	0.0663180484769012	-0.0235154374416967	0.00467113792685048	0.018136191180954	0.00322639338823607	-0.00813219037333589	0.392333984375	-0.59423828125	0.410400390625	0	0	0	0.17679291822052	-0.311498366168454	0.658144136170368	0.662238120290592	-0.0603698722021116	0.761554860883789	0.64528262985654	-0.98183768158717	0.0711811201832652	-0.175863626554744	-0.179861740083409	-0.644179665926927	0.743426063882912	-13.3091346404629	-40.1868693924315	94.5324649657287
6048	1656046560213	6.28755450289908	-1.76206633934233	7.34773806231596	0.0296927316219534	-0.0702290752673538	0.0169443733146277	0.0150942864755865	0.0032143348978436	-0.00656021272625282	0.393798828125	-0.5986328125	0.412841796875	0	0	0	0.176803347518792	-0.311477810561548	0.65815503364925	0.662234174228489	-0.0603729495801213	0.761564871275856	0.645270527606511	-0.98184614961628	0.0711450559766087	-0.175830940092381	-0.179814475064388	-0.644171815472141	0.743444299667867	-13.3064341866492	-40.1859617299929	94.5326357154025
6049	1656046560213	6.2891524054134	-1.78816477226493	7.3275453273109	0.0576959200383728	-0.0570264441464993	0.00756267009171196	0.0167540622828677	0.000235914193020793	-0.00636167558985059	0.400146484375	-0.5927734375	0.41162109375	0	0	0	0.176745682943465	-0.311490102859903	0.658183758899246	0.662215236084489	-0.0604638893168257	0.761609564652673	0.645209259944593	-0.981827688493088	0.0711102061642163	-0.175948085205845	-0.179884708068816	-0.644122821835129	0.743469758762351	-13.3145440628492	-40.1813668736695	94.5391694342539
6050	1656046560214	6.26449070316775	-1.7923133360274	7.30442738883978	0.0676708120954965	-0.0613649275540165	-0.0248099002285436	0.0137776581184677	-0.00129657873128636	-0.00467801570857172	0.39501953125	-0.591552734375	0.40771484375	0	0	0	0.17676325112606	-0.311490669378892	0.658195071647576	0.662199036242185	-0.060494378902535	0.761592077379069	0.645227043601422	-0.981832491038451	0.0710680014203769	-0.175938337821359	-0.17984824064312	-0.644148155976207	0.74345663188247	-13.3140594201732	-40.1827005525056	94.541552630218
6051	1656046560215	6.2653508266856	-1.787360438971	7.32856841755727	0.0584486133420801	-0.0772142856046095	-0.00718814474224061	0.0124159741888993	-0.00614770528194918	-0.00736400450135614	0.39697265625	-0.603515625	0.41015625	0	0	0	0.176827878870598	-0.311536653011076	0.65819008605737	0.662165104562732	-0.0605385511071033	0.761484283227875	0.645350114454768	-0.981837745397452	0.0710354237398334	-0.175922171106858	-0.179804687210042	-0.644279174714682	0.743353630169563	-13.314658558825	-40.1919309248042	94.5454955890611
6052	1656046560216	6.31203320990369	-1.76165254807936	7.29906729741842	0.0356929194018227	-0.0216465203409464	-0.00351697679588447	0.0109682610313608	-0.00761739420839506	-0.00570461790705785	0.391357421875	-0.599853515625	0.412841796875	0	0	0	0.176858804124521	-0.311566781554669	0.658187654718669	0.662145086224498	-0.0605696963847925	0.761424785989817	0.645417389880544	-0.981838099552555	0.0710199491591659	-0.175926442266238	-0.179792263868278	-0.644351194692607	0.743294208070619	-13.315996846648	-40.1969771446883	94.5481781766099
6053	1656046560217	6.28838999415173	-1.76259031770009	7.29952755655166	0.034926509615839	-0.0402593642088338	-0.0182585838345712	0.0110643642709765	-0.00891058749363005	-0.00254683251151276	0.388671875	-0.600830078125	0.413330078125	0	0	0	0.176769160472556	-0.311678890209105	0.658226498978902	0.66207764600976	-0.0608117091200048	0.761403670451833	0.645419543131738	-0.981784533488958	0.0709810798956101	-0.176240790110356	-0.180002960630578	-0.644380428721521	0.743217866607697	-13.3402614813508	-40.1971386627479	94.5664003094506
6054	1656046560218	6.29102346814981	-1.78579223238678	7.30284591274587	0.0565275948285353	-0.0427760829171194	-0.010005923795303	0.00780990062084211	-0.00447481383605961	-0.00283349025349759	0.392578125	-0.593505859375	0.417236328125	0	0	0	0.176774116074352	-0.311712096275504	0.658231682016434	0.662055536727455	-0.0608667563493063	0.76136659847924	0.645458085929417	-0.981777119634383	0.0709639293518949	-0.176288990278334	-0.180024790887059	-0.644426119466841	0.743172961843324	-13.3445568599383	-40.2000298711917	94.5707379467536
6055	1656046560219	6.2678182842348	-1.7832148462465	7.32746833129487	0.0494219138011844	-0.0748233290293495	-0.00711995721332847	0.0110999115039994	-0.0106586050626482	-0.00548055654612797	0.394287109375	-0.59375	0.405517578125	0	0	0	0.176687789243931	-0.311728048487714	0.658247080030896	0.662055760906083	-0.0609271891663183	0.761435463402887	0.645371143368467	-0.981749622333363	0.0709844135257828	-0.176433817860125	-0.18015425798074	-0.644342492862942	0.743214097836268	-13.354414527489	-40.1935082289564	94.5748448067594
6056	1656046560220	6.31923478977177	-1.80219865289939	7.32913628021519	0.0643977956785749	-0.0389859403553358	0.0306464151296968	0.0109330264215898	-0.00586948892255995	-0.00277129741686077	0.389892578125	-0.5908203125	0.40576171875	0	0	0	0.176707024717369	-0.311755322311664	0.658256715642215	0.662028203883951	-0.0609865693554507	0.761390311411331	0.645418803605232	-0.981747733193325	0.0709454474549179	-0.176460000723078	-0.180144460719779	-0.644400137472346	0.743166492851771	-13.3571502175923	-40.1970831898983	94.5795549436577
6057	1656046560221	6.29283877091633	-1.78265213357447	7.30204904635668	0.0500273462437538	-0.0411973557694696	-0.0099638331191052	0.0124310008703172	-0.00603453527201403	-0.00584209284549954	0.384765625	-0.603271484375	0.409423828125	0	0	0	0.176692531663184	-0.311838259767705	0.658261750171342	0.661988003864773	-0.0611032639871769	0.761323780857322	0.6454862444942	-0.981721747208511	0.0709424350316333	-0.176605724623101	-0.180246503954949	-0.644479069957198	0.743073297999009	-13.3694013595861	-40.2021422057715	94.588679552885
6058	1656046560222	6.31505093323687	-1.7589793727977	7.27341589091379	0.0305519661862138	-0.00478336540652254	-0.0210838668707023	0.015534467778833	-0.00556651279826076	-0.00132339627128126	0.397705078125	-0.598388671875	0.410400390625	0	0	0	0.176723466487016	-0.311851215102381	0.658283528571483	0.661951986207051	-0.0611767686987069	0.761281322928396	0.645529356677121	-0.981727033972719	0.0708632248085814	-0.176608137232849	-0.180192768275293	-0.64453793583475	0.743035272063962	-13.3702370800368	-40.2053764240828	94.5944310578098
6059	1656046560223	6.29417840017425	-1.77664922463439	7.32603080921749	0.0364638046637024	-0.0553165163398677	0.00767424036922293	0.0139554187221743	-0.00399485718610838	0.000112026121497184	0.391845703125	-0.595703125	0.41162109375	0	0	0	0.176597535868066	-0.311939937962143	0.658338120657314	0.661889495549595	-0.0614312120128588	0.761318524399972	0.64546131611126	-0.981669821931779	0.0708084584294473	-0.176947797169882	-0.18041775660688	-0.644500012893944	0.743013570859003	-13.3954024532834	-40.2002721822172	94.6132332029834
6060	1656046560226	6.29395046303884	-1.77901325776919	7.30197837180212	0.0431322376799822	-0.0404841520534408	-0.00992809816643181	0.0184445057247423	-0.00251420846876145	-0.00312160628290902	0.399658203125	-0.599853515625	0.4130859375	0	0	0	0.176630021669329	-0.311932137991044	0.658361563260591	0.661861185411639	-0.0614832133811856	0.761294768792792	0.645484383607421	-0.981681089963665	0.0707237749323265	-0.176919148955313	-0.180338714867536	-0.644537371040695	0.743000353466858	-13.3935415320267	-40.2020026080075	94.6172648673226
6061	1656046560227	6.296647220222	-1.79822536897119	7.32991239804113	0.0557171130837103	-0.0576082533560575	0.0159734463605545	0.0153987498325267	-0.00054760412457211	0.00443023881663297	0.388427734375	-0.5986328125	0.4130859375	0	0	0	0.176590926676614	-0.311957832285867	0.658422118701783	0.66179926646624	-0.0616747510404833	0.761308704989196	0.645449673322225	-0.981664395738752	0.0705919164395	-0.177064382280198	-0.180364184978515	-0.644535365236906	0.742995910981995	-13.404216925211	-40.1993988063028	94.6315020589735
6062	1656046560228	6.27180854002531	-1.80273095461478	7.30688538256016	0.0657106195847903	-0.0619483964274133	-0.0163697080812444	0.0183282488188153	0.000640459530827841	-0.00182436323124465	0.388427734375	-0.597900390625	0.404541015625	0	0	0	0.176610452093659	-0.311941286775841	0.658452487534924	0.661771639974831	-0.0617340894725933	0.761306181674669	0.64544697686249	-0.981674548411305	0.0704981397406884	-0.177045455447361	-0.18028861083954	-0.64454860952223	0.743002763631812	-13.4027166663259	-40.1991965348111	94.6359539984785
6063	1656046560229	6.29443268608563	-1.77166098126884	7.3270202812244	0.0274622327503018	-0.0540691678600621	0.00771048524517504	0.0167492263494903	0.00221258943500801	-0.000389400397622483	0.400146484375	-0.598388671875	0.40869140625	0	0	0	0.176466305596594	-0.311984140238103	0.658508245463327	0.661734410383646	-0.0619344262065964	0.761405753823793	0.645310316742637	-0.981624508353984	0.0704530672917996	-0.177340604228071	-0.180492247615403	-0.644435910974241	0.743051078457962	-13.423410641009	-40.1889459401229	94.6503269431291
6064	1656046560230	6.27222215913132	-1.79635932657247	7.33175426438762	0.052306967272683	-0.0757424375157466	0.0012733632275701	0.0200045793135526	-0.00222274569678062	-0.000100456772083025	0.397705078125	-0.595703125	0.41357421875	0	0	0	0.176497268759696	-0.311973446727579	0.658544865491901	0.661694750463941	-0.0620175426576611	0.761386438336013	0.645325124197645	-0.981636283427878	0.070334748509245	-0.177322390605488	-0.180399643737478	-0.644471655443544	0.743042565314565	-13.4222301038603	-40.1900565420457	94.6566579010437
6065	1656046560230	6.29345261107944	-1.77607102286182	7.27945766188308	0.0403358755207347	-0.0251832645596654	-0.0274834056049951	0.018165733842105	0.00345093527736407	-0.00509685100778062	0.3896484375	-0.598388671875	0.414794921875	0	0	0	0.176532221983346	-0.311982571310745	0.658578370363196	0.661647776305275	-0.0621171894238149	0.761343875479994	0.645365755248285	-0.981643781614248	0.070221809382759	-0.177325642548081	-0.180324542966741	-0.64453425103412	0.743006499599917	-13.4230952994544	-40.1931040816968	94.6643666041783
6066	1656046560231	6.22522027507635	-1.82469955531883	7.31365681649646	0.0867055564771829	-0.102544777464354	-0.0374923084072876	0.0182361219864077	-5.02186255684052E-05	-0.0109615009507779	0.403564453125	-0.60107421875	0.407470703125	0	0	0	0.176567277193782	-0.311961274855013	0.658577889685011	0.661648942289827	-0.0620893475822535	0.761330422469006	0.645384304689829	-0.981659034033209	0.0701983196848242	-0.177250491718398	-0.180251085482992	-0.644552700511441	0.743008319230418	-13.4175806585835	-40.1944954316073	94.6623672059498
