// Start Time : 24/06/2022 04:55:19																																
// Update Rate : 100Hz																																
// Filter Profile : 46.1 human																																
// Firmware Version : 4.4.0																																
PacketCounter	Time_Of_Arrival	Acc_X	Acc_Y	Acc_Z	FreeAcc_X	FreeAcc_Y	FreeAcc_Z	Gyr_X	Gyr_Y	Gyr_Z	Mag_X	Mag_Y	Mag_Z	VelInc_X	VelInc_Y	VelInc_Z	OriInc_q0	OriInc_q1	OriInc_q2	OriInc_q3	Mat[1][1]	Mat[2][1]	Mat[3][1]	Mat[1][2]	Mat[2][2]	Mat[3][2]	Mat[1][3]	Mat[2][3]	Mat[3][3]	Euler_X	Euler_Y	Euler_Z
5843	1656046560011	9.37674634882345	0.062316134130394	-1.68307403147826	-3.46944695195361E-16	0	-0.285883459248783	0.0466726418157109	-0.0287167313630087	0.0134961006348129	0.6064453125	0.447509765625	-0.201904296875	0	0	0	-0.488510410326211	-0.591286528579784	-0.412026597468215	0.491906396687166	-0.0387713518023312	0.172342211594016	0.984273815755709	0.983056287193467	0.183183323963366	0.00664876162357053	-0.179156686977669	0.967854344374512	-0.176524359754028	177.842983302819	-79.8253352667377	102.678596953803
5844	1656046560012	9.41656847504803	0.0399546972523758	-1.74347745452383	-4.33680868994201E-17	-6.93889390390723E-16	-0.235993210496323	0.0436255444577258	-0.028696234520148	0.0137273112302446	0.609619140625	0.442138671875	-0.1953125	0	0	0	-0.49650115080982	-0.586892413803022	-0.415194767120609	0.486474261621979	-0.0336588000477486	0.178822382180891	0.983305466683928	0.986748653238123	0.162199825200376	0.00427925667825513	-0.158726747941538	0.970419379616936	-0.181912196270026	178.652437045354	-79.5159079610479	100.659765411275
5845	1656046560012	9.44092915722739	0.0619796943320892	-1.74749302719405	0.0139839589403059	-0.0252211416395323	-0.211235165604693	0.0449633572543875	-0.0255051785688166	0.0107131062548613	0.61962890625	0.441162109375	-0.20361328125	0	0	0	-0.492216826937541	-0.589398848488418	-0.413285632476221	0.489414526417836	-0.0363920332214878	0.175688077819929	0.983773001880995	0.984760046194511	0.173835162536536	0.00538402125553178	-0.170068431335713	0.968976282257638	-0.17933681463987	178.280391752515	-79.6641605952247	101.702746008387
5846	1656046560013	9.46972401878261	0.106080914717849	-1.72483368763836	0.0539306902550527	0.0119320964440145	-0.186736711700453	0.0345031366070914	-0.0193871112585963	0.013325728509045	0.6064453125	0.44677734375	-0.201416015625	0	0	0	-0.492211717444429	-0.589484779823159	-0.413103620586025	0.489469833826319	-0.0362938139688822	0.175899110725632	0.98373891958869	0.984706152810801	0.174146047738245	0.00519101856082227	-0.170401149304053	0.968882168740389	-0.179529360865506	178.343777264625	-79.653282312271	101.658409127879
5847	1656046560013	9.44455705823997	0.0805577631899014	-1.72528500964953	0.0310852046266292	0.00486436415715954	-0.21155380807552	0.0234755386126582	-0.0206197776285434	0.00950845478896521	0.608642578125	0.454345703125	-0.202880859375	0	0	0	-0.492226758818022	-0.589560175006439	-0.412956017341081	0.489488453072873	-0.0362277444236611	0.176120183912371	0.983701800014947	0.984668992374051	0.174360291290595	0.00504621423732432	-0.17062979221415	0.968803473176955	-0.179736764100238	178.391810107748	-79.641447454131	101.623555071191
5848	1656046560014	9.41641000435589	0.0819016735476076	-1.74764854885255	0.0381870258209187	-0.0192539333925545	-0.235217382454786	0.0280223354349893	-0.0221828144857181	0.00909003596928616	0.610595703125	0.446533203125	-0.19677734375	0	0	0	-0.492230765655765	-0.589649944306452	-0.412796563835533	0.48951078987793	-0.0361761198700498	0.176350943065633	0.983662357331523	0.984624431153742	0.174615740455033	0.00490639995429049	-0.17089768262419	0.968715483547776	-0.179956366957323	178.438252615195	-79.6288865554426	101.59266410396
5849	1656046560014	9.39626049166043	0.102996750378833	-1.7198745384883	0.055788563928728	0.0101898208172399	-0.259935337819222	0.0294080069753738	-0.0236511824299005	0.00738418967056383	0.614501953125	0.44921875	-0.2041015625	0	0	0	-0.492229076936652	-0.589750875132153	-0.412633914877461	0.489528031262615	-0.0361456848524795	0.176593321813468	0.983619991743473	0.984576793742062	0.174887576221984	0.00478256289035045	-0.171178347611915	0.968622286742404	-0.180191117802098	178.479634545148	-79.6154115687397	101.567705459135
5850	1656046560014	9.36654886191203	0.0558084889353131	-1.74735563082077	0.0158418052876207	-0.0269636900875288	-0.284433333711798	0.0278433867653269	-0.0344122098737936	0.00853516009723766	0.60302734375	0.45361328125	-0.2001953125	0	0	0	-0.492257080152035	-0.589871528217764	-0.412446216641372	0.489512681772854	-0.0361206028474825	0.17694156510022	0.983558328005929	0.984532179480961	0.175142170836823	0.00464839338196638	-0.171440046711388	0.968512727089556	-0.180530905523534	178.525047626907	-79.5958293725625	101.537753933917
5851	1656046560015	9.34543743276183	0.0524916755680599	-1.72320249496423	0.00989109179296531	-0.00403094613094304	-0.309568536859205	0.0264383380861304	-0.0421879247996948	0.0113461828841102	0.609375	0.445556640625	-0.204833984375	0	0	0	-0.49231209349136	-0.590002759257692	-0.412237484938648	0.489475027638717	-0.0360859998404636	0.177371078483546	0.983482232240673	0.984490895819786	0.175378117227225	0.004493556029391	-0.171684235337639	0.968391458303623	-0.18094890665907	178.577449872838	-79.571714211113	101.499828177894
5852	1656046560016	9.36878579110847	0.0507337016000768	-1.73117949913414	0.00929258065923161	-0.00343302631155423	-0.285169136772128	0.0306853819135633	-0.0481956934420374	0.00767933710349935	0.610595703125	0.454833984375	-0.205322265625	0	0	0	-0.492358968898864	-0.590165032869348	-0.412009514691232	0.489424191808153	-0.036093212435566	0.177851246637382	0.983395248150819	0.984440941617484	0.175661611097486	0.00436243669482494	-0.171968928831233	0.968251998426115	-0.181424240553663	178.62255972762	-79.5442158540126	101.471836170642
5853	1656046560016	9.39206073743392	0.0489077671506552	-1.73954569247585	0.00863836268043399	-0.00282081595054454	-0.260769681912786	0.0415542003960772	-0.0499514801598672	0.00982814057488937	0.608642578125	0.445068359375	-0.2080078125	0	0	0	-0.492388323455607	-0.590350381949893	-0.411740846777815	0.489397221641971	-0.0360881967473931	0.17835361674022	0.983304443929348	0.984372922538519	0.17604642803853	0.00419577738306676	-0.172358902956868	0.968089687255554	-0.181919669087615	178.678770007879	-79.5155859242321	101.438828640343
5854	1656046560016	9.43943386726162	0.0465431294919338	-1.75178163836003	0.00744105599333978	-0.00162490323597705	-0.21197089051004	0.0460055305364884	-0.0499180919653625	0.00795489166849491	0.616455078125	0.446533203125	-0.2001953125	0	0	0	-0.492401967252962	-0.590547623672151	-0.411462664896192	0.489379486919009	-0.0360960408566005	0.178850847639004	0.983213837439897	0.984296398971911	0.176477556083873	0.00403375378418297	-0.172793734855772	0.967919442152844	-0.182412386358822	178.733203315307	-79.4870951844547	101.410276576322
5855	1656046560017	9.51027996597328	0.019427132332749	-1.76949346712376	-0.0179461933952644	-0.00633121789839486	-0.139190271318991	0.0447580798791538	-0.0392770868648884	0.0100693292714813	0.61083984375	0.44970703125	-0.20556640625	0	0	0	-0.492401981064004	-0.590713058668379	-0.411210321300402	0.489391911476797	-0.0360716920506632	0.179250550336991	0.983141939516613	0.984222570977757	0.176892721400529	0.00385951984698607	-0.173218832147479	0.967769706758484	-0.182803257274215	178.790495569668	-79.4645414669946	101.378018785425
5856	1656046560018	9.49006900754693	0.0405082334410725	-1.74253400005191	-0.000326525985941231	0.0231087959594929	-0.163908123885703	0.0367878918052742	-0.0235773116119165	0.00373948566667073	0.615478515625	0.449951171875	-0.195068359375	0	0	0	-0.492371471716922	-0.590837168372899	-0.41103445804177	0.489420523283112	-0.0360757704571937	0.179485333189259	0.983098954305141	0.984160131358034	0.177242016283241	0.003755463911433	-0.173572390175565	0.967662277260922	-0.183036451383186	178.824594530258	-79.4510801742353	101.364774170758
5857	1656046560018	9.46012953478417	0.0290150154706062	-1.61695687118933	-0.0316951596791668	0.139517091470537	-0.216387441861738	0.0324993507967369	-0.0206237115775957	0.00727020862969985	0.61181640625	0.43994140625	-0.204833984375	0	0	0	-0.492354804526124	-0.590937816206534	-0.410871065099324	0.48945297189949	-0.0360450695176003	0.179698018210179	0.983061226585	0.98410627373167	0.177543428648379	0.00362945529588743	-0.173883854815329	0.967567544513101	-0.183241512325809	178.865293787205	-79.4392793018042	101.342262712443
5858	1656046560018	9.38741786185788	0.0291122201518865	-1.60775233518754	-0.0298983213306227	0.137723073595441	-0.289585603707328	0.0231762115917495	-0.0250665540613847	0.00626225414193796	0.6064453125	0.43994140625	-0.203125	0	0	0	-0.492368077381248	-0.59103134774851	-0.41072554687375	0.489448820102503	-0.0360270577523223	0.179951668119339	0.98301548728938	0.984068205332587	0.177756403042304	0.00352539798629331	-0.17410289590702	0.967481296107851	-0.183488755291054	178.89930270499	-79.4249899448382	101.321175102637
5859	1656046560020	9.37495107715321	0.0105866237430293	-1.68480959791872	-0.0338983232107834	0.0603705451739177	-0.287793218719281	0.0244194772174486	-0.0357118784855332	0.00415484629584135	0.617431640625	0.44384765625	-0.21044921875	0	0	0	-0.492387184286699	-0.591152398463319	-0.410563416111215	0.489419435548253	-0.0360469537156918	0.180276299187538	0.982955275218087	0.984027160667192	0.177985084202611	0.00344338070129774	-0.174330617497568	0.967378811920457	-0.183812594917438	178.926797655115	-79.4062082188051	101.307394116431
5860	1656046560020	9.41502147721579	0.0133793159880063	-1.74403369392952	-0.0220892320287947	0.0145242926081278	-0.237523564304167	0.0183765460670337	-0.0403187279757455	0.00595185499942753	0.6103515625	0.4521484375	-0.20361328125	0	0	0	-0.492442562001275	-0.591274118130073	-0.410395262234892	0.489357710774316	-0.0360587080706838	0.180676911074252	0.982881286512741	0.983997255233819	0.178152103729549	0.00335106386782669	-0.174496909040199	0.967273323182958	-0.18420951928175	178.957813681466	-79.3831741787869	101.286551048097
5861	1656046560022	9.4618127619104	-0.0125010022793371	-1.75750770015273	-0.0467349137208736	0.00884859041952804	-0.189141929198573	0.00914536890358728	-0.0386455975873055	0.00521648682963867	0.60302734375	0.450439453125	-0.20751953125	0	0	0	-0.492507555090736	-0.591365128139989	-0.410269177188801	0.489288049769605	-0.0360670250624028	0.181023975677714	0.982817119271425	0.98398319802687	0.178231020854739	0.00328164682600052	-0.174574441726047	0.967193891334572	-0.18455281320296	178.981295941333	-79.3632376661847	101.267997964011
5862	1656046560023	9.48161950461089	-0.0110790690235399	-1.7881968697094	-0.0408301731489358	-0.0140754608691146	-0.164007989109145	0.00588277343523539	-0.021525091147649	0.000108865385170531	0.615478515625	0.448486328125	-0.197265625	0	0	0	-0.492537637242345	-0.591429583876559	-0.410198507839178	0.489239110642066	-0.0361035370357771	0.181232353351683	0.982777374949239	0.983972965999452	0.17828772013248	0.0032697143918427	-0.174624559543462	0.9671444168006	-0.184764553569344	178.986162235594	-79.3509077628975	101.266476069506
5863	1656046560025	9.46020045027971	-0.0374159679793453	-1.76429375241542	-0.0700782769525531	0.00199669397002723	-0.189558464536928	0.0106389185764461	-0.0170456472917813	0.00146785917745546	0.605712890625	0.44482421875	-0.19677734375	0	0	0	-0.492546266605894	-0.591477760743926	-0.410127120011986	0.489232030051816	-0.0361003920479495	0.181365678664132	0.982752894829969	0.983954972675207	0.178387841366539	0.0032233213180009	-0.174726567647043	0.967100960942179	-0.184895532404106	179.001252225145	-79.3433202995201	101.257449818562
5864	1656046560027	9.47190757774813	-0.0202798833894102	-1.69217926180018	-0.0660644179053375	0.0790756761609459	-0.191341456695982	0.0184676461786517	-0.0264907168409704	0.00502791917779477	0.604736328125	0.451904296875	-0.20947265625	0	0	0	-0.492570276667689	-0.591568041014866	-0.409994961902184	0.489209471094108	-0.0360972318706787	0.181630830334076	0.982704040555155	0.983924504187743	0.178557307516686	0.00313974382632215	-0.174898713289086	0.967019921927437	-0.185156449213298	179.028514367192	-79.3281941546438	101.240475563349
5865	1656046560028	9.48650869618345	-0.0656602378756325	-1.75070216877518	-0.100350136480331	0.0191665657871404	-0.166305731124815	0.0244623068570064	-0.0249440237548222	0.00309280468561219	0.6083984375	0.45068359375	-0.213623046875	0	0	0	-0.492567332271968	-0.591653524948642	-0.409857667465785	0.489224102036918	-0.0360744023292953	0.181833898168728	0.98266732466962	0.983882895484307	0.178788231195964	0.00303584571977289	-0.175137333170287	0.966939089013668	-0.185352940811353	179.061651815404	-79.3168402020141	101.221320570071
5866	1656046560029	9.48691035785727	-0.0420859667578761	-1.75044258240261	-0.0768258690224613	0.0256841003647298	-0.165888591755357	0.023103478858659	-0.0142285753095613	0.0036757895515656	0.606689453125	0.444580078125	-0.211181640625	0	0	0	-0.492550844546982	-0.591726618301564	-0.409745285213601	0.489246436854346	-0.0360631791227609	0.181978049553486	0.982641051754031	0.983843732787975	0.179004933562558	0.00295689264048798	-0.175359506629617	0.966871875297329	-0.185493450541101	179.086743383661	-79.3087229293748	101.209257002135
5867	1656046560029	9.46342456010119	-0.0179354033180562	-1.74517795616386	-0.0521077396050263	0.0311359285457176	-0.189866179574857	0.0244797292934281	-0.000274275354216869	-0.000411401119138411	0.606689453125	0.447998046875	-0.209716796875	0	0	0	-0.49249075557175	-0.591753490818561	-0.409672168241907	0.489335647943606	-0.0360069586559563	0.181931855828676	0.98265166705353	0.983800639393138	0.179243140488684	0.00286330532883794	-0.175612644356835	0.966836437264591	-0.185438676439171	179.11538262658	-79.3120018957374	101.194993896988
5868	1656046560030	9.41906974674679	-0.0196639902289569	-1.7131260189398	-0.0574195758634759	0.0534702959847859	-0.239396068360628	0.0169842279013142	0.00743502275414227	0.000520520839316335	0.609375	0.449462890625	-0.208984375	0	0	0	-0.492435510630723	-0.591768820287092	-0.409638928352168	0.489400530837852	-0.0359887765709771	0.181860944412029	0.982665459278227	0.983770980361628	0.179406432496694	0.0028266901370933	-0.17578243984894	0.96681949136143	-0.185366137588233	179.126351420462	-79.3162636701797	101.193736408071
5869	1656046560031	9.44705648968501	-0.0226275784798504	-1.69246495866542	-0.0637976559671132	0.0770062084471078	-0.215717744045067	0.0109427095950676	0.0028309726349511	0.00232623319611365	0.609375	0.447998046875	-0.201416015625	0	0	0	-0.4924106545576	-0.591747690711758	-0.40960730278318	0.489477553440549	-0.0358869439120207	0.181778574557264	0.98268442395745	0.983752896308037	0.179507209569687	0.00272042607941086	-0.175904423657294	0.966816276003065	-0.185267164369085	179.15874066352	-79.3221264696179	101.167790652986
5870	1656046560031	9.44709244172298	-0.0228836452699669	-1.69226081970694	-0.0637976373336337	0.0770064295792259	-0.215717745695569	0.0106811841397402	0.00143856680132659	-0.000778837645800929	0.614990234375	0.44140625	-0.213623046875	0	0	0	-0.492379262741417	-0.591767970989532	-0.409581135314135	0.489506510404035	-0.0358920757885668	0.181763289989729	0.982687063773457	0.98373381908951	0.179611910434006	0.00270828540114471	-0.176010034018391	0.966799704200594	-0.185253339733697	179.162431997177	-79.3229428027622	101.170263127731
5871	1656046560033	9.44404458885937	0.00332828598698025	-1.71421293566684	-0.0328610879919402	0.0592008503294022	-0.214566157631413	0.0169623354240265	-0.00180781063486867	0.00164760445587211	0.61474609375	0.441162109375	-0.2080078125	0	0	0	-0.492345620859967	-0.591762434210116	-0.409524191326969	0.48959467705003	-0.0357856836485803	0.181701557751766	0.982702360206988	0.983705014539375	0.17977145267601	0.00258247417128893	-0.176192591262777	0.966781655139018	-0.185173977844538	179.200993138081	-79.3276742661829	101.141670447724
5872	1656046560033	9.43947486017857	-0.0190143563777733	-1.740470176532	-0.0498806089922144	0.0291624929473218	-0.214252849488734	0.0105151538854279	-0.00155165788217034	-0.00242936822580168	0.612548828125	0.444580078125	-0.21142578125	0	0	0	-0.492315892716489	-0.591793702709563	-0.409495184346687	0.489611038691882	-0.035812185139645	0.1817121650123	0.982699433439373	0.98368561520152	0.179877511551279	0.00258675157763921	-0.176295484460404	0.966759933967405	-0.185189449575858	179.19973675341	-79.326768803664	101.149080329311
5873	1656046560035	9.45977362878672	-0.0172897550127415	-1.76840976653234	-0.0429479158468521	0.00532435291852595	-0.189121688368603	0.0106576165275119	-9.07052393571824E-05	-0.000844367552928258	0.61279296875	0.442138671875	-0.197021484375	0	0	0	-0.492285819727774	-0.591772799188598	-0.409466943955948	0.4896901547334	-0.0357164481042652	0.181618852794315	0.982720167516925	0.983666577370318	0.17998298700466	0.00248776072892032	-0.176421086889803	0.966757837671129	-0.18508074832911	179.229905821506	-79.3331850021628	101.125589930866
5874	1656046560035	9.48014124699811	-0.0155137605566321	-1.79598445212872	-0.0370302353455177	-0.0176090371500147	-0.163998459046992	0.0105133424674299	0.00616137742714943	-0.00362361699821296	0.61083984375	0.44970703125	-0.21533203125	0	0	0	-0.492236802132661	-0.591788075518323	-0.409459800625203	0.489726940215158	-0.0357409093074212	0.181552749064184	0.982731492682063	0.98364673026934	0.180091204596361	0.002503608888765	-0.176526761235556	0.966750100767654	-0.185020391398937	179.224747782425	-79.3366912067695	101.136971495509
5875	1656046560037	9.43284023591397	0.0097672204474559	-1.78535597901116	-0.0113039761689439	-0.0130874461327875	-0.212386996354187	0.0106069821134629	0.0122774948991333	-0.00336353775921898	0.611083984375	0.449951171875	-0.200927734375	0	0	0	-0.492178214651007	-0.591743011917532	-0.409467295633436	0.489833999102099	-0.0356465166931834	0.181344032432265	0.982773456982253	0.983628044118856	0.180194277659175	0.0024275752928431	-0.17664992689089	0.96677006790658	-0.184798374260569	179.247386133656	-79.3496930538363	101.120757442545
5876	1656046560037	9.41723214629464	0.0302555999226914	-1.7304668775682	-0.000197128497722576	0.039884770138035	-0.237819141673331	0.00761062991411352	0.00764834379997577	-0.00179754281464626	0.6083984375	0.44580078125	-0.21484375	0	0	0	-0.492138657700835	-0.591744152911949	-0.409467980146461	0.489871791722812	-0.0356503385414051	0.181266720057872	0.982787581098451	0.983613972407743	0.180271029662396	0.00243087406473358	-0.176727492615445	0.966770258160604	-0.184723201818118	179.246056888955	-79.3540726752787	101.126545321342
5877	1656046560038	9.43011360753192	0.0365405103613129	-1.80564064414115	0.0196675550461769	-0.0308705176612398	-0.211261627497059	-0.000239671839929003	0.00784842774898196	-0.00423512456344158	0.60546875	0.44921875	-0.201904296875	0	0	0	-0.492111723367142	-0.591693540982806	-0.409499066936846	0.489933995005146	-0.0355814645258382	0.181103628686013	0.982820143799951	0.983613683947008	0.180273131804949	0.00239138065377281	-0.176742977609839	0.966800431126298	-0.184550389432299	179.257610069326	-79.364176545879	101.115336555184
5878	1656046560039	9.40164608436227	0.0151110263595974	-1.82701581237816	0.00323263117070057	-0.0614936623153768	-0.235350978374065	0.00144827532766674	0.0108258373119418	-0.00270586041586904	0.60498046875	0.446533203125	-0.2041015625	0	0	0	-0.492078034922988	-0.5916765318198	-0.409528078809833	0.489964123080814	-0.035588731279958	0.180993918153811	0.98284009065423	0.983610182197933	0.180291920425316	0.00241514096931023	-0.176761001588113	0.9668174724428	-0.184443821519952	179.249801508526	-79.3703705379799	101.124121017004
5879	1656046560040	9.45017207838119	0.0145256287591194	-1.83308108168532	0.00270808919908888	-0.060843170613991	-0.186554186302914	-0.00445549782269537	0.0231094984613845	-0.00170571992314421	0.607666015625	0.4375	-0.2099609375	0	0	0	-0.4920395600257	-0.591585521320782	-0.409603943892399	0.490049233731803	-0.0354976397771777	0.180714761580514	0.982894751495371	0.983619156932492	0.180243361035016	0.00238430665261152	-0.176729374144941	0.966878744077921	-0.18415271533333	179.258207650406	-79.3873623960189	101.113070246218
5880	1656046560043	9.38276930504662	0.03805905450222	-1.79340657191288	0.0214755697359962	-0.0325555126291004	-0.260064997163674	0.000207284941592174	0.0214739474643698	-0.000611045296550906	0.608154296875	0.446044921875	-0.2109375	0	0	0	-0.491993224702943	-0.591534699656604	-0.409657875699133	0.490112018651089	-0.0354657520403096	0.180505631985041	0.982934330082075	0.983618625645916	0.180246183448146	0.00239011188366239	-0.176738732921379	0.966917281970934	-0.183941268102857	179.255547064171	-79.3996825932441	101.115879349639
5881	1656046560045	9.40350814761601	0.0398027936732534	-1.81916557423554	0.0281654351210594	-0.0558123644840786	-0.234952534934145	-0.00269632598006811	0.022960720635007	0.00121366059941348	0.60693359375	0.44384765625	-0.212646484375	0	0	0	-0.491958942989817	-0.591448316435066	-0.409704519567406	0.490211682892715	-0.0353378087356671	0.180252693121225	0.982985353856458	0.983620461224784	0.180237210116765	0.0023100539536407	-0.17675414431833	0.96696613938228	-0.183669425203065	179.279415376326	-79.4155864174408	101.091930328364
5882	1656046560046	9.4039125892298	0.0397655720165502	-1.81707451530637	0.0281662093854508	-0.0558136632334075	-0.234952544779365	-0.00728741895212259	0.0214701044772872	0.00150804336294508	0.610595703125	0.446533203125	-0.211669921875	0	0	0	-0.491937288466722	-0.59137698123498	-0.409775224574143	0.490260375317669	-0.0352849372187748	0.18004766642954	0.983024827264675	0.983633888011946	0.18016393908244	0.00230855123418244	-0.176689975833291	0.967017989939988	-0.183458059437177	179.279054503705	-79.4279062835849	101.088045481408
5883	1656046560047	9.42539662327091	0.0656862368379336	-1.84082030731459	0.0582684719823049	-0.0723441460212033	-0.209437581625769	-0.00857407775193312	0.0213471061494843	0.00466748351305621	0.609375	0.44091796875	-0.2158203125	0	0	0	-0.491934352291013	-0.591281042970232	-0.4098238367253	0.490338397549907	-0.035137697848422	0.179838187035754	0.983068445569079	0.983647640546308	0.180090031775552	0.00221352722174201	-0.176642750877566	0.967070735230248	-0.183225357479887	179.307849088508	-79.4415363225951	101.055462474802
5884	1656046560048	9.39343100884006	0.045839548375209	-1.88512546565248	0.0483324071822387	-0.126482296075991	-0.232812036287669	-0.0100968080004772	0.0213597736758696	0.00478695862608866	0.610595703125	0.45068359375	-0.209716796875	0	0	0	-0.491929502575895	-0.591196282800184	-0.409894363294404	0.490386511476562	-0.0350528677145597	0.179640452865527	0.983107625928745	0.983667120424924	0.179983950869814	0.00218486251961214	-0.176551104952427	0.967127233161987	-0.183015360602646	179.316027604039	-79.4537944209052	101.041269561393
5885	1656046560049	9.39909799043713	0.0918890079048742	-1.85479455966498	0.0893534549836626	-0.0896974518554742	-0.232722887652402	-0.00981497935808725	0.0242814486723551	0.00795715261562403	0.609375	0.447265625	-0.21142578125	0	0	0	-0.491937823811716	-0.591094466753596	-0.40993966313613	0.49046302762238	-0.034886392077763	0.179442954635332	0.983149615104201	0.983683947932311	0.179893300182459	0.00207150422788022	-0.176490311995019	0.967180762102517	-0.18279098224665	179.350715404926	-79.4669469516085	101.001912200821
5886	1656046560049	9.38588186266991	0.0609214015030187	-1.77892281080275	0.0468921142599349	-0.0262291875964077	-0.259668521721089	-0.00988513322438219	0.0196944182165773	0.00776148637999719	0.61181640625	0.450439453125	-0.20849609375	0	0	0	-0.491944660619799	-0.59100704841861	-0.409997972722553	0.490512774523346	-0.0347753378341605	0.179267037418232	0.983185641256935	0.983704010014577	0.179784226502136	0.00201310264761251	-0.176400387073728	0.967233664217866	-0.182597760785613	179.368351440098	-79.4782446040431	100.978241717397
5887	1656046560050	9.40735981909242	0.0864400855587176	-1.80280223108303	0.0764990444833587	-0.0423026025204193	-0.234151743143823	-0.00988525305669853	0.0196942060431309	0.00776151905583655	0.611083984375	0.445068359375	-0.207275390625	0	0	0	-0.491962604366154	-0.590923807774328	-0.410041056081352	0.490559050103502	-0.0346492285336425	0.179126128959837	0.983215775344297	0.983723532858655	0.179678256465921	0.00193262863818777	-0.176316311956977	0.967279460175409	-0.18243630137848	179.393063103982	-79.4877037493909	100.947789938836
5888	1656046560051	9.42811838631776	0.0877331022532086	-1.82867574598459	0.0824247929835801	-0.0652333669479463	-0.209036036306287	-0.0130244921261022	0.0213172016664583	0.00654459958337649	0.6064453125	0.44775390625	-0.20263671875	0	0	0	-0.491970159349272	-0.590829059983567	-0.410115612931268	0.490603269678053	-0.0345475881821104	0.178932412276395	0.983254624188338	0.98374865487679	0.179541092679725	0.00189210662395933	-0.176196050406658	0.967340781667102	-0.182227231622428	179.405106320861	-79.4999109056333	100.927982277642
5889	1656046560052	9.41592202981746	0.0452290566250129	-1.90249061166805	0.0546759241653128	-0.148421128536958	-0.207684246535615	-0.0098385170475811	0.0304639466002566	0.00670036134687677	0.608154296875	0.44140625	-0.203369140625	0	0	0	-0.491960750977002	-0.590729154478251	-0.410198841982333	0.490663423931219	-0.0344480478284739	0.178691980322914	0.983301839807636	0.983770253521606	0.179423059068993	0.00185853715606388	-0.176094918401535	0.967407123212663	-0.181972628904891	179.414842586955	-79.5147660032832	100.911561511015
5890	1656046560053	9.34786979890832	0.0437248770943029	-1.86428203409808	0.049901131084024	-0.126646179212622	-0.28160143084259	-0.0111278772566627	0.0303398184167699	0.00985878722432826	0.606689453125	0.43701171875	-0.205810546875	0	0	0	-0.491954880300826	-0.590607921791515	-0.410281996711964	0.49074571993992	-0.0342980682176978	0.178416631229728	0.983357080727632	0.983793166648931	0.179298157844487	0.00178209103068039	-0.175996158399558	0.967481098675426	-0.181674643069386	179.437989703476	-79.5321725019627	100.881556134098
5891	1656046560054	9.32502938283528	0.0676822296247154	-1.85580052824556	0.0737910506664533	-0.119879372570635	-0.305588291543023	-0.0110821993239011	0.0256844193946319	0.0111818240525459	0.6142578125	0.449462890625	-0.21044921875	0	0	0	-0.491979361814288	-0.590517975141727	-0.410329975932456	0.490789302485894	-0.0341643362284314	0.178274187746298	0.983387569635425	0.983816438454072	0.179171236800152	0.00169803741059604	-0.175892050865338	0.967530868699754	-0.18151034283336	179.464011044605	-79.5417918726066	100.848590849553
5892	1656046560055	9.35323976752177	0.0642561802710401	-1.83362394891172	0.0667094358349187	-0.0957688729075791	-0.281906819841225	-0.0112476903467922	0.0149824761762582	0.0107215346473918	0.610595703125	0.450927734375	-0.21337890625	0	0	0	-0.492007924520638	-0.590431886523994	-0.410373477174049	0.4908278708638	-0.0340324067844054	0.178148853998326	0.98341485707078	0.983839814239576	0.179043622881949	0.00161276853340575	-0.175786845939896	0.967577576695734	-0.181363220830778	179.490511944404	-79.5504085916005	100.815110625094
5893	1656046560056	9.34235516603506	0.0699471911972723	-1.90459757513045	0.0857352646773177	-0.165073294801801	-0.279724301262359	-0.0187239038243111	0.00879631429489513	0.0140875537029687	0.612060546875	0.4443359375	-0.201416015625	0	0	0	-0.492092358347726	-0.590382793263038	-0.410383960435121	0.490793513906095	-0.0339336751269629	0.178218150144147	0.983405713147721	0.983873294114758	0.178860231746716	0.00153578230443441	-0.175618469473326	0.967598733183705	-0.181413463450586	179.514965754903	-79.5475203770077	100.780376677773
5894	1656046560058	9.36666664533459	0.0685374256203514	-1.90744736829281	0.0851532369123041	-0.164475397627103	-0.255324049287962	-0.0156546991717741	0.0102980471673501	0.013917963065656	0.602294921875	0.447509765625	-0.197021484375	0	0	0	-0.492150705218175	-0.590291571500547	-0.4104209769309	0.490813779007633	-0.0337790353789992	0.178144285053757	0.983424420314825	0.983905367739597	0.178684610096678	0.00142739195985353	-0.175468527383326	0.96764478183747	-0.181312912062663	179.548946379037	-79.5534300984007	100.73673948473
5895	1656046560060	9.36613983978438	0.0432869947596468	-1.9084304977642	0.0607957674225733	-0.169870378154998	-0.255700182248853	-0.027789356023222	0.0134632559452788	0.0149921341109382	0.616455078125	0.437255859375	-0.2060546875	0	0	0	-0.492258157829915	-0.590200114834765	-0.410495948126976	0.490753305715065	-0.0336861979592681	0.178157155507225	0.983425273220402	0.983966129611038	0.178349965242467	0.00139487500701485	-0.175145356333884	0.967704147887971	-0.181308539002143	179.559210644091	-79.5536996158798	100.707158456561
5896	1656046560061	9.40234495890387	0.0598025829362023	-1.83683130818822	0.0642197694307972	-0.0921984493656783	-0.233074035769873	-0.026546715140482	0.0105302042174871	0.0117018809710986	0.6181640625	0.442138671875	-0.206298828125	0	0	0	-0.492336096422171	-0.590091152910953	-0.410571597109206	0.490742868581089	-0.0335532101931642	0.178076182868293	0.983444485052813	0.984016516161457	0.178072263613949	0.00132847765286098	-0.174887615362561	0.96777019070979	-0.181204801168	179.579951532624	-79.5597723625221	100.670598444832
5897	1656046560064	9.38289841854095	0.0817067178061628	-1.80585398651715	0.0816674696358044	-0.0609434142663505	-0.257783724666295	-0.0250000294469066	0.0120449449165756	0.0116509151157388	0.606201171875	0.448486328125	-0.2060546875	0	0	0	-0.49245025619105	-0.590024264568931	-0.41059394950101	0.490690045782898	-0.0334320482938922	0.178166472734149	0.983432258033235	0.984063928249476	0.177810707621061	0.00123990866919982	-0.174643875544164	0.967801663693946	-0.181271775205478	179.608099905498	-79.5559070699407	100.627680959481
5898	1656046560063	9.35528729457764	0.0837232768077227	-1.82513629708734	0.088762896228224	-0.0850591035470291	-0.281453525008661	-0.0235257116873792	0.00897349066911769	0.0114000292567821	0.616943359375	0.4541015625	-0.2021484375	0	0	0	-0.492523372146321	-0.589925691683291	-0.410657189983061	0.490682258184281	-0.0333032987855839	0.178099987326211	0.98344866912534	0.984108776608209	0.177562800409668	0.00116949278435979	-0.174415613098983	0.967859414597534	-0.181183187636783	179.630175012249	-79.5610953863875	100.591543017203
5899	1656046560064	9.35381568321294	0.0345990734263252	-1.82904181255578	0.0404647745978078	-0.0964882476392377	-0.282235563055339	-0.0299026710599784	-0.00160292488054988	0.0098813251658842	0.612548828125	0.445068359375	-0.21240234375	0	0	0	-0.492644315481681	-0.58990998743128	-0.410700864118296	0.490543153417616	-0.0333379861173762	0.178298609915923	0.983411503076758	0.984164597899637	0.177252757272143	0.00122649112078727	-0.174093718791587	0.967879675239373	-0.181384429695174	179.612581443919	-79.5493491018617	100.590781216354
5900	1656046560064	9.40645508023961	0.0552932549658783	-1.81071375746042	0.0563149998320939	-0.0652513113128361	-0.233767294465121	-0.032790172355978	-0.00630198282266621	0.0129548087458742	0.61474609375	0.45068359375	-0.2080078125	0	0	0	-0.492775892831571	-0.589826076640787	-0.410750377647614	0.490470433380981	-0.0332213468462419	0.178382311591559	0.983400271011237	0.984225974536466	0.176912093412782	0.00115855601962667	-0.173768734706406	0.967926578886828	-0.18144576248283	179.634163580019	-79.5458017893818	100.549720080192
5901	1656046560065	9.4063345225333	0.0546884276568128	-1.81135829411662	0.0552285083212456	-0.0630767502893648	-0.233746402348038	-0.0358606258768754	-0.00780349530330571	0.0131224666795715	0.607177734375	0.4462890625	-0.19921875	0	0	0	-0.492939258811284	-0.589823608167756	-0.410755985296888	0.490304516513294	-0.0332247364184952	0.178703394927357	0.983341859950729	0.984285454031086	0.17658081533073	0.0011664647248486	-0.173430856172543	0.9679278445724	-0.181762003258896	179.632307154406	-79.5273735564917	100.532239854183
5902	1656046560066	9.42962094801656	0.0293811667146065	-1.81754782187751	0.0311156464812497	-0.0689856432481726	-0.209752012045707	-0.031260961705214	0.001396931021173	0.011655931679065	0.615234375	0.441162109375	-0.2109375	0	0	0	-0.49304740150997	-0.589727416409875	-0.410822862440088	0.490255453712994	-0.0331076999378658	0.178710842877681	0.983344453811976	0.984343438162625	0.176257671121599	0.00110865547923839	-0.173123874584084	0.96798536559637	-0.181748331602398	179.650503025312	-79.5281912190186	100.495537458711
5903	1656046560067	9.42148405383699	0.00911136834557326	-1.86763168958744	0.0197288043227988	-0.120716730094782	-0.208650130084301	-0.0132181704809651	0.00137083600901053	0.0072055836973458	0.615234375	0.43505859375	-0.205810546875	0	0	0	-0.493127716948471	-0.589739245254226	-0.410814927237996	0.490167086759815	-0.0331225636691688	0.178897623050873	0.983309989902843	0.98436944737765	0.176112300671257	0.00111741742270993	-0.172973081273941	0.967977323091313	-0.181934645231671	179.64810167314	-79.5173323134948	100.489425309566
5904	1656046560068	9.45385197896888	0.027923276104033	-1.82073782158599	0.0296549646345024	-0.0665429134987239	-0.185336962437555	-0.0130037862350872	0.00741438732978801	0.0089975660146962	0.613525390625	0.448974609375	-0.202880859375	0	0	0	-0.49317095407552	-0.589672305301545	-0.410849220693671	0.490175377056015	-0.0330210195684702	0.178842163461569	0.983323493482712	0.984394850128329	0.175970655823289	0.00105229746147523	-0.172847884879985	0.968013330929645	-0.181862035166794	179.668476543659	-79.5215857022908	100.46114981307
5905	1656046560069	9.43071288082484	0.0520405778542302	-1.81383068339331	0.0532297054503798	-0.0586958435276348	-0.209315213064052	-0.0113820420472458	0.0135147834473286	0.00915253080054989	0.607666015625	0.447021484375	-0.20263671875	0	0	0	-0.493239138978365	-0.589645767985591	-0.41085019431184	0.490137876429161	-0.0329600277387871	0.178926258265873	0.98331024131473	0.984419225347926	0.17583453922761	0.00100178840286025	-0.172720656948867	0.968022525005275	-0.181933959846872	179.684513724599	-79.5174114882014	100.437452906989
5906	1656046560070	9.39005708552573	0.0477110276502409	-1.75715893372485	0.0414153473389032	-0.0128839768634093	-0.259615888618752	-0.0174077458753027	0.0104426073711075	0.0110056329532093	0.606201171875	0.44287109375	-0.206787109375	0	0	0	-0.493293055767172	-0.589557129992659	-0.410899809539763	0.490148649010575	-0.0328325260099888	0.17884490335757	0.983329306884944	0.984452849456039	0.175646615304144	0.000923975152431034	-0.17255321623687	0.96807167455474	-0.18183129678659	179.708854185789	-79.5234173469493	100.402585966265
5907	1656046560071	9.40618677844632	0.0268011416888039	-1.81028454742091	0.0290918395243933	-0.0641621920098499	-0.234105266808163	-0.0205034427184906	0.00741349961695216	0.011103609637934	0.611083984375	0.44482421875	-0.204833984375	0	0	0	-0.493380067708117	-0.589534079179406	-0.410933886878027	0.490060219656463	-0.0328341797971874	0.178964026068096	0.983307578538142	0.984493429539015	0.175418898807302	0.000947172498183657	-0.17232122281238	0.968090949918824	-0.181948643451153	179.701737284898	-79.5165729558344	100.396324999505
5908	1656046560071	9.39982197865037	0.0552224822330456	-1.8551504367289	0.0656300970664826	-0.104676609010138	-0.23218522257128	-0.025318908685547	0.0137848146948578	0.00716949886598357	0.617431640625	0.45361328125	-0.204833984375	0	0	0	-0.493435058335814	-0.589430678391906	-0.411024525996549	0.490053219155738	-0.0327393712004607	0.178843738121316	0.983332624755323	0.984539306587597	0.175161364468888	0.000922052824185338	-0.172076980905093	0.968159807951245	-0.181813362848821	179.70943124544	-79.5244628594583	100.373778806681
5909	1656046560071	9.37437810105342	0.00682695692262938	-1.85442197763778	0.0179069554053147	-0.116469300804991	-0.257374372908666	-0.0312705897055306	0.0152983357191168	0.00922679539484454	0.608154296875	0.44189453125	-0.204833984375	0	0	0	-0.493519438885224	-0.589385902046156	-0.411100460181202	0.489958399816205	-0.0327586597839149	0.178902552061187	0.983321283749699	0.984591046597536	0.174869950162435	0.000985642002183817	-0.171777010013362	0.968201620219767	-0.181874356176696	179.689496775842	-79.5208895586593	100.376419573093
5910	1656046560071	9.40528572435792	-0.0226866252363087	-1.81107117701799	-0.0192233333190983	-0.075320945491035	-0.234908382496435	-0.0254845871335817	0.0107989294628234	0.00551203490284916	0.60888671875	0.455078125	-0.203369140625	0	0	0	-0.49357597046071	-0.589293599071572	-0.411188445953755	0.489938646558096	-0.0326857679851799	0.178808098714252	0.983340889216661	0.984636541477889	0.17461364659581	0.000977552543231397	-0.171529944201239	0.968265324307707	-0.181768369045915	179.691865557833	-79.5270675683567	100.359181665828
5911	1656046560073	9.40913362880805	-0.0250904597964781	-1.78610820018148	-0.0271407491397916	-0.0500779877491815	-0.235664693681421	-0.029963687453276	0.00924080601960448	0.00731379138006258	0.609619140625	0.45068359375	-0.21044921875	0	0	0	-0.493663108684239	-0.589266712643275	-0.41126331674975	0.489820335215674	-0.0327455486668345	0.178908203070697	0.98332069230568	0.984688745759788	0.174318438840415	0.00107510662513843	-0.171218582567789	0.968300024142442	-0.181877047010398	179.661318700131	-79.5207032407455	100.372036230377
5912	1656046560076	9.40118018580102	-0.0447520053243527	-1.83543304056909	-0.0376643783445378	-0.103630322854365	-0.234543067083916	-0.0226689490901939	0.0109145032727378	0.00223890958216204	0.610595703125	0.45556640625	-0.2119140625	0	0	0	-0.493702607898374	-0.589188283349255	-0.411351563067582	0.489800768966484	-0.0327058833483691	0.178806960253253	0.983340427400091	0.984728207877521	0.174095253032402	0.00109520861487777	-0.17099906960194	0.968358876572407	-0.181770196563395	179.654783494964	-79.5269220008082	100.365483290939
5913	1656046560077	9.40952145371799	-0.0247668563006147	-1.78406848546504	-0.0290297067444943	-0.0475410292265714	-0.235657303507166	-0.0167818445322293	0.012530642164253	-0.00119865973182843	0.607666015625	0.45068359375	-0.20458984375	0	0	0	-0.493707682099148	-0.589255382048875	-0.411379788873541	0.489691217676081	-0.0329104719344083	0.178941678189968	0.983309095169781	0.984737957153222	0.174038787885296	0.00128687727339338	-0.17090364706101	0.968344141366062	-0.181938361274556	179.594745129965	-79.5170505486882	100.421225769086
5914	1656046560080	9.41711742493863	-0.0290045345984673	-1.73455228090927	-0.0420725592415131	-0.000486085468742039	-0.237206023560391	-0.0166814423090988	0.0186444761686658	-0.000919973646270636	0.623779296875	0.4365234375	-0.208251953125	0	0	0	-0.493706954947123	-0.589179129312474	-0.411477052869904	0.489701982006335	-0.0328908229118118	0.178761411021482	0.983342540368204	0.984765924383553	0.173880155196675	0.00132883474806744	-0.170746209156137	0.968405932219743	-0.181757207561131	179.581115559242	-79.5275880382916	100.425412718669
5915	1656046560081	9.41008941240228	-0.0241356985562703	-1.78107902083382	-0.0292360363314097	-0.0452763927439113	-0.235646957102013	-0.0134813547469367	0.0138847044127041	0.00167740213347804	0.611328125	0.4453125	-0.20654296875	0	0	0	-0.493763208895638	-0.589171867716594	-0.411476119594985	0.489654783327475	-0.0328721734112122	0.178860283620139	0.983325184849116	0.984785284358989	0.173770593088273	0.0013132736713628	-0.170638108068536	0.968407341938853	-0.181851192335155	179.586234603645	-79.5221185731059	100.413997052761
5916	1656046560082	9.44046123892307	0.0459974436972981	-1.7530637493657	0.0342002979484588	-0.00152449073858099	-0.210787307894964	-0.0119442056430533	0.0076835214097127	0.00280128840298283	0.601318359375	0.447998046875	-0.20849609375	0	0	0	-0.493784638656932	-0.589122937878633	-0.411522719299609	0.48965288336938	-0.0328335688689913	0.178793141855699	0.983338684879576	0.984806286163945	0.173651564253396	0.00130880263143052	-0.170524295885673	0.968441090958927	-0.181778210616616	179.587477668661	-79.526372765167	100.405855081958
5917	1656046560083	9.40312871986567	-0.0196341206558861	-1.82733555970473	-0.0173297994987082	-0.090374867214197	-0.234070423062532	-0.00418926095863055	0.00906762214467791	0.00380913001854635	0.608154296875	0.44384765625	-0.20556640625	0	0	0	-0.493805128812901	-0.589158830719596	-0.411510976447273	0.489598900332308	-0.0328988231029389	0.178908661502978	0.983315492747702	0.984809947676014	0.173630422042974	0.00135775533340932	-0.170490569817829	0.968423547514409	-0.181903266113614	179.572342997452	-79.519065406234	100.419498311368
5918	1656046560083	9.42176864709042	0.0327124817705367	-1.87358179875743	0.0420938959587524	-0.123681100099208	-0.207270441034957	0.0233012387316745	0.0133956671055688	0.00192486912118758	0.611572265625	0.449951171875	-0.2080078125	0	0	0	-0.493725742892306	-0.589171316892308	-0.411469755076585	0.489698571382477	-0.0328603999828027	0.178785789790782	0.983339125369197	0.98477039470319	0.173855062925311	0.00129877302142528	-0.170726283357587	0.968405936817884	-0.181775899686351	179.590633595742	-79.5265116030804	100.414591496357
5919	1656046560084	9.40518159371987	0.0279308837429186	-1.82056439957305	0.0288211653004317	-0.075262045282632	-0.233220754657434	0.0202549583211691	0.0134240758184469	0.00215740804603515	0.615234375	0.447021484375	-0.205322265625	0	0	0	-0.493677187077274	-0.589250101102924	-0.411388686328915	0.489720840959657	-0.0329126657784719	0.178867437934412	0.983322529019921	0.984729891655552	0.174084367440079	0.00129363558766238	-0.170949691170826	0.968349664459986	-0.181865693380671	179.592454145764	-79.5212818569606	100.426136083267
5920	1656046560085	9.42866717265601	0.00251563552104501	-1.8256649336269	0.00465216754502685	-0.0810924054762567	-0.209238723463793	0.0263103560903925	0.00412287664789947	0.00279466003671109	0.6123046875	0.44189453125	-0.204833984375	0	0	0	-0.49361197228222	-0.589289772281405	-0.41131333234599	0.489802131210782	-0.0328821861620661	0.17883667992618	0.98332914313885	0.984685267040078	0.174337126908189	0.00122108787897129	-0.171212402317745	0.968309871938926	-0.181830429791626	179.615234203391	-79.5233657506824	100.418444479756
5921	1656046560086	9.47341414499388	0.00323878744664724	-1.85641486888411	0.00971696263643825	-0.101329569548176	-0.159630850857512	0.0353206723758737	0.0102948373215399	-0.000663901652130267	0.612548828125	0.452392578125	-0.207763671875	0	0	0	-0.493543954949864	-0.589389823661099	-0.411177990251513	0.489863920522742	-0.0328954078050711	0.178937044479267	0.983310442463805	0.98462209382834	0.174694049730347	0.00114949289124977	-0.171572796475531	0.968226999779409	-0.18193199940563	179.637995431888	-79.5174748345538	100.416823934926
5922	1656046560087	9.4817655034557	0.0223222169193268	-1.80474062351689	0.0201918640299744	-0.0477248223729999	-0.160807836774936	0.0369943870142507	0.019450640881298	-0.000364422611660539	0.61083984375	0.442138671875	-0.202880859375	0	0	0	-0.49341187913886	-0.589421624766796	-0.411116378383167	0.490010397039734	-0.0328690566352417	0.178752663360383	0.983344858357168	0.984557862564676	0.175056081899536	0.00108786582778558	-0.171946039145965	0.968195669031602	-0.181746268436141	179.657052786954	-79.5283187494354	100.419163282971
5923	1656046560089	9.48215965462008	0.0219312244829678	-1.80267343164253	0.0194171894931512	-0.0459017859151319	-0.160797405193385	0.0306351885475364	0.0243092943383096	-0.00425410070943655	0.6103515625	0.44482421875	-0.20361328125	0	0	0	-0.493293956844929	-0.589502631262492	-0.411052337715579	0.490085396164209	-0.0329547532136878	0.178694675544816	0.983352529448396	0.984497666639071	0.175394095597661	0.0011205408083505	-0.17227399288009	0.968145197871379	-0.181704560250256	179.646671249444	-79.5307373051333	100.449046119467
5924	1656046560089	9.46136180280186	-0.00426020990209977	-1.7744758722329	-0.0100329948938637	-0.0295241333528769	-0.186412028000001	0.0260773318203881	0.0320662544230507	-0.00508339498974864	0.612060546875	0.44775390625	-0.210205078125	0	0	0	-0.493148683335121	-0.589492895966648	-0.411065526009231	0.490232225640508	-0.0329534821367818	0.178380155563537	0.983409674609819	0.984450426361903	0.175659018903181	0.0011256615123455	-0.172543982946173	0.968155167924595	-0.181394996540617	179.644450910037	-79.5487715540462	100.466668246901
5925	1656046560094	9.4164492052663	-0.0297676333348332	-1.74244460571567	-0.0395301526037187	-0.0118849367048111	-0.236424496151233	0.0167499031418581	0.0276387928383203	-0.00611642751593695	0.609619140625	0.44921875	-0.20361328125	0	0	0	-0.493055627318575	-0.589545806005803	-0.411045620046362	0.490278889236683	-0.0330455182766609	0.178303774382584	0.983420437942364	0.984411734470321	0.175875293220376	0.00119091216348133	-0.172747013748317	0.96812997333807	-0.181336218019091	179.623719626981	-79.5521717628905	100.499648022259
5926	1656046560095	9.38997021661939	-0.00244264387554342	-1.75809944113904	-0.00891623335028844	-0.0294843680529323	-0.259598284127794	0.0167246862121147	0.0261099471888164	-0.00618477255562302	0.607666015625	0.4443359375	-0.200439453125	0	0	0	-0.492942212500348	-0.589534506064373	-0.411074095526069	0.490382635583807	-0.033065691706281	0.178045690760737	0.983466518003291	0.984380084297952	0.176052126245371	0.00122412501077257	-0.172923421402491	0.968145330436508	-0.181085917410606	179.612691426223	-79.5667411509668	100.520804042909
5927	1656046560097	9.4122101496211	-0.075550574820453	-1.7656907261454	-0.0808564171654281	-0.0473715281186608	-0.23645172112464	0.0198204111555817	0.0291375383330237	-0.00627814438760776	0.61376953125	0.44384765625	-0.2080078125	0	0	0	-0.492832891015066	-0.589554214737982	-0.411097703018633	0.49044902690414	-0.0331509870850285	0.177858479302842	0.983497520787607	0.984348352934905	0.176228840213072	0.00130994331808981	-0.173087642914303	0.968147590616863	-0.180916861163172	179.585152475626	-79.5765548055785	100.558187488977
5928	1656046560098	9.37167084851832	-0.0788458930345577	-1.70746284881384	-0.0926854151117496	-0.00162635318659288	-0.286866317036747	0.0333267030658182	0.0306778047478929	-0.0102832930552437	0.61767578125	0.44970703125	-0.203369140625	0	0	0	-0.492657064318222	-0.589575988368488	-0.411098929757466	0.490598451759622	-0.0332043522168272	0.177548554326167	0.98355171793381	0.984286548162368	0.176573373859235	0.00135452965205113	-0.173428550419106	0.968141701663892	-0.180621658166657	179.570331829282	-79.593732412927	100.592842314267
5929	1656046560099	9.39273478496995	-0.0766181903334046	-1.73232122820224	-0.0868896825357527	-0.0226867854805128	-0.261655546452944	0.040804133639658	0.0291474375344873	-0.0124439638004272	0.61669921875	0.444091796875	-0.203369140625	0	0	0	-0.492486432244369	-0.589675048717754	-0.411012986881587	0.490722707432215	-0.0332966769312192	0.177427110428394	0.983570511854827	0.98420073327773	0.177050877339777	0.001379655316882	-0.173897233793169	0.968076756935236	-0.180519098050146	179.562113434823	-79.5996956362555	100.628731039949
5930	1656046560099	9.48621214432159	-0.0757441733198157	-1.76815700622854	-0.0828953348400977	-0.0434524725847617	-0.163253348510151	0.055921813967256	0.0290734215684578	-0.0151071561602395	0.61376953125	0.449951171875	-0.208984375	0	0	0	-0.492244290648744	-0.589758978430433	-0.410955170272883	0.49091318347585	-0.0333996092266432	0.177124358173391	0.983621587728316	0.984097601791474	0.177622812699403	0.00143057926130685	-0.174460242610681	0.968027426342052	-0.180240188631185	179.545248851495	-79.6159188812711	100.678639815042
5931	1656046560101	9.48049903895358	-0.046558075891844	-1.81059203654554	-0.046380589222064	-0.0821784980149238	-0.161191768983636	0.0667148781020872	0.0443258868080607	-0.0167539652740099	0.614501953125	0.44970703125	-0.205322265625	0	0	0	-0.491964141644855	-0.589884390386857	-0.410837942146595	0.491141399808973	-0.033502817458646	0.176844891571704	0.983668361566705	0.983962979573771	0.178366937256784	0.00144586373532168	-0.175198219313551	0.967941692468419	-0.179984621372866	179.53973785537	-79.6307976902986	100.727409432185
5932	1656046560102	9.46435430794046	-0.0500727486198743	-1.7543433208389	-0.0588278142160761	-0.0357687225617076	-0.187226952273138	0.0651755579155751	0.0505208106162909	-0.0178933974067056	0.62158203125	0.44873046875	-0.206298828125	0	0	0	-0.491646943356167	-0.58994143590223	-0.410812058697207	0.491412085446741	-0.0335948907308454	0.176329786458831	0.983757688520992	0.983841828423086	0.179033471035	0.0015076121112238	-0.175859716711647	0.967912611063903	-0.179495229411694	179.518773951652	-79.6592715229434	100.786889328848
5933	1656046560103	9.46598941196212	-0.0252043978242724	-1.74757077110138	-0.0353358809296108	-0.0275611646832673	-0.18680639513736	0.0515295134947803	0.0475200951723099	-0.0154849353176642	0.60009765625	0.439453125	-0.208740234375	0	0	0	-0.491387984524952	-0.590031270637382	-0.410738039354872	0.491625071941473	-0.0336852746060947	0.176010317476523	0.983811806402284	0.983726790064276	0.179664223382842	0.00153926803281407	-0.176484857097001	0.967853881005833	-0.179198103330916	179.507855322195	-79.6765599083902	100.834392907559
5934	1656046560104	9.4660855872644	-0.0489900036882058	-1.74500826863605	-0.0588926844585795	-0.0340353225497039	-0.187221063633228	0.0440721432422205	0.0505770096625638	-0.0132677687001185	0.611083984375	0.444091796875	-0.213134765625	0	0	0	-0.491136105214338	-0.590033238642457	-0.410762988171717	0.491853505629701	-0.0337309103093296	0.175502822117336	0.983900902082397	0.983643684978097	0.180118187406266	0.00159360226884364	-0.176938765374957	0.967861662632802	-0.178707793096032	179.489086275733	-79.7050847847011	100.879346182935
5935	1656046560105	9.44285472128993	-0.0480298424892779	-1.73647048856772	-0.0583805597410216	-0.032342053577207	-0.211610059952816	0.0380263550824864	0.0536883352431691	-0.0126862079729185	0.616943359375	0.448974609375	-0.20751953125	0	0	0	-0.490943952450884	-0.590073106210213	-0.410734468604862	0.492021301550265	-0.0337781487453759	0.175205430326583	0.983952282304082	0.983565861664665	0.180542463703572	0.00161696248831444	-0.177361868605345	0.967836492380774	-0.17842447024133	179.480774190002	-79.7215702786003	100.912265982798
5936	1656046560106	9.3706345901719	-0.0703911110964124	-1.72252992282219	-0.0800804978354967	-0.0408596893779492	-0.285212784400873	0.0349397579278118	0.058367755695311	-0.0137864709990089	0.603515625	0.450927734375	-0.197265625	0	0	0	-0.490696930810553	-0.590039388052613	-0.410805553321948	0.492248758250795	-0.0338153641873082	0.17462398653899	0.984054360525937	0.983498080560027	0.180910638905904	0.00169300484345297	-0.177730263825894	0.967872824319336	-0.177859914720798	179.454632018355	-79.7544002248407	100.959493787695
5937	1656046560109	9.33028882860118	-0.0732211235124601	-1.66215599192738	-0.0926114814661139	0.00549648553208604	-0.335672829917865	0.0440698346605542	0.0505729105256172	-0.0132606647161586	0.614990234375	0.44091796875	-0.208740234375	0	0	0	-0.490439994378502	-0.59007893827864	-0.41082355268693	0.492442348982759	-0.033938289684716	0.17418279173931	0.98412831864304	0.983410452949686	0.181385240943408	0.00180980584504459	-0.178191115161703	0.967863497312407	-0.177449082972064	179.415659750249	-79.7782514742413	101.025540294567
5938	1656046560113	9.38279391732016	-0.0757765750702311	-1.6412153578412	-0.100431030007925	0.0304685621877715	-0.287713030355057	0.0439205262488369	0.0336921898640672	-0.012450633864499	0.61474609375	0.451171875	-0.203125	0	0	0	-0.490225036295988	-0.590121217033635	-0.410804922125589	0.492621232746547	-0.0340074696717389	0.17384193576698	0.984186198529178	0.983326844390406	0.181837459491972	0.00185887780961908	-0.178638767090829	0.967839924623021	-0.177127274009324	179.398726458592	-79.7969560244367	101.068589057988
5939	1656046560111	9.37630514099102	-0.0711592384892892	-1.68659411425413	-0.0869059671401107	-0.0150284522022703	-0.286041442708276	0.0515051296018959	0.02438471170705	-0.0118708619324937	0.60791015625	0.443359375	-0.203369140625	0	0	0	-0.49004477956942	-0.590231998059783	-0.410665993087912	0.492783669173639	-0.0340407388250486	0.173741229010653	0.984202831454021	0.983219208525444	0.182419112275756	0.00180429019975475	-0.179223927216331	0.967748548342178	-0.177035395033769	179.416079285458	-79.8023374239673	101.085412417532
5940	1656046560112	9.43950775877294	-0.0414575410342272	-1.76490158228455	-0.0457431329263501	-0.0768618463158281	-0.209932430871772	0.0438257179184483	0.0275758783412342	-0.01270916603412	0.60986328125	0.44677734375	-0.20361328125	0	0	0	-0.489841910258422	-0.590289754700732	-0.41063285454878	0.492943776930849	-0.0341226714790582	0.17345950159082	0.984249686105612	0.983135142603506	0.182871123439002	0.00185569128370322	-0.17966895855744	0.967713776650938	-0.176774183100539	179.398558253866	-79.8175118583574	101.129027373252
5941	1656046560113	9.43238385262417	-0.061110052562599	-1.81208793448089	-0.0561387559980745	-0.12950458124986	-0.208660171193008	0.0363248098694407	0.0352854332122919	-0.0118379108358296	0.612060546875	0.443359375	-0.205322265625	0	0	0	-0.489678752047233	-0.590316868100194	-0.410617968687868	0.493085792555912	-0.0341622419459457	0.173191481511157	0.984295510483106	0.98307102762378	0.183215207168228	0.00188215542097198	-0.180011932582126	0.967696697624971	-0.176518569940315	179.389098407661	-79.8323743000439	101.158420161902
5942	1656046560114	9.44766249571337	-0.0447960343186883	-1.71020688150305	-0.0587548318064246	-0.0288339213254947	-0.211601166532771	0.0485787478848128	0.039759664035699	-0.0125307982904032	0.60791015625	0.452880859375	-0.201416015625	0	0	0	-0.489439496322974	-0.590354014646539	-0.410600214536395	0.493293604917492	-0.034220797573239	0.172792223144588	0.984363644510606	0.982978063178803	0.183712886523561	0.00192422307225965	-0.180507795739414	0.967673717192904	-0.176137766340345	179.374095189538	-79.8545123668255	101.202238652832
5943	1656046560115	9.42979150883529	0.0268157895545736	-1.67306109502732	0.0055731630715791	0.0144500991026635	-0.235601186666976	0.0470945613328959	0.0351213340479529	-0.0110885992851648	0.608154296875	0.450439453125	-0.203125	0	0	0	-0.489228219013708	-0.590422652794064	-0.410552528447928	0.493460699725224	-0.0343045750947349	0.172519769859829	0.984408515371074	0.982885921707328	0.184204742211376	0.00196922735541383	-0.180992986154454	0.967628824474732	-0.175886318423411	179.358541907352	-79.8691179223502	101.246249120972
5944	1656046560116	9.42679603761363	0.0289067746275879	-1.69457778881105	0.0120224264507042	-0.00897900525189399	-0.234760260164132	0.0578531704588205	0.019545589401665	-0.00792048725094658	0.61083984375	0.45166015625	-0.20556640625	0	0	0	-0.489020845196191	-0.590517571778306	-0.410446862666265	0.493640540588064	-0.0343552593030526	0.172324381769959	0.984440970097152	0.982777226446959	0.184783971782046	0.00195114060845308	-0.181572683340424	0.967553198134373	-0.175704779230687	179.36377639938	-79.8796950003706	101.27488362556
5945	1656046560117	9.44786596676922	0.0305244197576812	-1.72017204584821	0.016863839186925	-0.0309189073595457	-0.209518397021426	0.0545270738709246	0.0228224678439807	-0.0121390417035443	0.6171875	0.4482421875	-0.208740234375	0	0	0	-0.488781349442873	-0.590666998254057	-0.410354354055411	0.493775853721213	-0.0345563974373834	0.172167881952124	0.98446131250561	0.982660167959833	0.185404193089141	0.00206869285246236	-0.182167092805761	0.967462405269106	-0.175589420779308	179.325005541079	-79.8863302239604	101.349228651566
5946	1656046560118	9.42076170370302	0.0332028004765266	-1.73805147910444	0.0239177209444621	-0.0550497179491564	-0.233069781563957	0.0516607398283523	0.0350751647892049	-0.011426052994185	0.608154296875	0.44921875	-0.204345703125	0	0	0	-0.488546498117532	-0.590719891452869	-0.410314061249552	0.493978440986958	-0.0346152380343805	0.171815668093174	0.984520777583449	0.982560869257497	0.18592938063599	0.00209848046636923	-0.182690786576044	0.967424230425315	-0.175255341961986	179.313981946822	-79.9057511074822	101.390746020115
5947	1656046560119	9.44490734813409	0.00875673021614061	-1.73967626733638	-0.000490304517475251	-0.0594895910874867	-0.209079491931298	0.0364777101895981	0.0459718934237423	-0.011425527925872	0.61474609375	0.4404296875	-0.19970703125	0	0	0	-0.488328770753103	-0.590770690019669	-0.410285971320393	0.494156276097075	-0.034689172897269	0.171489874263421	0.9845749764791	0.982471425153649	0.18640086678489	0.00214839903184622	-0.183157200350577	0.967391306497509	-0.174949993063106	179.296438896083	-79.9234843587547	101.435551757817
5948	1656046560120	9.4015093762981	0.0324116942141796	-1.70237077825247	0.0176549852162586	-0.0307612942502033	-0.258304297038826	0.0273377214984409	0.0460518456165893	-0.0107724380668347	0.620361328125	0.448974609375	-0.212646484375	0	0	0	-0.488133199142049	-0.590745285238151	-0.410342570537923	0.494332846034506	-0.0347220344535493	0.171033150436508	0.984653259668179	0.982416393409015	0.186689909399358	0.00221533060392842	-0.183445932864787	0.967416424907197	-0.17450802427151	179.272685158395	-79.9491523720509	101.475854587026
5949	1656046560120	9.41181524740241	0.00276257838627081	-1.62763425434931	-0.0242378588852286	0.0347396818337627	-0.261264901321326	0.0180059848551463	0.0477867750661967	-0.0131024404173684	0.613037109375	0.443115234375	-0.194091796875	0	0	0	-0.487998709573688	-0.590712496068998	-0.410344949281691	0.494502809942831	-0.0346484608261184	0.170700410690158	0.984713589808018	0.982367332552736	0.186948564106844	0.00215831221365864	-0.183722366889836	0.967425244744317	-0.174167987115302	179.290019633976	-79.9689781719205	101.47391297746
5950	1656046560121	9.41250270902774	0.00343461582200352	-1.62365246908022	-0.0243228844998593	0.0348322540011457	-0.261265454607088	0.0182771072006726	0.0368347758014143	-0.00744379966848313	0.609619140625	0.442138671875	-0.207275390625	0	0	0	-0.487854587665495	-0.590682860654445	-0.410396916049677	0.494637271866693	-0.0346637411480091	0.170339464976666	0.98477555398227	0.982329908725933	0.187144545181287	0.00220672413094869	-0.183919480947845	0.967450973372993	-0.173816681154379	179.272629151272	-79.9893814059271	101.502514578097
5951	1656046560123	9.42975249285741	-0.0166737081708605	-1.67394694868907	-0.0345445411688925	-0.0177338095198272	-0.235574028574101	0.019414741235918	0.0324252794375325	-0.0122962474575611	0.612060546875	0.443603515625	-0.20703125	0	0	0	-0.487764781678555	-0.590626729867453	-0.410447603943162	0.494750793973559	-0.0346143392332086	0.170035280023786	0.984829858943503	0.982312391765483	0.187236564342778	0.00219862618215283	-0.184022315232214	0.967486678213372	-0.1735088325597	179.274012409694	-80.0072965586631	101.50655879377
5952	1656046560123	9.40206214789697	-0.0377031456575288	-1.69340809119467	-0.0509946083935313	-0.048409913058136	-0.259526617764608	0.0118199638347772	0.0340194265182943	-0.0116978822864417	0.61181640625	0.44189453125	-0.195068359375	0	0	0	-0.487629970764244	-0.590600660305304	-0.410522376150406	0.494852756220702	-0.034675522546474	0.169692906779438	0.984886757716273	0.982285424092638	0.187376780584574	0.0022995027520516	-0.184154700595112	0.967519642946077	-0.173184256681199	179.239283850489	-80.0261015773127	101.548985015326
5953	1656046560126	9.43082788275023	-0.0149735006746813	-1.66789372946755	-0.0336849237698335	-0.0172286143131126	-0.235570044384623	0.0148848282658235	0.0278166369007855	-0.0106329664983494	0.610595703125	0.442626953125	-0.210693359375	0	0	0	-0.487563936005746	-0.590549210814267	-0.410559553811044	0.494948371739627	-0.0346150352377539	0.169449429937534	0.984930804691037	0.98227256058123	0.187444522162123	0.00227328850072378	-0.184234676607536	0.967549193480755	-0.172933924173537	179.246866480185	-80.0406832182096	101.545500787061
5954	1656046560126	9.40708344429701	-0.0138641854132535	-1.66207477031825	-0.0331329203541703	-0.0178597538153316	-0.259965944268037	0.0149250826237609	0.0231687799770353	-0.00929273445791105	0.60693359375	0.443115234375	-0.206787109375	0	0	0	-0.487450977641048	-0.590550037179896	-0.41059273474119	0.495031114336626	-0.0346714804708504	0.169216027903688	0.984968945877208	0.982240743973502	0.187610301149076	0.00234430824215803	-0.184393626029591	0.967557910826661	-0.17271560403278	179.222359084595	-80.053326857368	101.579340469745
5955	1656046560127	9.38934638099617	-0.0410630694767237	-1.61013074466207	-0.0688589347689976	0.0240572582020954	-0.286475531874217	0.0133177387657779	0.0247724131108895	-0.0106466440875365	0.605712890625	0.4482421875	-0.2001953125	0	0	0	-0.487366745255901	-0.590608042141762	-0.410541924434278	0.495086986758836	-0.0347250623214526	0.169177509828501	0.984973674884258	0.982193367053862	0.187857967800938	0.00236085770407057	-0.184635748873745	0.967516591124891	-0.172688407647712	179.216746751914	-80.0548956116364	101.599319770664
5956	1656046560128	9.39177070643726	0.0326538369269474	-1.60227299038118	0.00162811201298635	0.0437815107991173	-0.2852647200502	0.0118349000032003	0.0201379263243882	-0.00919905662971801	0.61181640625	0.447265625	-0.205078125	0	0	0	-0.487268002395766	-0.590610651635007	-0.410575530703016	0.495153194076792	-0.0347864164735808	0.168975773956958	0.985006138582178	0.982166915706447	0.187995254858354	0.00243594795243052	-0.184764863869219	0.967525178983157	-0.172502095966975	179.190964840622	-80.0656714194542	101.63275133868
5957	1656046560128	9.36857675252745	0.0580326864539941	-1.59521919153563	0.0250701181041626	0.0500986631825337	-0.30925725509592	0.00580367639542114	0.017070711180177	-0.00737169454735054	0.606201171875	0.442626953125	-0.208740234375	0	0	0	-0.48719388559954	-0.590627809952612	-0.410620645780923	0.495168247369984	-0.0349010492619217	0.16884790433738	0.985024010855214	0.982153126358461	0.188065606185761	0.00256206055443386	-0.184816539153613	0.967533830401221	-0.172398184109994	179.148573102205	-80.0716087775998	101.678630444316
5958	1656046560129	9.41643728625493	0.0335913544118167	-1.60274592613447	0.00022884300357609	0.0450996370495421	-0.260871832173006	0.00100008015226346	0.00800225785728118	-0.00893315905619644	0.6103515625	0.44287109375	-0.204833984375	0	0	0	-0.487147354532136	-0.590637904610828	-0.410656425074712	0.495172314607884	-0.0349836676364242	0.16876400040945	0.985035458836129	0.982146770460826	0.188097511034398	0.00265473464463206	-0.184834694449049	0.967542267039773	-0.172331358781457	179.117438278787	-80.0754137655203	101.711173192403
5959	1656046560129	9.48509374504402	0.010672647965803	-1.63796787739044	-0.0183707422613717	0.0188588276753027	-0.187233463727381	-0.0092843975037133	0.0124898343531957	-0.00344549170377061	0.618896484375	0.439697265625	-0.210205078125	0	0	0	-0.487165845153725	-0.590639382241665	-0.410650734010982	0.495157080245333	-0.034977810397148	0.168805430754707	0.985028567772295	0.982151904568631	0.188070827943798	0.00264575674352896	-0.184808520182465	0.967540226669803	-0.172370881078316	179.120624139508	-80.0731231961111	101.706472049505
5960	1656046560130	9.48264600208941	0.03776056771876	-1.65888424342588	0.0115899131876645	0.0020110774590229	-0.185966249663034	-0.009682768050643	0.0142674828000699	-0.00946980272858697	0.620849609375	0.44140625	-0.203857421875	0	0	0	-0.48713138300927	-0.590613979897802	-0.410733832734484	0.495152361484822	-0.0350543092069604	0.168661555264066	0.985050493721986	0.982164864144834	0.188001468669434	0.00276177795916893	-0.184725133767397	0.967578796560798	-0.172243715126489	179.081390793702	-80.0804131349856	101.741095693697
5961	1656046560130	9.48624488945425	0.0366965197321152	-1.6332838196404	0.00782397467586869	0.0272672286323779	-0.186836761933122	-0.0140009199053029	0.017237035045297	-0.00598891040510446	0.61279296875	0.4453125	-0.19873046875	0	0	0	-0.48719297534766	-0.590543205485887	-0.410686391646872	0.495215523729235	-0.0348091796589486	0.168660449648276	0.985059375741337	0.982173555759778	0.187959384975933	0.00252506745716152	-0.184725275416401	0.967587165233143	-0.172196545547303	179.159882450991	-80.0833677382898	101.66132251381
5962	1656046560130	9.4590371386626	0.0398866506266362	-1.65222123908087	0.0149190118829295	0.00316119335603271	-0.21036594367682	-0.0139587046677884	0.0202932398885736	-0.00586847304338572	0.604736328125	0.447509765625	-0.201171875	0	0	0	-0.487168171234547	-0.590484879598241	-0.410786355117882	0.495226564665915	-0.0348356451703676	0.168466246957731	0.985091671602974	0.982195508784376	0.187843486769906	0.00260902317464379	-0.18460352203944	0.967643502594887	-0.172010440196324	179.131014639284	-80.0941183085895	101.683028705752
5963	1656046560131	9.43447019314751	0.0166765097914525	-1.64913867810785	-0.00844986269121417	-0.00429965151725262	-0.235157709821857	-0.012415324891162	0.0141050562872064	-0.00469448314962174	0.611572265625	0.447265625	-0.2109375	0	0	0	-0.487166675867065	-0.590422655449925	-0.410908725118889	0.495200704237445	-0.034889784894744	0.168303904711922	0.985117504954977	0.982233064936661	0.187645299091605	0.00272907932370414	-0.184393354151204	0.967710203205248	-0.171860564287815	179.090241634237	-80.1027259760804	101.711660210588
5964	1656046560132	9.43468904020331	0.0172620518095241	-1.64788015432014	-0.00850508675644575	-0.00417571843237194	-0.235157703867424	-0.013855454210974	0.012526572244575	-0.00312799076656006	0.60888671875	0.452880859375	-0.208251953125	0	0	0	-0.487165422045499	-0.590377030858386	-0.410983279450136	0.495194463832623	-0.034904589105504	0.168189261385222	0.985136560083966	0.982255840231155	0.187525191151284	0.00278693657319851	-0.18426918893609	0.967753416443656	-0.171750374003865	179.070361903178	-80.1090798937276	101.724257613426
5965	1656046560132	9.43223854059666	0.0441456978978855	-1.66886952544907	0.0202486911887797	-0.0190378489908313	-0.233886517053326	-0.00481931712333481	0.0125142064148341	-0.00528320060033919	0.615966796875	0.445556640625	-0.20849609375	0	0	0	-0.487082197335666	-0.59049487480402	-0.410941662210391	0.495170360712962	-0.0351144938201094	0.168266820052576	0.985115855924141	0.982211344487389	0.187755766596841	0.00294055605423416	-0.184466384699307	0.967695225460489	-0.171866528262313	179.019791603884	-80.1021762979141	101.787511154383
5966	1656046560133	9.48749781699715	0.0401774220419979	-1.62590768931316	0.00587210951347788	0.0295922615211552	-0.186842240270019	-0.015712167976781	0.018902599897965	-0.00886512464185206	0.61669921875	0.45458984375	-0.212646484375	0	0	0	-0.487055166618521	-0.590444978804494	-0.411050863068601	0.495165810254831	-0.0351761700497625	0.168081887726762	0.985145225882376	0.982235222396007	0.187628905281526	0.00305970382929444	-0.184327439480119	0.967751968699142	-0.171696016650471	178.979070304316	-80.1119708345107	101.820260437412
5967	1656046560134	9.46628634390731	0.0149980370154129	-1.59851944399012	-0.0237421135865773	0.048100981836649	-0.212521281179763	-0.0227881584063125	0.0201775366358647	-0.000671583880968836	0.6103515625	0.44482421875	-0.203125	0	0	0	-0.487028894955998	-0.59048236396613	-0.41102231885452	0.495170765217782	-0.035217537503152	0.168111474129301	0.985138699533364	0.982216418724419	0.187727017762786	0.00307791976305033	-0.18441971651749	0.967727802157179	-0.171733133354181	178.973215421191	-80.1097935437827	101.831745469576
5968	1656046560134	9.46063696745138	0.0440961890540114	-1.64292825669071	0.0127726279763065	0.00781528994147629	-0.210365508819656	-0.0262719553711917	0.0189263622222908	-0.00660625003521047	0.608154296875	0.443603515625	-0.2001953125	0	0	0	-0.487034624500949	-0.590406138785602	-0.411156196370842	0.495144875776128	-0.0352576530597243	0.167932696659751	0.985167755914344	0.982260231766254	0.187495713446162	0.00319288737977591	-0.184178541071498	0.967803681968558	-0.17156426835701	178.933823125068	-80.1194908512246	101.857095235362
5969	1656046560135	9.46694823507636	0.0168396201364258	-1.59457653003417	-0.023615349676453	0.0486413628435822	-0.212523691269016	-0.0262927053755174	0.0251017300345984	-0.00788304507632458	0.61328125	0.447265625	-0.199951171875	0	0	0	-0.48705532531894	-0.590298238331701	-0.411311647082161	0.495124054026373	-0.0352585624059012	0.16771522066852	0.985204769848979	0.982316381354857	0.187199678106041	0.00328746694172544	-0.183878657540693	0.967898695769916	-0.171349800198098	178.900874848088	-80.1318575853243	101.87233176848
5970	1656046560136	9.46470533863436	0.0443607127190083	-1.61434244116972	0.00635901649614981	0.0318608964588275	-0.211246825135568	-0.026292989183273	0.025101255662639	-0.00788297015319431	0.614013671875	0.445068359375	-0.20556640625	0	0	0	-0.487044634187162	-0.590209786778294	-0.411463689752521	0.495113687869621	-0.035299920787275	0.16747440967461	0.98524425281072	0.982359629105858	0.18697031264947	0.00341486321265833	-0.183639523783454	0.967984723170723	-0.171120136198771	178.856760592696	-80.1450661829633	101.90246566386
5971	1656046560137	9.41669491796421	0.0462768102661733	-1.60556244541067	0.0081325064680531	0.0309911222321733	-0.260039115605155	-0.0338901767025529	0.0189852735354989	-0.00608374128291248	0.61181640625	0.4443359375	-0.203369140625	0	0	0	-0.487088293332288	-0.590116060866614	-0.41158302568384	0.495083267920503	-0.0352751046475876	0.167341511158656	0.985267722822198	0.982412988663312	0.186688814935149	0.00346497961468001	-0.183358628642674	0.96806203572976	-0.170983941588182	178.839063268649	-80.1529261345459	101.903513366685
5972	1656046560137	9.43784872892773	0.0488694991854479	-1.63142148939433	0.0139823566727409	0.00840047142005862	-0.234762395957667	-0.0382131073215019	0.0142447314027644	-0.0013915644575907	0.61376953125	0.450927734375	-0.203125	0	0	0	-0.487148697009392	-0.590014077199446	-0.411727446568422	0.495025297788693	-0.0352722031025327	0.167218174159195	0.985288766767976	0.982480181540441	0.186333313488596	0.00354812128060616	-0.182998810292731	0.9681518364984	-0.170860928582925	178.810359034466	-80.1599788984596	101.91109060792
5973	1656046560138	9.46619689542794	0.0715891758922588	-1.60737306078549	0.0303316106376838	0.0400003937302884	-0.210857505385613	-0.0383372387621016	0.0127803871860481	-0.00297462425629474	0.610107421875	0.44677734375	-0.20703125	0	0	0	-0.487203419802601	-0.589948996630689	-0.411833272886498	0.494960972654097	-0.0352929265639227	0.167167542696728	0.985296616254868	0.982533131973612	0.186052366152492	0.00362789514524947	-0.182710300499669	0.96821460932884	-0.170813981785812	178.783285585415	-80.1626108932902	101.921395070186
5974	1656046560139	9.46644943887612	0.0724087364918475	-1.60584835977002	0.0302569178414143	0.0401776487392258	-0.210858009791201	-0.0396758267255966	0.0188392171898492	-0.00109966166048374	0.616943359375	0.4521484375	-0.205078125	0	0	0	-0.487258796801831	-0.589832128593207	-0.411992225890799	0.494913457913586	-0.0352790682304969	0.167000792288517	0.985325389259708	0.98260278088504	0.185682541489553	0.0037106310740308	-0.182338044142672	0.968314375170062	-0.170646149963123	178.754322900499	-80.1722646767611	101.928406091974
5975	1656046560139	9.46544104553441	0.0245183122846527	-1.608039900875	-0.017164836386185	0.0285742504070666	-0.211653239909706	-0.0427234685623199	0.0188622409179242	-0.000890928088346496	0.60595703125	0.450439453125	-0.20361328125	0	0	0	-0.48728912242864	-0.589796418176698	-0.412074760049349	0.494857442501307	-0.0353308455275825	0.166966234295035	0.985329390589584	0.982639281804478	0.185487406585995	0.00380313722877046	-0.182131197791826	0.968357732763743	-0.170621007462673	178.72309020941	-80.1736079279538	101.947811611644
5976	1656046560140	9.46244274380176	0.0274316555406804	-1.63048633065634	-0.0106969737721075	0.00526271466711054	-0.210764717778558	-0.0534304879379471	0.0158880711490213	-0.000287493317917143	0.609130859375	0.4482421875	-0.19873046875	0	0	0	-0.487386894696805	-0.589657209800797	-0.412264486872546	0.494769019514622	-0.0353152644126907	0.166831000939529	0.9853528551869	0.982733784742043	0.184984015483044	0.00390158203161739	-0.181623622984573	0.968477326085275	-0.170483220384511	178.688990218355	-80.1814886834103	101.952096340996
5977	1656046560143	9.48365050193448	0.0300784453973035	-1.65617128828811	-0.00616671033719591	-0.0170533273490869	-0.185480828217287	-0.0458539530042944	0.0204777605177386	-0.00213861831796725	0.604736328125	0.44189453125	-0.2021484375	0	0	0	-0.487414800513466	-0.589577919755946	-0.412462231057256	0.494671200625162	-0.0354544310249569	0.166671634190726	0.985374826995743	0.98280438238923	0.184603440383377	0.00413711918432669	-0.181214042715296	0.968577377474208	-0.170350622446662	178.608793561695	-80.188873757604	102.008972718528
5978	1656046560143	9.4880087504466	0.0531745752218644	-1.6275014724682	0.0106957195057668	0.0132118334656754	-0.185974070628163	-0.0350248015305068	0.0326185065373282	-0.00235604392476331	0.6103515625	0.444580078125	-0.20068359375	0	0	0	-0.487426002166195	-0.58944086846666	-0.412643843786798	0.494672025870078	-0.0354309584677469	0.166370879722485	0.985426495261024	0.982864344397811	0.184281901194275	0.00422627539161236	-0.180893138879061	0.968690307204832	-0.170049290012899	178.576307466095	-80.2062620128459	102.022317198392
5979	1656046560144	9.44016459891993	0.0547304166642655	-1.61777950851794	0.0122265432511257	0.0126800067075737	-0.234764703175431	-0.0395964556439823	0.0326525762019218	-0.00204491127323697	0.615234375	0.44580078125	-0.198974609375	0	0	0	-0.487486248469594	-0.589293706483944	-0.412811132008882	0.494648414877681	-0.0353602064240782	0.166152412257092	0.985465895758344	0.982937900625309	0.183888253685174	0.00426540395838931	-0.18050689548036	0.968802604278997	-0.169819829897087	178.561191168335	-80.2195422889868	102.014325213924
5980	1656046560145	9.44062917202876	0.0555646010419055	-1.61503767203957	0.0121308035003435	0.0128854976925372	-0.234764855688372	-0.0366515364204518	0.024989305161897	-0.00257318852409562	0.61572265625	0.444091796875	-0.199462890625	0	0	0	-0.487516628775922	-0.589172991435008	-0.412978861577876	0.494622262661443	-0.0353527078932693	0.165926183210448	0.985504280949518	0.983000338990432	0.183551993113603	0.00435882653007247	-0.180168031540861	0.968905138570973	-0.169594554339032	178.527739311972	-80.2324975426725	102.027752176
5981	1656046560146	9.43844713698848	0.0826291760556801	-1.63463371679604	0.0436510345466778	-0.00374668480121673	-0.233479705696034	-0.0363260055694496	0.0263162395995542	0.00205479736621014	0.610107421875	0.444091796875	-0.196533203125	0	0	0	-0.487606802076926	-0.588988866779445	-0.413105536296631	0.494646881380295	-0.0351281386181234	0.16570722515835	0.985549151188081	0.983072685998601	0.183166844898772	0.00424275539299462	-0.179816873292585	0.969015491341676	-0.169336557243642	178.564745069106	-80.2476631473932	101.968893041609
5982	1656046560147	9.41791591183133	0.0813861955180141	-1.60480084072777	0.0376425847573181	0.0192046289447488	-0.258768622785444	-0.0335025324359152	0.0248988346430939	-0.00125826112462079	0.613525390625	0.449951171875	-0.2021484375	0	0	0	-0.487633788977917	-0.588871163770724	-0.413260060281403	0.494631340396626	-0.0351062498889534	0.165484198519946	0.985587404170196	0.98312970871747	0.182858820846502	0.00431595594607381	-0.179509128057143	0.969111774605405	-0.169111919347295	178.538054600945	-80.2606106655828	101.977305691319
5983	1656046560148	9.4124455656331	0.110526134115067	-1.64884728497676	0.0743339404082835	-0.0207564691381612	-0.256585213726105	-0.0333813321151101	0.0186525713692134	0.00152346948770679	0.6123046875	0.452880859375	-0.193115234375	0	0	0	-0.487689020258035	-0.588766644021746	-0.413377085088051	0.494603521955955	-0.0350535511770461	0.16535453120628	0.985611042734115	0.983185579928026	0.182557610087728	0.00433986412782073	-0.179213180239259	0.969190692283314	-0.168973483185742	178.528755875538	-80.2686201581883	101.968952683383
5984	1656046560149	9.41139444768779	0.0624519665404915	-1.65158275284825	0.0272357525398335	-0.0336841933318399	-0.257369746319844	-0.0457754841954129	0.0111720702511792	0.000497258482896992	0.609130859375	0.447265625	-0.19482421875	0	0	0	-0.487779888324031	-0.588653289209779	-0.413529736100388	0.494521226045807	-0.0350390750734964	0.165268007139114	0.98562606957926	0.983264935550165	0.182127875814679	0.00441626185411775	-0.178780115604407	0.969286295512063	-0.168883828701792	178.502073787738	-80.2737151243243	101.970235368078
5985	1656046560150	9.38097088551491	0.0678465168275446	-1.69522044552232	0.0400380503364582	-0.0824305325620465	-0.279975670555748	-0.0441910778177675	0.0157432003760836	0.000591973443710864	0.60546875	0.452880859375	-0.19677734375	0	0	0	-0.4878448714157	-0.58849703651944	-0.413778080408992	0.494435354332886	-0.0350821236382247	0.16501749861429	0.985666510414205	0.983363545823096	0.181590163212899	0.00459884447898173	-0.178228452687166	0.969429851910594	-0.168642761117527	178.43794603585	-80.2874400444266	102.002183049405
5986	1656046560151	9.464120201304	0.0851573296966596	-1.62917539336363	0.0419531262872291	-0.00289604970190108	-0.209080394686135	-0.0441107689547484	0.0141465319052893	0.0020470776371256	0.6083984375	0.448974609375	-0.195556640625	0	0	0	-0.487929698142106	-0.5883756174943	-0.413930174515059	0.494368843107136	-0.035048113271731	0.164903511872049	0.985686796872291	0.983440237880627	0.181172840593772	0.00465836328338809	-0.177811496460123	0.969527324835896	-0.16852251518169	178.416611538538	-80.2943321572114	101.998932819429
5987	1656046560153	9.43626618771826	0.0639666507019298	-1.65089804347138	0.0236410356001516	-0.0338070987522698	-0.232970576116902	-0.0517715120954246	0.0111468779394854	0.00242648384117459	0.608642578125	0.44873046875	-0.20166015625	0	0	0	-0.487997200743489	-0.588283731855587	-0.414157911202752	0.494220808433596	-0.0352090491555248	0.164790713389332	0.985699925757428	0.983532544164506	0.180663913309385	0.00492798103018199	-0.177268320426575	0.969641465289296	-0.168438034198833	178.324179003672	-80.2987951439462	102.060431057618
5988	1656046560153	9.39514019711199	0.0853600175044348	-1.59301326709002	0.0352001520025533	0.0184423979586949	-0.283151297267848	-0.0519943676130391	0.00975613257185258	-0.000682310936362639	0.60986328125	0.45068359375	-0.205078125	0	0	0	-0.48810201532005	-0.588163876418542	-0.414329911541884	0.49411577744342	-0.0352120422439818	0.164714054117524	0.985712631783309	0.983621839555848	0.180174294084401	0.00502996023411895	-0.176771572459423	0.969745587320384	-0.16836064576636	178.288734335066	-80.3031163225825	102.06687528092
5989	1656046560155	9.43593780631389	0.041210238288377	-1.65115306040727	-0.00117282757332547	-0.0380308208437256	-0.233361749330742	-0.0518136094753851	0.00808887711409331	0.00229269924398365	0.610107421875	0.45263671875	-0.199951171875	0	0	0	-0.488173706013161	-0.588172397614695	-0.414396783613461	0.493978713278594	-0.0353429271700016	0.164854218324093	0.98568451555242	0.983666978148755	0.179923476976388	0.00517866125784755	-0.17649406108635	0.969768337869142	-0.168520673116886	178.239847486583	-80.2935568606725	102.100413708647
5990	1656046560155	9.40995104791388	0.0930262938251092	-1.66695795557109	0.0529086757895584	-0.0489355028243696	-0.256046353481039	-0.0457386481392328	0.00651565576543011	0.00181629987086922	0.60986328125	0.451171875	-0.197265625	0	0	0	-0.488276879301242	-0.588068555976638	-0.414535555122814	0.493883929836164	-0.0353287059788546	0.164815660613178	0.985691473307191	0.983745456696663	0.179491925357722	0.00524644260922258	-0.176058964448089	0.969854858598965	-0.168477874777215	178.216371670556	-80.2959216148431	102.098434545862
5991	1656046560155	9.43681660133538	0.0665372227396487	-1.64764704434706	0.0206872822533208	-0.0304631904983102	-0.23295252503304	-0.0394416215813866	0.00633025068207443	0.00444970084946595	0.609375	0.458740234375	-0.197021484375	0	0	0	-0.488322446551376	-0.588049173252089	-0.414638960631373	0.493775141494738	-0.0354545956718607	0.164838399039973	0.985683150838891	0.983792044859922	0.179231441041227	0.00541322571284419	-0.175773104074764	0.969899166276693	-0.168521283936773	178.160182671098	-80.2930930980914	102.138644226555
5992	1656046560159	9.4304752830098	0.0711677826449441	-1.69536950693666	0.0336643391385096	-0.0772429572182542	-0.231137022284665	-0.0332860142227314	0.00315959386167417	0.00542567268403142	0.62158203125	0.4404296875	-0.201904296875	0	0	0	-0.488412078592202	-0.58797121585059	-0.414724143663913	0.493707783490049	-0.0354125320131754	0.164839411915704	0.985684493565614	0.98384956282818	0.178915052294957	0.00542602848228474	-0.175459369368563	0.969957407488379	-0.168513018367154	178.155743943559	-80.2935493888515	102.12459687714
5993	1656046560161	9.43508593196655	0.11745504688468	-1.66636621223599	0.074465304689482	-0.0394705121324709	-0.231230503442706	-0.0255041625114059	0.00761563161887315	0.00664170130588355	0.61376953125	0.44189453125	-0.18896484375	0	0	0	-0.488475622597953	-0.587931418590168	-0.414725210477339	0.493691414708238	-0.03532070634184	0.164887779730001	0.985679698380373	0.983872883232919	0.178789131844137	0.00534752030035318	-0.175347076800432	0.969972404983837	-0.16854357367581	178.182739396753	-80.2919199673634	102.090640935113
5994	1656046560161	9.45487242568493	0.0706335504623212	-1.69749859140256	0.0332443211442353	-0.0751325791703616	-0.206733320530763	-0.0271699458049401	0.00464223165404482	0.00508536606756675	0.609130859375	0.44775390625	-0.19970703125	0	0	0	-0.488546207815018	-0.587863469383631	-0.414796356206439	0.493642711960449	-0.0352789515157967	0.164874540982588	0.985683408258314	0.983919333738824	0.178533171414851	0.00535270020681422	-0.175094660897741	0.970021799982008	-0.168521711612388	178.180744458712	-80.2931805737424	102.077708905934
5995	1656046560162	9.50721712930322	0.0919404797153332	-1.67717644979827	0.0498135926710789	-0.0434694637679277	-0.158456143483406	-0.0286736616040306	0.00618071487853807	0.00525637670570149	0.61376953125	0.4521484375	-0.1982421875	0	0	0	-0.488675247843651	-0.587724879471927	-0.414887336886551	0.493603551330256	-0.035104072518211	0.164833476501339	0.985696519785435	0.983992928057956	0.178129999672263	0.00525554456651567	-0.174715831064524	0.970102895697793	-0.168448063610688	178.212963289735	-80.2976371345654	102.022491813685
5996	1656046560163	9.4889486612911	0.0634112768391761	-1.62696513664103	0.0136977222390218	-0.00359177209904998	-0.1850717400613	-0.0300951799224776	0.0138293571501811	0.00570418464344474	0.61328125	0.4580078125	-0.202392578125	0	0	0	-0.488736027825906	-0.587626239673455	-0.414987823346537	0.493576340626549	-0.0350389821573208	0.164731885944635	0.985715818825336	0.984044570952476	0.177844403158119	0.00525838799346251	-0.174437817311317	0.970172548580126	-0.168335004895617	178.210796975183	-80.3042004994876	102.008032634089
5997	1656046560164	9.46434974987481	0.039303104892018	-1.62446459942149	-0.0109678320588723	-0.00959666947771623	-0.209868320457762	-0.0238575360408027	0.0167677249114583	0.00695642369979793	0.61279296875	0.44921875	-0.197265625	0	0	0	-0.488697510988159	-0.587659590375891	-0.415020293391684	0.493547469516661	-0.0351712761753592	0.164711127046983	0.98571457631462	0.984039989453094	0.177865797654118	0.00539047140988608	-0.174437038754254	0.970172151039071	-0.168338102813564	178.165918726143	-80.3037778044234	102.053521786581
5998	1656046560165	9.43402382939463	0.0439417457541311	-1.66789092551436	0.00266075541297226	-0.0571291901907654	-0.232430287099309	-0.0177819840163766	0.0151949767115112	0.0064798306935589	0.608642578125	0.455322265625	-0.203857421875	0	0	0	-0.488726996031209	-0.587582074094639	-0.415085995554332	0.49355531184217	-0.0350981550053772	0.164598648033849	0.985735971029082	0.984070239942393	0.177699079289959	0.00536657052716377	-0.174281044221512	0.970221790254646	-0.168213540894095	178.172694165327	-80.3110587147186	102.037173646479
5999	1656046560166	9.45590407332936	0.0699707708665843	-1.69176992327021	0.0305596980715955	-0.0715229454310892	-0.206696850382213	-0.0225166038592894	0.0107179158200822	0.0050547151239872	0.610595703125	0.4560546875	-0.190673828125	0	0	0	-0.488714859051285	-0.587634166866473	-0.415092056209699	0.493500210076179	-0.0352306583944995	0.164675064186856	0.985718481080752	0.984067131948615	0.177712742828174	0.00548277802903646	-0.174271858105428	0.970206320465674	-0.168312255052742	178.134247581272	-80.3051062450616	102.075842391744
6000	1656046560166	9.45480499096869	0.0210713105824965	-1.6949975805574	-0.0166031269412547	-0.0844539116597126	-0.207512199911841	-0.0146339009355732	0.0150997298301846	0.00779847589868396	0.6142578125	0.447509765625	-0.195556640625	0	0	0	-0.488740376357944	-0.58756116540799	-0.415144695067127	0.493517581834247	-0.0351464818759464	0.164567318187937	0.985739480083949	0.984092142271315	0.177575453350235	0.00544186432330784	-0.174147582043503	0.970249739063036	-0.168190557156199	178.14682150494	-80.312253410841	102.055490885174
6001	1656046560167	9.38950826004523	0.0413285786163235	-1.63344331043842	-0.00520398500041558	-0.0336194842584181	-0.282128463544943	-0.00701335677664602	0.0150429106215251	0.00729119551998446	0.616943359375	0.441650390625	-0.197998046875	0	0	0	-0.488722522305765	-0.587501426876714	-0.415224350594774	0.493539368522982	-0.0351383758180544	0.164391230827028	0.985769150345071	0.984109485978668	0.177478069728478	0.00548218681328128	-0.174051182563266	0.970297406980266	-0.168015260782169	178.131153297065	-80.322360815112	102.065323989536
6002	1656046560168	9.46041690241038	0.090658830056884	-1.66176871351265	0.0462793723739244	-0.0413655666930079	-0.207203026642933	-0.0193313117456371	0.00596905674823581	0.00768166766189726	0.609130859375	0.444091796875	-0.19384765625	0	0	0	-0.488778035528236	-0.587441324100488	-0.415269392239256	0.493518038772103	-0.035071954783391	0.164370960723882	0.985774895834936	0.984142704803886	0.177294727708796	0.00545124829331406	-0.173876664820105	0.970334358248419	-0.167982554551551	178.141331090057	-80.3243192693484	102.044625495743
6003	1656046560169	9.45920361026841	0.0415496405297527	-1.66560309340171	0.00107753581768226	-0.0536003371367416	-0.208020852982456	-0.0146383250405782	0.0073897714441865	0.00896895902822601	0.611572265625	0.447265625	-0.19677734375	0	0	0	-0.488909949287064	-0.587326996620195	-0.415250069760841	0.493539704677182	-0.0347712427905622	0.164415230671116	0.985778166018179	0.984184817858895	0.177068882103476	0.00518220866817515	-0.17369860382529	0.970368096607669	-0.167971878941554	178.232891504796	-80.3254341458674	101.941207786876
6004	1656046560170	9.43519543754032	0.0410293463258938	-1.66132488452258	0.00157690437392888	-0.0541348054971899	-0.232412659185766	-0.00508973558377382	0.014740647007793	0.0132759944592084	0.61669921875	0.45361328125	-0.193115234375	0	0	0	-0.488928999675253	-0.587260822393159	-0.415260097764509	0.493591137444017	-0.0346324446265568	0.164320284900911	0.985798883012794	0.984195100863702	0.177014968962335	0.00506993088235125	-0.173668066192598	0.970394015198645	-0.167853680482664	178.269937532277	-80.3324999782509	101.901578933108
6005	1656046560171	9.41443558946276	0.0380707466779489	-1.63253666353183	-0.00463494913744691	-0.0311315998428936	-0.257728864730573	0.00682567017712143	0.016392896425567	0.00797431324759895	0.615966796875	0.443603515625	-0.20556640625	0	0	0	-0.488891914232024	-0.587237625339342	-0.415249832231244	0.493664100797579	-0.0345609035645315	0.164203583452873	0.985820839263423	0.984179323592003	0.177104546060943	0.0050038763509539	-0.173771697807185	0.97039742525719	-0.167726664831284	178.291172226758	-80.3399940645529	101.885894183076
6006	1656046560171	9.43884025832516	0.0366624295136786	-1.63458787832813	-0.00541889199904503	-0.0301080876995929	-0.233335032585209	0.0160643066540816	0.00854086081041119	0.010058709688463	0.61083984375	0.44970703125	-0.197509765625	0	0	0	-0.488862140820688	-0.587238485019676	-0.415190647692348	0.493742336702879	-0.0344646244387911	0.164162924780429	0.985830981350165	0.984151727055635	0.177261066682046	0.00488798242162891	-0.173947025831728	0.970375725359141	-0.16767046203198	178.330168218793	-80.3434576968862	101.856573453058
6007	1656046560172	9.46253202724951	0.0108496225543256	-1.63909639055259	-0.0290447193132644	-0.033419441534796	-0.20933865396206	0.0281009272874059	0.0116463352148358	0.00634954747961767	0.6142578125	0.4501953125	-0.193603515625	0	0	0	-0.48880094636844	-0.587345692480694	-0.414977996447157	0.49385416351226	-0.0343634000218464	0.164313038037172	0.985809506076065	0.98406748328279	0.177733794588041	0.00467831238943911	-0.174442956534266	0.970263842360588	-0.167802655292618	178.403016107207	-80.3361251131876	101.812234122118
6008	1656046560173	9.47037047289492	0.0537579554534276	-1.58556063264934	0.00467105764591245	0.0270218543748514	-0.210392990785703	0.023564071660855	0.00702705365208765	0.0079632472018993	0.60595703125	0.446533203125	-0.198974609375	0	0	0	-0.488749866486596	-0.587371600737983	-0.414897031888782	0.493941923292317	-0.0342898888472433	0.164285507078579	0.985816654194266	0.984025658676252	0.177968041878428	0.00456936940139907	-0.174693178428959	0.970225565646408	-0.167763658688333	178.439823783477	-80.3385651766395	101.789592888903
6009	1656046560176	9.46908316295761	0.00409652779381959	-1.58963877246226	-0.0430639235843028	0.0146594153308338	-0.211206503500698	0.0112858266233629	0.00101231140371879	0.00849044959346983	0.6064453125	0.44970703125	-0.197509765625	0	0	0	-0.488735573005794	-0.587421096339766	-0.414826013556514	0.49395685411835	-0.0342883318964045	0.164374866904951	0.98580181244799	0.983999477556278	0.178113836311019	0.00452653107190326	-0.174840894714982	0.970183675622587	-0.167852009492628	178.455256602154	-80.3334995175691	101.782842833849
6010	1656046560177	9.48627700612659	-0.0168740203098101	-1.64324522701404	-0.0541952310737155	-0.0378639584426715	-0.185350232923035	0.0035444965533185	-0.000383432176278752	0.0074036365471222	0.61279296875	0.44970703125	-0.194580078125	0	0	0	-0.488747555126994	-0.587425467048473	-0.414787039943959	0.493972529109462	-0.034233935685175	0.164418715352658	0.985796390584428	0.983992328004437	0.17815507770383	0.00445720952517181	-0.174891783900537	0.970168673133762	-0.167885703959461	178.479207509023	-80.3316496286426	101.761621428286
6011	1656046560177	9.44114760849583	-0.0192565804584275	-1.61210724552269	-0.0607321493961622	-0.0153139671509185	-0.235077762940124	0.017453847663173	0.0132551532036197	0.00712370514260723	0.61376953125	0.45068359375	-0.199462890625	0	0	0	-0.48866903089021	-0.587473131208105	-0.414747469052886	0.494026755623208	-0.0342802859544601	0.164367158324735	0.985803377585577	0.983952544481272	0.178374230326096	0.00447483680181598	-0.175106402520611	0.970137140418726	-0.167844203285265	178.472818618299	-80.3340335930389	101.780692230912
6012	1656046560176	9.42168529042139	0.0263885222259202	-1.57911682018428	-0.0198153076622755	0.0208530002368618	-0.259591933663632	0.025173587612603	0.0131226741413333	0.00814137387849129	0.616455078125	0.447265625	-0.19580078125	0	0	0	-0.488601511035528	-0.587487579710159	-0.414676294113347	0.494136092792784	-0.0341961704265603	0.164281590828056	0.985820562193324	0.983907685815899	0.17862426902844	0.0043630615921651	-0.175374706615746	0.970105627975149	-0.167746185799803	178.510078403261	-80.3398994593783	101.758541291938
6013	1656046560177	9.37655779872691	0.0237079860714296	-1.54794571565323	-0.0249422411436962	0.043668343998278	-0.309319274596396	0.0190043742969564	0.000880141623395876	0.00950990572429974	0.610595703125	0.450439453125	-0.20654296875	0	0	0	-0.488579139677422	-0.587541348982239	-0.414542113726049	0.494206863019668	-0.0341000016326594	0.164381778393122	0.985807192518379	0.983860008849495	0.17889052043922	0.00420293750344963	-0.175660675381047	0.970039593330757	-0.167828824983597	178.565441557152	-80.3353354937283	101.719440806753
6014	1656046560177	9.47012866153363	0.0232942337693484	-1.58530163234166	-0.0210975021800537	0.0236346039465013	-0.210809582735976	0.00970887335058322	-0.00973840186440619	0.00962883276448016	0.605712890625	0.44384765625	-0.2001953125	0	0	0	-0.488601659020644	-0.587576672983349	-0.414456536717428	0.494214377917405	-0.0340411349239732	0.164521115507779	0.985785982698661	0.983842633378202	0.178988395948939	0.00410205595665614	-0.175769376970317	0.969997915805855	-0.167955855663816	178.600919406612	-80.328099537832	101.690131755987
6015	1656046560177	9.48974448804072	-0.0246276209854674	-1.61729921396384	-0.0631620518696584	-0.00937391614608054	-0.186294670843926	0.0145745637583668	0.00390007334440672	0.0114702755450365	0.61181640625	0.449462890625	-0.19482421875	0	0	0	-0.488562762108778	-0.58772649976265	-0.414262017662972	0.494237766342464	-0.0340709156029056	0.164794695596589	0.985739256098289	0.983770432757669	0.179386816404889	0.00401319472584855	-0.176167273753579	0.969877867776838	-0.16823202208523	178.633461600846	-80.3121771481122	101.681187552701
6016	1656046560178	9.4470809417508	-0.0538335385923399	-1.56420631804328	-0.0987007387677921	0.0296861478631304	-0.237388175335031	0.0219846821977475	0.0101612152777051	0.00668009695947964	0.6103515625	0.4482421875	-0.191650390625	0	0	0	-0.488504955040125	-0.587746492212654	-0.414195247955205	0.494327084392807	-0.0340072850739044	0.164738288924562	0.985750881675543	0.983730006088771	0.179610410945144	0.00392114788079517	-0.17640515775478	0.969846068426492	-0.168166060414066	178.664269584412	-80.3161362151903	101.663852779771
6017	1656046560179	9.47204606641749	-0.0308143051079279	-1.56474926085797	-0.0765448487851981	0.0365850272105506	-0.212591069467839	0.0232577154979777	-0.00047256001426063	0.00457643481668845	0.614501953125	0.449951171875	-0.18505859375	0	0	0	-0.488455224618493	-0.587772956266863	-0.414167035405431	0.494368397258245	-0.0340227626704235	0.164699355774849	0.985756853299849	0.983703729737176	0.179754320652747	0.00391871252294534	-0.176548644065708	0.969826018631186	-0.168131109151581	178.664821483309	-80.3181704632644	101.671698509583
6018	1656046560181	9.49233804761767	-0.0539882721496653	-1.594571920472	-0.0942745850659283	0.00758221169185474	-0.187662130864217	0.0261198547245297	-0.00653685099292085	0.00257954216337834	0.610107421875	0.43896484375	-0.1904296875	0	0	0	-0.488409554399389	-0.587852600003569	-0.414058023324541	0.494410134565432	-0.0340294520207632	0.164796686780964	0.985740355479668	0.983654618900096	0.180024120983929	0.00386090410004986	-0.176820776809946	0.969759438154628	-0.168229144319131	178.685277248545	-80.3125514716343	101.667224655311
6019	1656046560182	9.46564592490611	-0.0274956260168172	-1.6134485523756	-0.0625210524695831	-0.0121529094744735	-0.210689214226518	0.0274774248321832	0.0028273217986856	-0.00167342159304287	0.61572265625	0.454833984375	-0.199462890625	0	0	0	-0.488408478034258	-0.587743958155175	-0.414118420317504	0.494489769550475	-0.0338740527883553	0.164563619693982	0.98578464363212	0.983672908611619	0.179926185075989	0.0037652075054399	-0.176748854059226	0.969817190504074	-0.167971603527307	178.715887846234	-80.3276428809619	101.63139863757
6020	1656046560183	9.4601364817951	0.00114019571606545	-1.65884083804471	-0.0260141283027745	-0.0522680525792685	-0.208390005527182	0.0289121577834945	0.0105928459300059	-0.00447479172420979	0.611083984375	0.447265625	-0.196044921875	0	0	0	-0.488299824249906	-0.587803072122611	-0.414061341618607	0.494574600457536	-0.0339184924395593	0.164479828430184	0.985797099767597	0.983616718813919	0.18023297402902	0.0037716763374892	-0.177052778403412	0.969774438265019	-0.167898339918536	178.713121307129	-80.3318915753497	101.652012147064
6021	1656046560184	9.36414033874169	0.0266714376973919	-1.64323583671318	-0.000845325681901776	-0.0482881150715833	-0.305546510963838	0.0413916566621608	0.002572556051694	0.000465816801835985	0.609130859375	0.439453125	-0.197998046875	0	0	0	-0.488154414614886	-0.587946319325695	-0.413922994377218	0.494663671406303	-0.0340262393656686	0.164511846514573	0.985788043846646	0.983522518827074	0.18074604443559	0.00378449216352211	-0.177554695783239	0.9696735119499	-0.167951213833269	178.709156453907	-80.3288024851827	101.685797403518
6022	1656046560184	9.37176602175381	0.0699809373564878	-1.59113369175933	0.0328269497695967	0.012166995208307	-0.306616864599386	0.0444416866365519	-0.0113409153394112	0.00269766519162396	0.60888671875	0.44287109375	-0.1904296875	0	0	0	-0.488073620447047	-0.588074548458202	-0.413749086451667	0.494736455034198	-0.0340399621678141	0.164653835308042	0.985763863962342	0.983440860526985	0.181191668968247	0.00369498882875813	-0.178003805637849	0.969566239931473	-0.168095067041211	178.74075318989	-80.3205592025459	101.680576556017
6023	1656046560185	9.41916931591948	0.0439582593442586	-1.60150284973306	0.0091388958142583	0.00724836843332133	-0.258245586078075	0.0381274837649127	-0.0265657384706473	0.00242585187802146	0.61767578125	0.4501953125	-0.19921875	0	0	0	-0.488120902147149	-0.588141774134649	-0.413579421739666	0.494751756255887	-0.0339173691375379	0.164930296248072	0.985721872259265	0.983406877276047	0.181380093601073	0.00348932249007922	-0.178214830463017	0.969484016900118	-0.168345523190398	178.812591950075	-80.3062601043315	101.620679846088
6024	1656046560185	9.47030615212039	0.0398870582263378	-1.58635439945345	0.00110572404426633	0.0326121263283935	-0.210409277220446	0.0353764419335676	-0.0267489337208526	0.00719092032808827	0.61474609375	0.4482421875	-0.201171875	0	0	0	-0.488107797737367	-0.588277969156975	-0.413383227220567	0.494766729121141	-0.0339133230854914	0.165229593554321	0.98567188654804	0.983342662376165	0.181730170481374	0.00336949369566236	-0.178569579907255	0.969367487875823	-0.168640382414954	178.855362631606	-80.2892660580605	101.59885483964
6025	1656046560186	9.4839308485956	0.0207221693652256	-1.66619568148789	-0.0031854824603327	-0.0427075832454459	-0.183577985941897	0.0215705864121279	-0.0188571932070299	0.00539106905958469	0.610107421875	0.442626953125	-0.1962890625	0	0	0	-0.488095332316707	-0.588407606915115	-0.413193709605182	0.494783177803953	-0.0339051070657291	0.165515419495711	0.985624213188789	0.983280606243935	0.182067809826703	0.0032499245324546	-0.178912529185132	0.969255362912203	-0.16892113060986	178.897805212439	-80.2730855579259	101.576636825993
6026	1656046560186	9.45951155372011	0.0204276544779437	-1.66424663271507	-0.00268673489512956	-0.0432387917333458	-0.207968933278991	0.0139048627029006	-0.00796154673915532	0.00332068582706576	0.609619140625	0.4365234375	-0.20263671875	0	0	0	-0.488085155505864	-0.588462504271834	-0.413115796729934	0.494792987554522	-0.0339055608833738	0.165626027273836	0.985605616882671	0.983253224353718	0.182216438934016	0.00320408804838207	-0.179062865327236	0.969208537143422	-0.169030475918125	178.914049444894	-80.2667811310365	101.56926493204
6027	1656046560187	9.46894669044949	0.0133751912824821	-1.59246044947703	-0.020838663775922	0.0285897121032823	-0.210822492846715	0.010823111739299	-0.00328397099887841	0.00220142245259132	0.607666015625	0.451416015625	-0.21142578125	0	0	0	-0.48815030671036	-0.588468151582594	-0.412995012763895	0.494822828963759	-0.033719291989769	0.165803096241135	0.985582235343435	0.983240538496152	0.182288794981464	0.0029729920961048	-0.179167666741258	0.969164654999892	-0.169170974736905	178.993193914441	-80.2588601726966	101.495444171002
6028	1656046560188	9.45105249747324	0.00910496439360084	-1.5413284885555	-0.0334962070402506	0.0750432102794587	-0.237123867826117	0.00919952430197499	-0.00320219350662971	0.000781395746839219	0.618408203125	0.443603515625	-0.195068359375	0	0	0	-0.48813482375734	-0.588507726185396	-0.412947984348539	0.494830286338623	-0.0337347631148531	0.165863891726394	0.985571476443469	0.983220569078973	0.182396712115738	0.00295836938020633	-0.179274310199777	0.969133947826998	-0.169233899889031	178.998517334197	-80.2552175248558	101.496474876941
6029	1656046560189	9.45238182409108	0.0576134137911378	-1.53753620578842	0.0132518741779468	0.0900549660271234	-0.236332444720015	0.00448404401416383	-0.00614955398489582	-0.000569087022494715	0.61328125	0.447021484375	-0.199462890625	0	0	0	-0.488112063732335	-0.588632345077137	-0.412817132304402	0.494813693064289	-0.0338120447900805	0.16610195787891	0.985528733835755	0.983172237061912	0.182657257029862	0.00294596758346122	-0.179524644263091	0.969044099121975	-0.169482848864098	179.004179396792	-80.2407594324409	101.506034772979
6030	1656046560190	9.40000188788314	0.0361390643677272	-1.55796706083097	-0.00250277657741806	0.0586237845498147	-0.284562687177424	0.0107572344109666	-0.00786675226221379	0.00200206615293189	0.615234375	0.444580078125	-0.203857421875	0	0	0	-0.488105952717243	-0.588684243030036	-0.412750513314337	0.494813555482161	-0.0338242484661905	0.166211468547301	0.985509851771684	0.983149664627918	0.182779185361487	0.002916563149366	-0.179645921628382	0.969002330813471	-0.169593118139707	179.014757851634	-80.2343791459421	101.502695425411
6031	1656046560189	9.41837820058136	0.0640265347831142	-1.60825595243596	0.0341195665257381	0.0202953382028047	-0.257853069408238	0.00317113693341076	-0.0124528582965891	0.00383074187892755	0.616455078125	0.4482421875	-0.20361328125	0	0	0	-0.488145713866295	-0.588751566000964	-0.412619354158401	0.49480362179281	-0.0337662757893674	0.166462005232105	0.985469552768336	0.983124208669653	0.182918061215739	0.00278804747877198	-0.179796076005527	0.968933116213489	-0.169829288869244	179.059473155777	-80.2207758213537	101.466679373755
6032	1656046560190	9.41678610556544	0.0150141440242266	-1.61358582720087	-0.0130094772010201	0.00737443833366824	-0.258655675058346	0.0122370300264033	-0.0109353908116495	0.00176767199940687	0.61669921875	0.443115234375	-0.191162109375	0	0	0	-0.488141727442952	-0.58881482433995	-0.41254092428329	0.494797678205963	-0.0337858231419968	0.166601587994015	0.985445294794434	0.983098753995272	0.183055279440998	0.00275763698137105	-0.179931537112204	0.968883210478255	-0.169970486866952	179.070502754362	-80.2125963312574	101.463783597531
6033	1656046560194	9.41091264679086	0.043296179014837	-1.66087008576587	0.0248683016653979	-0.0332656596304139	-0.25633263627628	0.0198125617136575	-0.0140564595743057	0.00112816474994437	0.609619140625	0.449462890625	-0.196533203125	0	0	0	-0.488165434283862	-0.588832448959402	-0.412441426954649	0.494836260953596	-0.0336631672318272	0.166713349180184	0.985430591354382	0.9830772434866	0.183173156204123	0.00259387451640364	-0.180071998130495	0.968841707427661	-0.170058288354155	179.126143511662	-80.2076418056144	101.415804786228
6034	1656046560196	9.43736019708733	0.0158541501701536	-1.64344402199922	-0.00598545108487398	-0.015273191474291	-0.233300230434773	0.0244841886902078	-0.0141645194350344	0.00234473163890508	0.61279296875	0.44140625	-0.198486328125	0	0	0	-0.488139710085814	-0.588927005997349	-0.412317612171275	0.494852292848798	-0.0336816633992479	0.166884684408711	0.985400957813856	0.9830299474683	0.18342762026143	0.00253584417898456	-0.180326559139609	0.968764063245037	-0.17023078991133	179.146556135194	-80.1976639132945	101.410493602643
6035	1656046560198	9.45490710740616	0.0191814526898099	-1.69638393297866	0.00654839078430861	-0.061529496502262	-0.206984588544131	0.0198680976595959	-0.0171804596091735	0.00251809887087935	0.622802734375	0.445556640625	-0.20361328125	0	0	0	-0.488151669983178	-0.588984780242393	-0.412231641336759	0.494843358666413	-0.0336759949527568	0.167047628244699	0.985373541993981	0.983007988035299	0.183546041946872	0.00247910153719588	-0.180447285440199	0.968713549189573	-0.170390248529091	179.166430974594	-80.1884416965458	101.397786692736
6036	1656046560198	9.47879657102753	0.0181622215955136	-1.70133156264858	0.00578482824958436	-0.0604162514569142	-0.182590815285167	0.010802677588167	-0.0186968620710549	0.0045843150642273	0.615478515625	0.447509765625	-0.20458984375	0	0	0	-0.488175721360166	-0.589056699536526	-0.412131657155548	0.494817306665642	-0.0336805961972847	0.167266605265853	0.985336237130571	0.982986111607275	0.183663924489408	0.00242223623114368	-0.180565561021492	0.968653418723119	-0.170606660388766	179.186581645619	-80.1759067417012	101.38476980302
6037	1656046560199	9.47463679257674	-0.00426492164914866	-1.72892447515228	-0.00977551341755444	-0.0891361676520104	-0.182012438749691	0.0119355081011664	-0.0107322124631902	-0.00279552761071405	0.60693359375	0.452392578125	-0.207275390625	0	0	0	-0.488172551261383	-0.589152835430513	-0.411957055279754	0.49485137294381	-0.033619357781158	0.167501456711832	0.985298432345144	0.982931514308133	0.183957889600373	0.00226561993698748	-0.180873925600968	0.968557048837699	-0.170827006601721	179.240150298133	-80.1632199420034	101.349088682995
6038	1656046560200	9.43709462846702	0.0385877467853391	-1.64694613551689	0.0186116220505851	-0.00679169582902955	-0.232902239325625	0.00766517048720109	-0.010895956504862	0.00207396747421867	0.61328125	0.4521484375	-0.19970703125	0	0	0	-0.488181168394454	-0.589205115646412	-0.411890835063454	0.494835749023709	-0.0336334566263423	0.167641063791259	0.985274207683475	0.98291430332976	0.184050173631512	0.00223738597104173	-0.180964811234497	0.968515362457997	-0.170967042957751	179.250232947237	-80.1550989672347	101.344514720749
6039	1656046560202	9.4095294810298	0.040944558577579	-1.66874780424298	0.0233929164635064	-0.029963099583797	-0.256317985268947	0.00301518653182175	-0.00926060388897057	0.000924481179595391	0.607421875	0.44677734375	-0.20654296875	0	0	0	-0.488100884233623	-0.589379293770175	-0.411826063269618	0.494761425837922	-0.0339373166263631	0.167841808355433	0.985229610754864	0.982864409397411	0.184313640844409	0.00245652977964156	-0.181178948225455	0.968430487524354	-0.17122085022935	179.178025734833	-80.1401657977725	101.430986236139
6040	1656046560203	9.40928722423901	0.0409657925606266	-1.67011278460008	0.023264925221686	-0.0296552887340623	-0.256316712663247	-0.00943170665035259	-0.0197803440659128	-0.000237206521540713	0.618896484375	0.43994140625	-0.20751953125	0	0	0	-0.488162848550365	-0.589424779217605	-0.411794454812771	0.49467240667428	-0.0339924867405384	0.168063850423359	0.985189856335351	0.982877266492785	0.184244720561293	0.00248232893934042	-0.181098840020764	0.968405093504865	-0.171449074121057	179.170499838886	-80.1268729831174	101.434351068831
6041	1656046560203	9.43249082592133	0.0164180877903705	-1.67703424338345	5.30554967359716E-05	-0.0329821217718178	-0.232316355509463	-0.0139145570990681	-0.0136297277641523	0.000331580630114834	0.6123046875	0.450439453125	-0.19580078125	0	0	0	-0.488245445741888	-0.589512207818635	-0.411646564712249	0.494609792973923	-0.033955074813196	0.168444457051884	0.985126143081649	0.982862145654893	0.184326980945819	0.00235939273123736	-0.181187901177454	0.968323308086662	-0.171816516909794	179.213261029987	-80.1056058520087	101.396964931847
6042	1656046560204	9.40881855405046	0.0413401722426813	-1.67274180600624	0.0240741952677771	-0.0268637373540347	-0.256310462089761	-0.012324130192988	-0.00905998090710186	0.00042588749127	0.6162109375	0.451171875	-0.204345703125	0	0	0	-0.48829467713042	-0.58952409134365	-0.411646899249632	0.494546746374603	-0.033983647872786	0.168565682328305	0.985104422088568	0.982880221044703	0.184230277248526	0.00238244077536764	-0.181084463045219	0.968320616162914	-0.171940691976915	179.206150301883	-80.0983658418595	101.398316007735
6043	1656046560205	9.41827827428096	0.0350627082919844	-1.60156595063401	0.00330644351572723	0.0434205732714687	-0.259242324632238	-0.00946629979625417	-0.0151294666208935	-0.00156281331800849	0.61083984375	0.448486328125	-0.204833984375	0	0	0	-0.488302211953147	-0.58958132797396	-0.411656649423435	0.494462951586463	-0.0341346786201354	0.168689809323706	0.985077952217911	0.982885656980128	0.18419950557427	0.00251544209565718	-0.181026542303172	0.968304854049863	-0.172090384987749	179.162568247645	-80.089550021499	101.439436681905
6044	1656046560206	9.4389132568387	0.0370701830388896	-1.63087121505625	0.00913753566716006	0.0210924689064258	-0.233873777346757	-0.0110447829872146	-0.0258785311815537	-0.000399167693059665	0.618896484375	0.448486328125	-0.208984375	0	0	0	-0.48838027969803	-0.589639416439159	-0.411614614581539	0.494351565230913	-0.0342024647116408	0.168971868262475	0.985027258071338	0.982901184223685	0.18411622292993	0.00254529088611105	-0.180929415682822	0.96827151367264	-0.172379878033276	179.154055391776	-80.0726879145241	101.442925701534
6045	1656046560207	9.48295201254691	0.0142346834324015	-1.66593242119687	-0.00920951014210672	-0.00542937051734027	-0.184510087191544	-0.0124230785859824	-0.022878258491744	0.00135637903894467	0.610595703125	0.449462890625	-0.20263671875	0	0	0	-0.488429084893071	-0.58977823825461	-0.411470622737843	0.494257610296024	-0.0342928873899604	0.169384716998247	0.9849532047371	0.982874663803941	0.184257911308497	0.00253325334705817	-0.181056325840192	0.968172422540352	-0.17280268257639	179.160115301891	-80.048106810023	101.445153453536
6046	1656046560210	9.48588432033702	0.0123099188321845	-1.64355765650951	-0.015953056648406	0.018385906412887	-0.185494523647399	-0.00802234271794479	-0.0135468818919098	-0.00312036113829789	0.608642578125	0.4404296875	-0.205078125	0	0	0	-0.48846628301154	-0.589819220546947	-0.411455898719693	0.494184197281796	-0.0343653390356754	0.169543598567359	0.984923343036296	0.982883610669964	0.18420946753932	0.00258455900602506	-0.180994009153172	0.968153830883146	-0.172972045131434	179.143946620862	-80.0382115696309	101.458230829959
6047	1656046560211	9.48240828052409	0.0148253179124727	-1.66901932899989	-0.00951776872881371	-0.00378330458728343	-0.184509599465493	-0.00337165543618658	-0.0151826899332821	-0.00197446515177033	0.6103515625	0.449951171875	-0.201171875	0	0	0	-0.488503502558311	-0.589909429905716	-0.411375572270998	0.494106598858267	-0.0344459939059559	0.169818875665845	0.984873099932889	0.982872415138629	0.184268933053942	0.00260305027216878	-0.181039468247641	0.96809426698992	-0.173257615006849	179.139243754906	-80.0215844864565	101.466286573773
6048	1656046560212	9.50706423579624	0.0389812627282143	-1.67157153750979	0.0131931763818213	0.00404142267994636	-0.159721455793623	-0.00792092671159173	-0.0136154391505986	-0.00159889277806681	0.61083984375	0.441162109375	-0.20068359375	0	0	0	-0.488545077262953	-0.5899474066824	-0.41135623663612	0.494036245038171	-0.0345037921414405	0.169982021715979	0.98484293195474	0.982881583798947	0.184219508125409	0.00263913904647689	-0.180978674314778	0.968075041057965	-0.173428470338306	179.128171642288	-80.0116140820079	101.474284818874
6049	1656046560213	9.45847467661625	0.040143739661169	-1.66619847868874	0.014440254883756	0.00263062499938488	-0.208503037625352	-0.00190520625175126	-0.0120720319159903	-0.00346708601255018	0.61474609375	0.4482421875	-0.201904296875	0	0	0	-0.48857750693261	-0.589983147281473	-0.411339842340564	0.493975140818447	-0.0345611599458231	0.170121677373238	0.984816805863362	0.982888303550908	0.184183107645512	0.00267686399717804	-0.180931227172141	0.968057435148224	-0.173576188713272	179.116463766254	-80.0029874593112	101.483671405598
6050	1656046560214	9.45506143209497	0.0426035671383404	-1.69122435142551	0.0209295074391154	-0.0205060287314172	-0.20751256041555	-0.00173674396044885	-0.00755722620296663	-0.00174789207927569	0.613037109375	0.450439453125	-0.206298828125	0	0	0	-0.488590909248034	-0.590019203122087	-0.411317445097748	0.493937468416415	-0.0346094013891239	0.170225842760263	0.984797111994163	0.982886232948621	0.184193765516881	0.00270366876307521	-0.180933254034615	0.968037095984069	-0.173687473305288	179.108189576073	-79.9964895714622	101.492424522756
6051	1656046560215	9.41048141877264	0.0658057859403481	-1.65934355224247	0.0386397942869108	0.00873486704670926	-0.256885851256076	-0.00789863500153315	-0.0120880341367156	-0.001532272023936	0.614990234375	0.44140625	-0.202392578125	0	0	0	-0.488597545108574	-0.590102650428882	-0.411264951147156	0.493874924275986	-0.0347199961705283	0.170418519512893	0.984759894630642	0.982872305933567	0.184267157743604	0.00276492421702373	-0.180987712551849	0.967989226584742	-0.173897398258634	179.08908849458	-79.9842212932784	101.5154815683
6052	1656046560215	9.43772015625454	0.063507811748462	-1.63967798655581	0.0312340086003617	0.0334055654082663	-0.233488685807762	-0.0139939069804828	-0.0120356792167628	-0.00111809020971065	0.60888671875	0.4423828125	-0.20068359375	0	0	0	-0.488652220798579	-0.590123226263639	-0.411266128768201	0.493795257430474	-0.0347705016955768	0.170567522262042	0.984732315180743	0.982892577972156	0.184158356873268	0.00280709119688149	-0.180867886533479	0.967983687849711	-0.174052830134378	179.076024586015	-79.9751396295038	101.521979867286
6053	1656046560217	9.43354400076987	0.0416022346431827	-1.66709102803608	0.0157495881897974	0.00377459083451686	-0.232895442591904	-0.0183834739011042	-0.0136615470105603	0.00216865341331031	0.606201171875	0.44482421875	-0.2001953125	0	0	0	-0.488801199367304	-0.590066504734905	-0.411253050713527	0.493726478696287	-0.034615103462501	0.170757389277999	0.98470488402325	0.982943471605579	0.183888631551806	0.00266511049991386	-0.180620946294312	0.968001490284476	-0.174210185025965	179.123543363369	-79.9661148674089	101.459435338557
6054	1656046560217	9.43008407637035	0.0441503159588996	-1.69230913840231	0.0222512119857658	-0.0193573636442568	-0.231900587155524	-0.0262646747824806	-0.010334545269001	-0.00174288968068415	0.608154296875	0.448974609375	-0.1962890625	0	0	0	-0.48888108407597	-0.590058895041523	-0.411295741494012	0.493620906206345	-0.0346673731774632	0.170888911282968	0.984680228925866	0.982985617823306	0.183662197323192	0.00273357402503971	-0.180381397016178	0.968021269019922	-0.174348427969836	179.101744567118	-79.9580102701877	101.467682143323
6055	1656046560219	9.41151461717348	0.0164661025394653	-1.64403976427972	-0.0149391971055207	0.0195588742650465	-0.258675671890437	-0.0263093163212953	-0.0133903620438745	-0.00187595862024699	0.611328125	0.44970703125	-0.2060546875	0	0	0	-0.488962566067732	-0.590031917903525	-0.411418770997657	0.493469897471289	-0.0348061385482697	0.170961483795991	0.984662736056174	0.983052598763901	0.183300407710474	0.00292379833703371	-0.179989224074388	0.968077027716001	-0.174444110320907	179.039774856737	-79.9522639566458	101.507604845147
6056	1656046560219	9.45570092607889	-0.005834623668033	-1.67808014072505	-0.0332441383806263	-0.00852105977375977	-0.209297904013299	-0.0308587314337096	-0.0118239160447926	-0.00149735161062304	0.609619140625	0.4521484375	-0.207763671875	0	0	0	-0.489057361236174	-0.590017822801508	-0.411471292287073	0.493349006101041	-0.0348593111996505	0.171107212825359	0.984635541782757	0.983103025181113	0.183028546088633	0.00299886585655462	-0.179703284061339	0.968102718225612	-0.174596267605442	179.015984330444	-79.9433372370355	101.515161664082
6057	1656046560221	9.45548950026651	-0.00521295170005271	-1.67927310543797	-0.0348524841380756	-0.00687647606931393	-0.209302287902812	-0.0368740381882772	-0.0133696564308925	0.000372793930315249	0.60107421875	0.43994140625	-0.202880859375	0	0	0	-0.489102436424335	-0.590119690890629	-0.411467715701349	0.493185437784248	-0.0350938612826769	0.171398186188656	0.984576600712972	0.983117728197674	0.182946251238584	0.00319400394375091	-0.179577151675028	0.968066800860864	-0.174924885786146	178.953936078653	-79.9240162659519	101.57140581098
6058	1656046560221	9.46181016772928	-0.0089576936888457	-1.63235179253639	-0.0482410774405033	0.0404261314645313	-0.211305034311822	-0.0325080045260279	-0.0132695906229298	-0.00298139911168208	0.6162109375	0.446044921875	-0.2021484375	0	0	0	-0.489199630653743	-0.590110084258804	-0.411525025118582	0.493052698527712	-0.0351655156855653	0.171556222236109	0.984546519530004	0.983170318821715	0.182661750138784	0.00328773846949021	-0.179274958358873	0.968092530519842	-0.175092380351382	178.92427412481	-79.9141697270295	101.584001280218
6059	1656046560223	9.43091092751526	-0.00329813770166721	-1.67817719201556	-0.0338179069408276	-0.00651682658089625	-0.233690322559184	-0.0293717379443165	-0.00718468740275166	-0.00291975567108825	0.608154296875	0.451171875	-0.20166015625	0	0	0	-0.489318969077815	-0.590073756487433	-0.411567316653772	0.492942443159288	-0.0351493884655532	0.171710567216964	0.98452018851648	0.983226561600254	0.182358580726077	0.00329796896788359	-0.178969408151896	0.968122321373492	-0.175240183189132	178.921837472113	-79.9055585409508	101.568705116124
6060	1656046560224	9.48247099393613	-0.00554573575070517	-1.66120171380983	-0.041889110873089	0.0190280522227297	-0.185914215556169	-0.0248365453313898	-0.0025700429785982	-0.00455029652061324	0.6142578125	0.443359375	-0.20068359375	0	0	0	-0.489370708013471	-0.5900574206188	-0.411631674309581	0.492856891213031	-0.0352167898444413	0.171762620743579	0.984508699722024	0.983264650043719	0.18215134968697	0.00339319637174057	-0.178746764131423	0.968152099580697	-0.175302898977834	178.89111042848	-79.9018035701214	101.586871709876
6061	1656046560226	9.45959379476713	0.0439564343285822	-1.65416072114357	0.00564160962991537	0.0316077038380672	-0.209507489523856	-0.021386181733348	-0.0105859919973529	0.00250592649852157	0.603515625	0.447509765625	-0.200927734375	0	0	0	-0.489456220942445	-0.590037324506285	-0.41166268918785	0.492770122674695	-0.0352204279598138	0.171884730432291	0.984487257864999	0.983305025839057	0.181932876222738	0.00341389937952002	-0.178523801253444	0.968171507530324	-0.175422873059588	178.885109251056	-79.8947992568766	101.580026439487
6062	1656046560227	9.43127421036681	0.0223358757248006	-1.67794363193088	-0.0106980242123095	0.000979556563562163	-0.233292208591475	-0.0197152623166322	-0.00761391405024082	0.00405860745865727	0.60400390625	0.445556640625	-0.2080078125	0	0	0	-0.48953110126238	-0.590022813475188	-0.411678451913762	0.492699941856657	-0.0352121363825769	0.172001136657776	0.984467223649324	0.983336933943972	0.181760306253459	0.00341546663253622	-0.178349599923981	0.968183247148536	-0.175535239048671	178.88531138253	-79.8882591103625	101.569749928998
6063	1656046560228	9.4985224611676	0.0741417368567162	-1.73262436199317	0.0460128742222853	-0.0285994366741364	-0.157301407923653	-0.0106167721905956	-0.0107460893249656	0.00329535276429411	0.61865234375	0.447021484375	-0.206787109375	0	0	0	-0.489553866759737	-0.59012483808993	-0.411635140139784	0.492591309720364	-0.0353816262571325	0.172260007099015	0.984415882885708	0.983331578332542	0.181787045885379	0.00353228004253725	-0.178345584687237	0.968132201665927	-0.175820625980154	178.849068388612	-79.8715180551608	101.606933655781
6064	1656046560229	9.49509528177902	0.0762923290087198	-1.75750159313067	0.0524980444402898	-0.0517087562942754	-0.156288607134565	-0.0166453938472284	-0.0061118621979599	0.0039185187184485	0.61083984375	0.448974609375	-0.198974609375	0	0	0	-0.489617458690552	-0.590113936288674	-0.411645699167726	0.492532338735242	-0.0353732788907977	0.17236253376431	0.984398236535835	0.983357809529845	0.181645125004241	0.00353086375541356	-0.178202552106246	0.968140591813266	-0.175919427313414	178.850175700093	-79.8657703015121	101.597554055771
6065	1656046560230	9.51523147985986	0.0539360840874721	-1.78737388254347	0.0354937467174219	-0.0805487582299792	-0.131287840260883	-0.0243814904314426	0.000204543734223538	0.00167360660782897	0.605224609375	0.443603515625	-0.195556640625	0	0	0	-0.489688242647124	-0.590067747083568	-0.411675289833439	0.492492573147503	-0.0353129808154457	0.172404430641571	0.984393064624637	0.983392521806828	0.181457761507452	0.00349697628126194	-0.178022867745509	0.968168266926706	-0.175949042270211	178.861399847553	-79.8640863222973	101.575581116869
6066	1656046560231	9.52119950708347	0.0253439980361143	-1.74077977518369	-0.00139370110626797	-0.0398853111331483	-0.133709952493287	-0.0242031648337341	0.0124261228172022	0.00222267258082102	0.618408203125	0.445068359375	-0.2041015625	0	0	0	-0.489727378298262	-0.589999662842295	-0.411757574619285	0.492466437977993	-0.0352878048207567	0.172324403994797	0.984407979761831	0.983431548327666	0.181245589377509	0.00352506525458662	-0.177812149710817	0.968222255537971	-0.175865014417822	178.851708395584	-79.8689434575898	101.572777975552
