// Start Time : 05/04/2022 12:41:13																																
// Update Rate : 100Hz																																
// Filter Profile : 46.1 human																																
// Firmware Version : 4.4.0																																
PacketCounter	Time_Of_Arrival	Acc_X	Acc_Y	Acc_Z	FreeAcc_X	FreeAcc_Y	FreeAcc_Z	Gyr_X	Gyr_Y	Gyr_Z	Mag_X	Mag_Y	Mag_Z	VelInc_X	VelInc_Y	VelInc_Z	OriInc_q0	OriInc_q1	OriInc_q2	OriInc_q3	Mat[1][1]	Mat[2][1]	Mat[3][1]	Mat[1][2]	Mat[2][2]	Mat[3][2]	Mat[1][3]	Mat[2][3]	Mat[3][3]	Euler_X	Euler_Y	Euler_Z
63646	1649162504186	9.71572635559007	0.296605896157498	0.074484155960179	0	-6.93889390390723E-16	-0.0921493532957136	0.00786007581095373	-0.0537542917660673	0.0109591203185274	0.553466796875	0.430908203125	0.177490234375	0	0	0	-0.584114573191907	-0.393502183942485	-0.600616039491594	0.378452863277268	-0.0311671913241466	0.0050910006956032	0.999501219557476	0.91431044019899	-0.403858923019463	0.0305677810887428	0.403813106681908	0.91480711191457	0.00793239323466105	75.4525260801034	-88.1902841442714	170.722958177677
63647	1649162504187	9.7165528183193	0.276207575983991	0.0544095034136943	-3.46944695195361E-16	-6.93889390390723E-16	-0.0920573763453696	0.00996539426009051	-0.0537196625488881	0.0101132758865582	0.547607421875	0.435546875	0.1796875	0	0	0	-0.58549552839275	-0.392761216967108	-0.599948113770276	0.378147951815289	-0.0283982255399926	0.00618157168532146	0.999577575257508	0.913658173356025	-0.405485505968836	0.0284648328456121	0.405490176263138	0.914080572280527	0.0058672253572209	78.3531998414496	-88.3345653599303	167.719729361674
63648	1649162504187	9.71745251330166	0.276800481201078	0.00699103787027619	-0.033608650431792	-0.0509217320118188	-0.0914823999067202	0.0099332695104088	-0.0521447414132637	0.0106461873527746	0.54443359375	0.43701171875	0.173828125	0	0	0	-0.584754951090326	-0.393368685182984	-0.600066508917397	0.378474450350942	-0.0296374752138043	0.00582888825624267	0.999543717965676	0.914268256802325	-0.404036335897926	0.029465129862553	0.404023730326066	0.914724364678166	0.00664544938552064	77.2903856977752	-88.2691045766722	168.873481057823
63649	1649162504188	9.73330525673604	0.325472139946778	0.0185769488866367	0.0178939181156376	-0.055983931328489	-0.0741016113784276	0.0167459621475929	-0.0438239009880011	0.00940306084393934	0.54931640625	0.43603515625	0.1728515625	0	0	0	-0.584873225385799	-0.393474356082346	-0.59988762975448	0.37846541849943	-0.0293744744537285	0.0061917858016437	0.999549299454086	0.914338677192284	-0.403883716211269	0.0293722176493219	0.403883552080091	0.914789377708313	0.00620248266479201	78.0761220104955	-88.2797245758972	168.096987359121
63650	1649162504190	9.71604554984739	0.313773368398843	0.0280412017871737	0.0137704925380941	-0.0393541437789288	-0.0916256024738011	0.0220696039945815	-0.0351436401889913	0.00765375371905345	0.55029296875	0.43896484375	0.17822265625	0	0	0	-0.584949705698365	-0.393592675037455	-0.599725468094397	0.378481189597598	-0.0291716618483664	0.00649422166369601	0.999553319853417	0.91443345604907	-0.403673590555296	0.0293101816157632	0.403683624393111	0.914880023485691	0.00583729592051269	78.7365776988858	-88.2874150528445	167.449426428366
63651	1649162504191	9.71456650997971	0.330691838010717	0.0818563406367163	0.053139766980158	0.00565573462373292	-0.0922962507074203	0.0177693824380333	-0.0304907525408099	0.0109457106953351	0.5498046875	0.442626953125	0.167236328125	0	0	0	-0.585029039987694	-0.393671639522087	-0.599580596852373	0.378505971531787	-0.0289485037717114	0.0067290100335437	0.999558254707222	0.914508355326408	-0.403511739501541	0.0292017828673089	0.403529989179947	0.914949723486712	0.00552732521413923	79.281831517778	-88.296902215372	166.914115932216
63652	1649162504193	9.69805526475367	0.299540452531235	0.0769515159388798	0.0253553901353778	0.016453039533694	-0.10974930117394	0.0179212101671431	-0.0398967793346405	0.00776453228566724	0.55322265625	0.4375	0.170166015625	0	0	0	-0.585129740791677	-0.393778774112143	-0.599414147118752	0.378502501621458	-0.0287180854147264	0.00706383566752489	0.999562591234673	0.914582852434485	-0.403348266650073	0.0291269947502661	0.403377586887165	0.915019277401325	0.00512292699960532	80.0247039816377	-88.3052829346194	166.181190599397
63653	1649162504194	9.71398806312168	0.348182211229325	0.0886270621197016	0.076857820797689	0.0113915406987901	-0.092367900881932	0.0209384571933469	-0.0526897525144741	0.0133628183000371	0.548095703125	0.43408203125	0.167724609375	0	0	0	-0.585274314559446	-0.393902132569619	-0.599193455087941	0.378500052911295	-0.0283833733262358	0.00749209237660037	0.999569033469147	0.91467111019615	-0.403157639806506	0.0289944415050518	0.403201121391256	0.915099877618541	0.00459017334815498	81.0040387349305	-88.3178101794063	165.213432542919
63654	1649162504195	9.68096128607485	0.307349560864887	0.0532356520265297	0.0293600409783299	-0.000596174981602055	-0.126746800675901	0.0158425777209425	-0.0519875582293761	0.0132107072648921	0.560791015625	0.44189453125	0.165283203125	0	0	0	-0.585424312386732	-0.394010371996742	-0.598986823614447	0.378482478275795	-0.02805877620947	0.00791446728658179	0.999574942805789	0.91473853711115	-0.403013680794404	0.0288683531968834	0.403070854567011	0.915159731577016	0.00406840245102308	81.9781638734988	-88.3293837542802	164.247968568197
63655	1649162504196	9.68174234091313	0.307663131328842	0.00590037057320484	0.0137239559539749	-0.0398809505727939	-0.12614798701413	0.0179459377706761	-0.0519538292060042	0.0123612270728544	0.55029296875	0.44384765625	0.172119140625	0	0	0	-0.585570278590426	-0.394126238541627	-0.598775977707056	0.378469662516719	-0.0277363267720249	0.00834013819341778	0.999580481138017	0.91481430701705	-0.40285044529502	0.0287454762096554	0.402921183178684	0.915227819081413	0.00354391384912051	82.9716999096231	-88.3403039505102	163.264299436362
63656	1649162504197	9.69901368078222	0.275452515020774	0.04217413488662	0.00148553715857164	0.0107489682620768	-0.109677575863833	0.0230543223577995	-0.0542099936219495	0.0119855213611278	0.551025390625	0.437255859375	0.176025390625	0	0	0	-0.585710505473181	-0.394264984546432	-0.598551085964685	0.378463899506213	-0.0274165610978028	0.00879033068238699	0.999585445204193	0.914910242873879	-0.402640397462306	0.028634905549962	0.402725191243396	0.915316033082503	0.00299665147790457	84.0257255694475	-88.3501532467218	162.223048221566
63657	1649162504198	9.73224622104547	0.313914060059169	0.0671465968594327	0.0489264123079357	0.0227355159565193	-0.0752978627725742	0.0308153139556869	-0.0513474906814682	0.0109905923983442	0.548828125	0.434814453125	0.173095703125	0	0	0	-0.585827502404455	-0.394422168341161	-0.598319139706162	0.378485795782212	-0.0271092796353297	0.00921611609767281	0.999589991027185	0.915037298991333	-0.402359311024327	0.0285258880085337	0.402457237992187	0.915435441763155	0.00247458109523196	85.0420826264736	-88.3592245449828	161.223935151988
63658	1649162504199	9.73297058658064	0.272694623403642	0.0751465607224405	0.0169801891820845	0.0505671755610643	-0.0757536098177294	0.0280949721673635	-0.0428243156130107	0.00754221675669378	0.547607421875	0.435546875	0.16552734375	0	0	0	-0.585913685010974	-0.394567317490191	-0.598127548598264	0.378503925069856	-0.0268798648471473	0.00957753227743796	0.999592788960221	0.915152031624854	-0.402102821350615	0.0284619056772076	0.402211675462936	0.915544423792396	0.0020435713709111	85.8931974126473	-88.364832899479	160.388569419534
63659	1649162504200	9.76884704103427	0.213435269421658	0.0689597137404315	-0.0386092299289684	0.0732129801164216	-0.0416163022520184	0.0328056321302907	-0.0506472185128792	-0.0019007780412714	0.553955078125	0.43701171875	0.16796875	0	0	0	-0.585999290529165	-0.394766828622441	-0.597918024002374	0.378494410912227	-0.0266936248150444	0.0100489024572353	0.999593152214259	0.915283423531559	-0.401802263855175	0.0284814916955888	0.401924999225705	0.915671316750865	0.00152796503739244	86.9291599694	-88.3655624399625	159.370988942939
63660	1649162504201	9.75161016730762	0.223395233290928	0.0499422821669557	-0.034641980698585	0.0560524150025284	-0.0586135222912887	0.0404632131472953	-0.0504417925915321	0.00487312438985559	0.55419921875	0.44189453125	0.164306640625	0	0	0	-0.586078029453882	-0.394967340682092	-0.597686217646268	0.378529428739258	-0.0264560299395715	0.0104797163892612	0.99959504501785	0.91544700651314	-0.401432542745695	0.0284375085205529	0.401567997661625	0.915828635263785	0.00102668637194253	87.9323344153126	-88.3693691280178	158.390577517531
63661	1649162504202	9.75222969165683	0.224593044320074	0.00269526281220623	-0.0502780847925382	0.0167676333609375	-0.0580155499492605	0.0351330245645231	-0.0501726565239036	0.000990278836584112	0.55224609375	0.436279296875	0.1708984375	0	0	0	-0.586163400642718	-0.395164372063496	-0.597467907958348	0.378536241010689	-0.0262455639769245	0.0109352722770198	0.999595713372042	0.915588296289313	-0.401110866586321	0.028427880758229	0.401259569442981	0.915964241947576	0.000515173597254615	88.9617923876489	-88.3707154042498	157.380840750482
63662	1649162504203	9.75223131038909	0.224528320006809	-0.00212542606858991	-0.0502834103254822	0.0165837302553769	-0.0580152630161965	0.0392947241358794	-0.0469769145848522	0.000338542725481907	0.554443359375	0.43603515625	0.170654296875	0	0	0	-0.586226271746192	-0.395364137189254	-0.597255803762605	0.378565003943895	-0.0260545922070364	0.0113453968394025	0.999596138545704	0.915745979667022	-0.400751473627111	0.0284175493205283	0.400912033928405	0.916116552822978	5.19146783133917E-05	89.8953291636943	-88.3715724172385	156.469422018658
63663	1649162504203	9.71702153710477	0.264096082468898	-0.0198648778452205	-0.01842684273824	-0.0117861412328786	-0.0920819870066527	0.0434562117937652	-0.0437812296116042	-0.000314773702112435	0.546875	0.441650390625	0.17724609375	0	0	0	-0.586274109459161	-0.395577683608947	-0.597042137589462	0.378604874177623	-0.0258820356536287	0.0117477815979114	0.999595973310193	0.915920035121101	-0.400353290959053	0.0284206207183804	0.40052541678923	0.916285562499914	-0.000398070383104188	90.8024547329491	-88.3712393021796	155.586838527077
63664	1649162504206	9.71623280607799	0.325233800231112	-0.064261345142977	0.021573215380416	-0.0733639009389969	-0.0911011973464539	0.0418933559660469	-0.0387122968579305	0.000769134225049535	0.545166015625	0.42919921875	0.17041015625	0	0	0	-0.586310524079804	-0.395766707078572	-0.596845861880308	0.378660402046215	-0.0257125385509274	0.012080582842717	0.999596380985569	0.916088158919586	-0.399970026980765	0.0283982852357113	0.400151659310054	0.916448600323655	-0.000782634157101725	91.5786265385475	-88.3720612997458	154.834342866012
63665	1649162504206	9.68056867960386	0.342461749000506	-0.0116266371719915	0.0609685193963394	-0.028888640362397	-0.12629111848209	0.0454836900679809	-0.0390379355322637	0.0004148010503338	0.55419921875	0.44189453125	0.1552734375	0	0	0	-0.586341701924203	-0.395975117074229	-0.59664060415524	0.37871771111997	-0.0255526077373595	0.0124367201960613	0.999596114552566	0.916270176063696	-0.399553203884203	0.0283936915893765	0.399744954557309	0.916625640737064	-0.00118576951464172	92.3913809600816	-88.3715240428055	154.047330870829
63666	1649162504208	9.71448589080186	0.362399099715643	-0.000139805280080437	0.0846443725658959	-0.0226781434470559	-0.0918391850678137	0.0355018657765002	-0.0340768406085546	0.00492256562138526	0.550048828125	0.432861328125	0.16455078125	0	0	0	-0.586383919128429	-0.396130247081175	-0.59646299424499	0.378769881631701	-0.0253745523125824	0.0127243780818149	0.999597029956255	0.916413248993274	-0.399228408232229	0.0283449312920742	0.399428202765563	0.916763201848106	-0.00153054653001711	93.0908092477816	-88.3733706787608	153.367967063446
63667	1649162504210	9.69718329993405	0.372121002327518	-0.0175980989299302	0.0887060191839817	-0.0397251859219239	-0.108837620479312	0.0367481411043635	-0.034868236860684	0.00168559936942982	0.557373046875	0.43603515625	0.160400390625	0	0	0	-0.586421632449951	-0.396300923607038	-0.596284764372773	0.378813577792362	-0.025219884549768	0.0130373391758736	0.999596911365031	0.916560399076377	-0.398891702456717	0.0283274523410617	0.399100228349032	0.916905359073877	-0.00188950611411398	93.8161072134325	-88.373131327555	152.663440503554
63668	1649162504211	9.73241794952376	0.332233479508667	-0.00749750612390577	0.0565884027773572	-0.0113214116119906	-0.0747685200943273	0.0345333516988005	-0.0270536496477251	0.00517316135177645	0.552734375	0.43603515625	0.167236328125	0	0	0	-0.586439805972062	-0.396446081541308	-0.596134358698396	0.378870274343667	-0.0250913383804089	0.0132683502234432	0.999597106648788	0.916698702326432	-0.398575639298595	0.0283010408068742	0.39879056394468	0.917039481505603	-0.00216228319601419	94.3690787852186	-88.3735254851041	152.130023890892
63669	1649162504212	9.69816504722782	0.289460742149482	0.0444948613001497	0.040421403732175	0.0552634286021383	-0.110343105568756	0.0336538678658845	-0.0263064079108337	0.00331869661061337	0.552978515625	0.44287109375	0.166015625	0	0	0	-0.586461032939992	-0.396586485329394	-0.595984208410148	0.378926694523841	-0.0249560340403864	0.0134963875101046	0.999597440917669	0.916833691835166	-0.398267439662628	0.0282670836924269	0.398488617002888	0.917170046408381	-0.00243476700592909	94.9229842262137	-88.3742003896747	151.59518547178
63670	1649162504213	9.68216124733904	0.239380168990648	0.0257912785948002	-0.0114779376826798	0.0602938034688673	-0.127727548709368	0.0396533129336979	-0.0308694524396555	0.00426574703667454	0.552001953125	0.43408203125	0.17626953125	0	0	0	-0.58647348726483	-0.396757368982551	-0.5958197098854	0.378987219053032	-0.0248350730597575	0.0137592457575275	0.999596869894209	0.916991465383335	-0.397904555904986	0.0282598089904937	0.398132982256231	0.91732363293782	-0.00273512221305383	95.5281467406769	-88.3730476358143	151.012461054183
63671	1649162504213	9.73402149554486	0.229847914643051	0.0368287407128611	-0.0155694428154191	0.0778752414254215	-0.0762068437814829	0.0439185940590372	-0.0355127223989754	0.000977053092963514	0.556884765625	0.445556640625	0.165771484375	0	0	0	-0.586497966764259	-0.396952618988185	-0.595626585296732	0.37904844564721	-0.0246848216676483	0.0140811451908719	0.999596108900665	0.9171664705624	-0.39750178826171	0.0282487805905712	0.397739016008423	0.917493351299538	-0.00310249348037711	96.2675340078055	-88.3715126477781	150.297948385824
63672	1649162504214	9.73517787475333	0.190856443515255	0.00385587049968046	-0.0633832431137935	0.0661746354111744	-0.0760692789011319	0.040953335713298	-0.0363580057211704	-0.000543038973955026	0.550048828125	0.442626953125	0.1640625	0	0	0	-0.586512148812702	-0.397143954818308	-0.595455418819576	0.379095004774244	-0.0245809533006454	0.0143911589764076	0.999594253323891	0.917327858337433	-0.39712731301298	0.0282753881873896	0.397373095532257	0.917650691604603	-0.00343964310723871	96.9358356105172	-88.3677758429007	149.652744038356
63673	1649162504215	9.75251636434779	0.180941199554535	0.0140160859506181	-0.0674472031750259	0.0832205779449375	-0.0590708285601487	0.0460720875817005	-0.0401742693071481	-0.00145055476383304	0.55078125	0.44970703125	0.163818359375	0	0	0	-0.586541502043615	-0.397361481355951	-0.595248884599609	0.379145994173676	-0.024434762964948	0.0147655399930099	0.999592377515736	0.917510460522172	-0.396704336473318	0.02828823528706	0.396960321935629	0.917827678952852	-0.00385416096995256	97.7585529972604	-88.3640069686311	148.856096485751
63674	1649162504216	9.73461549004752	0.210459040072458	0.010836175544956	-0.0397971521956643	0.0714837064182475	-0.0761348793107395	0.0469028841365046	-0.0377728655351489	0.0014551409041578	0.550048828125	0.44140625	0.167724609375	0	0	0	-0.586555090318897	-0.397558909035398	-0.595054858438154	0.379222566992951	-0.0242867414085337	0.0150639417555922	0.999591532502421	0.917696865429768	-0.396274317059721	0.0282688666067417	0.396538292441138	0.9180085747408	-0.00419992026485083	98.4506480662062	-88.3623120005394	148.190587643811
63675	1649162504216	9.73387684510228	0.250859385459654	-0.00569462209725009	-0.00796891452099942	0.0436493967181921	-0.0756779888161318	0.0463474000827064	-0.0339515074143708	-0.0044464173838121	0.551513671875	0.438720703125	0.15673828125	0	0	0	-0.586559302963739	-0.397774260161948	-0.594871613107373	0.379277716163683	-0.0241931962567065	0.0153932918950768	0.999588783360196	0.91787947921496	-0.39584810394855	0.028311485944962	0.396121131588506	0.918186977235558	-0.00455235588138458	99.1347052836192	-88.3568097331884	147.532817107578
63676	1649162504216	9.68180634608176	0.280969438299386	-0.0508510373600321	0.00421313310525906	-0.00807306937975344	-0.126675796528776	0.0459357506679111	-0.0307487117662877	0.00169602812698804	0.5439453125	0.437255859375	0.17626953125	0	0	0	-0.586554940340991	-0.397946967106439	-0.59469875718037	0.379374355407012	-0.0240568008421816	0.0156086037666835	0.999588736341949	0.9180624344333	-0.395426619660602	0.0282693287184712	0.395705239813226	0.918364938329118	-0.00481697333527403	99.6700815199155	-88.3567157887724	147.023568646723
63677	1649162504217	9.68015821784281	0.339297115297339	-0.010326035848132	0.0754110333427071	0.00910319585616173	-0.126877049042148	0.0498465419030738	-0.0368951586941484	0.00298277031610087	0.553955078125	0.436279296875	0.159912109375	0	0	0	-0.586575953057517	-0.398156479515508	-0.59448570676432	0.379455944171929	-0.023883675454511	0.0159357625617267	0.999587725774161	0.918260303189612	-0.394969208504814	0.0282372080631616	0.395256354323248	0.918556136447118	-0.00519986177103476	100.434081793658	-88.3546979285205	146.287828994393
63678	1649162504218	9.69635965100708	0.410544915026066	-0.0684676774329192	0.119207663999124	-0.0694170619843643	-0.108379303283142	0.036390481563567	-0.0394421236741064	0.00524571470227859	0.55322265625	0.4443359375	0.1640625	0	0	0	-0.586618019040365	-0.398307856406925	-0.594305578116578	0.379514204057238	-0.0236965373119191	0.01621431449591	0.999587700066809	0.918403948278668	-0.394639640886644	0.02817342057711	0.394933743690735	0.91869290290406	-0.00553969747664296	101.124069713246	-88.3546466294032	145.618182588637
63679	1649162504219	9.66206327659857	0.38845880100074	-0.0446839540009144	0.111139722805767	-0.0363863005918126	-0.143422303514805	0.0240458698424387	-0.0318235769812423	0.00792505402010207	0.5517578125	0.441650390625	0.165283203125	0	0	0	-0.586682667955678	-0.398416413178205	-0.594149394844124	0.37954486617129	-0.0234982833668499	0.016475303377709	0.999588112703139	0.918500713585174	-0.394420112546463	0.0280929521830869	0.39472049582247	0.9187825309601	-0.0058643823387563	101.791125325088	-88.355470239979	144.964628891403
63680	1649162504219	9.66335801416521	0.327970998379039	-0.0492847036540207	0.0550248956372788	-0.0146438616442208	-0.143807427031197	0.0144738266831597	-0.0285008298297693	0.00682031564501755	0.547119140625	0.44091796875	0.16162109375	0	0	0	-0.586729627756903	-0.398492542453892	-0.594048649356848	0.379550049029352	-0.0233802083881248	0.016672374217325	0.999587613865681	0.918557150174172	-0.394290907780899	0.0280613952828104	0.394596157760857	0.918834431211234	-0.00609592495824307	102.256237122307	-88.3544746264001	144.50741747
63681	1649162504220	9.6298895354939	0.28753937206869	-0.081552010390569	0.00758874904428636	-0.0266216787599652	-0.178200601036652	0.01149232217467	-0.0277873296529351	0.00582603934969096	0.556884765625	0.442626953125	0.15673828125	0	0	0	-0.586801873548722	-0.398562301152825	-0.593933288761058	0.379545651800872	-0.023217318797522	0.0169046156666329	0.999587509964494	0.918603804502838	-0.394186380597632	0.0280026374516997	0.394497156467277	0.91887503574779	-0.00637669340105063	102.828501145208	-88.3542673291479	143.941498690898
63682	1649162504221	9.64853760956045	0.217126667411772	-0.071701238924401	-0.0525932991334252	0.012334465037777	-0.161591860236125	0.000681208528291123	-0.0236624334391794	0.00796176256943436	0.548828125	0.43701171875	0.163818359375	0	0	0	-0.58686485598931	-0.398592252981078	-0.59386726375821	0.379520130828987	-0.0231082222003896	0.0170704070152543	0.999587220442054	0.918608733561527	-0.394177372318034	0.0279677274181909	0.394492084446857	0.918875835114181	-0.00657228666377169	103.224300205632	-88.3536898294605	143.546135117243
63683	1649162504221	9.64775208812653	0.234987902531896	-0.0173978935192671	-0.0132260197265779	0.057345588612185	-0.162237724536356	0.00705594566413909	-0.0298513824003634	0.00329179292380714	0.55419921875	0.446044921875	0.1611328125	0	0	0	-0.58694659845353	-0.398660278812806	-0.593759382397999	0.379491065079368	-0.0229604441775151	0.0173318283212569	0.999586127219768	0.918637350029594	-0.394113027243646	0.0279345822853276	0.394434071973731	0.918898541452696	-0.00687265467854814	103.82178508244	-88.3515110431627	142.952452052148
63684	1649162504222	9.66538593529532	0.226043182897037	-0.0491583283439586	-0.0333815745021655	0.0347501148168137	-0.144653739195151	0.00928143703558367	-0.0407916534643809	-0.00121813819227732	0.5595703125	0.432373046875	0.163330078125	0	0	0	-0.587026706068885	-0.398766975358154	-0.593644463814988	0.379434838025503	-0.0228577001089511	0.0176749461223454	0.999582473748566	0.918672510011852	-0.394028206112539	0.0279748482794484	0.394358142928801	0.918928380815016	-0.00723090854875091	104.492552891569	-88.3442504893169	142.286651549408
63685	1649162504223	9.70038205162012	0.207302529237589	-0.0674933960846708	-0.0571538329588343	0.029550539078136	-0.110069128588703	0.0143411224947982	-0.0399063671873585	-0.0005650029812328	0.548828125	0.446044921875	0.15966796875	0	0	0	-0.587116733093062	-0.398887010989818	-0.59349983838442	0.379395619404609	-0.0227058113974462	0.0180439999304124	0.999579341620912	0.918728955131982	-0.393896232880404	0.0279797198828966	0.394235403193171	0.918977786341509	-0.00763381162852239	105.26079637522	-88.3380512485359	141.526311204798
63686	1649162504223	9.73459263594075	0.228850679611877	-0.0988340425233483	-0.0492783698356463	-0.00395827262595141	-0.0750290550404688	0.0170486741195033	-0.0394954006145416	-0.00278593048037256	0.552978515625	0.4345703125	0.157470703125	0	0	0	-0.587181233216166	-0.39900980706375	-0.593370389809541	0.379369152308098	-0.022594491271556	0.0183692975805314	0.999575939021432	0.918794984727618	-0.393740440287968	0.0280043161176137	0.394087889947861	0.919038102903376	-0.00798125354861634	105.907596313735	-88.3313427707956	140.888925566653
63687	1649162504224	9.76858189749249	0.24924751247379	-0.0875775716976016	-0.0255825335504948	0.00229061288482338	-0.0405675372355745	0.0220384278683353	-0.0323431258743149	-5.16452414827064E-05	0.5537109375	0.434814453125	0.159423828125	0	0	0	-0.587235266129871	-0.399136735426297	-0.593231529979513	0.379369161220023	-0.0224675634571913	0.018666838225341	0.999573287829846	0.918881829975737	-0.39353781189691	0.0280030917549279	0.393892613706756	0.919118893156953	-0.00831078270676433	106.529882764816	-88.3261343798437	140.279010959977
63688	1649162504225	9.78596539864718	0.239124251926105	-0.0766616653919516	-0.0295259353731071	0.0189198973160921	-0.0235635093047115	0.0213741779678979	-0.0280213648867167	0.0028706333670664	0.5517578125	0.449951171875	0.158203125	0	0	0	-0.587278312158405	-0.3992316127309	-0.593104534615255	0.379401257883368	-0.022317739169787	0.0188709223910462	0.999572812158504	0.918969348348476	-0.393337609825606	0.027943899023876	0.393696907930868	0.919200420465956	-0.0085633930706791	107.037655603881	-88.3252016143176	139.783573304384
63689	1649162504226	9.71691492699618	0.237285267164163	-0.0798202398248558	-0.0294472742035492	0.0178778895653708	-0.0926089768247866	0.0222524835236228	-0.0287546320725103	0.00472696321274401	0.55224609375	0.4482421875	0.160888671875	0	0	0	-0.587330957202032	-0.399338215613751	-0.592966506889388	0.379423322912504	-0.022160577484356	0.0191167480079681	0.999571637628419	0.919058037687136	-0.393133863160917	0.0278942466979011	0.39349870669194	0.919282500421809	-0.0088573274748609	107.616330368471	-88.3229006463205	139.217412274592
63690	1649162504227	9.73401676247217	0.247016401102247	-0.0967203155493304	-0.0256868717910868	0.00107631167102287	-0.0750905269135451	0.0174085001970337	-0.0349304752652991	0.0145658424808702	0.5546875	0.441650390625	0.15771484375	0	0	0	-0.58741595836665	-0.399411332036373	-0.592814859261939	0.379451739138679	-0.0219177390416456	0.0193519221129049	0.999572466520481	0.919130439449681	-0.392973931011124	0.0277619311774549	0.393343168228888	0.919345959177611	-0.00917384060575882	108.285971263362	-88.3245241626916	138.557613487467
63691	1649162504228	9.73386393129798	0.244659661165436	-0.0579315119600386	-0.0100524390447177	0.0403660206716783	-0.0756657516846832	0.0186408164588468	-0.0357323687757511	0.0113269772038405	0.553955078125	0.444580078125	0.1640625	0	0	0	-0.587509083766095	-0.399501374405354	-0.592651057571529	0.379468644686099	-0.021673248384837	0.0196363857034681	0.99957224984538	0.919206360057274	-0.392804399096656	0.027647272570241	0.393179269462045	0.919412375600209	-0.00953654331888715	109.031164259557	-88.3240996184066	137.822808740227
63692	1649162504229	9.69917805694636	0.264177152400594	-0.131110488731872	-0.017565629429743	-0.0334825135430886	-0.109100190116292	0.0131230840264472	-0.0271419836902487	0.0188971112609138	0.5537109375	0.4345703125	0.159423828125	0	0	0	-0.587593169392234	-0.399520757130386	-0.592520235322124	0.379522334835997	-0.0213941292884446	0.0197620095464024	0.999575787127058	0.919260662134511	-0.392691923965193	0.0274388028990902	0.39306758488078	0.919457729224788	-0.00976513618889496	109.590025636647	-88.3310439283104	137.270975850759
63693	1649162504230	9.69861251208722	0.280935326546701	-0.076890093016956	0.0218012275086634	0.0115323314507934	-0.109733568316541	0.00358822146137623	-0.0269569710683857	0.0167674394540361	0.551513671875	0.434326171875	0.153564453125	0	0	0	-0.587699653956802	-0.399533552360603	-0.592401954470977	0.379528630825317	-0.0211342702458313	0.0199444555756938	0.999577691484242	0.91927846629014	-0.392661917843955	0.0272712245848319	0.393040003099463	0.919466604595782	-0.0100358854456551	110.203753573413	-88.3347945072242	136.659065699025
63694	1649162504230	9.69908462982772	0.259712688048194	-0.0939360813900222	-0.00159527942596698	0.00544070677316391	-0.109673164814316	0.00206474469582115	-0.0234673192274615	0.0173125177301678	0.559814453125	0.4423828125	0.15771484375	0	0	0	-0.587801121215693	-0.399518414741695	-0.5922912229916	0.379560252591037	-0.0208477131012039	0.0200543318506781	0.99958151074961	0.919295156675262	-0.392638101870622	0.0270506168662008	0.393016269093096	0.919474385033895	-0.0102502436402868	110.753114808653	-88.3423420131336	136.111232884813
63695	1649162504230	9.68190668407478	0.246317519193836	-0.0403619931341399	0.0100140667592471	0.0612517076280183	-0.127762707095517	-0.00357743698667697	-0.0278589816903519	0.0169905103715156	0.554931640625	0.44091796875	0.162353515625	0	0	0	-0.587924490207536	-0.399510913751372	-0.592183937622802	0.379544473848989	-0.0205815723698052	0.0202442185455061	0.999583198385342	0.919284782652983	-0.392674044328476	0.0268809094596327	0.393054560158568	0.919454874654651	-0.0105283527844944	111.388616506744	-88.3456880294151	135.473438725473
63696	1649162504231	9.68159874996126	0.265327209395804	-0.0708393728929564	0.0181781765472292	0.0271621022425769	-0.127249738646613	-0.0107261198683838	-0.0303280145006792	0.0166945447269442	0.5498046875	0.444580078125	0.165283203125	0	0	0	-0.588061114210386	-0.399467959974495	-0.592094754771837	0.379517162035041	-0.0203016993490144	0.02040290529422	0.9995856954054	0.919243389241586	-0.392784145349367	0.0266871972640294	0.393165909431609	0.919404337937189	-0.0107810501850915	111.99764230975	-88.350651232118	134.85754285974
63697	1649162504231	9.69955337729126	0.235249559144334	-0.116737501060355	-0.0252511243919123	-0.000807281826209481	-0.109612255346967	-0.0107283256108584	-0.0303253097240172	0.0166953788106003	0.5537109375	0.433349609375	0.15771484375	0	0	0	-0.588204785530268	-0.399444735489745	-0.591994992408993	0.379474587464688	-0.0200283354955918	0.0206164988887527	0.999586827519674	0.919204720991008	-0.392885881516064	0.0265210296404196	0.393270322660023	0.919356102975835	-0.0110819328623623	112.677832951455	-88.3529064055191	134.17094192554
63698	1649162504232	9.68171423187525	0.263163665598647	-0.118566494243345	0.0024917381081322	-0.0126698570430787	-0.126680122825244	-0.015260197996759	-0.0229924172871461	0.0172930902851835	0.554443359375	0.444091796875	0.162353515625	0	0	0	-0.588325793895614	-0.399373454350762	-0.591940237900347	0.379447438984	-0.0197848025711577	0.0207029945777589	0.999589889706141	0.919143823789224	-0.393040970016847	0.0263330035951073	0.39342495189978	0.919287866722785	-0.0112527916059292	113.138304999832	-88.3590218101795	133.700855212033
63699	1649162504232	9.66465206353945	0.250901742969257	-0.106309049864513	-0.00153417208681068	0.0038536688244814	-0.144195476594135	-0.0201079821422853	-0.00984728586121808	0.0162359284443034	0.55126953125	0.43603515625	0.154296875	0	0	0	-0.588425634976739	-0.399284799917018	-0.591920462400928	0.379416771965236	-0.0195963705074033	0.0207297216468039	0.999593047646582	0.919067926064123	-0.393229123413414	0.0261725768641499	0.393611648129382	0.919206796722024	-0.0113461586851039	113.437370704881	-88.3653523983242	133.390145324776
63700	1649162504233	9.6654269206735	0.209210282829994	-0.0946042742061308	-0.033371138920694	0.0313464253329766	-0.144642068333493	-0.0242200210719455	-0.0192882059118699	0.0148501085245201	0.5537109375	0.4345703125	0.1611328125	0	0	0	-0.58855043976098	-0.399197112047926	-0.591890260967157	0.379362576649283	-0.0193848305903477	0.0208132427060055	0.999595436799831	0.918977300682475	-0.393451402341225	0.0260137430231768	0.393833656730015	0.919109788286353	-0.0114999088204948	113.848808562689	-88.3701581657106	132.964888413987
63701	1649162504234	9.64874343395487	0.177847561151634	-0.0976270650331712	-0.0611312868638353	0.0421459556260904	-0.162096877209651	-0.0265087278978323	-0.0275884101929766	0.00938139925933436	0.555419921875	0.44091796875	0.157958984375	0	0	0	-0.588701185459208	-0.399143377452833	-0.591844029882819	0.379257330537636	-0.0191895829447806	0.0210299852133599	0.999594667667016	0.918874732685339	-0.393696882938024	0.0259227698622467	0.394082460328866	0.918999730188649	-0.0117690430510618	114.41824202083	-88.3686095149438	132.380037082867
63702	1649162504235	9.63168026324955	0.167329486655985	-0.129251850004944	-0.0805423905879838	0.0188405251148591	-0.179041810165025	-0.0252718472670849	-0.038829815186846	0.0113293357460033	0.5498046875	0.442138671875	0.160400390625	0	0	0	-0.588884935437689	-0.3990853011124	-0.591763215142595	0.379159270564064	-0.0189055607197515	0.0212856255591906	0.999594668812527	0.918775661559636	-0.393938339962704	0.0257656366714087	0.394327102162058	0.918890366938289	-0.012109089498853	115.172140736081	-88.3686118203413	131.610983379108
63703	1649162504235	9.70071673233687	0.169838012779381	-0.21762016989445	-0.111879691699096	-0.0587098297633516	-0.108866299696801	-0.0222673700441483	-0.0426686691508532	0.0112755733132724	0.55615234375	0.43310546875	0.16064453125	0	0	0	-0.589076053254816	-0.399066944344549	-0.591660460567833	0.379042051511299	-0.0186330533356697	0.0216331715743897	0.999592324505857	0.918689950661395	-0.394145394235222	0.0256550727328171	0.394539711407045	0.918793455620356	-0.0125300451735321	116.031077323307	-88.3639005872746	130.738932814878
63704	1649162504236	9.71735494116609	0.198869150822534	-0.220340884848514	-0.0837365804728705	-0.0699896622897621	-0.0914130188580841	-0.0131017839349196	-0.0307860759471925	0.0138224132894108	0.552978515625	0.441650390625	0.16162109375	0	0	0	-0.58922397447432	-0.399020217905694	-0.591570382242286	0.379001921447497	-0.0183453028875821	0.0218119342974908	0.999593762177499	0.918637180462518	-0.394280818483196	0.0254630486803459	0.394676045046871	0.91873112263514	-0.0128040527856427	116.695462501523	-88.3667881911773	130.066091194865
63705	1649162504237	9.71770364825589	0.176961646986274	-0.195154029367367	-0.0918276424817248	-0.0364335122176644	-0.0919155522785839	-0.0215056222395391	-0.0204379575071879	0.0121119479701437	0.55712890625	0.44580078125	0.159912109375	0	0	0	-0.5893494907667	-0.398959327037033	-0.591530085262123	0.378933755863705	-0.0181527728001142	0.0219515186222941	0.999594221506829	0.91855438628131	-0.394481328074367	0.0253440573714959	0.394877596582832	0.918641721581847	-0.0130027337936228	117.160029146254	-88.3677118435199	129.588991897808
63706	1649162504237	9.66537135071285	0.203391784844966	-0.154110088614633	-0.0480578107183232	-0.0091759086457234	-0.144071785625172	-0.0182510054266606	-0.0222659599664474	0.0163116154918175	0.54638671875	0.4365234375	0.15869140625	0	0	0	-0.589489874033719	-0.398883516292053	-0.591467756546183	0.378892493734598	-0.017884333206575	0.0220702010634748	0.999596446997874	0.918480974029042	-0.39466483724413	0.0251469002011668	0.39506056620779	0.918560053816887	-0.0132127423156044	117.718437784902	-88.3721944396707	129.01918097921
63707	1649162504238	9.6475503450777	0.231521381299914	-0.155853062519842	-0.0202609152276927	-0.0204896499748516	-0.161144026408959	-0.0202748925994112	-0.0316755868619653	0.0140552243248991	0.559326171875	0.441162109375	0.156982421875	0	0	0	-0.589649931802151	-0.398841919164005	-0.591388377551605	0.378811124889663	-0.0176301791710933	0.0223052277757973	0.999595745087115	0.918403213963782	-0.394854510354804	0.0250090430337671	0.395252720880441	0.918472858862111	-0.0135238371134169	118.402655472008	-88.3707793160547	128.323045218367
63708	1649162504238	9.64787688939685	0.210538804828921	-0.173912873361671	-0.0434315736316112	-0.0262661166164406	-0.16108008077464	-0.02772622404838	-0.0403223514457228	0.0167824641145257	0.556396484375	0.436767578125	0.15673828125	0	0	0	-0.589869541226853	-0.398776903343301	-0.591275185203643	0.37871435285073	-0.0172587265553497	0.0226038998117687	0.999595518232744	0.918301496296143	-0.395104840609561	0.0247896516143217	0.395505370706839	0.918357897902661	-0.0139381886144999	119.347234789169	-88.3703222172069	127.362773240328
63709	1649162504239	9.68120885049486	0.27066217588487	-0.218760695470757	-0.0035386535546347	-0.0871570225054921	-0.125618234251103	-0.0154233681936597	-0.0479383071241866	0.0140530785215148	0.556884765625	0.445556640625	0.15576171875	0	0	0	-0.59006838305959	-0.398780498515614	-0.591138108222958	0.378614783551385	-0.0169402979795581	0.0229882741219906	0.999592199628056	0.918242781697232	-0.395249919359952	0.0246514727122117	0.395655431108046	0.918285925242701	-0.0144131653658413	120.313872379244	-88.3636500071653	126.386887323912
63710	1649162504240	9.6982068395639	0.280032398824837	-0.236666420866833	0.00117065154831374	-0.10348751114333	-0.108104278399693	-0.0172658576207459	-0.0370721235115577	0.0134784249408518	0.552490234375	0.43994140625	0.16455078125	0	0	0	-0.590257966474854	-0.398758718678028	-0.591009195401578	0.378543456213427	-0.0166007695419277	0.0232956938395622	0.999590778818587	0.918186347764483	-0.395392672072501	0.0244635575967312	0.395800764564113	0.918216720344332	-0.0148259654175446	121.217660849961	-88.3608017038154	125.474093335318
63711	1649162504241	9.75081587439974	0.230191987071558	-0.254888542478646	-0.0503892363731445	-0.097393991745065	-0.0564410732173215	-0.0314110201573286	-0.0185853283839116	0.0156419288058218	0.558349609375	0.44384765625	0.15625	0	0	0	-0.59040345499913	-0.39865502163022	-0.590987361970907	0.378459868473223	-0.0163837765606442	0.023404605684777	0.999591814841614	0.918064602808161	-0.395684603368481	0.024312131289183	0.396092106632163	0.91808818698961	-0.0150041318918001	121.680639536257	-88.3628781348247	124.992928074279
63712	1649162504242	9.66544956824459	0.176628658231938	-0.229507654767497	-0.0858448450250706	-0.0538675404138968	-0.143431162887024	-0.0236615978631855	-0.0141828407436479	0.0150844617344627	0.5537109375	0.44189453125	0.1513671875	0	0	0	-0.590537580248354	-0.398561282417363	-0.590952913577288	0.378403124203224	-0.0161528838153164	0.0234939730895743	0.99959347615564	0.917967688108148	-0.395919959502132	0.0241393715165033	0.396326138342945	0.917984432818061	-0.0151714590555089	122.149130229924	-88.3662133016669	124.509810216653
63713	1649162504244	9.68259434766897	0.18463606994328	-0.202781738766922	-0.0661817330871292	-0.031108179566211	-0.126486046341308	-0.0197521855195651	-0.0218916586546669	0.0158295759621708	0.554931640625	0.428955078125	0.1630859375	0	0	0	-0.590670927056263	-0.398497738586847	-0.590897933587041	0.37834777699126	-0.0159216311525328	0.0236322181590621	0.999593927515732	0.917891896564608	-0.396105023973882	0.0239849161699458	0.39651099339422	0.917901044910362	-0.0153851834566728	122.678242006109	-88.3671206049793	123.96915919775
63714	1649162504245	9.70003544025907	0.173154577477982	-0.19180318963581	-0.0693212426796765	-0.0137561857647919	-0.109468170083511	-0.0244596970254877	-0.0363869007471939	0.0142367911121999	0.55712890625	0.4375	0.163330078125	0	0	0	-0.590886808725135	-0.398444784768458	-0.590776918224824	0.378255423831863	-0.0155512272328062	0.0239423874635897	0.99959237762905	0.91780068183644	-0.39632917566519	0.0237716835145597	0.396736773884296	0.917796244598492	-0.0158109344691147	123.628526666867	-88.3640071960393	123.004812056057
63715	1649162504246	9.66504171362276	0.191978528040458	-0.222566610382063	-0.0612039044340906	-0.0478273814264907	-0.143489427370136	-0.0202985014114713	-0.0316491416115782	0.0140604090461028	0.5556640625	0.436767578125	0.156005859375	0	0	0	-0.591046570821011	-0.398403162131967	-0.590697389095946	0.378173856895483	-0.0152969701630357	0.0241770257796817	0.999590653281772	0.917722265349705	-0.396518908728088	0.0236346927733813	0.396928011590562	0.917708137942306	-0.0161222569520548	124.299607349343	-88.3605502774442	122.321817972151
63716	1649162504247	9.68174248834677	0.221104091963768	-0.224874578646574	-0.0325285857637357	-0.0584432530179021	-0.126040958357292	-0.014870395652416	-0.033971510516655	0.00854709009197672	0.560791015625	0.433837890625	0.160888671875	0	0	0	-0.59122803707515	-0.398378845352749	-0.590583551673956	0.378093602489979	-0.0149892718648285	0.0244737602528756	0.999588093560566	0.917657210747808	-0.396679046663119	0.0234729099387475	0.397090122379688	0.917631063662038	-0.0165125924966498	125.125407287284	-88.3554320228174	121.485926441179
63717	1649162504247	9.69889074967145	0.229756170373332	-0.199410610870126	-0.0128554604145074	-0.0356878303889141	-0.109100666952846	-0.0208690422971654	-0.0278423231719406	0.00815906868484777	0.556884765625	0.434814453125	0.159912109375	0	0	0	-0.591365881730991	-0.398345510588207	-0.590527599530174	0.378000532158195	-0.0148039832252973	0.0246963944521397	0.999585379135634	0.917575381958168	-0.396872903764684	0.0233948003135209	0.397286119194953	0.917541272291581	-0.0167855037625043	125.65901040382	-88.3500217729232	120.940118274876
63718	1649162504248	9.69812163203472	0.269332586987116	-0.215072075587341	0.0202263303321371	-0.063475180768198	-0.108671682298546	-0.0259326451637887	-0.0302688579538281	0.00701025711390523	0.553955078125	0.435546875	0.159423828125	0	0	0	-0.591567147529084	-0.398267743801236	-0.590446226913706	0.377894651106819	-0.0144878852583173	0.0249512844728966	0.999583680631039	0.917457168140468	-0.397156873824657	0.02321125161423	0.397570680267567	0.917411494901267	-0.0171377715764473	126.439896987119	-88.3466454046912	120.14145881466
63719	1649162504249	9.69835026227908	0.249120160210234	-0.232569718585745	-0.00349964386759226	-0.069210770850054	-0.108598312741519	-0.026551538020755	-0.0290822749062311	0.00889646756261925	0.5537109375	0.438232421875	0.154052734375	0	0	0	-0.591721072722452	-0.398217163161881	-0.590396464969474	0.377784696898965	-0.0142897897702945	0.0251814747878527	0.999580759736716	0.917352473062706	-0.397403627504522	0.0231256786275286	0.397819358596408	0.917298343056258	-0.0174214738810108	126.99213759296	-88.3408551751605	119.573710620683
63720	1649162504250	9.73283032160551	0.248923851398591	-0.235257952979734	-0.00292330700082423	-0.0680690693281249	-0.0740707759287371	-0.0310486228382788	-0.0248744083529338	0.00847869444850666	0.552001953125	0.431396484375	0.152587890625	0	0	0	-0.591897553649375	-0.398159025949742	-0.590335295678308	0.377665082732098	-0.0140527425376855	0.0254406502820884	0.999577557641424	0.917236763410192	-0.397676950679421	0.0230165754862205	0.398094511738061	0.917172729757891	-0.0177466479227236	127.633578731554	-88.3345306316179	118.915099763341
63721	1649162504251	9.73300573000035	0.246701808161014	-0.195274121295425	0.0127216987847248	-0.028795601441968	-0.0746484031054049	-0.0358632420961794	-0.0237290277189698	0.0121142464147682	0.560791015625	0.4345703125	0.154541015625	0	0	0	-0.592059581563032	-0.398061409369247	-0.590313759874382	0.377547654148912	-0.0138464414521204	0.0256089924303004	0.999576137953392	0.917095293439889	-0.398009766435244	0.022900842180292	0.398427532695115	0.91702366672233	-0.0179748674992486	128.128363004138	-88.3317342376688	118.399499504824
63722	1649162504251	9.7332354334171	0.22635745879715	-0.212303438776471	-0.0097930857584156	-0.033721528114173	-0.0745690177515765	-0.0340298552514375	-0.0257097725824472	0.00698117956226929	0.5625	0.431640625	0.16748046875	0	0	0	-0.592258419835004	-0.398001203991558	-0.590230805241953	0.377428936753994	-0.0135547236705872	0.0258987578130905	0.999572670599769	0.916979498860786	-0.398284878644041	0.0227542108745554	0.398703985602397	0.91689607360226	-0.0183499884883712	128.88421940101	-88.3249241256277	117.626368540611
63723	1649162504252	9.73272513664613	0.246364383424915	-0.242201292040839	-0.00167754822040737	-0.0672880056748155	-0.0740650536573231	-0.0301805995193441	-0.0240417098623881	0.0108548104103866	0.56982421875	0.436279296875	0.15283203125	0	0	0	-0.592408467998475	-0.397924652841856	-0.590198808358239	0.377324189944009	-0.0133573254535947	0.0260752933983548	0.999570738332669	0.916860442477122	-0.398564852687572	0.0226492212402676	0.398984349163452	0.916769402454251	-0.0185836445912244	129.368815587826	-88.3211410083573	117.124240479394
63724	1649162504253	9.75068234491407	0.196410208233358	-0.260150846786791	-0.051376603483569	-0.0615234182923176	-0.0568872148554327	-0.0361521308894365	-0.0225968269894745	0.00890698221594522	0.55419921875	0.434326171875	0.1572265625	0	0	0	-0.592632116776742	-0.397785498036492	-0.590139030052218	0.377213198238881	-0.0129947544782262	0.0262644615857366	0.999570564999621	0.916697385312091	-0.398953801252508	0.0224001836633226	0.399370805290055	0.916594808257054	-0.0188922565668432	130.144196319554	-88.3208020621811	116.324626137995
63725	1649162504254	9.71661895624383	0.174044211506713	-0.234146968183552	-0.0594272158151415	-0.0284943921024162	-0.0919128892010228	-0.0332220441728353	-0.0139404869043081	0.0130275133755125	0.556640625	0.4345703125	0.152099609375	0	0	0	-0.59276297651701	-0.397673565400316	-0.590138510158958	0.377126408356483	-0.0128154515816676	0.0263386990794597	0.999570926513752	0.916565966155834	-0.39926281500388	0.0222718261487704	0.399678112842799	0.916458115511003	-0.0190244218950102	130.503696763724	-88.3215090667712	115.945866942721
63726	1649162504255	9.71589479347833	0.213289309966919	-0.247880225984449	-0.0267896671495217	-0.0554538033494097	-0.0914860129572776	-0.0293420202519698	-0.006526883278427	0.0101629047900617	0.561767578125	0.438232421875	0.158935546875	0	0	0	-0.592891808628807	-0.397591800493739	-0.590108148556814	0.377057603620267	-0.012613733626008	0.0264483146381835	0.999570597995365	0.916467372124683	-0.399496647464578	0.0221355934061333	0.39991055194242	0.916353051676789	-0.0191998731179814	130.937570418591	-88.3208665788316	115.497413883158
63727	1649162504255	9.68186208640044	0.191068580411794	-0.220705108403959	-0.0348398803708421	-0.0224236092895173	-0.126513984063472	-0.0302302046031641	-0.0057829247621544	0.00831436791555639	0.5517578125	0.435546875	0.158447265625	0	0	0	-0.592983708894196	-0.397487430836943	-0.590134395719237	0.37698203976028	-0.0125097253685242	0.0264670054911558	0.999571410351224	0.916347278414908	-0.399776568049651	0.0220535933588025	0.400188920527289	0.916230425853003	-0.0192518733745408	131.119612338628	-88.3224557623388	115.297928292719
63728	1649162504256	9.68162840238565	0.209626652699058	-0.20692877593181	-0.0105855953322843	-0.0161111684731818	-0.126598394509182	-0.0311223130105995	-0.0154758952130125	0.0116269836965564	0.548583984375	0.43505859375	0.160888671875	0	0	0	-0.593140782797092	-0.397394472656794	-0.590102797321519	0.376882386797259	-0.0122873566097081	0.0266230357612302	0.999570024977941	0.916220438602324	-0.400074599247659	0.0219185520550435	0.400486115558218	0.916095807764494	-0.0194767102306376	131.624123495833	-88.3197465085549	114.774788646609
63729	1649162504257	9.71564357811005	0.230103801249994	-0.2364123017306	-0.00244544484494011	-0.0491615328569256	-0.0915688352845727	-0.0239101365258645	-0.0224049321194184	0.00874740694381781	0.5576171875	0.43603515625	0.155029296875	0	0	0	-0.593270576058385	-0.397338743216246	-0.59006645454493	0.376793744565196	-0.0121129952797805	0.0267920722558475	0.999567636635756	0.916125468057021	-0.400296794391744	0.0218312431391184	0.400708624966643	0.915993810712677	-0.0196961065546273	132.056718313952	-88.3150860617233	114.328257441367
63730	1649162504259	9.66380527898323	0.219372853046073	-0.266657555737264	-0.0219743607452021	-0.0718131534727065	-0.143006769004332	-0.0281170658993098	-0.0208795020606319	0.0110264856497626	0.555908203125	0.439697265625	0.154296875	0	0	0	-0.593425404037656	-0.397276827891604	-0.590023075081793	0.376683133062995	-0.0119122142171803	0.0270048432102016	0.999564323890983	0.916011805215293	-0.400561878572462	0.0217383104385321	0.400974402996832	0.915871672166845	-0.0199651762737413	132.565384572182	-88.3086430519337	113.802946968799
63731	1649162504261	9.68100363226851	0.209713062210175	-0.29708434031124	-0.0416224208458741	-0.094066479832685	-0.125402459445791	-0.0218389310996636	-0.0176958844401943	0.00944819691327648	0.556640625	0.43701171875	0.1552734375	0	0	0	-0.593538574829876	-0.39721635043829	-0.589995430325805	0.376611900141342	-0.0117508737216943	0.0271278528971148	0.999562902754984	0.915925053255956	-0.400765295232827	0.0216442822708425	0.401177284731889	0.915779044166298	-0.0201377377331911	132.934966656429	-88.305886570555	113.4206386534
63732	1649162504262	9.68098068903005	0.209046182804657	-0.298299128076509	-0.0412292751319995	-0.092841145818006	-0.125388957371641	-0.0296157256765756	-0.0085129128559338	0.00591209666305158	0.560546875	0.43603515625	0.159423828125	0	0	0	-0.593650946854264	-0.397181574570337	-0.589965632675483	0.376518130217764	-0.0116253018327093	0.027308921818069	0.999559440526892	0.915839949448922	-0.400961788878294	0.0216062688337207	0.401375185270209	0.915687646880012	-0.0203492997582717	133.283958731532	-88.2991898147541	113.059265870701
63733	1649162504263	9.66347240371918	0.218610712157608	-0.312318438019365	-0.0371489164223091	-0.109887405919598	-0.142393828662767	-0.0296547243689426	-0.000703540992203988	0.00854242423658087	0.55712890625	0.431640625	0.162841796875	0	0	0	-0.593726804974222	-0.397069309472574	-0.590005390154641	0.376454624249119	-0.0115407938731132	0.0272808700217032	0.999561185824879	0.915721899844184	-0.401235758712856	0.0215236631611979	0.401646875031459	0.915568468254001	-0.020351110939849	133.396057184461	-88.3025623263679	112.930118329684
63734	1649162504264	9.66348182779286	0.217916166734936	-0.312512174543373	-0.0362489213285917	-0.109559585234237	-0.142386693568811	-0.0245568441699766	-0.00453055711712244	0.00758447943266448	0.558349609375	0.43017578125	0.16015625	0	0	0	-0.593851582915271	-0.396950600625609	-0.590007174480022	0.376380196336225	-0.0113564905498625	0.0273254527002265	0.999562078991154	0.915593517382516	-0.401536336937746	0.0213794538220708	0.401944698994157	0.915435355310983	-0.02045896373601	133.739634695066	-88.3042908224046	112.567828434135
63735	1649162504265	9.69859158619793	0.214828662263253	-0.228480993509011	-0.00492664642795532	-0.0304741810149292	-0.109075627968027	-0.029650185197727	-0.00226124521779355	0.00801780717906943	0.549072265625	0.431396484375	0.154296875	0	0	0	-0.59393107587555	-0.396842214210007	-0.59004344694935	0.376312190664002	-0.0112700245339442	0.0273127622602728	0.999563404474533	0.915474930694068	-0.401810784357118	0.0213012874026594	0.402217152565249	0.915315304467282	-0.0204757317395787	133.867925459695	-88.3068592096856	112.422439833523
63736	1649162504266	9.698312993035	0.215540714613074	-0.27091370229788	-0.0198250774955925	-0.0690266154836749	-0.108463066408769	-0.0302577416195001	-0.00264095192822961	0.00938101096545842	0.55810546875	0.433349609375	0.15478515625	0	0	0	-0.59405684987194	-0.396729332225396	-0.59004555107872	0.376229376477206	-0.0110958307915993	0.0273746151562423	0.999563661296314	0.915344494258228	-0.402114586455128	0.0211734784853869	0.402518744122797	0.91518003136272	-0.0205954078555643	134.20709178902	-88.3073573034702	112.06432917175
63737	1649162504266	9.6813082663329	0.204056163114164	-0.257339571974064	-0.0238342168246834	-0.0525257820343891	-0.125981769062356	-0.0281531608085492	-0.00418147306558029	0.00797746963245177	0.552490234375	0.428466796875	0.15869140625	0	0	0	-0.594139221227792	-0.396628883232629	-0.590073117460199	0.376161974201637	-0.01100150992712	0.0273794140262807	0.999564572434868	0.915231689174852	-0.402375396300729	0.0210949183923306	0.402777757466163	0.915065248023008	-0.0206317704310592	134.364068069265	-88.3091255972364	111.891092792037
63738	1649162504267	9.68200857340562	0.162974384757356	-0.244934795484555	-0.0547093906851818	-0.0238313208901851	-0.126393818088895	-0.0317541264723896	-0.00227374066847258	0.00889751345056923	0.55029296875	0.431884765625	0.15771484375	0	0	0	-0.594270934659989	-0.396517819771395	-0.590067266963488	0.376080171346911	-0.0108115218760418	0.0274528329981116	0.999564631704775	0.91510322846144	-0.402674646646835	0.0209573425628205	0.403074673297855	0.914931402296491	-0.020768650355835	134.740900272589	-88.3092406894581	111.495597559411
63739	1649162504268	9.69931833627249	0.171680555038962	-0.216874743917858	-0.0349647702141281	-0.00107457495632166	-0.109488851266121	-0.0263240758803087	-0.00615377583052446	0.00283630202483899	0.556396484375	0.43115234375	0.15478515625	0	0	0	-0.594345703673951	-0.396441584368135	-0.590094741857651	0.375999269068373	-0.0107554683687298	0.0274963216146553	0.999564041068822	0.914997088092925	-0.402917239687465	0.020929088468038	0.403317057265916	0.914823289089373	-0.0208254905840017	134.857842912642	-88.3080941230829	111.363462636454
63740	1649162504269	9.66449429477239	0.172428143681765	-0.259308017503847	-0.0500104180182335	-0.03995098016751	-0.143389303058191	-0.0263392850937948	-0.00303040840485479	0.00389178316955539	0.56494140625	0.42626953125	0.1591796875	0	0	0	-0.594446342637319	-0.396378741265653	-0.590090134333084	0.375913650404632	-0.0106449463291597	0.0276059131592839	0.999562203505261	0.914897659018921	-0.403145641824242	0.020877380099501	0.403545485217402	0.91471935862141	-0.0209651216044547	135.120146032113	-88.3045319276836	111.086831140027
63741	1649162504270	9.68180119837493	0.181373105873544	-0.231302235548288	-0.0302626660661979	-0.0171896140403846	-0.126487899301743	-0.0227338335458914	-0.00649619469235678	0.00244391081864712	0.554443359375	0.4375	0.161865234375	0	0	0	-0.594514653026034	-0.396315007249005	-0.59011002054517	0.375841596977684	-0.0105908426371982	0.0276543730188425	0.999561438684571	0.914805943075765	-0.403355018020972	0.0208522409002619	0.403754777761818	0.914625587380015	-0.0210265152668869	135.238429432023	-88.303051493343	110.955426495659
63742	1649162504270	9.64677754779515	0.201616035853358	-0.258948210654204	-0.0209074907857806	-0.0509421468533354	-0.160486160982133	-0.0206490573886422	-0.00335514768348954	0.00262223354355839	0.5556640625	0.435302734375	0.162353515625	0	0	0	-0.594629606694144	-0.396215198467165	-0.590103607199835	0.375775039240415	-0.0104175014532649	0.0277101629586879	0.999561715219363	0.914694987564402	-0.403613272774979	0.0207221081077366	0.404010588212772	0.914509963263755	-0.0211417053072142	135.574251165039	-88.3035866221577	110.603507307146
63743	1649162504271	9.66477722861254	0.170103595274166	-0.218327377500341	-0.0329713963828096	-0.000349255822856137	-0.144004221094537	-0.0203617267887135	-0.00604401955153342	0.00530388299175835	0.55615234375	0.433349609375	0.16357421875	0	0	0	-0.594698064597079	-0.396148476641231	-0.590114703660104	0.375719620120469	-0.0103379580420397	0.0277421201298881	0.999561654623776	0.914612809276597	-0.403802303022725	0.0206666199634987	0.404198634003993	0.914425543630668	-0.0211988071613578	135.728296357729	-88.3034693478111	110.437649740955
63744	1649162504272	9.62925849330121	0.211093612729463	-0.273501798145194	-0.0166738950345358	-0.0678801642099588	-0.177486424394493	-0.0182629288540197	-0.00602478841813002	0.00442625434529555	0.55908203125	0.434326171875	0.15380859375	0	0	0	-0.594787717014038	-0.39606019641497	-0.590139230058274	0.375632242560715	-0.0102559800760737	0.0277928352318959	0.999561090270351	0.914494124871269	-0.404073478329088	0.0206184307590158	0.404469171196781	0.91430420671722	-0.0212722149900711	135.89413842988	-88.3023775090792	110.254829923219
63745	1649162504273	9.6292433200869	0.210548713413658	-0.274454660875861	-0.0166181879253992	-0.0679084663933856	-0.177486527584296	-0.0155745307132972	-0.0145072668441365	0.00785356906731	0.56298828125	0.435546875	0.15576171875	0	0	0	-0.594876939281503	-0.396015484895347	-0.590111466809894	0.375581708252213	-0.0101196150748427	0.0278908135978894	0.999559751044221	0.914431104652606	-0.404220232298906	0.0205367632316596	0.40461506179893	0.914236351452439	-0.0214136743316495	136.197508103092	-88.2997893511764	109.942274473408
63746	1649162504274	9.66424335587472	0.189434511416552	-0.248525273196839	-0.0233129509267555	-0.0323157686116099	-0.143475297531333	-0.0164694636560807	-0.0121985945430402	0.00653567426709784	0.55859375	0.42626953125	0.150634765625	0	0	0	-0.595002293862582	-0.396028289307086	-0.589997767586889	0.375548264021094	-0.00987154337801782	0.0281302063572259	0.999555523281041	0.914420755931534	-0.404250190918492	0.0204074560875472	0.404644577070963	0.914215770282193	-0.0217322712664607	136.80070754349	-88.291644592089	109.337157997091
63747	1649162504276	9.66442031906696	0.169394446705906	-0.264021847825071	-0.0469787206963107	-0.0380541771650512	-0.143366447127818	-0.0173966675871089	-0.00208775072673098	0.0078607292873788	0.55859375	0.427490234375	0.152587890625	0	0	0	-0.595058694122309	-0.395955250607661	-0.590009745683051	0.375517096900659	-0.00978412096950726	0.0281157350309421	0.999556789992707	0.914350722398924	-0.404412698903051	0.020325486821176	0.404804925149659	0.914144340030403	-0.0217508198686463	136.940150134553	-88.2940808252209	109.187615182248
63748	1649162504277	9.6987628346914	0.188831164420157	-0.249712128654301	-0.0208224253463892	-0.0303589677391823	-0.108942794859134	-0.0119728484189685	-0.00440641340949772	0.00232188985362406	0.556396484375	0.437255859375	0.1533203125	0	0	0	-0.595178989377245	-0.395950282479185	-0.589892076767677	0.37551655379657	-0.00949857685725791	0.0282940983797933	0.999554511287184	0.914351057498591	-0.404421383258804	0.0201367428906528	0.404810969081737	0.914134994822926	-0.0220293111829309	137.569921452258	-88.2897007439698	108.557353456344
63749	1649162504278	9.66409207084518	0.170107005872102	-0.307062914464	-0.0601300875142355	-0.0759232923443785	-0.142707034123516	-0.0108039960990857	-0.00628414102978628	0.00737725584004586	0.566650390625	0.438232421875	0.1552734375	0	0	0	-0.595235351102755	-0.395906032449015	-0.589878099183004	0.37549583003318	-0.00939551685054812	0.0283209995147431	0.999554723489213	0.914308065399208	-0.404522590196347	0.0200558112973792	0.40491046641087	0.914089380207059	-0.0220934194638795	137.767678729744	-88.2901081607416	108.353309631165
63750	1649162504279	9.69925139074764	0.166842539318264	-0.223542244604919	-0.0278694144882746	0.00498433634673612	-0.109467098566682	-0.00659227218022999	-0.0093685925435971	0.00456258190295992	0.55810546875	0.431640625	0.157958984375	0	0	0	-0.595308950505951	-0.395986620163806	-0.58975090699407	0.375493965062585	-0.0092230712981628	0.0285729455953095	0.999549159239223	0.914364571461146	-0.404397757705649	0.0199971002727892	0.404786814771066	0.914136773323693	-0.0223962998025015	138.239125185996	-88.2794569840865	107.889579032941
63751	1649162504280	9.68140599045616	0.178208367230629	-0.279972236294231	-0.0393637255666752	-0.0513507827373846	-0.125810765734538	-0.00451761036349721	-0.00310941384554065	0.00579962389717001	0.557861328125	0.426025390625	0.157470703125	0	0	0	-0.595341204338206	-0.395960433092581	-0.589736175522049	0.375493580668029	-0.00914684258847304	0.028578825822743	0.999549691603802	0.914347418607716	-0.404439812604477	0.0199307818678054	0.404827288304616	0.914117984012485	-0.0224316283154599	138.378510254771	-88.28047319157	107.74761467548
63752	1649162504281	9.73327364177349	0.187330012733514	-0.251900501783031	-0.0181216381886526	-0.0275152306634822	-0.0744084235466378	-0.00541769999185995	0.000759100650279183	0.00501128207461584	0.55078125	0.435546875	0.15283203125	0	0	0	-0.595426734569122	-0.395895166671995	-0.589695031992245	0.375491398050303	-0.00894642750116265	0.0286023086742364	0.999550833811603	0.914303956618581	-0.404546453991966	0.0197595919526619	0.404929915351503	0.914070059952207	-0.0225319584677887	138.750582562749	-88.2826555306453	107.368999171806
63753	1649162504282	9.69893186248858	0.167031344360498	-0.266472242462027	-0.0417808263471134	-0.0337951479015816	-0.108806775332738	-0.0069053667179298	-0.000435926017399703	0.00399856234673075	0.5556640625	0.4296875	0.160888671875	0	0	0	-0.595452448251804	-0.395861809430356	-0.589696037505659	0.375484211459792	-0.00889597763070188	0.0285906639018364	0.999551617236272	0.914276870476941	-0.404610069557886	0.01971029485454	0.404992179792258	0.914042266829064	-0.0225403805890853	138.83213062364	-88.2841539713939	107.283516287918
63754	1649162504284	9.71576687059154	0.196877323222426	-0.265823171578447	-0.0139571934894552	-0.0436572340393591	-0.091398984327629	-0.00179389182490324	-0.00738942602741688	0.00197125524295962	0.559326171875	0.436767578125	0.15771484375	0	0	0	-0.595494554557776	-0.395899557111207	-0.589650208802244	0.375449607045547	-0.00884765612275989	0.0287441824448637	0.999547643165002	0.914279939201373	-0.404602266496989	0.019728120017718	0.404986310577367	0.914040906043639	-0.0227004476576285	139.007301213139	-88.2765662982182	107.108723734819
63755	1649162504284	9.68089163328234	0.234955897076081	-0.236551995631395	0.0335738539376637	-0.0327540397337109	-0.126169728219004	0.0053868916772796	-0.00652415220034267	0.00171016389639368	0.562744140625	0.434814453125	0.154296875	0	0	0	-0.595510431525075	-0.395921045094694	-0.589613093825475	0.375460053248673	-0.00879414871864542	0.0287978976207445	0.999546569220734	0.914302552036055	-0.404552548931257	0.0196997079567058	0.404936422526637	0.914061221278886	-0.0227722960081112	139.137788458046	-88.2745215471586	106.981344260982
63756	1649162504286	9.73275275306918	0.207111908546824	-0.280898073809464	-0.00882030928799748	-0.0588087030950576	-0.0738609991753467	-0.000918353388902985	-0.0050166958660084	0.00487575527480352	0.55322265625	0.432861328125	0.15966796875	0	0	0	-0.595565624009068	-0.395974340876313	-0.589510066337776	0.37547808265289	-0.00863559389199875	0.0289611920049898	0.999543233620129	0.914353629657333	-0.404441061629758	0.0196180427223115	0.404824488452209	0.914105397109898	-0.0229881822674819	139.522662156069	-88.2681860735684	106.603429468306
63757	1649162504286	9.71540275873321	0.197733952440637	-0.309639207179564	-0.0284063002710166	-0.0815822912188554	-0.0907244258976973	-0.00209376847108419	-0.00157775556335496	0.000349909050758253	0.567626953125	0.43798828125	0.156982421875	0	0	0	-0.595578446032687	-0.395968945292485	-0.589504554276112	0.375472088806836	-0.00861405029664142	0.0289761255186102	0.999542986713136	0.91434615093939	-0.404458609781977	0.0196048268432115	0.4048418387467	0.914097159564103	-0.0230101820295062	139.568783805177	-88.2677180314972	106.556211120854
63758	1649162504287	9.69889160620512	0.165879558889482	-0.268648066990284	-0.0399261369328387	-0.0306520181453287	-0.108788529719087	0.00747443840532925	-0.0033861634661692	0.00188906520330897	0.56396484375	0.425048828125	0.15576171875	0	0	0	-0.595606468140957	-0.396018987530325	-0.589429353860978	0.37549292061388	-0.00851600335502672	0.0290898418057681	0.999540523836114	0.914396040113011	-0.404348056168629	0.0195584073558244	0.40473121885086	0.914142456390888	-0.0231562067517777	139.814588802747	-88.2630562514888	106.317305365771
63759	1649162504288	9.71572786637716	0.195852731245798	-0.267996687604748	-0.0119971539442003	-0.0413931071560188	-0.0913864635513146	0.0131672440930028	-0.00371600306182194	0.000614852585420833	0.552978515625	0.432861328125	0.154052734375	0	0	0	-0.595597503855944	-0.396061881790697	-0.589386649370955	0.375528929293416	-0.00848327332861853	0.0291234615778361	0.999539823148311	0.914450411090272	-0.404226018112305	0.0195389850786404	0.404609045537127	0.914195356730057	-0.0232028016140382	139.89940493485	-88.2617322601234	106.240132293283
63760	1649162504290	9.68103412941053	0.214593919482934	-0.253258140668405	0.0134048791682986	-0.0353025838644452	-0.12603747277269	0.00747415141348756	-0.00338568952823562	0.00188927208339149	0.55712890625	0.434326171875	0.156494140625	0	0	0	-0.595665250025676	-0.396083663839363	-0.589282884195829	0.375561344583385	-0.00827317273313771	0.0292428046467979	0.99953809981877	0.914490293961042	-0.404142815388612	0.0193929631777401	0.40452324638267	0.914228332062705	-0.023398717697129	140.347906961587	-88.2584802071239	105.796903548769
63761	1649162504291	9.68135924252825	0.175548781911872	-0.283249808193612	-0.0339218846542739	-0.046742388807626	-0.125766847621671	0.0104554393096928	-0.00255541050080514	0.00338535908659673	0.55859375	0.4287109375	0.159912109375	0	0	0	-0.595663990190445	-0.396107982885796	-0.589243108979351	0.375600100112996	-0.00821795117100987	0.0292549818170079	0.99953819902865	0.914534064711158	-0.404046061378507	0.0193448899558556	0.404425406918803	0.914270707352807	-0.0234342466309118	140.460444192381	-88.2586672589561	105.690464260305
63762	1649162504292	9.66352032938867	0.224117958259009	-0.267448230406087	0.0183543122575345	-0.0518728367700241	-0.143025792540232	0.0113429054696097	-0.00330265300956167	0.005231733376607	0.56103515625	0.43408203125	0.158447265625	0	0	0	-0.595705928820011	-0.396116080305418	-0.589176181244315	0.375630037066428	-0.0080730432443234	0.029312853478845	0.999537684429008	0.914561936676679	-0.403988252353892	0.0192342388009211	0.40436529271808	0.914294399294328	-0.0235470054156806	140.756525450452	-88.2576972428847	105.398070923223
63763	1649162504293	9.62934150799974	0.221512551637308	-0.225423635643026	0.0340569421224146	-0.0131381364059761	-0.178229984226451	0.00925466338800584	-0.00644028354618296	0.0050536528980133	0.56103515625	0.435546875	0.151611328125	0	0	0	-0.595721795040199	-0.3961389404726	-0.589124042104734	0.375662542409418	-0.00798639428914943	0.0293535305041654	0.999537186778561	0.914600872310475	-0.403903188143475	0.0191692195056025	0.404278940677319	0.914330675879617	-0.0236210344893435	140.939573396423	-88.256759689132	105.220386821299
63764	1649162504295	9.62914145797688	0.202998407278444	-0.283565723697718	-0.00431199648050599	-0.0568030098692489	-0.177401291090687	0.00984057423645692	-0.0149401238292379	0.00935780881541371	0.56201171875	0.426025390625	0.160888671875	0	0	0	-0.595794755213161	-0.396232428235334	-0.588957553863064	0.375709292169966	-0.00774227487526613	0.0295927538158825	0.999532053563741	0.914700056536067	-0.403684781183748	0.0190369118699796	0.404059232975404	0.914419414908838	-0.0239430550495594	141.512099654208	-88.2471181696971	104.661519901512
63765	1649162504295	9.64678332697668	0.172639249034945	-0.286286405732712	-0.031919264984002	-0.0454387746935562	-0.160272687223571	0.00807003354540537	-0.015005301737429	0.00513693418383044	0.560302734375	0.437744140625	0.145263671875	0	0	0	-0.595838458286617	-0.396268019411557	-0.588881521633183	0.375721628199998	-0.00761957945874137	0.0297124032591231	0.999529446840582	0.914734499758769	-0.40360982978877	0.0189710371080426	0.403983585012988	0.914448619874538	-0.0241036231634602	141.795073668066	-88.2422423024724	104.38323023447
63766	1649162504296	9.66345191802534	0.221524143915952	-0.272042095349525	0.0213178710920131	-0.0490172680383025	-0.143016974873751	0.00686340204666867	-0.0173290535671192	0.00733451869892437	0.557373046875	0.435791015625	0.15625	0	0	0	-0.595944245479245	-0.396350174077452	-0.588695226743011	0.37575913268867	-0.00731106096246326	0.0299899952344803	0.999523460741887	0.914820426510137	-0.403423227419664	0.0187959255721444	0.4037946701325	0.914521896820485	-0.0244860084221054	142.489470396643	-88.231096177335	103.70051966729
63767	1649162504297	9.7147279733456	0.214265853453306	-0.344769400348171	-0.0136947303900398	-0.109905343549931	-0.0901131920880793	0.00806354104243413	-0.0134438700789987	0.00566549001864751	0.552001953125	0.43408203125	0.1572265625	0	0	0	-0.595984930584719	-0.396381481301828	-0.588621942724478	0.375776386086403	-0.00718814035154092	0.0300943264211527	0.999521216460933	0.9148552320538	-0.403347657881623	0.0187235484136146	0.403718014240229	0.91455180192194	-0.0246326324062081	142.761114905938	-88.2269353762631	103.433614464867
63768	1649162504298	9.69837089776815	0.162618070616794	-0.319093950059453	-0.0503435503914984	-0.0647030876387837	-0.108052249486283	0.00266377474536819	-0.00224056894805297	0.0055388437341509	0.556640625	0.444091796875	0.157470703125	0	0	0	-0.595983998713234	-0.396432184493907	-0.588594748059694	0.375766974242972	-0.00720450869213052	0.0301855419992106	0.999518348060064	0.914883412133994	-0.403281408331341	0.0187735957224912	0.403653858220836	0.914578011297289	-0.024710807249654	142.774893661629	-88.2216316511142	103.423883604728
63769	1649162504299	9.66408880673499	0.179443229243284	-0.261605520041115	-0.0109225376295185	-0.0202147341451166	-0.143420491500283	0.0038543597054954	0.00476417671939096	0.00492568999717917	0.560302734375	0.42529296875	0.154052734375	0	0	0	-0.595977122646288	-0.39641958211966	-0.588585752642884	0.375805263374711	-0.00716334660423207	0.0301267562435142	0.999520417512155	0.91490125140576	-0.403243837863878	0.0187111571257742	0.40361415565067	0.914596515291336	-0.0246744316113477	142.826168056244	-88.2254565132913	103.375055407192
63770	1649162504301	9.64657630726806	0.189137584039944	-0.275341341082533	-0.00666976480606513	-0.0362098729684165	-0.160399311503124	0.00506002866356329	-0.00803283345552652	0.00628412487325371	0.55810546875	0.429443359375	0.15234375	0	0	0	-0.596014862516588	-0.396484625760195	-0.588495010753694	0.375818902549008	-0.00705287229238455	0.0302863612307653	0.999516379713623	0.914956557618847	-0.403120188045315	0.0186711451330762	0.40349071199062	0.914645751268605	-0.0248675496097363	143.099910492509	-88.2180012726685	103.109000146546
63771	1649162504302	9.64692671035919	0.186943689211394	-0.234470787232589	0.00908494917641143	0.0031349911770541	-0.16110579602012	0.00687037173057668	-0.0204473946213735	0.00628001887231066	0.560546875	0.434326171875	0.14794921875	0	0	0	-0.596079125447778	-0.396524584181424	-0.588402234680105	0.375820090693166	-0.00689787127358538	0.0304532923117365	0.999512389297536	0.914986817117891	-0.403055027142259	0.0185948809037246	0.403424768541006	0.914668924848072	-0.0250841393096777	143.450447310747	-88.2106640246895	102.762518522963
63772	1649162504303	9.61144869291712	0.208436963137278	-0.30618000315817	0.00299903999844367	-0.0683599804290238	-0.194347825036861	0.00987559574560238	-0.0274167530049293	0.00513452855952181	0.56005859375	0.433349609375	0.15576171875	0	0	0	-0.596191478715105	-0.396686109198721	-0.588164225993324	0.375843976588624	-0.00659405193909202	0.0308857928888522	0.999501168722004	0.915117719226857	-0.40276287206166	0.0184832044212639	0.403132829767137	0.914783109095413	-0.025608297047447	144.179520477937	-88.190191916252	102.051593403045
63773	1649162504304	9.68015484918597	0.191090764125046	-0.366347235250751	-0.0360123608512968	-0.112136149700536	-0.124434061008987	0.0110755456176281	-0.0235317314637516	0.00346450681866611	0.55908203125	0.433837890625	0.15673828125	0	0	0	-0.596251777333871	-0.396753299476698	-0.588058089902363	0.375843478433427	-0.0064509954905243	0.0310941238924759	0.999495642870213	0.91516531601176	-0.40265699814683	0.0184332908749043	0.403027082249167	0.914822658936005	-0.0258587252388933	144.516977898835	-88.1801945241425	101.720692150288
63774	1649162504305	9.69749743420014	0.199857626886936	-0.339701321911512	-0.0158377359838629	-0.0885900751874627	-0.107601201436601	0.0143518738903978	-0.0118303875737299	0.00355268228687611	0.55810546875	0.433349609375	0.1552734375	0	0	0	-0.596291610748121	-0.396825014727168	-0.587955171450592	0.375865586350624	-0.00632275189742471	0.0312626239033023	0.999491206141967	0.915231084963937	-0.402509937368169	0.0183796473199898	0.402879738785879	0.914881630959193	-0.026067554723612	144.813195847665	-88.1722071427276	101.433635538754
63775	1649162504306	9.7318866116727	0.219241547584518	-0.325712361420162	0.00813256459967355	-0.0821720687731793	-0.0732338862236261	0.0119339912779526	0.00176202899961725	0.00544569836392371	0.5546875	0.438232421875	0.152099609375	0	0	0	-0.596279872937459	-0.396841285550669	-0.587918969436657	0.37592365260611	-0.00626344108193738	0.0312316497948847	0.999492547924647	0.915282235503078	-0.402396802987546	0.0183096236414215	0.4027644456482	0.914932454882048	-0.0260653855756389	144.91388652073	-88.1746190503714	101.340113019407
63776	1649162504307	9.69779947626303	0.21665178843225	-0.282655370142622	0.0231426151514679	-0.0420082011717116	-0.1084693932688	0.011027674240805	0.00874910321509676	0.00571013154744866	0.561767578125	0.4326171875	0.157470703125	0	0	0	-0.596226093633689	-0.396942145436041	-0.587868781078645	0.375980949889822	-0.00630554118051779	0.0312796041027712	0.99949078360813	0.915389454984854	-0.40215051699316	0.0183604843254708	0.402520044038744	0.91503909645944	-0.0260972431061109	144.872036599882	-88.1714482798097	101.397301028546
63777	1649162504309	9.68018730311588	0.245740925008062	-0.280560639928158	0.0510496779238242	-0.0532570341687522	-0.125598705763858	0.00953397481442679	0.00911430775965605	0.00522732647816491	0.560302734375	0.431640625	0.154296875	0	0	0	-0.596196520821123	-0.396938973272399	-0.587859622086396	0.376045508919708	-0.00627896756421231	0.0311833281649741	0.99949395926683	0.915431211208277	-0.402058453437544	0.0182947414618718	0.402425486409688	0.915082837815225	-0.0260216798835157	144.890570623026	-88.1771594366039	101.384648453516
63778	1649162504310	9.66308036316066	0.254177215653444	-0.251535669830546	0.0717259144125916	-0.0304418612817561	-0.14330645935931	0.00149772254974084	-0.00192502601542909	-4.44562485363208E-05	0.55712890625	0.433837890625	0.152099609375	0	0	0	-0.596247639233833	-0.396937794248378	-0.587810165328256	0.37604301581346	-0.00616080593199936	0.0312626308948681	0.999492217268249	0.915430260078252	-0.402064075510301	0.0182186200660526	0.402429476310238	0.915077661782638	-0.0261417195893718	145.12668723123	-88.1740243866563	101.148209048365
63779	1649162504311	9.64555387720389	0.26418690886998	-0.265436737878691	0.0759118821455865	-0.0474440948025907	-0.160281061436303	-0.000918932835893448	-0.00500958720593497	0.00488169431688486	0.5634765625	0.43701171875	0.156494140625	0	0	0	-0.596278801325253	-0.396931217457014	-0.58778009280205	0.376047553115062	-0.00607965777258695	0.0312968097717731	0.99949164451709	0.915429872443594	-0.402067692808534	0.0181581672403406	0.402431592198319	0.915074904091316	-0.0262056006035761	145.281458721896	-88.1729947893359	100.993250892954
63780	1649162504312	9.68020400912319	0.244574218667655	-0.281003347690905	0.0524910325487404	-0.0513028559730039	-0.125595862300283	-0.00423248738397033	-0.00422755340433195	0.00901652021774391	0.55810546875	0.43310546875	0.155517578125	0	0	0	-0.596321851433545	-0.396974521800812	-0.587700834453599	0.376057452693641	-0.00596208355287925	0.0314306061233184	0.999488154286198	0.915467721125508	-0.401984042629174	0.0181019625670023	0.40234724447544	0.91510706830962	-0.0263770429122284	145.539079810016	-88.1667331232828	100.740844178569
63781	1649162504313	9.66280704355164	0.234633590576419	-0.309817563521664	0.0329522112450397	-0.0740531051917501	-0.142407633011416	-0.00721494874134618	-0.00505783414821221	0.00752316287546412	0.559326171875	0.431396484375	0.157470703125	0	0	0	-0.596370221604004	-0.396942071459036	-0.58767792029408	0.376050811312282	-0.00585669219073115	0.0314553448061485	0.999487999147418	0.915442379673763	-0.402045558434367	0.0180171707111984	0.402406447082824	0.915079193417883	-0.0264408986203986	145.728975894762	-88.1664552919938	100.547167678989
63782	1649162504315	9.68045573231332	0.204224670643169	-0.311394508881318	0.00545494749772009	-0.0623051573980945	-0.125273584444354	-0.00722360388519957	-0.00193712417872097	0.00857840937246438	0.556640625	0.443359375	0.153564453125	0	0	0	-0.596433037961513	-0.396890642331426	-0.587663806751993	0.37602752491208	-0.00574186347299227	0.0314818496217311	0.99948783091554	0.915392916555182	-0.402162237076487	0.0179260533925389	0.402520607328934	0.915027009554379	-0.0265091014845017	145.932553957834	-88.1661540603994	100.33636198192
63783	1649162504316	9.71551644230156	0.182990632229106	-0.284259043925537	-0.00243787896988292	-0.0280574987000091	-0.0913317305710777	-0.00602146417451373	0.00194552425486571	0.00690684150588487	0.563232421875	0.434326171875	0.1591796875	0	0	0	-0.596457361851063	-0.396850177664501	-0.587660672834779	0.376036548203361	-0.00567025981794145	0.0314446381844774	0.999489411091005	0.915372201895098	-0.402212901805911	0.0178469498399296	0.402568727239607	0.915006019843758	-0.0265028960373521	146.043824623867	-88.1689854339078	100.222019032611
63784	1649162504317	9.69864972367505	0.152264117608957	-0.284948067634021	-0.0312907267662915	-0.0161837669192609	-0.108721926886561	-0.000335163035892177	0.00317253429802648	0.00615629411620611	0.560302734375	0.433837890625	0.154296875	0	0	0	-0.596420168601018	-0.396928591539075	-0.587636632075002	0.376050348156052	-0.0057382362752903	0.0315105148144895	0.999486948439336	0.915434355138709	-0.402067657741036	0.0179315373131836	0.402426408273893	0.915067585512001	-0.0265386485905203	145.954035969885	-88.164574731189	100.320777860804
63785	1649162504318	9.75018469595775	0.162795249190962	-0.299094188861204	-0.0269522125882667	-0.031938011853546	-0.0566474513064552	0.000564854902028523	-0.00225415595210202	0.00641957661110025	0.55615234375	0.4326171875	0.16015625	0	0	0	-0.596443028145026	-0.396917439632712	-0.587609105188621	0.376068876393717	-0.00565582877031751	0.0315142873422069	0.99948729921607	0.915440271130215	-0.40205749264676	0.0178572842179402	0.40241411704109	0.915071921927405	-0.026575479414792	146.101035015567	-88.1652023382949	100.174486126839
63786	1649162504319	9.7496653146812	0.183199750983042	-0.326849270928842	-0.0190017692511899	-0.0651510297071577	-0.0560608657027526	0.00625931215688055	-0.00414797108550982	0.00461366263727044	0.558837890625	0.439208984375	0.159912109375	0	0	0	-0.596462633814208	-0.396929217446289	-0.587583930306705	0.376064685454803	-0.00561535763439769	0.0315677610934766	0.999485839928802	0.915446024809828	-0.402045097382514	0.017841393739545	0.402401594701763	0.915075524823077	-0.0266409543982105	146.189859044365	-88.1625928011188	100.086423650196
63787	1649162504320	9.7327820262248	0.152946875311866	-0.327678573168612	-0.0466993202239144	-0.0543599708577411	-0.0734535062551202	0.00688527843136447	0.00666891355800503	-0.00189472719979865	0.5625	0.429931640625	0.153564453125	0	0	0	-0.596430731023445	-0.396944537260814	-0.587586400900178	0.376095252438545	-0.00564548836805306	0.0315229295164428	0.999487085147071	0.915476752620478	-0.401974790863971	0.0178488913193998	0.402331261366241	0.915107956704874	-0.0265891651407241	146.127154873238	-88.1648193021294	100.153545487067
63788	1649162504321	9.73258936417321	0.191945373907545	-0.296878207857969	0.000865602774281948	-0.0422469954770514	-0.0737711169155872	0.00508525545497913	0.0175229197399309	-0.00242184628414712	0.563720703125	0.435302734375	0.15478515625	0	0	0	-0.596375803853355	-0.396955805520309	-0.587613639567938	0.376127903293159	-0.00572740188511212	0.0314339028285596	0.999489422965852	0.915505447617163	-0.401907777656028	0.0178861299025529	0.402264803644248	0.915140452615093	-0.0264760219160265	145.958630251528	-88.1690067279413	100.326276998952
63789	1649162504322	9.68123556230511	0.161494113411329	-0.295571702235405	-0.0269179512514858	-0.0320844440141479	-0.12568521430712	-0.000618354424708697	0.0225384269945195	0.000438747465075659	0.561279296875	0.437255859375	0.157470703125	0	0	0	-0.596315949116585	-0.396912251730735	-0.587674036090079	0.376174401788346	-0.00580021653673163	0.0312343542681717	0.999495258919009	0.915506070159086	-0.401906967730434	0.0178724590248421	0.40226234348991	0.915147640767968	-0.0262640934895528	145.765095378892	-88.1795019173541	100.519987679893
63790	1649162504323	9.6644114311878	0.131379560004008	-0.294411165708957	-0.0545220037241837	-0.0204315988339122	-0.143075353532891	-0.000614912541748258	0.0209789891487041	-8.85308748076022E-05	0.55712890625	0.4228515625	0.16064453125	0	0	0	-0.596259555347894	-0.396927901343211	-0.587690985078169	0.376220799331266	-0.00586490561374953	0.0311409635883763	0.9994977955298	0.915547252251927	-0.401812302571635	0.0178914056470242	0.402167666248901	0.915192391734584	-0.0261544324167892	145.625224782381	-88.1840825819109	100.665816098999
63791	1649162504324	9.64620658667081	0.201465084783832	-0.304032659220683	0.00524056870445862	-0.059463830713051	-0.159772675002577	0.00448258571653182	0.0155837276766439	-0.00158426984008069	0.55859375	0.438232421875	0.14599609375	0	0	0	-0.596206499903733	-0.396918620469166	-0.587724244210471	0.376262715352749	-0.00592835701583222	0.0310134829025312	0.999501384922175	0.915568362923628	-0.40176395552046	0.0178968393271334	0.402118673274992	0.915217945586082	-0.0260131636052122	145.472353096957	-88.1905841889204	100.821779315352
63792	1649162504326	9.66388010669712	0.17197220653164	-0.303944162295556	-0.0216380544826642	-0.0471072519467014	-0.142638354955336	0.0059841468517515	0.0120980043577882	-0.00215581257062448	0.55810546875	0.43505859375	0.15380859375	0	0	0	-0.596198133318734	-0.396940420930581	-0.587700024245864	0.376290804511778	-0.00590603253427252	0.031018046124995	0.999501375483942	0.915602505865265	-0.401687065342663	0.0178760395402791	0.402041254143093	0.915251540479985	-0.0260278238825796	145.518525808826	-88.1905670624549	100.780435616675
63793	1649162504327	9.68079196563489	0.202325596878795	-0.302040908558862	0.00634694094348454	-0.0577142766209307	-0.12524568912886	0.0024055568167842	0.00776585510117387	-0.0033424750185382	0.560791015625	0.43603515625	0.1591796875	0	0	0	-0.596168710848657	-0.3969451147139	-0.587716989576992	0.376305971614027	-0.0059533678653465	0.0309696890396345	0.999502594179649	0.915615340226999	-0.401656783264783	0.0178990837303223	0.402011325900226	0.915266467657466	-0.0259651117803623	145.419511541787	-88.1927798299857	100.881349454819
63794	1649162504327	9.68046670211705	0.204014359810259	-0.343076988627875	-0.00953631445602173	-0.0962141598322419	-0.124477470255734	-0.00121430132221576	0.0174791303175456	0.000218811526719479	0.5546875	0.428955078125	0.154541015625	0	0	0	-0.596112611752458	-0.396958928627093	-0.587751626391521	0.376326173374928	-0.00605673068529422	0.0308918064950849	0.999504383334498	0.915637088314329	-0.401604440432429	0.0179609556597456	0.401960244945519	0.915292067985091	-0.0258532738142118	145.211265515157	-88.1960332872891	101.092854495396
63795	1649162504328	9.66337882977616	0.212774951128664	-0.312564744929213	0.0102058258529845	-0.0739060786178379	-0.142201660009507	0.0050728253821604	0.0206486597517534	-0.00136368583509664	0.553466796875	0.43017578125	0.16748046875	0	0	0	-0.596044038467264	-0.396941548822979	-0.58779811138139	0.376380513951135	-0.00613842585102797	0.0307177770693305	0.999509248531493	0.915660798114266	-0.401550231071788	0.0179642623822636	0.401904991913284	0.915321708525539	-0.025662177948702	145.006874231218	-88.2049101278507	101.30073234736
63796	1649162504328	9.66331548679594	0.232103418339332	-0.295536895700067	0.0333054157202892	-0.0691289614239566	-0.142372388666505	-0.00123987428350955	0.0252845021012812	0.00285663547647024	0.556884765625	0.43896484375	0.1533203125	0	0	0	-0.596003593925845	-0.396767875289352	-0.587970165962877	0.37635894184068	-0.00626732584807982	0.0303745002621961	0.999518939470652	0.915525818244906	-0.401858400069874	0.0179527830788901	0.40221038866955	0.915197910851584	-0.0252900616683012	144.63000923855	-88.2227238851819	101.658517967198
63797	1649162504329	9.66353633903588	0.212501686022867	-0.307845714320797	0.00970669036288938	-0.0748074072989886	-0.142208076477692	-0.0057196665784678	0.0263812270729707	0.00140466165384412	0.557373046875	0.43115234375	0.1484375	0	0	0	-0.595943633453386	-0.396698933745907	-0.588050845376585	0.37640051137468	-0.00634768156651205	0.0301351300991197	0.999525677945614	0.915505685755359	-0.40190522200348	0.0179313099338623	0.402254951850615	0.91518526346322	-0.0250377165775251	144.39082451251	-88.2352164083221	101.894927418651
63798	1649162504331	9.64704787527387	0.180518898477934	-0.26438751367734	-0.00257356932996319	-0.0224448070826749	-0.1603555267488	-0.00873316228841032	0.018234148002034	0.00610872189247723	0.549560546875	0.42724609375	0.158203125	0	0	0	-0.595906954597893	-0.396779238876736	-0.588009373819431	0.376438724573794	-0.00637757620624069	0.0301880183373666	0.99952389169574	0.915586013209454	-0.401720244475308	0.0179749156859498	0.402071609215263	0.915264731499889	-0.0250777258834725	144.368250621594	-88.2318962676314	101.929005774898
63799	1649162504331	9.64678812663615	0.181551059043541	-0.304985175709908	-0.0180240607062584	-0.0616568130103232	-0.159585722581014	-0.00154406645362458	0.0159748371109439	0.00479330861582138	0.556640625	0.433349609375	0.150146484375	0	0	0	-0.595876431143341	-0.396733178956537	-0.58804375075737	0.37648188630812	-0.0063853361795112	0.0300322605518747	0.999528534264039	0.91558354261922	-0.401728347993841	0.0179195676002035	0.402077111965744	0.915266298813785	-0.0249318729541686	144.293636033454	-88.2405385232312	102.003252964671
63800	1649162504332	9.69900075013688	0.151844966349052	-0.304944877233077	-0.0458676287363444	-0.0486947769373351	-0.107936535266566	-0.00723133462160979	0.0147484720126174	0.00553759391322366	0.564208984375	0.4326171875	0.15966796875	0	0	0	-0.595873501946688	-0.396698178972785	-0.588078600236305	0.376468968736569	-0.00641177051243014	0.0299771779067608	0.999530018560544	0.915550554574788	-0.401803340756201	0.0179236540625778	0.402151801210307	0.915235185163848	-0.0248693510450654	144.219233253418	-88.2433105445627	102.072990093821
63801	1649162504333	9.69890612402429	0.170785843955984	-0.288706737231726	-0.0220221313894575	-0.042835007876528	-0.108101878866282	-0.00153968051766989	0.0144147680258209	0.00426625935762291	0.557861328125	0.434814453125	0.155517578125	0	0	0	-0.595846416037645	-0.396656967408957	-0.588109247945025	0.376507385296173	-0.00641847462506712	0.0298383144294159	0.999534130570587	0.915548215278536	-0.401810878046738	0.0178741093092142	0.402157019935965	0.915236413870931	-0.0247394025979525	144.15205471317	-88.2510129315225	102.139821167453
63802	1649162504333	9.71657426372144	0.140897303024312	-0.288821399101302	-0.0492542938586924	-0.0309570620874375	-0.0909745038042011	0.00268052472494133	0.00820189162250217	0.000398927437219268	0.558349609375	0.43603515625	0.152587890625	0	0	0	-0.595842739845716	-0.396656989619653	-0.588098800525665	0.376529497887348	-0.00639393318770404	0.0298172828076942	0.999534915480373	0.915563467088017	-0.401777539613151	0.0178422643230201	0.402122686940392	0.915251734938737	-0.0247306760819499	144.190950969053	-88.2524870380182	102.103052598343
63803	1649162504334	9.71616481606082	0.161724196312601	-0.315241208920256	-0.0409800634168601	-0.0644045818303324	-0.0903644388836362	0.00266446996186676	0.0128854320098933	0.00198266395127769	0.561767578125	0.437255859375	0.159423828125	0	0	0	-0.595807784154848	-0.396637683157617	-0.588120823568264	0.376570749694177	-0.00641510963051067	0.0297014393451889	0.999538228818315	0.915577837112621	-0.401746037548248	0.0178141938480965	0.402089630003814	0.915269329659367	-0.0246167347203044	144.108171989049	-88.2587234287687	102.18789363589
63804	1649162504335	9.69917522209258	0.151040841822082	-0.299751004378293	-0.0453591181791234	-0.0466419249929309	-0.107924061904464	0.00208594623853551	0.0213853925735461	-0.00232579292757899	0.5595703125	0.43310546875	0.14892578125	0	0	0	-0.595720574074645	-0.39670600718246	-0.588134448508066	0.376615469634002	-0.00655557131307222	0.0296507976095907	0.999538820999903	0.91565292374079	-0.401570263795422	0.0179177699566664	0.401916344193296	0.915348105059704	-0.0245173170209481	143.839881310447	-88.2598403911202	102.467115011619
63805	1649162504336	9.66471945696509	0.150735367974163	-0.297282150254693	-0.0453280213313553	-0.0471902274808027	-0.142443416360592	0.00715372039333248	0.0253548674600626	-0.000649107932206617	0.55712890625	0.43359375	0.15283203125	0	0	0	-0.59563511486215	-0.396684755969861	-0.588189579916461	0.376686915623549	-0.00665155508234178	0.0294321030510599	0.999544650390856	0.915685377693629	-0.401496343958299	0.01791577143735	0.401840821586188	0.915387588455356	-0.0242799713514301	143.577024731473	-88.2708741822634	102.734721151458
63806	1649162504336	9.68225931229712	0.140572819242836	-0.281466206053981	-0.0485142779204571	-0.0278015181136085	-0.125479175142862	0.0086620807761937	0.0203067136688911	-0.00174700298963616	0.556640625	0.4345703125	0.152587890625	0	0	0	-0.595575190459436	-0.396808114040001	-0.588113924828757	0.37676985623022	-0.00666933589093283	0.0294909383810043	0.999542797739137	0.915825333999887	-0.401175592136556	0.0179471969365486	0.401521453427795	0.915526312471298	-0.0243329737175508	143.588741351601	-88.2673598938123	102.743009608424
63807	1649162504337	9.66466783765185	0.170273379448639	-0.278814881612988	-0.0206314989362836	-0.0390093538646864	-0.14260009720264	0.0134449598038819	0.010277135884883	0.000280761042361463	0.56201171875	0.43017578125	0.1552734375	0	0	0	-0.595524297319606	-0.396831850734466	-0.588109063089731	0.376832885317043	-0.0066955756912444	0.0294083478749498	0.999545055683549	0.915883688375775	-0.401042917572582	0.0179345374085176	0.401387890491666	0.915587094349925	-0.0242494129107022	143.513872193225	-88.2716439328301	102.826236371536
63808	1649162504338	9.69863405883713	0.211045199416103	-0.290828894227069	0.0123551666128823	-0.0647718258424822	-0.10762290808921	0.0134560675298705	0.00715472882535658	-0.000774483818757141	0.5595703125	0.426513671875	0.1552734375	0	0	0	-0.595512935501668	-0.396912060897425	-0.588027178866647	0.376894144924643	-0.00663029434341639	0.0294845314992941	0.999543246487708	0.915980534584874	-0.400823238871362	0.0178994816203877	0.401167919278857	0.915680836090249	-0.0243496808713093	143.680346113305	-88.2682104690882	102.673493048976
63809	1649162504339	9.68134295452908	0.201944038436859	-0.318710259546587	-0.00719623379372268	-0.0875186719003891	-0.124392996704053	0.00628258102278106	0.0047313297921046	-0.00104738279968204	0.560546875	0.4326171875	0.157958984375	0	0	0	-0.595489455274335	-0.396929406484231	-0.588022006055689	0.376921046532818	-0.00664566667536165	0.0294588122856455	0.999543902734222	0.916010291912995	-0.400755141897362	0.0179014343641831	0.401099713567474	0.915711469089224	-0.0243212901496971	143.645457452806	-88.2694550964268	102.712653524887
63810	1649162504340	9.69858380114269	0.193197055051242	-0.346683490066799	-0.0252217808091825	-0.109463217444694	-0.106636471111159	0.0077572422936791	0.00905100912290922	0.00102107248726559	0.56005859375	0.435546875	0.1552734375	0	0	0	-0.595525146925502	-0.396876524070155	-0.587998216128406	0.37695745363524	-0.00650575505639106	0.029399280028667	0.999546575945785	0.916000521203978	-0.400784205581656	0.0177500904314077	0.401124320261423	0.915700662274565	-0.0243223519572962	143.878588498944	-88.2745343438751	102.477877207297
63811	1649162504340	9.68099146267293	0.222785390745719	-0.344388771197095	0.00267811303922648	-0.120669754509351	-0.123762543594056	0.00895458967696694	0.0144977384969544	-0.000120945439382245	0.569091796875	0.432373046875	0.1533203125	0	0	0	-0.59547014689245	-0.39688008290422	-0.58801480448904	0.377014712783918	-0.00655042100868786	0.0292800172770736	0.999549784939632	0.916040947785581	-0.4006922122768	0.0177407159049287	0.401031263076465	0.915744741513146	-0.0241969920923532	143.751929226421	-88.2806514181214	102.61036499279
63812	1649162504342	9.66479883833798	0.170273778372472	-0.274236264751352	-0.0159891794295784	-0.0357097550164553	-0.142578559263026	0.00596952084126546	0.0152285739849036	-0.00109256355846014	0.55322265625	0.433837890625	0.1630859375	0	0	0	-0.595461895983176	-0.396930966835422	-0.587933379803355	0.377101152096122	-0.00643970303979657	0.0292938224132869	0.999550099891535	0.916135241931735	-0.400481057309749	0.0176391957511313	0.400817600306474	0.91583666376952	-0.0242581240015633	143.977379167006	-88.2812529611615	102.398206049813
63813	1649162504343	9.66384848417676	0.231477804818104	-0.313355866557071	0.0242342878627459	-0.0968798476859253	-0.141504995423633	0.00506035388863067	0.00553238916820374	0.00220554599106645	0.564208984375	0.4326171875	0.15625	0	0	0	-0.595445681280309	-0.396933159637341	-0.587925883127896	0.377136133741159	-0.00642555454279853	0.0292480823475824	0.999551530401413	0.916160460304427	-0.400424806814176	0.0176063926632075	0.400760181684257	0.915862721026912	-0.0242229851501088	143.988601459452	-88.2839878196331	102.390556690021
63814	1649162504344	9.64720889731548	0.199599932926838	-0.271745710396489	0.0117485095909996	-0.0470015283042469	-0.159709676641278	0.00595673605848353	0.00166321631744337	0.0029991446994357	0.558349609375	0.43408203125	0.1591796875	0	0	0	-0.595448976376476	-0.396907845143721	-0.587940488527634	0.377134804738918	-0.00641971117348999	0.0292110975352965	0.999552649483373	0.91614238289119	-0.400467003035812	0.0175873178730379	0.400801598772885	0.915845451623961	-0.0241906420088504	143.981730864288	-88.2861303295636	102.394826311984
63815	1649162504344	9.66445080127961	0.190544636875617	-0.300192881685688	-0.00767950013152822	-0.0690821165708677	-0.141947938805785	0.00236436192772858	0.00201285682594988	0.00338921595022107	0.557861328125	0.436767578125	0.151123046875	0	0	0	-0.595450389298159	-0.396904884178672	-0.58792605097794	0.37715819675737	-0.00638105700680019	0.0291920771700183	0.999553452668728	0.916156594024104	-0.400436415067688	0.017543452165711	0.400769731064646	0.915859432510381	-0.0241893064004271	144.04825556155	-88.2876696996523	102.330264978868
63816	1649162504345	9.68193021268321	0.17997795441261	-0.286190554743734	-0.0120695884925595	-0.0505792962992114	-0.124995904711559	0.00296014812475432	0.00551711794717171	0.00308163700088816	0.55615234375	0.42822265625	0.157470703125	0	0	0	-0.595419689073135	-0.39699045099257	-0.587884005814806	0.37718214617331	-0.0064180449442936	0.0292731597616168	0.999550844538017	0.916230563818381	-0.400264420857624	0.0176053208025765	0.400600003275267	0.915932025596377	-0.0242520486304659	144.022928663719	-88.2826760380187	102.366246031756
63817	1649162504345	9.6817807327436	0.199179033329953	-0.270826460960784	0.0117994460428887	-0.0446676967609145	-0.125181854563898	0.00207588892571331	0.00626284711893072	0.00123321749644192	0.56689453125	0.4306640625	0.1572265625	0	0	0	-0.595404712053648	-0.39698557990665	-0.587886777616738	0.377206594472978	-0.00641682790082315	0.0292246311465335	0.999552272397017	0.916243708428544	-0.400235268864559	0.0175839791294249	0.400569957791146	0.915946314197106	-0.0242086435790126	144.007172750209	-88.2854080894813	102.383871050985
63818	1649162504346	9.64767125912256	0.177657658256276	-0.242687656316665	0.00532223687198206	-0.0117505887641305	-0.160337707750722	0.00147388603924818	0.00432053096248416	0.00206817888866168	0.558349609375	0.429443359375	0.158935546875	0	0	0	-0.595476812241531	-0.396901097810689	-0.587861273414973	0.377221430804588	-0.00622271644880795	0.0291830596545397	0.99955471427491	0.916198542343353	-0.40034702139682	0.0173923393081743	0.400676314258672	0.915898799806995	-0.0242462307213311	144.347317650365	-88.2900904677476	102.036935916483
63819	1649162504347	9.64711216269697	0.217779255277093	-0.255233725485102	0.0373764337922541	-0.039388420238054	-0.15989519146803	-0.00480234904389359	-0.00197313942121765	0.00258687715001446	0.55908203125	0.43359375	0.149658203125	0	0	0	-0.595502147923931	-0.396886878768921	-0.587850372739697	0.377213383310889	-0.00617451053827295	0.029203921616018	0.999554403912993	0.916184033542852	-0.400381737824431	0.0173574392650346	0.400710234584498	0.915882959214186	-0.0242840054419037	144.444014431306	-88.2894946281142	101.93808872967
63820	1649162504348	9.68140819652872	0.219376272745107	-0.297986750566661	0.022795693313033	-0.0768780561810116	-0.124542193390733	-0.0131912083914469	-0.00515805999773912	0.00503625998644199	0.558837890625	0.439208984375	0.161376953125	0	0	0	-0.595589066332937	-0.396878234005958	-0.587790878601944	0.377177961272032	-0.00602089919066773	0.029349143188192	0.999551087522321	0.916156204169703	-0.400448905805971	0.0172766721379604	0.400776194819874	0.915848951319441	-0.0244773371260562	144.78466961707	-88.2831406549356	101.593228485807
63821	1649162504349	9.66416264796406	0.227843116357947	-0.270051180515088	0.0425418475540215	-0.0545410990194194	-0.142315331554309	-0.0104653018406399	-0.00944725558638118	0.0012157688725547	0.56201171875	0.4365234375	0.15087890625	0	0	0	-0.595644523535688	-0.396865715207013	-0.587771165873587	0.377134276144153	-0.00595467867833904	0.0294444733239824	0.999548680551634	0.916119086044542	-0.400534683700905	0.0172565157992411	0.400862023627521	0.915808380690682	-0.0245895886496606	144.939536204805	-88.2785437503169	101.432964633797
63822	1649162504349	9.64669052282958	0.237942006744004	-0.284218218566764	0.0458803900149298	-0.0702446936118255	-0.159242634530743	-0.0170662971830492	-0.00211900715023845	0.00274394731564283	0.55859375	0.43408203125	0.159423828125	0	0	0	-0.595650370945922	-0.396933742360528	-0.587745138406222	0.377094009561943	-0.00600148708896431	0.0295971200717201	0.999543892300975	0.916137803440286	-0.400487424256327	0.0173593813294621	0.400818546552339	0.915824128037689	-0.024711520464697	144.912675730087	-88.2694353018856	101.462602960214
63823	1649162504350	9.66432483379194	0.208048945067623	-0.285308840410429	0.018289902665165	-0.0587718379285652	-0.142109751005515	-0.0164764863302832	0.00294743951056588	0.00296483973740456	0.55517578125	0.43798828125	0.1591796875	0	0	0	-0.595683946831944	-0.396875550778421	-0.587770999286085	0.377061911467176	-0.00596990081487486	0.0295726759860163	0.999544804958381	0.916076901969149	-0.40062822423009	0.0173244229009666	0.400958189793982	0.915763333392024	-0.0246991346379142	144.953480782156	-88.2711677036147	101.413038017344
63824	1649162504351	9.68179043869549	0.197522778363364	-0.271691103960802	0.0127406541365314	-0.0413270746727909	-0.125168219551986	-0.017669576767661	-0.00406018477319557	0.00357836115770922	0.556640625	0.436767578125	0.157958984375	0	0	0	-0.595693762773012	-0.396863985882569	-0.587825389222883	0.376973778249492	-0.00607942301126652	0.0296292862663103	0.999542468337989	0.916008317971622	-0.400779494443407	0.0174515970755337	0.401113203500769	0.915695310804329	-0.0247041645945396	144.761726408534	-88.2667357997943	101.595182867153
63825	1649162504351	9.66431840347145	0.207472016988177	-0.285946166002747	0.0169209108847032	-0.0583037669618223	-0.14210442541993	-0.0167684049428054	-0.00949082532054591	0.00384297751551965	0.557861328125	0.427978515625	0.158935546875	0	0	0	-0.595765680497135	-0.396825917613917	-0.587813736383667	0.376918368311139	-0.0059915951429087	0.0297149369150994	0.999540456065573	0.915946114469522	-0.400923469479082	0.0174093942755167	0.401256546583141	0.915629507030538	-0.0248151098966832	144.947872556767	-88.2629281509444	101.400023831691
63826	1649162504353	9.71604470993658	0.198883914113322	-0.31565119580095	-0.00287436760749073	-0.0796596694191215	-0.0898091207229506	-0.0254415330059496	-0.00998420100640495	0.00361077026026928	0.564697265625	0.44189453125	0.156494140625	0	0	0	-0.595859320661589	-0.396745832474941	-0.587850098012141	0.376797925500649	-0.00594998663823409	0.0298080095550148	0.999537933359897	0.915810799300326	-0.401232135504347	0.0174170411815793	0.401565906849554	0.915491264843631	-0.0249111712110489	145.040066870955	-88.2581664081204	101.28846315572
63827	1649162504353	9.69881285430957	0.207270046023032	-0.287562951676084	0.0168416064141514	-0.0573227342694708	-0.107582800041015	-0.0212701362970341	-0.00214540462466805	0.00449920310523638	0.556396484375	0.441162109375	0.148193359375	0	0	0	-0.595919265868397	-0.396678575385827	-0.587868314534307	0.376745512466088	-0.00588609480707197	0.0298233120156806	0.999537855185254	0.915730309702893	-0.401417853333071	0.0173697126318639	0.401750362513049	0.91540934946388	-0.0249473272065154	145.152224308937	-88.2580190571349	101.164722637899
63828	1649162504353	9.69953211251319	0.147268987971047	-0.289917700609327	-0.0399754469750553	-0.0323769054175721	-0.107842317936448	-0.0200547408889664	-0.00138231770984462	0.00177512307221255	0.55810546875	0.436767578125	0.156494140625	0	0	0	-0.595885074774078	-0.396883283240145	-0.587781245394599	0.376719849103268	-0.00600626590620607	0.0301359256787013	0.999527763873196	0.915851373961839	-0.401131629552269	0.0175976300948194	0.401472521577849	0.915524571901939	-0.0251907257079698	145.062783928581	-88.2391014873532	101.271684506955
63829	1649162504354	9.71644290113322	0.177075254347489	-0.28880381569011	-0.0119819626706024	-0.042843330782049	-0.0904424154529	-0.0191879153984632	0.00255521483065013	0.00520871514514155	0.55419921875	0.43017578125	0.156005859375	0	0	0	-0.595928344466867	-0.396812645581387	-0.587807638864324	0.376684632365628	-0.00595619200110015	0.0301075971950355	0.999528917224503	0.915780014584298	-0.401296824092545	0.017544909837882	0.401636015149076	0.91545310724492	-0.0251817348646409	145.133855335665	-88.2412533090045	101.190343966272
63830	1649162504355	9.71685879470616	0.155726972308118	-0.261007857118133	-0.0207986251312334	-0.00840053050251421	-0.0911022210563583	-0.0164852742588946	0.00451347980065618	0.00349886737984957	0.568115234375	0.427734375	0.158203125	0	0	0	-0.595943392641883	-0.396797628675724	-0.58783987916983	0.376626328210608	-0.0060081633301558	0.0301458995155277	0.999527451706954	0.915729800585531	-0.401408501551835	0.0176109966070545	0.401749715983698	0.915402883775395	-0.0251937707123891	145.045609818183	-88.2385195268531	101.271519218953
63831	1649162504356	9.68179337010485	0.195431650430149	-0.273095218976017	0.0111309796138612	-0.0366886477870767	-0.12514755918721	-0.0164745342441366	0.00139148200381923	0.00244139151828655	0.548828125	0.437255859375	0.158447265625	0	0	0	-0.595979265436255	-0.396745701874354	-0.587862749438063	0.376588569977118	-0.00597952826530324	0.0301396396287443	0.999527812201729	0.915669208243531	-0.401547794013633	0.0175860796498783	0.401888226148006	0.915341996876488	-0.025196873571423	145.087005172134	-88.2391916017185	101.221435719192
63832	1649162504357	9.69941935161509	0.165480602649455	-0.274189047050968	-0.0166548376472989	-0.0251144483353644	-0.108029145839671	-0.0155906254043969	0.000644068316438828	0.00428907248575853	0.55712890625	0.42919921875	0.151123046875	0	0	0	-0.596029436457941	-0.396678417285632	-0.58789292287837	0.376532940610675	-0.00594371102141394	0.0301419249883708	0.999527956916309	0.915586129050762	-0.401738355789688	0.0175594355615673	0.402077993166918	0.915258301161696	-0.0252097117292089	145.141455168809	-88.2394614670437	101.155085798306
63833	1649162504359	9.66474571217113	0.184099825056546	-0.259153144993843	0.00707494325431907	-0.0198755389345724	-0.14273815426219	-0.0155854848447982	-0.000916627150712341	0.00376015661369051	0.558349609375	0.443603515625	0.164794921875	0	0	0	-0.596072965869783	-0.39662936681504	-0.587904840892834	0.376497095332584	-0.0058939131306554	0.030151156200757	0.999527973379318	0.915529015913224	-0.401870165172056	0.0175211690691398	0.40220875526146	0.915200130094146	-0.0252356705217987	145.227686528611	-88.239492170063	101.060637283855
63834	1649162504361	9.66490406749012	0.164450355460564	-0.274081277618925	-0.0178639857431032	-0.0248041383117369	-0.142547718232223	-0.00989115077269028	-0.00125345193868403	0.002492240684943	0.561279296875	0.43359375	0.1572265625	0	0	0	-0.596056620045018	-0.39668010447682	-0.587914685497465	0.376454144603543	-0.00599756542264829	0.030241764569497	0.999524619449028	0.915533444684734	-0.401854343446148	0.01765214766453	0.402197141800767	0.915204087801834	-0.0252771991744627	145.071758270026	-88.2332482052313	101.217381961224
63835	1649162504361	9.66515098906958	0.162592933361478	-0.231667144417046	-0.00224517884142173	0.0146814578765357	-0.143404598308848	-0.0128933795300779	0.00416400209762855	0.00310960261750178	0.555908203125	0.43310546875	0.15576171875	0	0	0	-0.596078477144828	-0.396631724037773	-0.587937941298026	0.376434193125126	-0.00597549466187647	0.0302073790231863	0.999525791421159	0.915487157183868	-0.401961147466117	0.0176210374019767	0.402302819397211	0.915158319735045	-0.0252525508569469	145.092958931719	-88.2354275387011	101.189545941159
63836	1649162504363	9.66491233509069	0.164178059659796	-0.273952984948451	-0.0177373786761888	-0.0237533148083967	-0.142544846883354	-0.00865828325264185	-0.00517311111668451	-0.00182006088980668	0.554443359375	0.432861328125	0.166015625	0	0	0	-0.596112797267707	-0.396665810962497	-0.587913077454314	0.376382758246618	-0.0059711044566762	0.0303544409036096	0.999521362367507	0.91547582370966	-0.401984507416265	0.0176768775642929	0.402328674238722	0.915143193011199	-0.0253884653057302	145.152193720371	-88.2272055841121	101.128715051076
63837	1649162504364	9.73355340854486	0.185986898987196	-0.302145081282262	-0.00923139528186245	-0.0556900114704613	-0.0728332499814943	-0.0033067835849717	-0.00390031246938185	0.00254184314215763	0.558349609375	0.427978515625	0.152587890625	0	0	0	-0.596139157699215	-0.396662666968277	-0.587894295179459	0.376373658731229	-0.00592194734187762	0.0303964427065661	0.999520378386787	0.915468150002205	-0.402003195293764	0.017649286250226	0.402346861391037	0.915133589835052	-0.0254463334174319	145.255264945614	-88.225384123449	101.024477295633
63838	1649162504365	9.71633804141982	0.194522667407848	-0.273476879359325	0.0102216316958316	-0.0337308434415234	-0.0906190973561855	-0.00659036594032661	0.00420849490454443	0.000480187343144374	0.560791015625	0.43359375	0.162109375	0	0	0	-0.596165272575394	-0.396578489074887	-0.587958934143279	0.376320025429535	-0.00594041247164118	0.0303312039770935	0.999522250660268	0.915374088170378	-0.402217480927587	0.0176458704096891	0.402560542286395	0.915041592552801	-0.0253750604436274	145.185167389165	-88.228851523741	101.081202880034
63839	1649162504365	9.68159315392598	0.195673566523628	-0.314999852614292	-0.00529523934201456	-0.0736195323246827	-0.124276184864822	-0.00300755971835614	0.00697844640356807	0.00114774296852627	0.5625	0.431884765625	0.1591796875	0	0	0	-0.596156239228112	-0.396559569119478	-0.587974935517715	0.376329273073602	-0.00594803331457472	0.0302785625746174	0.999523801391494	0.915367282850137	-0.402233572735336	0.0176320858698994	0.402575903883038	0.915036262457932	-0.0253235068616652	145.151529289611	-88.2317285826994	101.113875957511
63840	1649162504367	9.75106204399045	0.175418790163609	-0.287025587781273	-0.0128689214031632	-0.038953155833113	-0.0559110831941414	-0.000314707875905981	0.0120583859030532	0.000497858465397884	0.554931640625	0.43798828125	0.159912109375	0	0	0	-0.59614651837014	-0.396491073107002	-0.588020018878198	0.376346402905757	-0.00594542731011688	0.0301351077123884	0.99952815226849	0.91533198347793	-0.402316427932712	0.0175741810000467	0.402656195676236	0.915004572173618	-0.0251916848367617	145.099666123517	-88.2398258275256	101.160686983566
63841	1649162504368	9.71626604303033	0.213783968222084	-0.255625204609091	0.0345648396663647	-0.0279373187347658	-0.0908100669612395	-0.00928837113392248	0.0189448562706649	-0.000825234776600662	0.555419921875	0.42578125	0.166015625	0	0	0	-0.596110247777881	-0.396436567492413	-0.58808807892802	0.376354928055655	-0.0060190812448323	0.0299801076815437	0.999532372564476	0.915299494222917	-0.402390032166112	0.0175811799554976	0.402728949215525	0.914977297618229	-0.025018759101947	144.903523505693	-88.2477157910081	101.352301219446
63842	1649162504369	9.6824772371097	0.153734892957893	-0.256446454961124	-0.0224297030999009	-0.00766292613158665	-0.125623679694838	-0.00538512888495922	0.00809515484398406	-0.00118490919111438	0.55810546875	0.429443359375	0.158203125	0	0	0	-0.596083511182737	-0.396333580365451	-0.588228879738946	0.376285697059863	-0.00618704376846568	0.029811596281104	0.999536387139848	0.915180052454351	-0.402657534525751	0.017674316940016	0.402997756915668	0.914865114985164	-0.0247917184584754	144.514468424042	-88.2552542562561	101.724616978911
63843	1649162504370	9.66518957991176	0.144699184570233	-0.284731554551625	-0.0420123810782054	-0.03044086713107	-0.142361212965127	0.00448963657179491	-0.00422381416551025	0.000397042972784928	0.5556640625	0.434326171875	0.154052734375	0	0	0	-0.596091466571211	-0.396359060401419	-0.588199129265603	0.376292762420264	-0.00615744086221748	0.0298623567978424	0.999535054697186	0.915202657616033	-0.402606504375662	0.0176662991868382	0.402946871702185	0.914885917631749	-0.0248510825626264	144.591492656495	-88.2527486251507	101.650766707961
63844	1649162504371	9.6991064836153	0.167532061171192	-0.354774830617679	-0.0491522893924038	-0.101605792728651	-0.106304974262462	0.00535649614154409	-0.000289186142385022	0.00383342469420279	0.5556640625	0.433349609375	0.162841796875	0	0	0	-0.596105331562714	-0.396401790736454	-0.588150978399954	0.376301050477694	-0.00611190618378071	0.0299507797752433	0.999532688506812	0.915238103820787	-0.402526279420633	0.0176580771974714	0.402867047445345	0.914918327047085	-0.0249518920331225	144.713533854576	-88.2483078835651	101.533706341218
63845	1649162504372	9.68189721945157	0.175939549717368	-0.325630202360601	-0.0294884723195546	-0.0792715876311405	-0.12408736634729	0.00626409233104332	0.0109725043139571	0.00107852591911357	0.560791015625	0.430419921875	0.154296875	0	0	0	-0.596066607238661	-0.396402089752475	-0.5881615942813	0.376345482219916	-0.00613735549530031	0.0298601798360854	0.999535243264429	0.915268015128208	-0.402458922505058	0.017643020697663	0.402798700780917	0.914950919643357	-0.0248600340502761	144.636900658426	-88.2531030037367	101.614620080122
63846	1649162504373	9.68194829516847	0.175764623504278	-0.324203193273514	-0.0293662042808349	-0.0789882469158294	-0.124084680846114	0.0104376148502096	0.018808674373391	0.00197432700869127	0.5576171875	0.4375	0.1494140625	0	0	0	-0.596014861596697	-0.396382445796149	-0.58819319628583	0.376398731750776	-0.00618055898455455	0.0297093109282615	0.999539472724718	0.915290003353947	-0.402409902802142	0.0176204394696408	0.402748073180954	0.914977391508085	-0.0247055171589344	144.502820143881	-88.2610704918811	101.751873372837
63847	1649162504374	9.66460276784125	0.203730660064876	-0.278939767520452	0.0140146297922904	-0.0508705684659369	-0.142057819144144	0.0080663391781287	0.0183641060169898	-0.000888196645705472	0.56689453125	0.438720703125	0.159423828125	0	0	0	-0.595947087161608	-0.396379872322071	-0.588226062819888	0.376457388214054	-0.00625380832529709	0.0295587660624341	0.99954348041008	0.915326955216878	-0.402325663353984	0.0176245754608601	0.402662954510133	0.915019311247387	-0.024539867756932	144.314027131322	-88.2686540201739	101.946018470811
63848	1649162504376	9.64757436635542	0.193010945977541	-0.263403194817308	0.00988593105743351	-0.0322668175911776	-0.159647090353781	0.00386274499235661	0.0183356149074641	0.000863673895477049	0.557861328125	0.4287109375	0.163818359375	0	0	0	-0.595862969991917	-0.396523078869017	-0.588161753542093	0.376540197836749	-0.00632960081094852	0.0296137528129643	0.999541375730844	0.915479924967961	-0.401973854674595	0.0177066975663227	0.402313861474138	0.915172139983719	-0.0245664621667038	144.217177477035	-88.2646673175942	102.064780281054
63849	1649162504377	9.64744497970081	0.212358260440914	-0.247092242510381	0.0336884317628756	-0.026322678353409	-0.159837143587566	0.00178485864888898	0.0120755625848338	-0.00037850649682244	0.5615234375	0.42724609375	0.162109375	0	0	0	-0.595826511399008	-0.396513119224895	-0.588186926055446	0.376569056899366	-0.00637302740002005	0.0295200650529438	0.999543871113734	0.915492049153889	-0.401946183336932	0.0177080105287674	0.402285585694755	0.915187320421422	-0.024463770806736	144.101238957403	-88.269395104962	102.182501234959
63850	1649162504378	9.68199634278895	0.212486509320342	-0.246401104486465	0.0348208356688024	-0.027016711066713	-0.125325762412977	-0.00185175210256856	0.00510117112866352	0.00620284961207615	0.5595703125	0.431640625	0.159912109375	0	0	0	-0.595897519284076	-0.39631655069016	-0.588253827269712	0.376559122665583	-0.0062187472968202	0.0293034086122688	0.999551218010243	0.915352789017685	-0.40227283757276	0.0174881613872164	0.402604767507296	0.915050749628053	-0.0243213236797253	144.282110670204	-88.2833902163354	101.981507440826
63851	1649162504379	9.66474627678452	0.203000983634737	-0.274463107504779	0.0152407322428678	-0.0498000226736385	-0.142054101578887	-0.00570789299798615	0.00346114373526047	0.00232372604821528	0.556396484375	0.430419921875	0.15478515625	0	0	0	-0.595906036522915	-0.396291672769306	-0.588263470758773	0.376556761591261	-0.00620200187090508	0.0292760250312681	0.999552124469336	0.915334375076704	-0.402315830787215	0.0174629350606386	0.402646888694961	0.915032724363649	-0.0243021885414887	144.299936140841	-88.2851248440539	101.96102909213
63852	1649162504380	9.69893204745553	0.224212796841745	-0.301581281620358	0.0239825426034694	-0.0820179997257468	-0.10685389068329	-0.00361237956774558	0.00503730628910222	0.0019779104456072	0.5537109375	0.429931640625	0.150146484375	0	0	0	-0.595931827061086	-0.39626799565259	-0.588260224783228	0.376545934854037	-0.00615683288107088	0.0292834287532709	0.999552186836349	0.915311413867058	-0.402369669132756	0.017425986534002	0.402699775333388	0.915008814253966	-0.0243261337657695	144.384142822158	-88.2852442559683	101.873482353621
63853	1649162504381	9.71656369451254	0.194332392555864	-0.30222532795116	-0.00367861997516636	-0.0705417454206492	-0.0897389640330601	-0.00361855650877162	0.00659896864634132	0.00250753915586566	0.55322265625	0.438232421875	0.154052734375	0	0	0	-0.595927625305381	-0.396242788517492	-0.588274637859563	0.376556593883272	-0.00615079400183616	0.0292266602105966	0.999553885523978	0.915301435811847	-0.402393568301821	0.0173982122672998	0.402722546344152	0.915000119411064	-0.0242761641084557	144.371633255245	-88.2884998759361	101.884552374553
63854	1649162504381	9.7340333904937	0.201485424446177	-0.230851838906907	0.0306582181771582	-0.00582218154733527	-0.0738824491636443	-0.00422798050720382	0.00621741299856419	0.00386913221401361	0.552734375	0.4287109375	0.16162109375	0	0	0	-0.595897711297811	-0.396372709081506	-0.588224041086278	0.376546239728332	-0.0062376940329682	0.029408078747482	0.999548025898472	0.915382281902849	-0.402203209683683	0.0175458285206591	0.40253741335618	0.915077998328298	-0.0244108136691641	144.292447819713	-88.277295595324	101.975417856362
63855	1649162504382	9.69969464689797	0.163748486355482	-0.302110988082479	-0.0323057624307956	-0.0573191156506121	-0.107130618876665	-0.00300322608167366	0.00541934217884566	0.000616450848605835	0.561279296875	0.43017578125	0.15869140625	0	0	0	-0.595891881309302	-0.396358210467094	-0.588236950058183	0.37655056150699	-0.00624508083686232	0.0293713717281142	0.999549059070214	0.915375187102387	-0.402219687248186	0.0175382447024176	0.402553432233054	0.915071934720315	-0.0243739304300338	144.263123044048	-88.2792658429067	102.00373846338
63856	1649162504383	9.71714681107113	0.153346290094773	-0.287981113557465	-0.0360741760709573	-0.0405633789496949	-0.0902162973363794	-1.8428571537324E-05	0.00468480135718017	0.00158910558523235	0.558349609375	0.433837890625	0.154052734375	0	0	0	-0.595920521997641	-0.396269861890996	-0.588283336333829	0.376525755043249	-0.00621417450234035	0.0292830311151182	0.999551843639921	0.915298340684944	-0.402397104692005	0.0174790639017041	0.402728607842357	0.914996761865419	-0.0243021439621006	144.274816886377	-88.2845872528591	101.981042553365
63857	1649162504384	9.6828121774339	0.133596278673123	-0.30214409021221	-0.059804894466072	-0.0469437204313583	-0.124539432572771	0.00539792783857546	0.00703873186898564	-0.00235440506909569	0.5625	0.430419921875	0.156005859375	0	0	0	-0.595888246639262	-0.396285447769389	-0.588290248614153	0.376549631242547	-0.00625514545657463	0.0292427289214213	0.99955276797203	0.915324633638404	-0.402336438194633	0.0174987301132854	0.402668211074624	0.915024728248415	-0.0242499171931996	144.185799383932	-88.2863573357888	102.073861428623
63858	1649162504385	9.69958886848598	0.183188296109822	-0.284981593093046	-0.00714551918763253	-0.0503994339169776	-0.107317443347823	0.00806542371547962	0.0183668549664462	-0.000883084825485603	0.55810546875	0.42724609375	0.1533203125	0	0	0	-0.595851893656433	-0.396335089465604	-0.588246004972426	0.37662402381993	-0.0062297310154566	0.0292188723837166	0.999553624348439	0.915409181938571	-0.402145683079953	0.0174607904378406	0.402476359646167	0.915109341596283	-0.0242419646313303	144.235878209094	-88.2879989172836	102.035769645847
63859	1649162504385	9.6828835682439	0.151706006354001	-0.241900917615308	-0.0193960189312349	-0.000320631576575248	-0.125614104885717	0.00629279522344557	0.0214273496948856	-0.0040491369786961	0.569091796875	0.429931640625	0.157470703125	0	0	0	-0.595772488008534	-0.396331478384874	-0.58829673608486	0.376674198857955	-0.00634338089367859	0.0290543783958855	0.999557704494776	0.915439185417942	-0.402075814311956	0.0174967810385676	0.402406336083532	0.915145279527467	-0.0240469964532374	143.96007370836	-88.2958418271221	102.316004124761
63860	1649162504386	9.68240646085392	0.192625981976508	-0.252582700957555	0.0152887053244594	-0.0272624898074281	-0.125122115829802	0.00542875112304422	0.0174917477684595	-0.0074857170042135	0.564453125	0.4296875	0.1552734375	0	0	0	-0.595793923841773	-0.396310410836792	-0.588247649522831	0.376739115843394	-0.00619447781352378	0.0290068707072236	0.999560018156185	0.915470468219966	-0.402011393711822	0.0173395831263093	0.402337483043444	0.915175087498372	-0.0240646828488064	144.225715502018	-88.3003052511276	102.054562748286
63861	1649162504387	9.68294885342727	0.152640417789418	-0.23867778545154	-0.0165064414321393	0.000628055390380215	-0.125608765230412	0.0140579908198307	0.0106536981599062	-0.00105254424931189	0.55419921875	0.425537109375	0.1533203125	0	0	0	-0.595738141651434	-0.396340707174235	-0.588244546047972	0.376800297854366	-0.00623520423711404	0.0289291123814227	0.999562018428544	0.915531993029752	-0.401871158746977	0.0173419003091459	0.402196832368297	0.915239137179013	-0.0239797791633524	144.125979038651	-88.3041735632189	102.16311528324
63862	1649162504388	9.73459710386451	0.163840576168677	-0.251442073162387	-0.0101427724271574	-0.0140238834062993	-0.073480619833564	0.00388467239045843	0.0120932293170823	-0.00125180364555536	0.563720703125	0.431396484375	0.150146484375	0	0	0	-0.59577730069484	-0.396320336748775	-0.588192003130464	0.376841831687355	-0.00607928373457972	0.0289266171902322	0.999563051101433	0.915548024564387	-0.401840849139714	0.0171972869640205	0.402162724560002	0.915252524050387	-0.0240408026877825	144.422439403644	-88.3061740985014	101.868683903655
63863	1649162504389	9.68268799507331	0.173900860119731	-0.26340413573332	-0.00610050509550763	-0.0317539752978553	-0.124910311474403	0.00568006159245724	0.0210487192941238	-0.00268808245896315	0.5634765625	0.433837890625	0.156494140625	0	0	0	-0.59570395445489	-0.396311195448415	-0.588238939911344	0.376894129141106	-0.00617522813154836	0.0287606866771845	0.999567251093882	0.915575898616279	-0.401776503562431	0.0172167086907695	0.402097799584278	0.915286001251524	-0.0238515299818906	144.177183918818	-88.3143349493267	102.118037750313
63864	1649162504390	9.66563357841217	0.163474602601003	-0.247667116484548	-0.00837772054069936	-0.0135425962613601	-0.142512518228131	0.012867680201316	0.0203450917544284	-0.00346104016325831	0.556396484375	0.430419921875	0.15771484375	0	0	0	-0.595658907041406	-0.396410986923101	-0.588139615641442	0.377015368946714	-0.00609975608042174	0.0287761220531649	0.999567270260156	0.915726818786113	-0.401435482049251	0.0171448857607712	0.401755132302779	0.91543513617922	-0.0239024081822186	144.348619113331	-88.3143722811441	101.967996694577
63865	1649162504391	9.68307861862225	0.153670705815883	-0.232676712806151	-0.0122683608833463	0.00376392342692419	-0.125603181646481	0.014414925513429	0.00748184437284231	-0.00720805314478147	0.56787109375	0.44189453125	0.152099609375	0	0	0	-0.595600456708358	-0.396466853212033	-0.588136568119493	0.377053719665473	-0.00618117691045272	0.0287535163241432	0.999567420613037	0.915789839047106	-0.40128905358116	0.0172065735698376	0.401610213702389	0.915500044115201	-0.0238517394541121	144.193432376473	-88.3146651651959	102.132301048701
63866	1649162504393	9.66535308121868	0.185468452434942	-0.273100013017115	0.000363191472373819	-0.0451373265220656	-0.141803493670205	0.0131943080159765	0.00671926927245494	-0.00448561640507771	0.5595703125	0.432861328125	0.163330078125	0	0	0	-0.595536559723663	-0.396638055625242	-0.588036951754268	0.377129954039561	-0.00621840759724612	0.028892229027778	0.999563189852829	0.915957623382379	-0.400902501191893	0.0172863155642874	0.401226823099675	0.91566501715414	-0.0239710822753363	144.203418760099	-88.3064430733002	102.146348651803
63867	1649162504394	9.68258441316445	0.194912480436287	-0.243855813795651	0.0201827064660029	-0.022012576426695	-0.125117723979097	0.0182655892055991	0.0091258851937812	-0.0033253639007981	0.5556640625	0.431396484375	0.157470703125	0	0	0	-0.595473769991089	-0.396691075646506	-0.588023428345482	0.377194416013603	-0.00627072356151315	0.0288399533599082	0.999564372672523	0.916036567988272	-0.40072112606115	0.0173085307450162	0.401045738207355	0.915746054437846	-0.0239056404899644	144.094129668133	-88.3087377499174	102.266990355983
63868	1649162504395	9.66550860607738	0.184407120153746	-0.22869302036622	0.0156812659536699	-0.00586823234364417	-0.142729635419899	0.0173322062553657	0.0208114757952916	-0.00147078774078534	0.561767578125	0.43505859375	0.1552734375	0	0	0	-0.595385109438091	-0.396671864341639	-0.588090646458981	0.377249778060345	-0.00639835282562684	0.0286309110120861	0.999569573374329	0.916059174436147	-0.400668073986298	0.0173402254736195	0.400992082231662	0.915775827057435	-0.0236639930017576	143.767217966279	-88.3188642900731	102.597304920277
