// Start Time : 05/04/2022 12:41:13																																
// Update Rate : 100Hz																																
// Filter Profile : 46.1 human																																
// Firmware Version : 4.4.0																																
PacketCounter	Time_Of_Arrival	Acc_X	Acc_Y	Acc_Z	FreeAcc_X	FreeAcc_Y	FreeAcc_Z	Gyr_X	Gyr_Y	Gyr_Z	Mag_X	Mag_Y	Mag_Z	VelInc_X	VelInc_Y	VelInc_Z	OriInc_q0	OriInc_q1	OriInc_q2	OriInc_q3	Mat[1][1]	Mat[2][1]	Mat[3][1]	Mat[1][2]	Mat[2][2]	Mat[3][2]	Mat[1][3]	Mat[2][3]	Mat[3][3]	Euler_X	Euler_Y	Euler_Z
63646	1649162504186	9.3139645969443	0.458500135803114	2.84348525800171	3.98986399474666E-15	1.56938264467277E-15	-0.0635557821682404	-0.00947480998776463	-0.0241954894939293	-0.0234724533101573	0.352783203125	-0.292724609375	0.155517578125	0	0	0	-0.458769815822176	0.378999782395779	-0.593728710765419	-0.541641614951503	0.00769076591357165	0.295429034751398	0.955333730978615	-0.990923676216824	-0.12596705179336	0.0469315435014143	0.134205514166143	-0.947023752230295	0.291778842068878	9.13754904138682	-72.8107314015997	88.5087825660632
63647	1649162504186	9.33891995046261	0.460460528308452	2.84191436833027	1.41813644161104E-14	9.45966395493602E-16	-0.040076335298874	-0.00700316932538579	-0.0221256351187316	-0.0247603111611357	0.348876953125	-0.29248046875	0.15625	0	0	0	-0.460398898732759	0.377596106679425	-0.595415802214957	-0.539383033417739	0.00580240538651855	0.294624699725151	0.95559542611065	-0.99000402644909	-0.132974246963236	0.0470093316177749	0.140919692400743	-0.946316086704873	0.290908068532406	9.17936846170709	-72.8615404403037	88.8717498298117
63648	1649162504187	9.33993633029823	0.449796174982438	2.81890095033898	0.00545845684109077	0.0286045048764861	-0.046312351903067	-0.00204186003455725	-0.0266910900463689	-0.0247752224154374	0.34521484375	-0.2880859375	0.151611328125	0	0	0	-0.459588207393306	0.378388001938112	-0.594406561417591	-0.54063114908222	0.00700671946595266	0.294904077622663	0.955501172622912	-0.990514731662149	-0.129080961262598	0.0471027791079492	0.137227811476006	-0.946768023562772	0.291202399228537	9.18816664888155	-72.8432239753901	88.6389474800856
63649	1649162504188	9.31686865162212	0.460186225320876	2.78242058068804	-0.00727004018316849	0.0529245366513241	-0.0784784949922805	0.000445027891920123	-0.0235805403022951	-0.0279543518293348	0.346435546875	-0.291015625	0.153076171875	0	0	0	-0.459712372783567	0.378386177394342	-0.594277641787277	-0.540668585677313	0.00731597045725346	0.294716889292639	0.955556608339792	-0.990512119046466	-0.129002762437137	0.0473711864488822	0.137230530853217	-0.94683696719613	0.290976870133154	9.24666112453501	-72.8539946082078	88.5779974731952
63650	1649162504190	9.31740898672081	0.462816752042546	2.78017402324088	-0.00730178170310663	0.0528981720496918	-0.0784783754422165	0.00414210348507409	-0.024416282074403	-0.0271429054772242	0.35107421875	-0.2890625	0.155517578125	0	0	0	-0.459846840111329	0.378379637656866	-0.594155657688656	-0.540692877595818	0.00761580848643939	0.294518103113071	0.955615553661501	-0.990504826068988	-0.128960123847626	0.0476390175302551	0.137266853228085	-0.946904627402297	0.29073946689257	9.30548965768033	-72.8654543275476	88.5187448234214
63651	1649162504190	9.36701709140277	0.48607598355727	2.7662996660135	-0.029050336114355	0.0758598237131187	-0.0339812387546701	0.00655347318761356	-0.0196559116447104	-0.0244640910685774	0.3486328125	-0.2841796875	0.1484375	0	0	0	-0.459969228207992	0.378357054266262	-0.594056717215997	-0.540713293085397	0.00788511243501883	0.294363523214921	0.955660997008032	-0.990493932166528	-0.128950148335406	0.0478918530187216	0.137330241910429	-0.946954051390444	0.290548497177403	9.36004558519319	-72.8742941690305	88.4655855214566
63652	1649162504192	9.39140688949925	0.50158470561338	2.78570130120628	-0.0386363334630099	0.0610830535112446	-0.00427171959849382	0.0139824889310952	-0.0192383177785177	-0.0266202766387683	0.35302734375	-0.28466796875	0.148681640625	0	0	0	-0.460115681824813	0.378307050953105	-0.593966117241513	-0.540723206554974	0.00817605353641288	0.294212513622832	0.95570505333827	-0.990472540376522	-0.129004378184142	0.048187313365677	0.137467446723393	-0.946993594084489	0.290354669076104	9.42293305897056	-72.8828684296098	88.4081818238428
63653	1649162504193	9.39237869760061	0.512164256013347	2.75075321244613	-0.0510774868379308	0.0920961400402409	-0.0129607386934882	0.0114068833498285	-0.0080503388506017	-0.0228869892261796	0.34814453125	-0.29248046875	0.147705078125	0	0	0	-0.460213717217301	0.378242282758609	-0.593907290355137	-0.540749702248286	0.00841381199315144	0.29416580693106	0.955717367112444	-0.990454954759447	-0.129045070103893	0.0484391626098509	0.137579759994725	-0.947002559613478	0.290272220037182	9.47393311543058	-72.8852656863536	88.3616568975043
63654	1649162504195	9.34347783920832	0.548170628409165	2.75692981770209	-0.0838113416175568	0.0667547130819794	-0.0561382693400585	0.0150628175244788	-0.00515049761823242	-0.0199979493869509	0.358154296875	-0.28369140625	0.143798828125	0	0	0	-0.460311548779649	0.37816707346293	-0.593866954686602	-0.540763333390703	0.00862340935948769	0.294133605447448	0.955725409810529	-0.990432290580203	-0.129129363617316	0.0486773584722904	0.137729860912845	-0.947001071592991	0.290205885217127	9.52180596977088	-72.8868316219958	88.3206833141681
63655	1649162504195	9.34389290538185	0.537221746232629	2.73586983564667	-0.0739295746136418	0.0881920257250858	-0.0623703426009925	0.0149462301847375	0.000231503515691404	-0.012062512078756	0.35009765625	-0.283447265625	0.153564453125	0	0	0	-0.460374079352511	0.378094302860302	-0.593863130788965	-0.540765186651691	0.00874256006822161	0.294151380357824	0.955718856713124	-0.990410646708787	-0.129235422100288	0.0488360170411425	0.137877911680355	-0.946981082761502	0.290200810409821	9.55243423239835	-72.8855557052532	88.2975963696489
63656	1649162504197	9.39164316518185	0.564319470159047	2.77877783500018	-0.0929814213249995	0.0585191150388945	-0.00294965689867688	0.0123926280065615	0.0095591342597128	-0.00936676994047785	0.35107421875	-0.288818359375	0.153076171875	0	0	0	-0.460406115517222	0.378011872458169	-0.593876484171571	-0.540780874868023	0.00883549165736386	0.294236133711981	0.955691912545773	-0.99039204498341	-0.129326139315289	0.0489729203068425	0.13800554815206	-0.946942367469123	0.290266466150022	9.57659082193426	-72.8803105273687	88.2800062745035
63657	1649162504197	9.41544116874543	0.511208077967233	2.78573361174496	-0.038166096575309	0.0674969060198054	0.0192079198650603	0.0147802361459576	0.0230397414213197	-0.00924739803586329	0.349365234375	-0.293212890625	0.155029296875	0	0	0	-0.460395139448878	0.377884395307295	-0.593932447556214	-0.540817850200022	0.00889526304625105	0.294466261156664	0.955620476620167	-0.990370816648892	-0.129438873376533	0.0491042115222404	0.13815397144326	-0.946855426714887	0.290479398710176	9.59487969963049	-72.866411749645	88.2697301678335
63658	1649162504199	9.43843540565982	0.559106511881235	2.81729067765184	-0.0797316995521082	0.0406151409080699	0.0526956584528744	0.015996302503634	0.029880876362962	-0.0116015029522768	0.348876953125	-0.29052734375	0.14453125	0	0	0	-0.460386128393929	0.377731265203136	-0.593989374399946	-0.540869972516914	0.00899142877599701	0.29473756369365	0.955535934832646	-0.990346502734501	-0.129557528235182	0.0492813494045634	0.138321938715848	-0.946754781041808	0.290727408140973	9.62078480854525	-72.8499771751433	88.2526448656356
63659	1649162504199	9.41339898161527	0.547857104242789	2.79932940192891	-0.0701383738633348	0.0553612268431883	0.0229868398632398	0.020856316900197	0.042524472306013	-0.0119227806526464	0.35205078125	-0.28955078125	0.15087890625	0	0	0	-0.460338740194999	0.377526865352774	-0.594094392014447	-0.540937670706686	0.0090506386277876	0.295155590019874	0.95540633429994	-0.990316556364925	-0.129719804694667	0.0494559446325142	0.138532321607436	-0.946602318796018	0.29112342042518	9.64134329360535	-72.8248129818369	88.2436349738043
63660	1649162504201	9.38735650842925	0.528478628834684	2.81593482611471	-0.0477433171251434	0.0387408848528773	0.00196792834017501	0.0207188291013635	0.0508009109338689	-0.00485085959322096	0.35302734375	-0.2841796875	0.1474609375	0	0	0	-0.460273646229693	0.377317492366435	-0.594222060852968	-0.540998912139738	0.00906330469991345	0.295608380986292	0.955266215040907	-0.990285572977265	-0.12990337403585	0.0495943279739952	0.138752803434766	-0.946435839613423	0.291559361081458	9.65362927223526	-72.7976465627925	88.2438708851562
63661	1649162504201	9.38529281940434	0.575649583150839	2.84903744989311	-0.0898290625029689	0.00544128323538911	0.0119758654879227	0.0169529462235665	0.0474669533007631	0.00189533347811544	0.34912109375	-0.287109375	0.1591796875	0	0	0	-0.460174884248597	0.377143075366866	-0.594368390738425	-0.541043799244228	0.00897863358767609	0.296055122447376	0.955128655528441	-0.990262206655805	-0.130069416004387	0.0496256898133783	0.138924966107875	-0.946273380949156	0.292004353219227	9.64517514962912	-72.7710168404009	88.2628904609802
63662	1649162504203	9.33496580969642	0.52145475093422	2.85753889743589	-0.0353894723649544	-0.00604188415119139	-0.036300544136262	0.0230276624122325	0.0532568451345087	0.00641888663369492	0.350830078125	-0.289794921875	0.157470703125	0	0	0	-0.460092415374591	0.376943538931408	-0.594532690944978	-0.541072469425644	0.00888889571117807	0.29651281591415	0.954987506479377	-0.99022826906134	-0.130308302575004	0.0496761656310512	0.139172420704744	-0.946097191771904	0.292457075545282	9.64013607416052	-72.7437336544744	88.282894709336
63663	1649162504203	9.28489961594041	0.487900378284735	2.85324257160054	-0.00376569892479145	-0.00755945334733272	-0.0870342934591832	0.0279625865809353	0.0505490160485037	0.00744059470786734	0.34619140625	-0.28369140625	0.16455078125	0	0	0	-0.46000375671038	0.376740762897396	-0.594721782543657	-0.541081271854719	0.00874479787916488	0.296981304519382	0.954843250631232	-0.990189969474329	-0.130594909639135	0.0496869593432082	0.139453766039071	-0.945910711611995	0.292925882767652	9.62704876268151	-72.7158930921728	88.3133777417683
63664	1649162504205	9.25920054945199	0.487954304970864	2.85683925193727	-0.00353935297292868	-0.0146069953605048	-0.110512476358585	0.0353709032707847	0.0430786165672769	0.0107849269618609	0.342529296875	-0.293212890625	0.1591796875	0	0	0	-0.459976837931971	0.376540385154308	-0.594897468221123	-0.541050505237773	0.00862868130388733	0.297339440057491	0.954732843912502	-0.99013886292535	-0.130963378259593	0.0497355574989234	0.139823381391847	-0.94574724474414	0.293277293827902	9.62495809579102	-72.6946145561353	88.3377640363292
63665	1649162504206	9.3318663754224	0.475277253522962	2.84135728165825	0.00721580854822421	0.026897932616836	-0.0463086429643216	0.0391635545854175	0.0347808817397966	0.0074565344799947	0.353515625	-0.285400390625	0.14697265625	0	0	0	-0.459965275987134	0.376346937985683	-0.595071344513593	-0.541003717264182	0.0085061544151685	0.297658572443502	0.954634495284955	-0.990084665233493	-0.131355920350273	0.0497792914615414	0.140214125559965	-0.9455924050244	0.293589854309759	9.62319923494574	-72.6756812965441	88.3631106559616
63666	1649162504207	9.28294341125701	0.450120453384455	2.80238075123955	0.026888181683845	0.0560354371461735	-0.105724913174377	0.0551068956222452	0.0488348671013321	0.0068184797250431	0.3466796875	-0.28955078125	0.15234375	0	0	0	-0.459981374088418	0.376063875540197	-0.59528701812509	-0.540949593822897	0.00841865513085321	0.29807578489363	0.95450508259822	-0.990005297757613	-0.13189899691306	0.0499215887686785	0.140778679698484	-0.945385361148233	0.293986194010836	9.63742537910397	-72.6507983603189	88.3822060079347
63667	1649162504210	9.30364866195732	0.482282987610909	2.90268184698404	0.00998301836784071	-0.0326070937440051	-0.0548764926649081	0.060129817707551	0.0415593821007068	0.00284534186974456	0.35400390625	-0.291259765625	0.146240234375	0	0	0	-0.460014931060544	0.375779016481726	-0.595503318586953	-0.540880940249622	0.00833185664790437	0.298464873036482	0.954384251613634	-0.989920706479844	-0.132475878493423	0.0500713141413653	0.141377420570777	-0.945181919622203	0.294352787946779	9.6539742321465	-72.6275966639666	88.4009633387902
63668	1649162504211	9.32860330804523	0.499499117459147	2.8396308916137	-0.0141810177743758	0.0357282049518129	-0.0487555937501938	0.0675417673594271	0.0419368139604672	0.000682575636465543	0.351318359375	-0.286376953125	0.157470703125	0	0	0	-0.460095045899816	0.375465881490972	-0.595710915710946	-0.540801650771778	0.00830775347806761	0.298822909241687	0.954272419251694	-0.9898228771553	-0.133117892717455	0.0503020725066663	0.142062145176502	-0.944978568831483	0.294675841149307	9.68719256280433	-72.6061495911934	88.4074961596332
63669	1649162504211	9.30098883409964	0.519441048594628	2.91769206640102	-0.0217913449038969	-0.0448517968409007	-0.0510967564195059	0.071165471086494	0.0447997591443667	0.00354961852683016	0.350341796875	-0.284423828125	0.15673828125	0	0	0	-0.460147336956331	0.375140911939771	-0.59595711693109	-0.540711419576261	0.00820882193635858	0.299241454179861	0.954142110664202	-0.989721820629682	-0.133800913857642	0.050478046914736	0.142770210519854	-0.944749632204841	0.295067448961987	9.7077812022305	-72.5811914536088	88.4286504407104
63670	1649162504212	9.25204067191089	0.549541711256506	2.87391354028676	-0.0566780335861264	-0.0179835049994957	-0.109178003376133	0.0735309927901252	0.052415114352192	0.00532973085029134	0.347412109375	-0.292724609375	0.167724609375	0	0	0	-0.460204179933855	0.374789783379791	-0.596212392394694	-0.540625114289498	0.00812680285824974	0.299695135742625	0.954000409165275	-0.989614435374161	-0.134514208147193	0.0506872479585816	0.143517331268332	-0.944504501534399	0.295489462091074	9.73358949158107	-72.5540904896119	88.4466967622526
63671	1649162504213	9.2991224632549	0.584997357532916	2.88748208478149	-0.0882915477132476	-0.016473407059136	-0.0584378164234849	0.0735449292548987	0.0544358233627441	0.00151480619119302	0.355224609375	-0.28271484375	0.160400390625	0	0	0	-0.460237825418752	0.374426826010868	-0.596479501389501	-0.540553328025439	0.00803351277111847	0.300207182786723	0.953840191057084	-0.989508735513473	-0.135213303048098	0.050890323454962	0.144249523448376	-0.944242029398227	0.295971392034491	9.75623072821771	-72.5234972019747	88.4671367612536
63672	1649162504214	9.27335376680349	0.553303480020005	2.88381219577403	-0.0557128634225814	-0.0115764367689524	-0.0856956752377531	0.069829533761857	0.0552298196191815	0.000668741656972774	0.346923828125	-0.28125	0.160888671875	0	0	0	-0.460289151852403	0.374060337543915	-0.596718316936372	-0.540499778719798	0.00801222821831121	0.300700405504894	0.953684995335551	-0.989404067543744	-0.135877706160762	0.0511550593429824	0.144966876654194	-0.943989679550408	0.296425521127055	9.79126870212516	-72.4939123161404	88.4737025345626
63673	1649162504214	9.2465607215946	0.601974060124539	2.91609771717822	-0.0980914888923636	-0.0515631442200438	-0.0991606688006925	0.066145517569995	0.0541642986755502	-0.00120470731305444	0.349609375	-0.276123046875	0.158935546875	0	0	0	-0.460308519975622	0.37371375329338	-0.596963398421105	-0.540452401218417	0.00794546308979988	0.301213354886364	0.953523667485181	-0.989307853578406	-0.136498465233245	0.0513628254387959	0.145625686142165	-0.943736554249686	0.296908194074454	9.81459193007731	-72.463209718759	88.4889914375702
63674	1649162504215	9.26977004154408	0.624480895254041	2.90839042053846	-0.119268833670942	-0.0354662885104658	-0.0781168657184832	0.0648437395425225	0.0539366384871348	0.00234780985093468	0.350341796875	-0.284423828125	0.165771484375	0	0	0	-0.460349321095176	0.373360873940227	-0.597192169629403	-0.540408801659565	0.00792634068783304	0.301702959816033	0.953369024649714	-0.989208659183573	-0.137119969798926	0.0516172691894887	0.14629901475929	-0.943490030641865	0.297360320755602	9.8475580896523	-72.4338281518087	88.4950713597247
63675	1649162504216	9.24381233624213	0.626439893516593	2.9121948681715	-0.119566132309337	-0.0421505771324457	-0.101595899363275	0.0575735092213879	0.0520420600680941	-0.00619693884512958	0.350341796875	-0.28857421875	0.15478515625	0	0	0	-0.460361052610083	0.37303397030931	-0.597402656719025	-0.540391917019546	0.00791144548064687	0.302202511332104	0.953210916416182	-0.989123756255752	-0.137644466030426	0.0518478136637423	0.14687274710074	-0.943253753300653	0.29782671647002	9.87549112166879	-72.4038372972054	88.5003800231445
63676	1649162504216	9.21747017191411	0.607975756951993	2.9289433907375	-0.0963531850759139	-0.0584534347621086	-0.122620420147662	0.0599835776902514	0.0520122142996545	-0.00371362639718132	0.34130859375	-0.2861328125	0.17333984375	0	0	0	-0.460412182129029	0.372674155166889	-0.597594845208929	-0.54038412041579	0.00798875010072353	0.302694087579515	0.953054284506519	-0.989028971593435	-0.138197952946196	0.052182555996369	0.14750550234029	-0.943015172277671	0.298269193235662	9.9235330405997	-72.3741752083552	88.4881916998158
63677	1649162504217	9.19270604694746	0.617577963022092	2.89847823451034	-0.109100229598896	-0.0341219270698825	-0.154770688779539	0.0526853174237263	0.0412726912621418	-0.00480980525317767	0.349365234375	-0.2900390625	0.158447265625	0	0	0	-0.460440166983519	0.372394066274508	-0.597775009881224	-0.540354096489728	0.00797539393008107	0.303089978618802	0.952928569176366	-0.988950722855226	-0.138680219620614	0.0523857275420112	0.148029932296775	-0.942817194129824	0.298635024063454	9.94943881240287	-72.3504028501779	88.4926885689378
63678	1649162504218	9.19157785531913	0.619500333793271	2.90164411352731	-0.107694864824457	-0.0339917393582961	-0.154754456319761	0.0490395851566892	0.0344548458723261	-0.00492217265595516	0.349609375	-0.280029296875	0.15869140625	0	0	0	-0.460519591150703	0.372098462225471	-0.597902853221656	-0.540348608479037	0.00810982503768504	0.303434686104178	0.952817727588397	-0.988869212871694	-0.139132231448416	0.0527247760232358	0.148566182465506	-0.942639704999234	0.298928881151659	10.0028903820139	-72.3294687540118	88.469034103069
63679	1649162504218	9.21501394274893	0.621431282608532	2.90505680864378	-0.107390765838292	-0.0273045916351829	-0.131275550579664	0.0478621125505449	0.0296899141687379	-0.00632916403632125	0.349609375	-0.28759765625	0.16748046875	0	0	0	-0.46057185924987	0.371860503020873	-0.598043232631671	-0.54031252129082	0.00812811639304845	0.30372352721243	0.952725539041303	-0.988797460244091	-0.139564291258841	0.0529281703845107	0.149041995218581	-0.94248279964308	0.299186657520363	10.0322192670034	-72.3120758355217	88.4670412598108
63680	1649162504219	9.19048549661019	0.610167633339248	2.88577759691127	-0.0961082875881149	-0.0123449587962317	-0.160969855916532	0.0442014491736783	0.0218586206555136	-0.0045337441189266	0.344482421875	-0.283447265625	0.16162109375	0	0	0	-0.460681603010016	0.371604540289781	-0.598126650382416	-0.540302726613936	0.00830915147666206	0.303956169511167	0.952649780883739	-0.988721670737152	-0.139966058499134	0.0532818945135314	0.149533995520992	-0.942348210315229	0.299365052568285	10.0919965235617	-72.2977951693981	88.434113791892
63681	1649162504220	9.18962243308206	0.645482900628891	2.8948737612902	-0.128309519767346	-0.0242060263956332	-0.157168055898055	0.045418283762279	0.0189626000558142	-0.0024118750347853	0.353759765625	-0.28515625	0.1572265625	0	0	0	-0.460752034708294	0.371411828885203	-0.598248261576494	-0.540240532908277	0.0083045417697038	0.304138407543898	0.952591656294898	-0.988653431038242	-0.140386839934261	0.0534408876197259	0.14998475883338	-0.942226811457801	0.299521631752631	10.1163074705245	-72.2868460456319	88.4359193578256
63682	1649162504220	9.2386060083962	0.633732272630552	2.87708848370805	-0.115887392716065	0.0108480098426091	-0.116422723507682	0.0380410925920296	0.0138403590610423	-0.000416711275933492	0.346435546875	-0.284912109375	0.165283203125	0	0	0	-0.460865468212659	0.371200367128536	-0.598306288207402	-0.5402248542452	0.00847974587024297	0.304292992686854	0.952540743754121	-0.988586716676468	-0.140734788598784	0.0537589331078611	0.150414086843008	-0.942124988459458	0.299626615305533	10.1717680813809	-72.2772608589376	88.4037491721566
63683	1649162504221	9.26087611877032	0.640651857843154	2.93310153410777	-0.112997573519102	-0.0349193651837544	-0.0780400727709463	0.0356481018869344	0.0119693811957081	-0.00394321302537749	0.35205078125	-0.28515625	0.1630859375	0	0	0	-0.460933255522366	0.371052274506683	-0.598389393337696	-0.540176709492288	0.00850068704872448	0.304411361261798	0.952502735667693	-0.988532692691173	-0.141058664211004	0.0539033276500276	0.150767548897098	-0.942038309404531	0.299721487073941	10.1953559475745	-72.2701084340056	88.4004310953013
63684	1649162504222	9.23737759520775	0.61551256290013	2.89230262789648	-0.0913442078003712	0.00154834740886527	-0.113972568642209	0.0330478608995439	0.0173695627416404	0.00143864917056756	0.35693359375	-0.291748046875	0.166259765625	0	0	0	-0.461028972037798	0.370839012125416	-0.598447780174474	-0.540176793681347	0.00867736298017874	0.304600149057347	0.952440786908011	-0.98847026326412	-0.14137491730797	0.0542187366020696	0.15116627274055	-0.941929871036271	0.299861428055232	10.2490669679828	-72.258456794762	88.3682153518949
63685	1649162504222	9.26126012413726	0.616653289504814	2.89451037938352	-0.0910252392248995	0.00823630745865319	-0.090494352900885	0.0306988617782246	0.0175404541395037	-0.00588926095328625	0.34912109375	-0.28125	0.16162109375	0	0	0	-0.461070302845734	0.370686157085442	-0.598529254687466	-0.540156162662462	0.00870900845698602	0.304773773490199	0.952384953768297	-0.988423288322623	-0.141646185765982	0.0543669123589205	0.151471305114829	-0.941832949652163	0.300011897557941	10.2714364603946	-72.2479617543439	88.3632001117358
63686	1649162504223	9.30883843534376	0.631432591680761	2.91806778726442	-0.0977429970476168	0.00041307224068874	-0.0372720034866898	0.0295399120485563	0.0166911751111937	-0.0100650772544869	0.351318359375	-0.288818359375	0.162109375	0	0	0	-0.461188627820619	0.37045328879067	-0.598539565248829	-0.540203479463853	0.00902949931183805	0.304968623630391	0.95231959275401	-0.988363999346408	-0.141889123198646	0.0548095020401837	0.15183897041982	-0.94173330371125	0.300138820786223	10.3489692227947	-72.235683369069	88.304084206217
63687	1649162504224	9.28342964978452	0.61281724622965	2.93186639338106	-0.0757406404732242	-0.0158507961248607	-0.0583312543135293	0.0295788842577758	0.0187240763051336	-0.0138725192238492	0.34814453125	-0.291748046875	0.163818359375	0	0	0	-0.461238186962749	0.370282170736855	-0.59860004663252	-0.54021147071611	0.00913819641189362	0.305164668933576	0.952255752516622	-0.988317777314768	-0.142125361882279	0.055030469318613	0.152133048381781	-0.941634167999703	0.300300897843437	10.3842992391853	-72.2236985924766	88.2847828592352
63688	1649162504225	9.30806678036364	0.656134340328567	2.90781035915172	-0.117584518932255	0.0102263115062286	-0.0396607427162952	0.0283781079834923	0.0158347218814099	-0.0142441535934084	0.3486328125	-0.27294921875	0.162353515625	0	0	0	-0.461362050853643	0.370047408126269	-0.598594623818426	-0.540272570196588	0.00949878414941441	0.305356849580061	0.952190615115599	-0.988260174084904	-0.142340931264406	0.0555057438870783	0.152484757983738	-0.941539300136389	0.300419947542301	10.4679501109234	-72.2114783521238	88.2182656154473
63689	1649162504226	9.25804499937321	0.671509647836649	2.92791812199945	-0.128119242239077	-0.0245893308216297	-0.080369694241341	0.0235484725793044	0.0129428974894862	-0.0183664806034236	0.346923828125	-0.279052734375	0.161376953125	0	0	0	-0.461420840051139	0.369899689432189	-0.598618451664823	-0.540297119602614	0.00966033816876022	0.305504799486048	0.952141531158816	-0.988222501215873	-0.142506484614177	0.0557511428901057	0.152718584190363	-0.94146626032689	0.300530056248942	10.509434802794	-72.2022752166828	88.1888590940736
63690	1649162504227	9.25714879178388	0.652911400720554	2.94215039192129	-0.103379093341341	-0.0339217085173256	-0.0779296485213692	0.0184976802441164	0.0134304911910116	-0.010800702769853	0.35107421875	-0.28466796875	0.162353515625	0	0	0	-0.461517522862553	0.369709322820539	-0.598600892536306	-0.540364288388055	0.00998397614863233	0.305670428953017	0.952085032486039	-0.988179752342326	-0.142642904908899	0.0561585144017467	0.152974171940639	-0.941391836879219	0.300633185420782	10.5809487935804	-72.1916875355954	88.1292387269119
63691	1649162504227	9.25824299854056	0.628271806021402	2.90165499876242	-0.0836393958655515	0.00895387304853209	-0.0904286420970468	0.0162084843451378	0.00207442401064136	-0.0145921910942417	0.349853515625	-0.28076171875	0.16943359375	0	0	0	-0.461582150272939	0.369621515973639	-0.598596129860324	-0.540374432033013	0.0101252164911837	0.305710699120353	0.952070611054848	-0.988153475641376	-0.142750816268695	0.0563463666307812	0.153134544009103	-0.941362402530485	0.300643706957518	10.6151762361371	-72.1889859784586	88.103042558898
63692	1649162504229	9.25734404252344	0.643435924786637	2.92238666936131	-0.0907166727199556	-0.0122080631668841	-0.0841523540821587	0.0162489318271122	0.00410696390262565	-0.0183997641102501	0.3505859375	-0.29052734375	0.164306640625	0	0	0	-0.461727585154426	0.369431161612825	-0.598527303237144	-0.540456585875806	0.0105713682181405	0.305802929457432	0.952036141388156	-0.988109161986569	-0.142854591225733	0.0568581547707038	0.153390124102555	-0.941316702338263	0.300656507873722	10.7089270006215	-72.1825304044652	88.0201181138045
63693	1649162504229	9.2339196663586	0.652871708263349	2.88783343916343	-0.103518683253957	0.012116807925147	-0.116284288077813	0.0138358254604992	-0.00267776312241557	-0.0172303268471793	0.34765625	-0.291748046875	0.1630859375	0	0	0	-0.461804918706793	0.369357107928041	-0.598500034800616	-0.540471324146718	0.0107460703333896	0.305802354220122	0.952034370243964	-0.988086071022062	-0.142932149196253	0.0570641479242812	0.153526669424481	-0.941305115719431	0.300623087762492	10.7479895669635	-72.1821987608375	87.987421550874
63694	1649162504230	9.25783940128833	0.634569606768357	2.90157230904002	-0.0780445885451655	0.00945719091391049	-0.0903825971383689	0.0126657834736217	-0.000648778261237784	-0.0222893891159255	0.353759765625	-0.28125	0.16064453125	0	0	0	-0.461960476319797	0.369186777658654	-0.598397244211264	-0.54056857071122	0.0112437226447697	0.305850086725306	0.952013289377418	-0.988048885357957	-0.142973487122498	0.0576019281181842	0.153730214479741	-0.941283329518884	0.300587283040812	10.8481493798835	-72.1782518642452	87.8946290841045
63695	1649162504230	9.28328452835065	0.644521919267136	2.8683217386506	-0.090160060195924	0.0471606156646479	-0.0755575907153325	0.010294608810137	-0.00540081197903168	-0.0249262979923963	0.35107421875	-0.28515625	0.165771484375	0	0	0	-0.462050422970226	0.369113092698518	-0.598336396089378	-0.540609367793739	0.011498163826621	0.305834800425328	0.95201516115943	-0.988030242846122	-0.142994072504379	0.0578699788322554	0.15383117840688	-0.941285169370798	0.300529862863141	10.8994575343615	-72.1786022772029	87.8469221695443
63696	1649162504231	9.30653103084802	0.639853196548509	2.90241043851306	-0.0744007397871787	0.0229672316820257	-0.0434061849092266	0.0102772685528062	-0.00252442970416946	-0.0258136171403292	0.34716796875	-0.279541015625	0.167724609375	0	0	0	-0.462217792082717	0.368946891058693	-0.598209152298372	-0.540720551086017	0.0120480033691759	0.305860330229085	0.952000159667514	-0.987995599752814	-0.142998954422717	0.0584465046267764	0.154011494648596	-0.941276132400139	0.300465808520605	11.007692905062	-72.175794062129	87.7442545434904
63697	1649162504231	9.23431763875488	0.64982079172416	2.86601070347961	-0.0879394118244697	0.0339081048102478	-0.122484944853594	0.0102948834338104	-0.00151240132483904	-0.0277197925404326	0.35009765625	-0.2880859375	0.1630859375	0	0	0	-0.462301318561454	0.368856221836039	-0.598149591853027	-0.540776889516593	0.0123243067578014	0.305885516067006	0.951988530667971	-0.987976386924593	-0.143010886755203	0.0587413410548138	0.154112849374629	-0.941266135229517	0.300445156938368	11.0625970649476	-72.1736174576929	87.6927673833077
63698	1649162504231	9.25746758450756	0.64536151046401	2.90037815647692	-0.0724372221608963	0.00962583796980459	-0.0903393673434944	0.00660746957031323	-0.000678417044095414	-0.0285521800472969	0.3486328125	-0.279541015625	0.1689453125	0	0	0	-0.46245706602875	0.368693894400226	-0.598023164247327	-0.540894231190988	0.0128662145112204	0.305924365985835	0.951968877022939	-0.987944752654004	-0.14299648579261	0.0593057396411364	0.154271274797253	-0.941255697112708	0.300396548624151	11.1679913440793	-72.1699394615798	87.5917393431451
63699	1649162504232	9.23400604281931	0.655208261291448	2.86578801540853	-0.0852705166151162	0.0339483608395969	-0.122461232915793	0.00405608591984455	-6.87032997651564E-06	-0.0233061306945275	0.34765625	-0.28857421875	0.160888671875	0	0	0	-0.462511021527722	0.36862795484796	-0.597967548065731	-0.540954524271913	0.0130964847297358	0.30595751706707	0.951955082888829	-0.987935484908689	-0.142963267148719	0.0595397506242509	0.154311243096405	-0.94124996785993	0.300393971739988	11.2110381108712	-72.1673584565503	87.5489554278593
63700	1649162504233	9.23232861571576	0.684030096012356	2.90700685948336	-0.102405094242879	-0.00895424516287333	-0.109908886757061	0.00897069279657043	0.00406659498169485	-0.0259216308199535	0.35107421875	-0.2861328125	0.16162109375	0	0	0	-0.462652815727679	0.368456959247097	-0.597863408443272	-0.541064863141405	0.0135976280539529	0.306030467192969	0.951924607130711	-0.987901065873481	-0.142976566112312	0.0600764978071378	0.154488150216597	-0.941224231887591	0.300383682563267	11.3098886940485	-72.1616574523953	87.4558918443702
63701	1649162504233	9.28075652407329	0.686940678719853	2.90917373991381	-0.101666465725122	0.00442639448979051	-0.0629558469161839	0.00649442263541289	0.00879770460168189	-0.0282937210921078	0.354736328125	-0.281494140625	0.1650390625	0	0	0	-0.462696153025929	0.368348353053288	-0.597819202700932	-0.541150590556786	0.0138633833699058	0.306153697313207	0.951881148160311	-0.987887161037979	-0.142951058285944	0.0603651554396343	0.154553433018686	-0.941188030393705	0.300463521555873	11.3598795784405	-72.1535307673717	87.4072790300157
63702	1649162504234	9.32862300365711	0.72391150460664	2.91919926976706	-0.130112322858703	0.00590739436751862	-0.0120744118927902	0.00894930083061179	0.0147239605660622	-0.032395200654435	0.34716796875	-0.27880859375	0.166259765625	0	0	0	-0.462825415262649	0.368129425411265	-0.597705223655897	-0.541314905344184	0.0144583835216529	0.306334184761294	0.951814226828205	-0.98785280150677	-0.142917798797178	0.0610028306080534	0.154718446544574	-0.941134352807081	0.300546722266657	11.4736200529181	-72.141023693966	87.2977549274124
63703	1649162504235	9.35182274168383	0.760997533250299	2.9291378282812	-0.161925246478645	0.000734579840573416	0.0152998469466201	0.00271010938138049	0.02401470100383	-0.0335642699097638	0.352294921875	-0.289306640625	0.16259765625	0	0	0	-0.462822770016769	0.367978760134905	-0.597674841480278	-0.541453136942717	0.0147528319022057	0.30660793743653	0.951721559413142	-0.98784373372842	-0.14284026516894	0.061330387084717	0.1547485433998	-0.94105697561167	0.300773431287168	11.5251205789395	-72.1237188563245	87.2452650917903
63704	1649162504236	9.25250375819035	0.776667408404267	2.94866932732041	-0.170445347063556	-0.047497730127304	-0.0722879816952364	0.00259502382663157	0.025709455916382	-0.0277212237821029	0.353759765625	-0.277099609375	0.16796875	0	0	0	-0.462892010345601	0.36775940779642	-0.59759543809189	-0.541630591000172	0.0152654206979755	0.30688615742865	0.951623798204727	-0.98781772382222	-0.142778641740061	0.0618902574364594	0.154864816642134	-0.940975635094523	0.300968009470869	11.6201653569781	-72.1054803446432	87.1522865027834
63705	1649162504236	9.20321039243563	0.799061061926829	2.93591657719993	-0.19354817518131	-0.051303670143251	-0.12160420351994	-0.00363978530847931	0.01943479635781	-0.0177208312674549	0.3564453125	-0.277099609375	0.167724609375	0	0	0	-0.462856644264375	0.367676782818544	-0.59758566944661	-0.541727678735889	0.0154103020965043	0.307094111371663	0.951554375403814	-0.987820678848913	-0.142689810935261	0.0620477581684542	0.154831615078336	-0.940921263770836	0.301155020473055	11.6418933693796	-72.0925396090558	87.1272478678234
63706	1649162504237	9.1553574614294	0.773539355662572	2.89474321256131	-0.171012443130816	-0.0216605084083765	-0.181033453169702	-0.0135029208190909	0.0131448442803162	-0.0114753058047422	0.34619140625	-0.282958984375	0.16552734375	0	0	0	-0.462914458386916	0.367542257300125	-0.597484342877622	-0.54188130926539	0.0158502982296488	0.30724994602341	0.95149684114801	-0.987812445912978	-0.142554671535111	0.0624878974117145	0.154839722763416	-0.940890873742608	0.301245786630154	11.7187640071546	-72.0818218043364	87.0468640642397
63707	1649162504238	9.15363425259319	0.745553410123922	2.94245569675046	-0.136189572565897	-0.0622502888865025	-0.170048061152135	-0.0209613120456081	0.00196414840186284	0.00197282274219171	0.3564453125	-0.279052734375	0.1650390625	0	0	0	-0.462848442362996	0.367603869348276	-0.597455504061994	-0.541927703027215	0.0158286318124094	0.307265621285647	0.951492139952239	-0.987845134623485	-0.142363519863645	0.0624068763257783	0.15463325779293	-0.940914696552232	0.301277429284648	11.7027936794879	-72.0809463131681	87.0510438790737
63708	1649162504238	9.17964743101518	0.718559274758798	2.90219241242321	-0.112837465080398	-0.0124739628477198	-0.159082479008678	-0.0159689598090513	-0.00546987857567304	0.00290698528470715	0.35400390625	-0.282470703125	0.15966796875	0	0	0	-0.462911821839461	0.367574135801475	-0.597348651426347	-0.542011520661872	0.0161276866578488	0.307230876119973	0.951498337613693	-0.987848527579678	-0.142225532319208	0.0626672523346972	0.154580672406769	-0.94094690961556	0.30120379978214	11.7530580518821	-72.0821004958361	86.9950903855062
63709	1649162504239	9.20368312246985	0.677158049293451	2.92842741793302	-0.0677559724789463	-0.0249340332870734	-0.130910644795744	-0.0193890053882606	-0.0176890131073892	-0.00505797139137729	0.355224609375	-0.2783203125	0.165771484375	0	0	0	-0.46292174715884	0.367667932322701	-0.597258112972211	-0.542039199724366	0.0162060760608471	0.307071655958479	0.951548401924794	-0.98787758237889	-0.142027595007439	0.0626581558110639	0.154386674722758	-0.941028777648867	0.301047495097914	11.7573310295005	-72.0914265471671	86.9789490992893
63710	1649162504240	9.17979142284811	0.677176923880874	2.92596698060569	-0.0647186346932968	-0.0314473695684046	-0.15436223834911	-0.014382034437782	-0.0202200288640715	-0.00882373145237564	0.3486328125	-0.281982421875	0.1689453125	0	0	0	-0.463054100562477	0.367651977079894	-0.597071427991947	-0.542142632133997	0.0166754672498054	0.306910239953624	0.951592367247452	-0.987881262220609	-0.141826780344134	0.063053755880454	0.154313124994006	-0.941111719717072	0.300825847403042	11.8379471504692	-72.0996203458344	86.8899852503603
63711	1649162504240	9.20487413103588	0.677898925477582	2.92451004888719	-0.0642920005371715	-0.0247585052703774	-0.130886572131173	-0.0117358787862256	-0.0313986849488728	-0.0124373457515786	0.3544921875	-0.27587890625	0.163818359375	0	0	0	-0.463139444620004	0.367742977418407	-0.59694291367962	-0.542149532144228	0.0168485207342617	0.306632086087501	0.951678985336281	-0.987897199385371	-0.14167797471048	0.0631385375858203	0.154192252709423	-0.94122479528727	0.300533914793039	11.8646023497518	-72.1157739463504	86.8549300301078
63712	1649162504242	9.22900174458718	0.671858238073415	2.95618264043995	-0.0482898336969259	-0.0487538263479123	-0.0987709183657195	-0.00669711222169048	-0.0319047110091132	-0.0200171940331406	0.34765625	-0.280029296875	0.160400390625	0	0	0	-0.463345561965733	0.367698632027985	-0.596743265592384	-0.542223276134053	0.0173903819497718	0.306393118378795	0.951746201266787	-0.987879235542947	-0.141583269646406	0.0636301323220023	0.154247173713892	-0.941316862042931	0.300217212422815	11.9665793261116	-72.1283189271303	86.7514688623937
63713	1649162504243	9.23044895349521	0.714807217448947	2.92692922810008	-0.0929398910611363	-0.0296024424532684	-0.103437303365023	-0.00785798358314869	-0.0327703094378429	-0.0241986444875791	0.35595703125	-0.29052734375	0.169189453125	0	0	0	-0.463467209937596	0.367754234523053	-0.596586745129401	-0.542253837090094	0.0176821570525413	0.306118845372745	0.951829078054262	-0.987886961441287	-0.141435198302866	0.0638391423448793	0.154164498949239	-0.941428349471529	0.299909936606047	12.0166904191388	-72.1437985402286	86.6941320702688
63714	1649162504245	9.25589176823763	0.737638518325907	2.91174470211384	-0.111931838349958	-0.0129976519838475	-0.0822607793007304	-0.0103063100524246	-0.0299134323360296	-0.0275923953420202	0.355712890625	-0.282470703125	0.166259765625	0	0	0	-0.463659410049531	0.367710392514007	-0.59636026424743	-0.542368374756909	0.0182870049278603	0.305909127254706	0.951885072533986	-0.987878661903211	-0.141251226601487	0.0643726676462636	0.154147120657797	-0.941524135030982	0.299618037419431	12.1256163403922	-72.1542644653293	86.5789749535002
63715	1649162504245	9.23186770182415	0.719034195657314	2.92141410113536	-0.0899995970871343	-0.0292669357050128	-0.103408586104663	-0.0128031957105089	-0.0300983708800949	-0.0252701137346252	0.353271484375	-0.281982421875	0.162109375	0	0	0	-0.463761488651845	0.367771074383806	-0.596197937324522	-0.542418416003727	0.0185849127531337	0.305661359697867	0.951958893128064	-0.987893603455157	-0.141053397653178	0.0645768322456309	0.154015678651053	-0.941634256066625	0.299339436980012	12.173913469081	-72.1680713500289	86.5205685080264
63716	1649162504247	9.28010978751662	0.768165698649033	2.94843603605635	-0.128007913401279	-0.0488375322223179	-0.0461619130222708	-0.0153057627775439	-0.026389422128475	-0.0257367161338975	0.35791015625	-0.28173828125	0.16748046875	0	0	0	-0.463931479851165	0.367732483089854	-0.595966937698053	-0.542553049990951	0.0191924601027491	0.305482009345253	0.952004407259542	-0.98789270962213	-0.140818017652174	0.065102075081806	0.153946886134957	-0.941727682438453	0.299080805767357	12.2802318052523	-72.1765891497294	86.4050140413341
63717	1649162504247	9.28133549185312	0.75725084671057	2.92578469154558	-0.118141977865806	-0.0274020197710286	-0.0524555929802659	-0.0177270199204392	-0.0215055035006423	-0.0329394757827696	0.35205078125	-0.28564453125	0.1669921875	0	0	0	-0.464008735528786	0.367766666343662	-0.595794502779691	-0.542653188451839	0.0195531791679397	0.305325681551437	0.952047215934996	-0.987913464830474	-0.140550392379045	0.06536492338207	0.153768199544229	-0.941818355834737	0.298887144958894	12.3360431498532	-72.1846042292843	86.3357590503682
63718	1649162504248	9.25701910383447	0.738823382241384	2.9364144921291	-0.0929586840794501	-0.0431916913902062	-0.0735762463531486	-0.0166073312770412	-0.0187857824344865	-0.0277437926062525	0.3515625	-0.278076171875	0.16552734375	0	0	0	-0.464164837020773	0.367687014697677	-0.595587320661532	-0.542801074762575	0.0201640053798552	0.305236109036481	0.952063196761281	-0.987905642043688	-0.140346504918606	0.0659188969520886	0.153739569744713	-0.941877792655396	0.298714526592379	12.444315094059	-72.1875972180708	86.2205120039883
63719	1649162504249	9.25639110125455	0.73351356195644	2.96837525914396	-0.0804363006261016	-0.0742022277888009	-0.0649648903575279	-0.0190141042601442	-0.0216912900689702	-0.0293685835111469	0.351806640625	-0.2822265625	0.160888671875	0	0	0	-0.464232537069339	0.367733595684043	-0.595421795605445	-0.542893211828475	0.0204897758465459	0.305073101837768	0.952108487316882	-0.987928702197903	-0.140077926311695	0.0661441904764319	0.153548195884307	-0.941970581862989	0.298520308262899	12.4933831077244	-72.1960821606335	86.1575858742981
63720	1649162504250	9.28216008512171	0.743064760045358	2.93382329250132	-0.089841009299689	-0.036006922169075	-0.0500754224572279	-0.0167026240931192	-0.0160789169174635	-0.0238017601488628	0.34912109375	-0.286376953125	0.15869140625	0	0	0	-0.464345976960133	0.367683273733169	-0.595234801067555	-0.543035316987642	0.0210090836298567	0.305002539852534	0.952119776650258	-0.987931535666647	-0.139843309441982	0.0665967689881033	0.153459764239277	-0.942028290173824	0.298383647795599	12.5817326523018	-72.1981977659335	86.0595952754154
63721	1649162504250	9.28143359706669	0.737157035409848	2.96628170017149	-0.0773141665901724	-0.0670169933457553	-0.0414659326744662	-0.0167925336976441	-0.0133631249769142	-0.0198541342355302	0.35595703125	-0.284912109375	0.160400390625	0	0	0	-0.464377438107502	0.367722628567131	-0.59511843518563	-0.543109299790199	0.0212282330837732	0.304904528875491	0.952146307240309	-0.987952897628135	-0.13962471384216	0.0667383799074278	0.153291989967885	-0.942092441088299	0.298267326832786	12.6123915100678	-72.2031705193541	86.017348038196
63722	1649162504251	9.33049090950703	0.738848286285769	2.96668019021603	-0.0739807721490453	-0.0532515656395269	0.00550186128975305	-0.0155811186502925	-0.0133575706585746	-0.0186043361529838	0.357666015625	-0.286376953125	0.1728515625	0	0	0	-0.464458003667475	0.367702606631921	-0.594935099822942	-0.543254804768425	0.0216940401495132	0.304837865769213	0.952157153108279	-0.98796754024757	-0.139338020344221	0.0671197102475777	0.153132321993616	-0.94215645817445	0.298147111810627	12.6870797728409	-72.2052037986677	85.9293609802828
63723	1649162504252	9.35610100797661	0.747668918379676	2.93274282833394	-0.0860084222509206	-0.0155467890972845	0.0203679144549884	-0.0180973413185127	-0.0106596943790421	-0.0171591715365184	0.367431640625	-0.27880859375	0.160400390625	0	0	0	-0.464472770877729	0.367745205336779	-0.594829789359079	-0.543328658139812	0.0218819712856873	0.304760873548565	0.952177498834418	-0.987991411547657	-0.139114866391604	0.0672311286303782	0.152951463022491	-0.942214340743528	0.298057018129951	12.7111732268204	-72.2090186268235	85.8931842261762
63724	1649162504253	9.33091110634804	0.740863600796591	2.96485541736455	-0.0700193499780632	-0.0526465482963463	0.00553417450013072	-0.0157205642075553	-0.00978930604851739	-0.0117280645430041	0.350830078125	-0.2822265625	0.15771484375	0	0	0	-0.464586383059024	0.367659844579514	-0.594668479221084	-0.543465850979419	0.0223912770093015	0.304744507442569	0.952170896371801	-0.987983536999526	-0.138942215005967	0.0677022267517268	0.152928615150335	-0.942245109338765	0.297971462719803	12.8008724333417	-72.2077805768738	85.7977112111146
63725	1649162504254	9.25796048180586	0.740599582579408	2.96171393164582	-0.0713729239717438	-0.0727469274331069	-0.0648833455302569	-0.0194503161889006	-0.0120111188451089	-0.00684206521517471	0.3525390625	-0.283447265625	0.157470703125	0	0	0	-0.46458283311768	0.367733765744761	-0.59458529854831	-0.543509881652343	0.0224804005627883	0.30464038104696	0.952202116058402	-0.988011559937899	-0.138737772154866	0.0677125395077146	0.15273437406038	-0.942308903074288	0.297869337407053	12.8070028036085	-72.2136354202853	85.7796083673891
63726	1649162504255	9.26143132797784	0.708634252122637	2.86544906465019	-0.0523691425592493	0.0229434605781988	-0.0924094796632122	-0.0207520015211479	-0.00930293951690467	-0.00414302065560984	0.35888671875	-0.277587890625	0.161376953125	0	0	0	-0.464592569248838	0.367769671592948	-0.594443820531365	-0.543632005576615	0.0227640257769783	0.304591259481845	0.952211092026179	-0.988043485950522	-0.138419422338324	0.0678979630789212	0.152485635392869	-0.942371597708032	0.297798426510358	12.8438685511663	-72.2153190907121	85.7258709713006
63727	1649162504255	9.25990638378866	0.714177352760492	2.91914887366784	-0.049676169714819	-0.0295146098462979	-0.0774931253476652	-0.0232071570662213	-0.00644391591448939	-0.0075298141144047	0.348388671875	-0.281982421875	0.158935546875	0	0	0	-0.464563460484619	0.367838493931777	-0.594364558447052	-0.543696979232549	0.0228512280880865	0.304539782700307	0.952225468115465	-0.988077077261894	-0.138176874310806	0.0679031722034361	0.152254756130835	-0.942423828305793	0.297751267129117	12.8467881773742	-72.2180160122914	85.7088365465779
63728	1649162504256	9.35707646091523	0.674288437715621	2.9481924753701	-0.000759427505649286	-0.0214249720506232	0.0209754340589185	-0.020708463586004	-0.00033812480116687	-0.0164557944710436	0.3447265625	-0.28173828125	0.161376953125	0	0	0	-0.464588276713632	0.367795719983335	-0.59421909148003	-0.543863689560946	0.0232599593651747	0.304601215540351	0.952195921951817	-0.98809553445918	-0.137877191078189	0.0682429114429929	0.152072972852371	-0.942447865757957	0.297768083004396	12.9082116754322	-72.2124736484144	85.633253999264
63729	1649162504257	9.30825346962245	0.695554258061765	2.93411080648954	-0.0240143654180978	-0.0252616133034382	-0.0282522962962144	-0.0220009843136526	0.00829462164009528	-0.0203508532016688	0.354736328125	-0.28271484375	0.158447265625	0	0	0	-0.464542360957894	0.367791142048914	-0.59414116552328	-0.543991126891478	0.0234519025219884	0.304705913397644	0.952157715196704	-0.988124175264856	-0.137606659387391	0.0683741292404647	0.151857243901133	-0.942453560464785	0.297860141412042	12.928335397394	-72.2053091797423	85.5988671570299
63730	1649162504259	9.30727509202115	0.730592190405663	2.94270361131058	-0.0546468020380323	-0.036662136442976	-0.0242090114903437	-0.0208029439498647	0.0121974765147946	-0.0218857559903072	0.35302734375	-0.2763671875	0.157958984375	0	0	0	-0.464516649571766	0.367721823998542	-0.594032673676264	-0.544178394491031	0.0238116855204292	0.304893673956284	0.952088678230193	-0.98814531258917	-0.137301070248698	0.0686822925986991	0.151663591018831	-0.942437405714566	0.298009884851613	12.9783296115644	-72.1923705532259	85.5343599823165
63731	1649162504261	9.25777025758638	0.710533383308554	2.9555803482906	-0.0332360105998435	-0.0596625075350651	-0.0688709329338906	-0.0282756654726895	0.0116402341132609	-0.0149016803827009	0.3525390625	-0.28173828125	0.162109375	0	0	0	-0.4644335256449	0.367739667680359	-0.593965815306014	-0.544310249140368	0.0239442941244019	0.30502210105961	0.952044215698024	-0.988184622580702	-0.136987778990179	0.0687422730375749	0.151386335162454	-0.942441439174084	0.298138074142774	12.9838837449172	-72.184042380439	85.5114749377287
63732	1649162504262	9.28243268938299	0.698118401231658	2.93719236577326	-0.0209134474364604	-0.0310561332499433	-0.0517128809451925	-0.0283541267462937	0.0153689351098349	-0.0128543692917274	0.359130859375	-0.28173828125	0.161865234375	0	0	0	-0.464374586314795	0.367691803629425	-0.593863529449472	-0.544504443984179	0.024257691867113	0.305229203407224	0.951969903816645	-0.988216120214243	-0.136635296050443	0.0689905473374163	0.151130619445527	-0.942425556349466	0.298317962257407	13.0215910974504	-72.1701315982586	85.4560434209835
63733	1649162504263	9.25769587692311	0.697937099571794	2.93748326457088	-0.0213662073333952	-0.0377784813054624	-0.0751839180159273	-0.0331825934862059	0.00261294612926912	-0.00761402232820137	0.351806640625	-0.284423828125	0.169189453125	0	0	0	-0.464291623799809	0.367765708051177	-0.593786293479328	-0.544609502053567	0.0243324433153944	0.305262239698084	0.951957403047433	-0.988264390773956	-0.136297748509165	0.0689667867854931	0.150802606510917	-0.942463733395531	0.298363344101905	13.0153466452858	-72.1677925535522	85.4425910614206
63734	1649162504264	9.23372594249651	0.663802971953252	2.92962150099132	0.0125478451419444	-0.0318831262824048	-0.102700888715326	-0.0307061712683982	0.00177863175719498	-0.00804063446723115	0.35595703125	-0.285400390625	0.1630859375	0	0	0	-0.4642754914854	0.367734058540082	-0.593689714412853	-0.544749899675085	0.0246083703800493	0.305365003199827	0.951917350891351	-0.988284646258298	-0.136038417987249	0.0691881984274633	0.150624984904065	-0.942467911205626	0.298439860391259	13.0524692875143	-72.1603003103384	85.3926763124831
63735	1649162504265	9.20907303412945	0.642842094391769	2.94208282054487	0.0344320666921274	-0.0481830930537431	-0.123899189442293	-0.0318592071664513	-0.00298669611073744	-0.00944488502018439	0.345703125	-0.285400390625	0.16162109375	0	0	0	-0.464216081703002	0.36781477369135	-0.593597041936305	-0.544847018480565	0.0247096881176986	0.305348090884808	0.951920151434	-0.988330223026707	-0.13570803741444	0.0691859728059084	0.150309020238657	-0.942521019380536	0.298431443485386	13.0524193098255	-72.1608240869303	85.3735340608835
63736	1649162504266	9.23524787984162	0.637605214699879	2.88844185453832	0.0333591350961507	0.0115749207150081	-0.115358175756528	-0.0305976182957763	-0.00383152402291624	-0.0111250856877685	0.355224609375	-0.277099609375	0.1591796875	0	0	0	-0.464182755542613	0.367838477656277	-0.593489102148874	-0.54497698065414	0.0249310799720728	0.305387241574279	0.951901819483017	-0.988364354186641	-0.135389889825219	0.0693215774945996	0.150047807796885	-0.942554088854729	0.298458447624759	13.0759811127664	-72.1573957904028	85.3328603459487
63737	1649162504266	9.25824316639281	0.664054927135358	2.93000876997091	0.0142057727206763	-0.0245974140504172	-0.0792306281715334	-0.0317617609236545	-0.00961334391499986	-0.0106270909289995	0.3466796875	-0.286865234375	0.1650390625	0	0	0	-0.464145095810175	0.367934419582986	-0.593378255356	-0.545064986026588	0.0250530179136018	0.305309508069786	0.951923552905172	-0.988409333786611	-0.135056847787934	0.0693299123690152	0.149730875830368	-0.942627048279314	0.298387185842989	13.08051509513	-72.1614602732849	85.308946201068
63738	1649162504267	9.28310259377588	0.61008742585244	2.93590797696099	0.0703692577827797	-0.0150049718800478	-0.0575564504723864	-0.0257192413915887	-0.00176214928287595	-0.00992259191206524	0.345947265625	-0.282470703125	0.15966796875	0	0	0	-0.464119845186546	0.367937236018809	-0.593288989324442	-0.545181744743198	0.0252607309944416	0.305366706634826	0.951899716329734	-0.988434598712487	-0.134798111099203	0.0694731121526317	0.149529059174836	-0.942645555722345	0.298429919309712	13.1047888733838	-72.1570025160545	85.2711106049941
63739	1649162504268	9.28270731985784	0.664658043758737	2.93048271777962	0.015872743056459	-0.0172917976189402	-0.0557614372395552	-0.0257106257628873	-0.000749784964332791	-0.0118288498084012	0.354248046875	-0.28076171875	0.15966796875	0	0	0	-0.464074440139591	0.367988263291751	-0.593206699301992	-0.545275493665249	0.0253808999655134	0.305374257084734	0.951894097590109	-0.988470046144974	-0.134518548175279	0.0695106327907356	0.149274169872399	-0.942683044987424	0.298439104177291	13.1112323897394	-72.1559518937888	85.2488342767725
63740	1649162504269	9.28252477959769	0.64430716259914	2.94340823479503	0.0390174307299091	-0.0264431550187337	-0.053495365342247	-0.0305701690488884	-0.00571792361878791	-0.0121638184202846	0.362060546875	-0.2880859375	0.1591796875	0	0	0	-0.464036581292866	0.368038786139301	-0.593083868774241	-0.545407212749262	0.0255979529937787	0.3053775193829	0.951887238835606	-0.988511359795929	-0.134156848356383	0.069622062548333	0.148963204708176	-0.94273353111822	0.298435006238279	13.1316967848433	-72.1546694879558	85.2084424709977
63741	1649162504269	9.28417492987357	0.639197206024666	2.88930894484977	0.0363528800473039	0.0259833449339996	-0.0684281983221115	-0.0282522988550721	0.0058325545669742	-0.0131615823113652	0.3515625	-0.280029296875	0.16455078125	0	0	0	-0.463967035011652	0.368076485790917	-0.593008547990965	-0.545522825406924	0.0257211252349123	0.305448685641137	0.95186108448489	-0.988550108720817	-0.133849095135713	0.0696642108934815	0.148684586506842	-0.942754220447436	0.298508582060612	13.1362445792353	-72.1497801335538	85.1866110290691
63742	1649162504270	9.28274705584691	0.611381977201216	2.93676273062847	0.0727114237745011	-0.0142022412437554	-0.057572425318833	-0.0270284501787004	0.00685672023665801	-0.0138137339979008	0.35205078125	-0.27880859375	0.166259765625	0	0	0	-0.463929380040767	0.368055913602285	-0.592903467273657	-0.545682923768238	0.0260006459145255	0.305570691432739	0.951814330081947	-0.988578498704122	-0.13352998234027	0.0698734263945267	0.148447021903208	-0.942759935696	0.298608749594755	13.170056160835	-72.1410429847556	85.1364852908141
63743	1649162504271	9.2338091616847	0.632016856154913	2.9231572721422	0.0493865387015248	-0.0180571606270592	-0.106773692279512	-0.0258430982950279	0.00974730844928402	-0.0134369863121721	0.352294921875	-0.279541015625	0.168701171875	0	0	0	-0.463855336132725	0.368075189060356	-0.592840772875028	-0.545800971377222	0.0261209464302442	0.30567885832701	0.951776303408256	-0.988613420501843	-0.133243909683729	0.0699254269621705	0.148193120492268	-0.942765345196826	0.298717764678759	13.1748734950394	-72.1339398635374	85.1158118807724
63744	1649162504272	9.23307419767933	0.591209906432908	2.95020414530583	0.09527151846364	-0.0361081970263991	-0.102254198497944	-0.0221474687677293	0.00893212657570674	-0.0126074281553418	0.354248046875	-0.28125	0.1533203125	0	0	0	-0.463830515927541	0.367977803730857	-0.592827974124082	-0.545901622594898	0.0262946581147022	0.305892836879232	0.951702770459668	-0.988610175096699	-0.133167508819345	0.0701165906909599	0.14818404991734	-0.942706734324533	0.298907176911612	13.2015525740699	-72.1202121574532	85.0869116999105
63745	1649162504273	9.23366361769851	0.599429836628332	2.91762979800787	0.0827743817627411	-0.00510511720459383	-0.110855280253476	-0.0160370709569003	0.0120435696609899	-0.0120454528822509	0.360595703125	-0.280029296875	0.1572265625	0	0	0	-0.463773856402967	0.367964173588592	-0.592792857947799	-0.545997073836908	0.0263979890426902	0.306022004055208	0.951658383669548	-0.988630659268456	-0.132979124633598	0.0701852688681928	0.148028935444799	-0.942691405204119	0.29903235414477	13.2086923039596	-72.1119306166913	85.0697712287702
63746	1649162504274	9.23230040332762	0.592527613743009	2.95236060114102	0.0965519503564798	-0.0363759841141937	-0.102267845026214	-0.0135173004561123	0.00935268848064555	-0.0134985104241409	0.357177734375	-0.286376953125	0.151611328125	0	0	0	-0.463743884985459	0.367965271452558	-0.592663512319795	-0.546162182239125	0.0267030403392196	0.306097505397891	0.9516255906741	-0.988664083490444	-0.132616859393286	0.0703995640658572	0.147750728095138	-0.942717924828975	0.299086336286877	13.2452953301897	-72.1058145892153	85.0143077621473
63747	1649162504275	9.23279479625865	0.580368925539599	2.93246916689301	0.106409172807096	-0.0149641325628467	-0.108607996709766	-0.00364888248408131	0.00589308350806029	-0.0103520840282368	0.355224609375	-0.288330078125	0.15478515625	0	0	0	-0.46373654364111	0.36793612001148	-0.592640769719352	-0.546212731222138	0.0267998593147024	0.306165017774306	0.951601150394413	-0.988666716073684	-0.1325493276835	0.0704897173971392	0.147715578287426	-0.942705498881761	0.299142859365388	13.2592409307862	-72.1012576920348	84.9974201754566
63748	1649162504277	9.25635410328017	0.61514938805049	2.94144326686105	0.0749270030825515	-0.0206735954388486	-0.0810612386898715	-0.00364929466597024	0.00589232698961199	-0.0103525178492219	0.353515625	-0.275146484375	0.158203125	0	0	0	-0.463700712171717	0.36798078132678	-0.592531736715375	-0.54633134185276	0.0269925711183887	0.306171416886649	0.951593644675101	-0.988703218353579	-0.132224418966992	0.0705878817228339	0.147435908521954	-0.942749047472584	0.299143588211151	13.2770210854938	-72.0998584737224	84.96173700503
63749	1649162504278	9.23179061823209	0.615723415914322	2.94100996907358	0.0744373885622916	-0.0274193335489736	-0.104529958041894	0.00377756628348593	0.00139210272069145	-0.00781169674250925	0.3642578125	-0.27587890625	0.15869140625	0	0	0	-0.463722240730219	0.367949014721605	-0.592518579360356	-0.546348733988036	0.0270705113563704	0.306191268233483	0.951585043321129	-0.988695834558199	-0.13223316687014	0.0706748633303246	0.147471129859953	-0.942741373249877	0.29915041203509	13.2925087311292	-72.0982551369601	84.9475902614279
63750	1649162504279	9.28052739367925	0.617345666609181	2.94252474148335	0.0772425203412731	-0.0139260775207845	-0.0576068528458204	0.00879118259535425	-0.00110177141963153	-0.0115897583614987	0.35546875	-0.279541015625	0.16162109375	0	0	0	-0.463808369197595	0.367865587780152	-0.592435884560373	-0.546421475305097	0.0273892640246628	0.306201103425865	0.951572757321777	-0.988677656834773	-0.132196961305128	0.0709961569198899	0.147534128566547	-0.942743256503314	0.299113411978862	13.3523707634858	-72.0959652041478	84.8885752849319
63751	1649162504280	9.28045414160691	0.618599017686837	2.9424925450532	0.0772821057004306	-0.0139692432209549	-0.0576072280879298	0.0124098734562273	0.00181980840252695	-0.00869866840731537	0.3564453125	-0.2861328125	0.159912109375	0	0	0	-0.4638545856203	0.367804756928063	-0.59243637174074	-0.546422665725696	0.0274776124395129	0.306225476810785	0.951562366934838	-0.988657169266953	-0.132283862324625	0.0711194869605726	0.147654943945942	-0.942723149774358	0.299117168360216	13.37457093921	-72.0940288071813	84.872581297856
63752	1649162504281	9.28031270019655	0.61969055757011	2.9427089522097	0.0777642046251845	-0.0136931206139524	-0.0576106678068449	0.0160282113562228	0.00474135830791554	-0.00580793716304934	0.347412109375	-0.277587890625	0.158935546875	0	0	0	-0.463896106618648	0.367716290511915	-0.592446026925336	-0.546436489572761	0.0275848697450831	0.306303943411362	0.951534008436796	-0.988632565446277	-0.13238378511111	0.0712754093553168	0.147799612652602	-0.942683630753343	0.299170263912435	13.400543530643	-72.0887448266396	84.8539855395676
63753	1649162504282	9.28056200107653	0.661839937004389	2.91683213678082	0.0331266106150512	0.00543941170796156	-0.0621157953028692	0.0172645432270347	0.000856081968092621	-0.00177366656708412	0.350830078125	-0.28564453125	0.163330078125	0	0	0	-0.463945745294275	0.367659867564304	-0.592472005187902	-0.546404145550311	0.0276062897024507	0.306309856970519	0.951531483605017	-0.98860678205818	-0.132537463016067	0.0713473991525575	0.147967980446562	-0.942660115004324	0.299161134411876	13.4139840138593	-72.0882744530256	84.8501099718989
63754	1649162504283	9.30390631863247	0.655151844751957	2.95135783362634	0.045612217897323	-0.0183227366188983	-0.0300500105898056	0.0184496188994435	0.00374982946389	-0.00139471211289044	0.35595703125	-0.271484375	0.16064453125	0	0	0	-0.463961194308384	0.367583803894204	-0.592541497774259	-0.546366846272762	0.0275534410602103	0.306400817522974	0.951503729318491	-0.988579300175669	-0.132730832817247	0.0713687136203685	0.148161314620004	-0.942603344488494	0.299244314581211	13.4142515385946	-72.0831046447057	84.8614336584462
63755	1649162504284	9.28035520978722	0.663319784078181	2.91715391454222	0.0326286859061527	0.00593817869083993	-0.0621144073627686	0.020940008626723	0.00394052594658771	-0.00372268173535386	0.359375	-0.280029296875	0.159423828125	0	0	0	-0.464015010353049	0.367503600623187	-0.592576390308991	-0.546337254216129	0.0275886503547199	0.306438741893537	0.951490495926423	-0.98854749008534	-0.132913416369147	0.0714694591770176	0.148366863610372	-0.942565287508397	0.299262347392106	13.4317214957032	-72.080640160382	84.855535870118
63756	1649162504286	9.27941497322146	0.677439929677158	2.9379733620542	0.0242217533981529	-0.0153328101885125	-0.0557753165271375	0.0209882637800972	0.00308740671062027	-0.00665710544294879	0.350830078125	-0.28271484375	0.160400390625	0	0	0	-0.464107975615027	0.3673814256601	-0.592561631045043	-0.546356466479268	0.027803202986381	0.30649045833458	0.951467593170444	-0.988509057301266	-0.133050999232481	0.071744513634141	0.148582722875371	-0.94252906085335	0.299269350100947	13.4812267826649	-72.0763757031514	84.8166153596829
63757	1649162504286	9.25556355598348	0.644734455967029	2.92956680497373	0.0559313785095407	-0.0102535297673611	-0.0833365442997866	0.0234991373575126	-0.000619591031197321	-0.00620438892775357	0.3623046875	-0.276611328125	0.158203125	0	0	0	-0.464187477420515	0.367299968017303	-0.592583243494062	-0.546320252993173	0.027871666049091	0.306488363789206	0.951466264821546	-0.988472546231558	-0.133249829327927	0.0718784274353594	0.148812619015156	-0.942501652967195	0.299241438600934	13.5066825946485	-72.0761283967786	84.8038861751814
63758	1649162504287	9.25572271558747	0.666733566211605	2.91627652261862	0.0342564980031833	-0.000676418553466073	-0.0855895807405051	0.0247630107233813	-0.00146024930684261	-0.00788386521076245	0.360595703125	-0.2890625	0.1572265625	0	0	0	-0.46428050017741	0.367211966369103	-0.592566206393229	-0.546318844587195	0.0280413255921481	0.306481459602378	0.951463503755678	-0.988438881270287	-0.133382183608497	0.0720955691355008	0.149004235014236	-0.94248517654965	0.299197977820701	13.5478794182485	-72.0756143637858	84.7723141563965
63759	1649162504288	9.20695333869974	0.667615737984333	2.91430023911878	0.0332771127171118	-0.0141499947638809	-0.132525242974278	0.0235760860816765	-0.0043584767893564	-0.00826365949377383	0.35009765625	-0.283203125	0.157470703125	0	0	0	-0.464375354215545	0.367135781312178	-0.59257321948185	-0.546281821068941	0.0281365952664229	0.306446337926374	0.95147200378063	-0.988401571894548	-0.133574980099796	0.0722499644825212	0.14923359100149	-0.942469292159088	0.299133696954968	13.5786293145354	-72.0771968755514	84.7540543221876
63760	1649162504290	9.23152970592674	0.669086720628918	2.91424297270711	0.0332714806956224	-0.00783135522333514	-0.109056013000187	0.0223617500605527	-0.010298896706616	-0.00292715685818199	0.355224609375	-0.27978515625	0.158935546875	0	0	0	-0.464436354647034	0.367157075032524	-0.592541705193035	-0.546249835096237	0.0281800197209833	0.306309430476732	0.951514802454247	-0.988393804520624	-0.13361359982179	0.0722848056503614	0.149276835690515	-0.942508322904198	0.298989109471473	13.5912606207343	-72.0851670716277	84.7436681327956
63761	1649162504290	9.25638970165041	0.691096602303915	2.90078216608723	0.0115010937824001	0.00841250698308042	-0.0878378165125717	0.0187523487445152	-0.0122115712373447	-0.00772137368751839	0.353515625	-0.289306640625	0.162109375	0	0	0	-0.464540081622115	0.367118751001723	-0.592522887762758	-0.546207801762971	0.028280900280435	0.306198498927589	0.951547513229802	-0.988363997148985	-0.133761719912397	0.0724183086364173	0.149455009347329	-0.942523358618008	0.298852670458909	13.6214132738572	-72.0912609588446	84.7230568691519
63762	1649162504292	9.23305054851373	0.678896855084124	2.87830044724925	0.0203877631278974	0.0232054317327976	-0.117648294491088	0.026024586612519	-0.00823376365501636	-0.00297728636432995	0.356201171875	-0.278564453125	0.158935546875	0	0	0	-0.464615234721893	0.367079978104336	-0.592540744416447	-0.546150564904627	0.0282955117626456	0.306131024206794	0.951568788912389	-0.988334824961409	-0.133943700258555	0.0724800588406824	0.149645039284943	-0.942519432785949	0.29876994667848	13.6362285323378	-72.0952256104868	84.7191887939178
63763	1649162504293	9.23415526424138	0.667071797262488	2.85641933448621	0.0302699688943584	0.0445639567241651	-0.12399100865502	0.0188287604103535	-0.0159531376736284	-0.00977854864170867	0.356201171875	-0.278564453125	0.152099609375	0	0	0	-0.464733792303695	0.367047236876782	-0.592507812816606	-0.54610742527769	0.0284216353048029	0.305987323531704	0.951611248611798	-0.988304340925063	-0.134086011915384	0.0726324384645335	0.149822362667519	-0.942545860553497	0.29859765638429	13.6714115008203	-72.103140371515	84.6933074336269
63764	1649162504294	9.25721317499716	0.674420771815928	2.90977088135111	0.0339803736686824	-0.00183100226935191	-0.0855887610287453	0.0237877145138226	-0.0176077402336324	-0.0106281308380223	0.359130859375	-0.2861328125	0.16357421875	0	0	0	-0.464871492476319	0.367048809559852	-0.592404380528224	-0.546101379612345	0.0286644426633336	0.305764643166231	0.951675539622737	-0.988286754813208	-0.134096909172378	0.0728512814656832	0.149892094479922	-0.942616572069387	0.298339333767071	13.7224745752473	-72.1151310780129	84.6443593414971
63765	1649162504295	9.33075257480034	0.67687414665043	2.91059829301783	0.0355904889854767	0.0182165004472116	-0.0151833001192845	0.0211944588116563	-0.0101690557942545	-0.00903095488942644	0.35986328125	-0.275634765625	0.147705078125	0	0	0	-0.46497838516009	0.366995453270565	-0.592390498373075	-0.546061293308679	0.0287756694320647	0.305673136925063	0.951701578338046	-0.988252949816434	-0.13426280245757	0.0730041577949945	0.150093530932727	-0.942622635649405	0.298218877225295	13.755521936709	-72.1199896868488	84.6220993487594
63766	1649162504296	9.33208852970436	0.706454319170707	2.86274801534648	0.00144928506106677	0.057950633023982	-0.0260168559489564	0.0224088942950751	-0.0101573970353731	-0.00777837627877998	0.353515625	-0.27685546875	0.159912109375	0	0	0	-0.465089251974322	0.366998387105065	-0.592293740021793	-0.546069864661331	0.0290006187865563	0.305493514237953	0.951752424146397	-0.988241535575862	-0.134239773542074	0.0732007552012659	0.150125385836839	-0.942684144322964	0.298008343120494	13.8005232083418	-72.129480777665	84.5771401508159
63767	1649162504297	9.30697088717979	0.699928378876591	2.89461957093497	0.0134613169600438	0.0201251249674167	-0.0408992531711227	0.0199272278609774	-0.00933427224513004	-0.0073556669817132	0.3505859375	-0.278564453125	0.162353515625	0	0	0	-0.465187547039118	0.366950998685493	-0.592283166131494	-0.546029451367508	0.0290952313619459	0.305406034589861	0.951777611392541	-0.988210174438098	-0.134397605606036	0.0733344035524177	0.150313401428546	-0.942690000818647	0.297895021286895	13.8298112833725	-72.1341841406407	84.5580054208714
63768	1649162504298	9.30861779656195	0.654223574298006	2.86558405180953	0.0555250879285395	0.0536968300207665	-0.0513360611036617	0.0173985475053768	-0.00765382648985897	-0.00399940414082863	0.3544921875	-0.26904296875	0.160400390625	0	0	0	-0.465263220416037	0.366891379838784	-0.59230185620795	-0.545984763762422	0.0291384530652198	0.305373448222132	0.95178674485091	-0.988177707928836	-0.134582706278571	0.073432368361972	0.15051833145992	-0.942674149582803	0.297841702256183	13.8499589342936	-72.135889981129	84.5493917702782
63769	1649162504299	9.23472487128995	0.667412061631713	2.88337614020099	0.0441592976459509	0.0120666752343324	-0.115401942418211	0.0222541544809066	-0.0016779467714309	-0.00558282573833016	0.35546875	-0.287841796875	0.158447265625	0	0	0	-0.465341968527036	0.366820084830394	-0.592318260250245	-0.545947759649702	0.0292042078782907	0.305356093626	0.951790297454051	-0.98814321510692	-0.134768138196988	0.0735563414334617	0.150731883423382	-0.942653279319807	0.297799755384811	13.8743173736905	-72.1365535373444	84.5368574726929
63770	1649162504300	9.21028352840773	0.647889445328493	2.89507671530704	0.0662724439846916	-0.00440436740054823	-0.136627168997583	0.0211945692759688	-0.00917233728813567	-0.0109443417691383	0.351806640625	-0.282958984375	0.15625	0	0	0	-0.46545177518805	0.366764766211697	-0.592281622319366	-0.545931068087091	0.0293721722568381	0.305267254343005	0.951813626148942	-0.988112500381663	-0.134885750325934	0.0737531080599956	0.150900503930286	-0.942665231025783	0.297676502479945	13.9155280149301	-72.1409114700818	84.5040394229101
63771	1649162504301	9.2828444190366	0.684358403121784	2.90434609965391	0.0357277642121883	0.00380721000903626	-0.062124205503375	0.0259845685980067	0.00256326272545603	-0.0142911242715043	0.355712890625	-0.279541015625	0.151611328125	0	0	0	-0.465544305089793	0.366650599096378	-0.5922906787265	-0.54591903252628	0.029518180151937	0.30530131187525	0.951798185545533	-0.98806970534357	-0.135079496215674	0.0739715288769351	0.151152024210029	-0.942626457654023	0.297671676361457	13.9553480685011	-72.13802696255	84.4775000544388
63772	1649162504303	9.33045840554804	0.679564082877581	2.93984703001084	0.0486527470656666	-0.0149091886106443	-0.00659883579212916	0.0283500250845301	0.0083511199520859	-0.0135473160247322	0.360107421875	-0.27880859375	0.1591796875	0	0	0	-0.465587454974753	0.366621984011605	-0.592249337017066	-0.545946302682207	0.0296580872844789	0.305283478673396	0.951799556370823	-0.988061864568427	-0.135061910854044	0.0741082453038601	0.151175889758219	-0.942634753170879	0.297633285219054	13.9818625709858	-72.1382830324923	84.4511659582537
63773	1649162504303	9.32857146667885	0.728784005425805	2.96867554167803	0.00666473710947699	-0.0482418996551675	0.00383105287125751	0.0295925113215049	0.0124041473396745	-0.0199249524766993	0.355224609375	-0.282470703125	0.16357421875	0	0	0	-0.465671000486266	0.366458140487769	-0.592271973095408	-0.545960493499336	0.0298446823118372	0.305416339599437	0.95175109899773	-0.988012055268541	-0.135271141616416	0.0743901666204922	0.151464430087524	-0.942561710314753	0.297717901152733	14.0291232947051	-72.1292333579993	84.4188887541424
63774	1649162504305	9.2558841916416	0.737819778980111	2.93344291120996	-0.00707154585417947	-0.037382476799687	-0.0751615163996533	0.0296071916653917	0.00749703536464927	-0.0152322126570439	0.353759765625	-0.275390625	0.158203125	0	0	0	-0.465763662966443	0.366314377950044	-0.592285248777781	-0.545963525198704	0.0300239211746287	0.305500431749244	0.951718472216614	-0.987964137634391	-0.135475211319354	0.0746547377352009	0.151741315750308	-0.942505147635281	0.297755973534308	14.0753094316712	-72.1231426280136	84.3871192287081
63775	1649162504306	9.23041393521489	0.752385290864402	2.95364561496442	-0.017396926811398	-0.0656134145955201	-0.092294389245728	0.0258334839987255	0.00512482149425442	-0.00550066896136014	0.351806640625	-0.274658203125	0.161376953125	0	0	0	-0.465832207552893	0.366215090673047	-0.592323210374347	-0.545930468303023	0.0300794436303183	0.305545006998017	0.951702409248538	-0.987924143507651	-0.135692862283549	0.0747885940499798	0.151990505445457	-0.942459386829947	0.297773723539461	14.0987338470081	-72.1201447488987	84.3776210360555
63776	1649162504307	9.25485249312634	0.774068866261468	2.94136604073358	-0.0387785278389842	-0.0492128034723733	-0.0710660500411393	0.0233168520252224	0.00090212889389913	0.00446121552058984	0.35888671875	-0.281982421875	0.1611328125	0	0	0	-0.46589551418501	0.36613962194549	-0.592371260588332	-0.545874927737929	0.030076133741208	0.305555623275765	0.951699105423421	-0.987886852994962	-0.135924681017449	0.0748601814719647	0.152233346737474	-0.942422539084706	0.297766294207798	14.1120281986556	-72.1195282065576	84.378429821847
63777	1649162504308	9.23222367457844	0.747500420984498	2.89898010331829	-0.019522585657736	-0.0131922250941185	-0.107212553774055	0.0209284192684909	-0.00792009087344038	0.00944149914114552	0.358642578125	-0.2802734375	0.1591796875	0	0	0	-0.465962189949252	0.36612504693391	-0.592410416094203	-0.54578529336034	0.030004697821471	0.305456928146198	0.95173304195879	-0.987858642804587	-0.136141727118419	0.074838038279304	0.15243037736922	-0.942423203865813	0.297663375090679	14.1127037152393	-72.1258622426371	84.3898962599688
63778	1649162504310	9.20721661445518	0.739298202512772	2.93098935178662	-0.00723060880507052	-0.0513098449033628	-0.122103628498611	0.0233504474049255	-0.00890075117855563	0.0138547262352753	0.354248046875	-0.27880859375	0.16015625	0	0	0	-0.46603076902407	0.366137368082125	-0.592427235531919	-0.545700211303548	0.0299467965878048	0.305312776791968	0.951781118588569	-0.987837893655013	-0.136309414154316	0.0748066806651274	0.152576162074407	-0.942445675856431	0.297517500033458	14.1136669706738	-72.1348391550431	84.3980265501623
63779	1649162504311	9.23355777615779	0.712703863102282	2.88970418821211	0.0130913965756765	-0.00189360205477361	-0.11130853088175	0.0233083392958719	-0.00703428309542119	0.0148769020827196	0.357666015625	-0.280029296875	0.1611328125	0	0	0	-0.46609153502178	0.366126219541447	-0.592487256384668	-0.54559061884081	0.0298208847721142	0.305214314376821	0.951816651005274	-0.987807641087997	-0.136564935994381	0.0747400994447872	0.152796528231417	-0.942440576671197	0.297420544690658	14.1060200298745	-72.1414766057736	84.4196429645086
63780	1649162504312	9.23299283599064	0.704858916217248	2.92233274204493	0.0257591712662836	-0.0330129039072228	-0.102730724259445	0.0259110275830475	-0.0124710220641737	0.00946838615261653	0.356689453125	-0.27978515625	0.160888671875	0	0	0	-0.466182383691236	0.366112839031986	-0.592512777576583	-0.545494255368816	0.0297799950088449	0.3050739208015	0.951862939053766	-0.987775344801088	-0.136794812911119	0.074746554192841	0.1530131370189	-0.942452694838002	0.297270748463793	14.1140142667663	-72.1501267882399	84.4246980326283
63781	1649162504313	9.25786714081725	0.725744704897337	2.90886129377559	0.00403741362355275	-0.0168151154285005	-0.0815011910509682	0.0246292534663323	-0.00673083179615006	0.00644518752970623	0.35302734375	-0.278564453125	0.1630859375	0	0	0	-0.466261385329755	0.366077345936962	-0.592552724799182	-0.545407155870908	0.0297372902496311	0.304989531763742	0.951891316844073	-0.987740453581373	-0.137036822233114	0.0747643344858643	0.153246500539078	-0.942444849774661	0.297175394684256	14.1215859573152	-72.1554319570215	84.4311120192213
63782	1649162504314	9.25813078732809	0.726089089196648	2.90793611090153	0.00411559106022444	-0.0165824330515595	-0.0815008245160129	0.0234986039923687	-0.00948254360665969	0.00123471974073642	0.3515625	-0.267333984375	0.160400390625	0	0	0	-0.466349477778418	0.366024149172983	-0.592582946285	-0.545334703251297	0.0297435479887648	0.304921748685998	0.951912836624926	-0.98770243197044	-0.137272767304028	0.0748337706946073	0.153490153536697	-0.942432445608154	0.297088973595982	14.1381224211886	-72.1594560527527	84.4287170896635
63783	1649162504315	9.28178297116209	0.719490547784921	2.94169447941209	0.0171902950641507	-0.0410347105197593	-0.0494528157356591	0.0196937321773144	-0.00204705733250017	0.00156942470931188	0.361083984375	-0.2763671875	0.1640625	0	0	0	-0.466410083061163	0.365979015068546	-0.592611494635216	-0.545282139240367	0.029741953911345	0.304888321432718	0.951923593378941	-0.98767353269977	-0.137453498309811	0.0748834334599467	0.153676312364304	-0.942416917959527	0.297041989896672	14.1492762606869	-72.1614678433355	84.4284068518079
63784	1649162504317	9.2803869506167	0.7668690590625	2.96935654498846	-0.0229872344597743	-0.0738713337680775	-0.0390103168726732	0.013569802209648	-0.00126333326778179	-0.00176334630813651	0.35791015625	-0.279052734375	0.1572265625	0	0	0	-0.466516128165546	0.36585412363507	-0.592613642386971	-0.545272897948806	0.0299196621521237	0.304918617833419	0.951908320330934	-0.987626014759947	-0.13765645396345	0.0751369127100239	0.153946967446871	-0.942377491868713	0.297026924761285	14.1959292650865	-72.1586114546487	84.3958812348242
63785	1649162504318	9.28130226335342	0.774729230933818	2.93555821080722	-0.0353574322737125	-0.0429548613596824	-0.0475870646574901	0.0110527995149407	0.00143907628373964	-0.000314150977533501	0.354736328125	-0.283447265625	0.167724609375	0	0	0	-0.466546989787127	0.365819844055155	-0.59262893710791	-0.545252868785101	0.0299335691956231	0.304920962069648	0.951907132196062	-0.987609550262963	-0.137750301554159	0.0751813184981923	0.154049854477696	-0.942363019919743	0.297019496032066	14.2043204632594	-72.1583892664039	84.3933357915015
63786	1649162504319	9.28102746576712	0.734077207290332	2.96178220415482	0.00917247966146695	-0.0620160361395602	-0.0431139917633487	0.00378588071428096	-0.00254263763629421	-0.00503686088314828	0.3564453125	-0.2724609375	0.163818359375	0	0	0	-0.466563561517798	0.365804488041214	-0.592619834479625	-0.545258884727314	0.0299776166204933	0.304920370511884	0.951905935557001	-0.987604549550699	-0.137759650309661	0.0752298641054195	0.154073346846607	-0.942361844724973	0.297011039185466	14.2135091236818	-72.1581654905311	84.3851274098581
63787	1649162504320	9.3064057200629	0.742494276876082	2.92846363952959	-0.00266319758822403	-0.0243977235772113	-0.0282209967714042	0.00139461630658548	-0.00444563578039938	-0.00856557349830525	0.358154296875	-0.281982421875	0.16162109375	0	0	0	-0.466600549071842	0.365795668829993	-0.592581298605233	-0.545275032267579	0.0300818664171075	0.30487865358791	0.951916008847044	-0.987600493284617	-0.137737335701617	0.0753239139835432	0.154079028348583	-0.942378603821332	0.296954912542146	14.2331373953984	-72.1600493173294	84.3649606352588
63788	1649162504321	9.28266475859985	0.709222066384759	2.92015299769579	0.0299124145476076	-0.0190168617804699	-0.0557975882081845	-0.00359208681532464	9.75573938652942E-05	-0.00859813164852645	0.359375	-0.2763671875	0.161376953125	0	0	0	-0.466632593544081	0.365743676466621	-0.592543349938799	-0.545323724232048	0.0302478831359716	0.304920052071185	0.951897487868677	-0.987591733359052	-0.137707197828738	0.0754936809741073	0.154102672808281	-0.942369614063963	0.296971171534008	14.2631596013086	-72.1565858192156	84.3348278587254
63789	1649162504322	9.30546289349373	0.736518391224474	2.96188364201784	0.0108451637646306	-0.0552621996149002	-0.0196448240752805	-0.00356001804619218	-0.0027825879914284	-0.00771325495384861	0.35693359375	-0.276611328125	0.1630859375	0	0	0	-0.46664989296735	0.365746607369793	-0.592501763640104	-0.545352140065861	0.0303421585617064	0.304892979223284	0.95190315927313	-0.987595439952425	-0.137640925046145	0.0755660157585243	0.154060379069351	-0.942388055406472	0.296934593182094	14.2779542708558	-72.15764632577	84.3167849695886
63790	1649162504323	9.30610788975783	0.703449634415474	2.95440316281397	0.044236941121424	-0.0433002556363005	-0.0237573063305554	-0.00359264610265257	9.67623519549266E-05	-0.00859854005273744	0.355224609375	-0.288330078125	0.163330078125	0	0	0	-0.466690556177311	0.365694742937481	-0.592449860791556	-0.545408509477866	0.0305410348719122	0.30492182508416	0.951887559418809	-0.987586956974607	-0.137593825554044	0.0757624021730993	0.154075460741118	-0.942385600355156	0.296934559525604	14.3135395468179	-72.1547294265564	84.2803183787443
63791	1649162504324	9.2581453349123	0.710946541570335	2.91929560860475	0.0308047501709974	-0.025787412979677	-0.0792720876594455	-0.00237051134771362	0.0011204214840344	-0.00925452836414815	0.353515625	-0.274169921875	0.151611328125	0	0	0	-0.466702776624573	0.365679515160291	-0.592415020459751	-0.545446105510638	0.0306458714516157	0.30493364135148	0.951880404743736	-0.987588221671623	-0.137534076350826	0.075854348970958	0.15404653510694	-0.94239049879254	0.296934020966096	14.3302206541864	-72.1533917820542	84.2610364887258
63792	1649162504326	9.25715542183559	0.704342145629124	2.95303772412182	0.0424659490200385	-0.0575179099218424	-0.0706986305684793	-0.00111571525771966	-0.000735553318009564	-0.0090254826776767	0.355712890625	-0.27734375	0.158203125	0	0	0	-0.466678980732943	0.365751648615798	-0.592341572196422	-0.545497866471316	0.0307143867653939	0.304864914555998	0.95190021027332	-0.987619340865656	-0.137315618420135	0.0758449634846278	0.153833234360181	-0.942444589782689	0.296872920953774	14.3313481034584	-72.1570948791546	84.2470038240118
63793	1649162504326	9.2833448465357	0.720175647071658	2.8863341595416	0.0181885972858651	0.0111283716606089	-0.0643739341549558	-0.00237780585179113	0.000111619723158742	-0.0073463978034363	0.35791015625	-0.279296875	0.16455078125	0	0	0	-0.466690522623419	0.365744423797651	-0.592309332972133	-0.545527842212028	0.030801341070063	0.304863552099213	0.951897836949815	-0.98762137725412	-0.137260779664826	0.0759176761793878	0.153802771688159	-0.942453018970842	0.296861945108809	14.3450293464068	-72.1566510927909	84.2308008416376
63794	1649162504327	9.23429744288921	0.699650251499387	2.89825292308547	0.0398714508156342	-0.0118340491089964	-0.109084943231192	0.00859502142557793	0.00529751474918436	-0.00561390973072478	0.352294921875	-0.283203125	0.159423828125	0	0	0	-0.466716701967144	0.365681961032904	-0.592306959228668	-0.545549896461663	0.0308983388488394	0.304926242917135	0.95187461308558	-0.987605758205753	-0.137304027691597	0.0760425561018588	0.153883589167986	-0.94242643763856	0.296904446960084	14.3656783489738	-72.152309039458	84.2139376902153
63795	1649162504328	9.25862905954899	0.700770006525368	2.8990195949605	0.0405330886197363	-0.00525970726684636	-0.0856151089740482	0.0111780012164971	-0.00316518977803844	-0.00529385271986569	0.3505859375	-0.283203125	0.1728515625	0	0	0	-0.466771340234212	0.365648230823358	-0.592297279806783	-0.545536267873358	0.0309706072584682	0.304891065483294	0.951883532620721	-0.987587524506043	-0.137383103461114	0.0761364848375596	0.153986047829239	-0.942426294768909	0.296851774463412	14.3851334723523	-72.1539765608219	84.1998321883503
63796	1649162504328	9.20998678344102	0.721153106576201	2.88413321512147	0.015423209888332	-0.00772427529165204	-0.134782360617258	0.00860755189115699	-0.00060591843305155	0.000996664526994563	0.352783203125	-0.271484375	0.15771484375	0	0	0	-0.46673409639621	0.365597304679552	-0.592424320870904	-0.545464314243296	0.0307440697033897	0.305019196560795	0.951849826342097	-0.987566107138797	-0.137614585396277	0.0759961177754121	0.154168693997182	-0.942351057523479	0.296995788144521	14.3530350220447	-72.1476759093199	84.2443745323776
63797	1649162504329	9.20897129392776	0.693427278395083	2.93089231360354	0.0503202122020868	-0.0484867128189471	-0.123970194836378	0.0135219647658402	-0.000397613619279717	0.00116658895940833	0.353515625	-0.2822265625	0.158447265625	0	0	0	-0.466774377070891	0.365564003163681	-0.592444020504896	-0.545430768355637	0.0307460843178766	0.30500257491084	0.951855087498552	-0.987546214335913	-0.137736473043848	0.0760337986966875	0.154295666983636	-0.942338629841311	0.296969281002052	14.3610861523524	-72.1486592257401	84.2436883301371
63798	1649162504330	9.25874330939553	0.722218951865903	2.88564964320132	0.0165447842179449	0.0051606203736785	-0.0878428200080119	0.0146241100626597	0.00624107915633471	0.00357950658135089	0.345947265625	-0.2822265625	0.161865234375	0	0	0	-0.46677809754488	0.365553056542348	-0.592457128872943	-0.545420682549313	0.0307310266003519	0.305012422653068	0.951852418199058	-0.98754106379128	-0.137774483799977	0.0760318284643805	0.154331627769799	-0.942329885783613	0.296978341009859	14.3603094215818	-72.1481603239306	84.2466730464873
63799	1649162504331	9.23240866855838	0.727823434592585	2.9398109273561	0.0187102812562988	-0.0541088827948585	-0.0963965493858314	0.0170274350571755	0.010158782886417	0.00328921112597476	0.354248046875	-0.2802734375	0.155029296875	0	0	0	-0.466792878285655	0.365485835478878	-0.592513366868581	-0.545391990157683	0.0306960282927295	0.305091718471324	0.951828134259156	-0.987516458934615	-0.137935362272295	0.0760597079145601	0.154495945514079	-0.942280679604025	0.2970490256922	14.3620802906287	-72.1436221863937	84.2546650449672
63800	1649162504332	9.27913480141064	0.734649743495962	2.99654712558715	0.0206106211691373	-0.0934149755192092	-0.0345384434135738	0.0157849038953884	0.0140265182846195	-0.000759912991319779	0.361328125	-0.281494140625	0.163818359375	0	0	0	-0.466726261007832	0.365485723799088	-0.592576832503906	-0.545380124834361	0.030545766557389	0.305195683128881	0.951799638130272	-0.98752282441084	-0.137961410269427	0.0759297079153301	0.154485039447378	-0.942243198052375	0.297173565969411	14.3327843842611	-72.1382983052563	84.2845372840027
63801	1649162504332	9.25535232720684	0.762788969721296	2.95012360906484	-0.0146269670091043	-0.0595782625296076	-0.0688247124644121	0.01822053765217	0.0150636799113296	-0.000164957399696491	0.358154296875	-0.27685546875	0.161376953125	0	0	0	-0.466735560153583	0.365394271134074	-0.592637496692062	-0.54536752839263	0.0305356482739307	0.305325493978147	0.951758329047607	-0.987495493236835	-0.138122571194626	0.0759921454067831	0.154661646898741	-0.942177530008855	0.29728988702104	14.3387032132775	-72.1305833272148	84.2888311018654
63802	1649162504333	9.25423696435111	0.796790361601607	2.95876542524027	-0.045927180671896	-0.0713737949829649	-0.0647200955030378	0.015688020164391	0.0157521767788679	0.00510052026361114	0.35498046875	-0.276611328125	0.155029296875	0	0	0	-0.466746211576416	0.365296624738499	-0.592689378698854	-0.545367445225043	0.0305553526644535	0.305465353149331	0.951712818264473	-0.987468615942716	-0.138265451286739	0.0760815188376957	0.154829270332606	-0.942111237065894	0.297412699867447	14.3491874393386	-72.1220873587889	84.2877693820806
63803	1649162504334	9.25348967449488	0.755341150627134	2.98674960074502	-0.00118449053909157	-0.0907472426967109	-0.0602493200320016	0.00816816400755567	0.0209846975378839	0.0103301553232582	0.359375	-0.276611328125	0.163818359375	0	0	0	-0.466691688117891	0.365243131298344	-0.592773792629637	-0.545358188764531	0.0304333716217144	0.305636216752983	0.951661868995842	-0.987459950829339	-0.138363801973701	0.0760151551435816	0.154908538821638	-0.942041379830157	0.297592646562107	14.3288749928068	-72.1125807631854	84.3135833193279
63804	1649162504335	9.25485306157726	0.748730484190858	2.93393160527603	-0.00284384201285235	-0.0387760079286326	-0.0751648134336111	0.0107427701802059	0.011515477811766	0.0125657688840625	0.357421875	-0.280029296875	0.15185546875	0	0	0	-0.466686380280993	0.365223079916274	-0.592792773732957	-0.545355527859288	0.0304176586129166	0.305676357738213	0.951649478728596	-0.98745490638302	-0.138398900259576	0.0760167893760397	0.154943776592057	-0.942023199675486	0.297631848713391	14.3273607184918	-72.110269608827	84.3172415019669
63805	1649162504335	9.22842394184588	0.753248926050042	2.98849736939068	-0.000694203536969494	-0.0980587605432174	-0.0837258196500166	0.00700239165867696	0.0131956334628668	0.0146682960687921	0.352783203125	-0.278076171875	0.1591796875	0	0	0	-0.466644239688964	0.365204479346232	-0.592868143302104	-0.545322112597749	0.0302661058459269	0.305767083603763	0.951625164348533	-0.987449349985869	-0.13849896355475	0.0759066420462878	0.155008851519539	-0.941979048428737	0.297737683661112	14.302576367975	-72.1057350910714	84.3470382439608
63806	1649162504336	9.25409200811296	0.705504568731428	2.96234715568809	0.0416730104416804	-0.0595090393505253	-0.070707165727633	0.00707451997954464	0.00844475507406718	0.0145336422283438	0.353515625	-0.2763671875	0.156982421875	0	0	0	-0.466590282277674	0.365309086555481	-0.592841507435739	-0.54532717411235	0.0301764366826415	0.305685828263832	0.951654116298455	-0.987484507521917	-0.138335088909278	0.0757479410984871	0.154802228902998	-0.942029499312584	0.297685559528081	14.2762937819064	-72.1111346200919	84.3621896749601
63807	1649162504337	9.25313313165272	0.717698985676392	2.983564549519	0.0318990836263039	-0.0810686279363135	-0.0643730340439905	0.00712230948802707	0.00757846947538313	0.011602074032486	0.360595703125	-0.283203125	0.15869140625	0	0	0	-0.466570843125522	0.365299192424399	-0.592894957153393	-0.545292323567183	0.0300641395923171	0.305726233229831	0.95164469095649	-0.987478042039927	-0.138425563745568	0.0756669002319659	0.154865309219226	-0.942003096394497	0.297736296718443	14.2593121517069	-72.109376623901	84.3837731228891
63808	1649162504338	9.23025234520287	0.690240626040816	2.94226382880961	0.0511967597677104	-0.0459100192452748	-0.100520866725613	0.00963886875335371	0.00487250987701745	0.010155212469011	0.354736328125	-0.283203125	0.15771484375	0	0	0	-0.466554929386304	0.36535817979036	-0.592871933540667	-0.545291453027981	0.030032541760052	0.305656676654198	0.951668031643463	-0.987495315745398	-0.138341263429817	0.0755956097504312	0.154761260709288	-0.942038051699269	0.297679796651232	14.2490186178275	-72.1137303883248	84.3883696072549
63809	1649162504338	9.22950606002817	0.72350583382837	2.94997325671797	0.0190998016349425	-0.057840461356568	-0.0964188045896907	0.01090941715861	0.00502850145528115	0.00656751185435493	0.358642578125	-0.28173828125	0.165771484375	0	0	0	-0.466562747120442	0.365332874958274	-0.592912056600658	-0.545258091743466	0.0299743672245996	0.305678773599655	0.951662768358674	-0.987481612615421	-0.138451007725993	0.0755736938762805	0.154859943355064	-0.942014758817646	0.297702186948297	14.2440280826892	-72.1127485324197	84.3995727347358
63810	1649162504340	9.23111396669046	0.696821399544995	2.90905561251055	0.038276941785718	-0.0150992224932101	-0.10908305390644	0.0085454262190184	-0.000757604956631785	0.00583866957722359	0.357421875	-0.277099609375	0.1630859375	0	0	0	-0.466546387921353	0.365361775568034	-0.592931395554432	-0.545231694820822	0.0298862662392956	0.30565354606964	0.951673641993582	-0.987486412772833	-0.138466343833175	0.0754828206581856	0.154846361530766	-0.942020690537383	0.297690481742624	14.2281329780327	-72.1147770460259	84.415471405973
63811	1649162504340	9.25535276689486	0.676431943420534	2.92307813392924	0.0612357736210145	-0.0182140640289131	-0.0833801299428778	0.00852177989981231	0.00312548265986573	0.00304030371998726	0.36474609375	-0.282958984375	0.158203125	0	0	0	-0.466559624823544	0.365340844730241	-0.592953104542097	-0.545210784440475	0.0298653659713676	0.305662279627507	0.951671493073273	-0.987475429427738	-0.138542535403193	0.0754867018789395	0.154920418899193	-0.942006654274253	0.297696367312616	14.2285649732347	-72.1143761399828	84.4195106017585
63812	1649162504342	9.23092172058623	0.676268954355575	2.92237399257081	0.0616882503428019	-0.0255694351200733	-0.106860966526039	0.00617505160195433	-0.000647557660936832	-0.00150667598185586	0.349365234375	-0.276123046875	0.16845703125	0	0	0	-0.466606309712012	0.365343811057251	-0.592885606647933	-0.545242247894286	0.0300211143037513	0.30558910691868	0.951690091588961	-0.987476016732866	-0.1384695816667	0.0756127722705767	0.154886568408478	-0.942041120485562	0.297604902918203	14.2555622320496	-72.1178461971029	84.38925880335
63813	1649162504342	9.230937197897	0.676684371124447	2.92222894182553	0.0617941623258219	-0.0257429852532537	-0.106862099018262	0.00743758860143301	-0.00149760718259952	-0.00318439583049012	0.3583984375	-0.2822265625	0.1611328125	0	0	0	-0.466642082348294	0.365324346688579	-0.592876953159324	-0.545234084692738	0.0300700802581589	0.30556201803991	0.951697243562597	-0.987464873525064	-0.138515829211671	0.0756735661372796	0.154948100431718	-0.942043108455861	0.297566577396423	14.2683186489397	-72.1191807650138	84.3796709120685
63814	1649162504343	9.28070388699919	0.685267924287364	2.88990079359267	0.0501735720751607	0.0197243746168589	-0.068474880904704	0.00623221040024397	-0.000507277497409224	-0.00634680903732287	0.35693359375	-0.280517578125	0.16259765625	0	0	0	-0.466655160623438	0.365242347337753	-0.592927044786858	-0.545223356373372	0.030071094543063	0.30567089435971	0.95166224765634	-0.987439799413232	-0.138659038752328	0.0757384546121539	0.155107613635627	-0.941986717164109	0.297661977549444	14.2756635951849	-72.1126513992099	84.3814716977478
63815	1649162504344	9.27790835907018	0.684780019614978	2.97778513638333	0.065267714157424	-0.0639498237454706	-0.0450181440922019	0.00750295423788982	-0.000351973313866709	-0.00993440404369673	0.35498046875	-0.2763671875	0.155029296875	0	0	0	-0.466699874636673	0.36520344083321	-0.592903186165507	-0.545237091229575	0.0301845172767474	0.305664817103775	0.951660608884115	-0.987426417318738	-0.138685922302193	0.0758635969109799	0.155170761736389	-0.941984731585446	0.297635347635396	14.2995116089993	-72.1123457015737	84.3603045787395
63816	1649162504345	9.28058134121705	0.687449439638225	2.88977623618415	0.0504505271082294	0.0188927339630048	-0.0684746629698729	0.00751083019415382	0.000652891045064316	-0.0118446306164013	0.355224609375	-0.283935546875	0.161865234375	0	0	0	-0.46673621041042	0.365202670610336	-0.592828133670196	-0.545288110268242	0.0303636266163801	0.305617644420873	0.951670061311869	-0.987430886470606	-0.138575772358336	0.0760065770783226	0.155107364823767	-0.942016247595511	0.297568638541597	14.3284329405591	-72.1141090330884	84.326187397841
63817	1649162504345	9.27950540500289	0.68152699998879	2.92351996432786	0.0629889105864299	-0.0123347663944122	-0.0599160295031886	0.00508283472472183	0.000620516651640033	-0.0143505192062614	0.364501953125	-0.2822265625	0.1611328125	0	0	0	-0.466779683705114	0.365158346167675	-0.592789644690564	-0.545322424123452	0.0305196387434482	0.305625977423016	0.95166239474679	-0.987419966728735	-0.138565671944422	0.0761666847382423	0.155146256662523	-0.942015029860361	0.297552218208484	14.3581288051658	-72.1126788378052	84.2973807698686
63818	1649162504346	9.28013423027379	0.669893635100748	2.90324479361269	0.0726159117873911	0.00856484165672684	-0.0662453207039899	0.00870683750195074	0.00555425930124876	-0.0153025925585404	0.357421875	-0.281005859375	0.164306640625	0	0	0	-0.466796764600569	0.365135344454763	-0.59273737980358	-0.545380013726144	0.0306771576269761	0.305646245800954	0.951650820641538	-0.987422235532146	-0.138473641715946	0.0763045170787682	0.155100743958982	-0.942021986461944	0.297553921576684	14.3829555855666	-72.1105199016649	84.2685212882821
63819	1649162504346	9.27924507224688	0.70498436667336	2.91090722340527	0.0405173999548622	-0.00337101230251397	-0.062142771394301	0.00620600599373193	0.00337226862073881	-0.00914795320810049	0.357666015625	-0.28076171875	0.159423828125	0	0	0	-0.46682565032392	0.365092736210163	-0.592721304387878	-0.545401284827014	0.0307774985826173	0.305672613895288	0.951639111583493	-0.987411229934682	-0.138489464951237	0.0764181332956904	0.155150921943361	-0.942011104611799	0.297562212332452	14.4030966436256	-72.1083360489838	84.2503924890354
63820	1649162504348	9.25529546914371	0.672140745899383	2.90328160287886	0.0719578990934301	0.00155749359293965	-0.0897181189632175	0.0110918814627883	0.00745549713961827	-0.0117781905747988	0.354736328125	-0.271728515625	0.167236328125	0	0	0	-0.466840059768049	0.365038228221744	-0.592710731371915	-0.545436925270983	0.030882161706599	0.305743701227904	0.951612884132928	-0.987401574350549	-0.138491304975332	0.0765394631303776	0.155191568902387	-0.941987764042449	0.29761490106499	14.4225639144736	-72.1034453108903	84.2323041089003
63821	1649162504348	9.28040629549528	0.681231386745303	2.87081327729299	0.0601883389858878	0.0391181997289232	-0.0748008861559253	0.00869705446911923	0.00454506368526063	-0.0133946135051688	0.357666015625	-0.2744140625	0.15576171875	0	0	0	-0.466880001580438	0.364975305857712	-0.592690257593166	-0.545467092309396	0.0310225693364322	0.305786720147564	0.951594494505491	-0.98738540565024	-0.138517354643206	0.0767007377510711	0.155266419101738	-0.941969969926878	0.297632180476641	14.4508781415962	-72.1000168940326	84.2070684579343
63822	1649162504349	9.25570036267712	0.682432567522006	2.87066457982758	0.0613012894421977	0.0325726178610055	-0.0982857109885984	0.00984277033695198	0.0103123709882168	-0.0139231407927363	0.357421875	-0.279296875	0.167236328125	0	0	0	-0.466956058585788	0.364825109567339	-0.592666933283119	-0.545527804032011	0.031297091243923	0.305917990799267	0.95154331219604	-0.987347171746038	-0.138604108914382	0.0770354686955897	0.155454348684007	-0.941914584183402	0.297709357558411	14.5076832451449	-72.0904782107411	84.1586497199103
63823	1649162504350	9.277823512934	0.690353446623272	2.92678523739069	0.0645136677166965	-0.0133851402390192	-0.0599273814617174	0.013463769483497	0.0152440976189479	-0.0148774249654203	0.353271484375	-0.27587890625	0.1630859375	0	0	0	-0.466980529874467	0.364714890488941	-0.592675665311794	-0.545571066975719	0.0314372088057253	0.306063884562131	0.951491776353976	-0.987322895816667	-0.138670519069231	0.0772268511416974	0.155580208570039	-0.941857412620301	0.297824466747604	14.5368166109096	-72.0808786029553	84.1354572695213
63824	1649162504351	9.30186956801765	0.712939681829186	2.91548836948525	0.042911888656997	0.00393064202845225	-0.0386771474050818	0.0110617727511993	0.0113282949775197	-0.0145833969898044	0.355224609375	-0.27490234375	0.163818359375	0	0	0	-0.467004865514613	0.364552730132019	-0.592732184125425	-0.545597214473162	0.0315397297103905	0.306290259758273	0.951415536044585	-0.987281854591427	-0.138849973024836	0.0774288356202971	0.155819719690122	-0.941757379460449	0.298015525077939	14.5642749496862	-72.0666863961551	84.1207841375969
63825	1649162504351	9.27769370733854	0.680676369712859	2.90853202047235	0.0746850770750607	0.00882291754468041	-0.066261186889049	0.0147232713807299	0.0143870712324083	-0.0165584880332727	0.35693359375	-0.285400390625	0.165771484375	0	0	0	-0.4670383438206	0.364436669842012	-0.592736892692936	-0.54564097639061	0.0316977794303748	0.306431276322403	0.951364874099631	-0.987254871164436	-0.138923677115931	0.0776403973372201	0.155958552639078	-0.941700634399283	0.298122198151551	14.5973689301583	-72.0572616307076	84.0942303205504
63826	1649162504352	9.29995805079351	0.730034646471828	2.93842549876234	0.0326290977182917	-0.0170069933714011	-0.0323417508272712	0.0110390876878747	0.0162037965234965	-0.0193004819925937	0.362548828125	-0.266357421875	0.160888671875	0	0	0	-0.467032656033046	0.364295635311258	-0.59278328531604	-0.545689623267483	0.0317933334861795	0.306675459005417	0.951283000368268	-0.987227291568067	-0.139023050302718	0.077813021196368	0.156113608404313	-0.941606475300773	0.298338376583771	14.6182879992781	-72.0420405725081	84.0812364709112
63827	1649162504353	9.27492035450735	0.731889789289629	2.93910613431641	0.0321972392339981	-0.0238666477203046	-0.0558155184011664	0.0110443676988825	0.0172026473937725	-0.0212140801650527	0.353271484375	-0.271728515625	0.156005859375	0	0	0	-0.467056034568758	0.364171752501388	-0.592775446931809	-0.545760812781359	0.0319924083897246	0.306849990178168	0.951220042541727	-0.987204448679182	-0.139048139824598	0.0780576153834674	0.15621735599305	-0.941545908779268	0.29847519050595	14.6558299804678	-72.0303446300994	84.0478046018739
63828	1649162504353	9.22550777801154	0.73342441920733	2.93889549141662	0.0340612400001664	-0.0381252742179894	-0.102775025169864	0.0110777292268891	0.0143244230293044	-0.0203241269807463	0.355712890625	-0.2744140625	0.1630859375	0	0	0	-0.467179771864288	0.364017466823556	-0.592658473889917	-0.545884857762759	0.0324944343476725	0.306923379232093	0.95117934745093	-0.987169767653072	-0.139002011825387	0.0785766539137064	0.156332855050383	-0.941528799341395	0.298468689216386	14.7493547714887	-72.0227884459125	83.9565235468628
63829	1649162504354	9.22504881231201	0.755986530195833	2.92698942311886	0.0118948830026653	-0.0286514652639462	-0.10499219706794	0.00733593845010408	0.0160068800968173	-0.0182247794240792	0.351318359375	-0.281494140625	0.16357421875	0	0	0	-0.467192134923432	0.36391440680784	-0.592648143819257	-0.545954202484946	0.0326689642905753	0.307081592134154	0.951122302621768	-0.98715338671795	-0.13900062661345	0.0787846234512191	0.156399903655543	-0.941477414266227	0.298595627166768	14.7806729145375	-72.0122016413234	83.9274126377233
63830	1649162504355	9.22372517230537	0.791572953457527	2.93558797385059	-0.0210301883136519	-0.0399074941568225	-0.100873151980656	0.00368085399659214	0.0139460049596601	-0.0181637141818701	0.366943359375	-0.27783203125	0.16650390625	0	0	0	-0.467163558205528	0.363820399883165	-0.592673882468177	-0.546013365728077	0.0327447713379044	0.307288457576798	0.95105288170012	-0.987142987805507	-0.139008242150302	0.0789013956828495	0.156449677457152	-0.941408791362369	0.29878585302721	14.7926089719713	-71.9993261108922	83.9174938219801
63831	1649162504356	9.24831817185358	0.759885525961619	2.930438313652	0.0118756390334442	-0.0216371108305609	-0.0815171267652968	0.00241581390883745	0.0147954739067861	-0.0164878183774679	0.34716796875	-0.273193359375	0.165771484375	0	0	0	-0.467162692708894	0.363739233112035	-0.592656783049275	-0.546086738844415	0.0329034156015057	0.307433220649829	0.95100062044282	-0.987134818987774	-0.13896608790668	0.0790776552123728	0.156467934043141	-0.941367750272329	0.298905577672089	14.8185244561915	-71.9896390633524	83.891103468886
63832	1649162504357	9.2721742869193	0.761808728334313	2.93255567132879	0.0133457975683631	-0.0139563586301343	-0.0580434383265924	0.00119460156659591	0.0137733709618389	-0.015830884002189	0.355224609375	-0.28173828125	0.158935546875	0	0	0	-0.46718218978676	0.363568643770074	-0.592687126796182	-0.546150723283715	0.0330796219945537	0.307687415692751	0.950912295026737	-0.987098596229974	-0.13907445744773	0.079338871976079	0.156659183993517	-0.941268691453156	0.299117285626474	14.855254502664	-71.9732786729028	83.8636730156758
63833	1649162504358	9.22282192611033	0.762584628364179	2.93229067769988	0.0123777671675875	-0.027502080550641	-0.104989476486971	-0.00127669912708099	0.0156051650016969	-0.017321520126519	0.354248046875	-0.269287109375	0.1689453125	0	0	0	-0.467170523063693	0.363493553261676	-0.592663053020012	-0.546236802772016	0.0332458846443982	0.307841795590432	0.950856529683564	-0.987095689220582	-0.138995584069212	0.0795130676769693	0.156642304235973	-0.941229863793599	0.299248278235193	14.8801966762949	-71.9629567267974	83.836136918885
63834	1649162504360	9.24676406818516	0.785169436695487	2.92123871248797	-0.00915484486286075	-0.0106050718891355	-0.083731833626743	-0.00365971634119263	0.0136926014416107	-0.0208507190109731	0.358642578125	-0.2744140625	0.1640625	0	0	0	-0.467160988995171	0.363379179427576	-0.592654767970473	-0.546330036078431	0.0334317959208129	0.308057047851446	0.950780295489216	-0.987083355218006	-0.138958127274163	0.0797313534064332	0.156680454661943	-0.941164966482237	0.29943236463919	14.9104642292261	-71.9488553088273	83.8062332528928
63835	1649162504361	9.27051851051077	0.766842973473333	2.93647573517643	0.0138823750017205	-0.0137198306853189	-0.0580438516595159	-0.0109592319016381	0.0105721327993693	-0.0226415300058947	0.355224609375	-0.276611328125	0.16064453125	0	0	0	-0.467147477827393	0.363333776324039	-0.592586906861495	-0.546445384972685	0.0336586495968791	0.30817184646085	0.950735088421704	-0.987093675337957	-0.138772016448336	0.0799274893804794	0.156566827313829	-0.941154844061153	0.299523601883238	14.9411550472848	-71.9404981604005	83.7668395163993
63836	1649162504363	9.29425778086857	0.769098217131922	2.9388895297335	0.0150886246528434	-0.00714948783632039	-0.0345724156274212	-0.00868898170385496	0.0220945913801756	-0.0237092940890746	0.353515625	-0.273681640625	0.1689453125	0	0	0	-0.467118317513089	0.363237195226087	-0.592530839280721	-0.546595299970015	0.0339318890111398	0.308399648691894	0.950651504808598	-0.987098638660627	-0.138584636109951	0.0801908734745348	0.156476530069119	-0.941107834055688	0.299718434896053	14.9788731492379	-71.9250564169703	83.7212462897044
63837	1649162504363	9.26715759310913	0.776592586329794	2.994192486991	0.0172436105760439	-0.0664619711712633	-0.0431541375393216	-0.00860762926120385	0.0173464572465086	-0.023837569325422	0.35498046875	-0.280029296875	0.162109375	0	0	0	-0.467093529383488	0.363163402646306	-0.592479541211937	-0.546721109005064	0.0341606724473002	0.308579592698443	0.950584916474069	-0.987104694638362	-0.138416743893261	0.0804060124175615	0.156388523494705	-0.941073557156958	0.299871955572867	15.0099048616518	-71.9127636043738	83.6829097779268
63838	1649162504365	9.2683053664651	0.77245745251545	2.94198518839742	0.0142875357633652	-0.0130278723991637	-0.0580434879890212	-0.0100057261150562	0.0248067751954993	-0.0210188560906553	0.3603515625	-0.27197265625	0.168212890625	0	0	0	-0.46701314503346	0.36302924943616	-0.592523162438361	-0.546831590522912	0.0342521320557233	0.308941903639034	0.950463934942051	-0.987099629712305	-0.138369951320001	0.0805486039204323	0.156400487439993	-0.940961559654586	0.300216972839548	15.0188211687691	-71.8904499514591	83.6735018401635
63839	1649162504365	9.21840786346584	0.73234701646898	2.96909615075756	0.0579607862988663	-0.0458565381795365	-0.100558625457946	-0.00874353932061434	0.0239499478417744	-0.022699042248665	0.359619140625	-0.277099609375	0.1650390625	0	0	0	-0.466966138849248	0.362940125325325	-0.592490524627586	-0.54696624102735	0.0344588873107288	0.309183132286488	0.950378017314596	-0.987106128113006	-0.138204793210496	0.0807522567820495	0.156314033045842	-0.940906597831666	0.300434181194124	15.0446808504617	-71.8746195553169	83.6405506588332
63840	1649162504367	9.24184699389578	0.73455844391492	2.972468911487	0.060227797005793	-0.0383866309176005	-0.0770938268538561	-0.00518860237052401	0.0297466551292782	-0.0207237775491457	0.352783203125	-0.2705078125	0.164794921875	0	0	0	-0.46695670309349	0.362721941165337	-0.592504755415994	-0.547103596810276	0.0347418164133662	0.309572082058093	0.950241091619657	-0.98707384920304	-0.138220895509017	0.0811184335658683	0.156455177005412	-0.940776333702598	0.300768461666616	15.0937625453607	-71.8494184570369	83.5967568007739
63841	1649162504367	9.24066075253362	0.695527888770391	3.00144641154936	0.105044822647437	-0.0578184953258304	-0.0726733763314193	-0.00135393021055181	0.0243179614044702	-0.024863175118406	0.35302734375	-0.28271484375	0.17529296875	0	0	0	-0.466933101441775	0.362604082875536	-0.592480328212187	-0.547228305683776	0.0349706795271426	0.309820314291996	0.950151790202712	-0.987067710342094	-0.138118921080911	0.0813664478729542	0.156442918578717	-0.94070959200566	0.300983515719913	15.1274757924518	-71.8330007819843	83.5600494421967
63842	1649162504369	9.26410965885777	0.718712908435433	2.99179930143	0.082615392388846	-0.0391436327411725	-0.0513974794944012	0.00823255416120869	0.0350863175193979	-0.0213291032413296	0.35595703125	-0.273681640625	0.16259765625	0	0	0	-0.466864973861838	0.362303960882901	-0.592670850097326	-0.547278904722684	0.0349542067469494	0.310418448949381	0.949957151656091	-0.987006565859924	-0.138443280748202	0.0815567101167873	0.156831892101354	-0.940464696077176	0.301545872219094	15.1342461555794	-71.7972669157085	83.5753568047523
63843	1649162504369	9.21315953456296	0.733414134265256	3.01369619350487	0.071791898716079	-0.0740814219658614	-0.0919915991874802	0.0156166612877249	0.0344599386023578	-0.0215753432416402	0.3525390625	-0.27294921875	0.162109375	0	0	0	-0.466851338342157	0.362114872785266	-0.592710754651876	-0.547372458309559	0.0351335604554274	0.31075945969382	0.949839034331886	-0.986974711667426	-0.13851242158372	0.081824370428462	0.156992201904187	-0.940341888505355	0.301845293591694	15.1672605834363	-71.775614656325	83.5496951965601
63844	1649162504371	9.28436853275228	0.770713561411154	3.0264255839766	0.0416623434130509	-0.0657689680552698	-0.0174493380239529	0.015641757230887	0.0295878677392233	-0.0168560936610864	0.35400390625	-0.273681640625	0.170166015625	0	0	0	-0.466841990563788	0.361946612145386	-0.592742491666933	-0.547457344799933	0.0353019770579056	0.311058707492608	0.949734831891951	-0.986946215059695	-0.138570211162169	0.0820698797234109	0.157133506914173	-0.940234426657257	0.302106411605834	15.198125078482	-71.7565337663873	83.525219309877
63845	1649162504371	9.23479112465271	0.81242277836588	3.00087083356922	-0.0039365703767571	-0.060027426247693	-0.0688172857902192	0.0215884177726124	0.0314360843866648	-0.00471059905776389	0.359375	-0.27880859375	0.161376953125	0	0	0	-0.466823247186755	0.361787356873941	-0.592832117948614	-0.547481546922581	0.0353199766694567	0.311347792545782	0.949639432271501	-0.986910787453808	-0.138747728370851	0.0821958969732353	0.157351825077993	-0.940112557063673	0.302371928584364	15.2076338518984	-71.7390816810556	83.5279098200101
63846	1649162504373	9.16149766243948	0.757387575313505	3.00673093902552	0.0489567605873334	-0.0774531673510288	-0.141146118037723	0.0202852483012265	0.0272957147578156	0.0065345458915406	0.35693359375	-0.269287109375	0.15478515625	0	0	0	-0.466783979068868	0.361635305528688	-0.592975303141317	-0.547460420984267	0.0352003913192731	0.311649884409103	0.949544776194763	-0.986872151954971	-0.139013986501804	0.0822098975345555	0.157620709764726	-0.939973117224461	0.302665245359614	15.1960457909175	-71.7217815251631	83.5558377538466
63847	1649162504374	9.15987279685717	0.770072487350855	3.02928880932546	0.039263782695508	-0.0989869937380131	-0.134798567323765	0.0214531062243318	0.0213310567751408	0.0192766874071792	0.36328125	-0.267822265625	0.164794921875	0	0	0	-0.466751407545623	0.361559846247804	-0.59310684221753	-0.547395537842787	0.0349975025920279	0.311810943491521	0.949499399858287	-0.986845212084086	-0.139265205462141	0.0821080381832465	0.1578344138616	-0.939882512906009	0.302835202270888	15.1699611426461	-71.713493762575	83.5959530325994
63848	1649162504376	9.2092789086547	0.776949270015735	2.99918610489687	0.0311495215963389	-0.05586683048675	-0.0964384147123631	0.0213932146184305	0.0221976275119794	0.0222050226618386	0.358154296875	-0.277587890625	0.175048828125	0	0	0	-0.466801260881461	0.361487287321067	-0.593095683579768	-0.547413037900799	0.0351289024486079	0.311851176800317	0.949481334066665	-0.98682206285669	-0.139331814082949	0.0822730930719199	0.157949917606887	-0.939859292188257	0.302847047889468	15.1984797354682	-71.7101951449335	83.5729319433748
63849	1649162504377	9.1597623596556	0.733519783700014	3.02570590511738	0.0748486741391133	-0.0886758607023894	-0.13897412827818	0.0238036558549661	0.0212361675949268	0.0266294085961384	0.362548828125	-0.283935546875	0.1650390625	0	0	0	-0.466763109841026	0.361422089670766	-0.593250163196901	-0.547321218532958	0.0348566339297345	0.31199980735167	0.949442539221626	-0.986793801511545	-0.13962711368323	0.0821112807285525	0.1581866251283	-0.93976613544914	0.303012544779103	15.1620626906559	-71.7031135678964	83.6253464432204
63850	1649162504378	9.13504858269107	0.731576753440909	3.02613239404094	0.0739040184730183	-0.0942787703335598	-0.162431203936414	0.0252572782944361	0.0119026435816361	0.0227995780700513	0.355224609375	-0.27587890625	0.166748046875	0	0	0	-0.466741812709493	0.361307934749268	-0.593459528875146	-0.547187759496834	0.0345247277490173	0.312192539092083	0.949391311161575	-0.986742620736869	-0.140084264288107	0.0819475400496918	0.158578193946054	-0.939634086990302	0.303217313111751	15.1234640293945	-71.6937664961308	83.6894202621034
63851	1649162504379	9.15937143791786	0.751122933298111	3.01476952007097	0.0523544028136248	-0.0780726331750484	-0.141168894269173	0.025204465818929	0.0137654668707643	0.0238119901036637	0.35205078125	-0.27978515625	0.166259765625	0	0	0	-0.466734533041882	0.361252088613339	-0.593591749704786	-0.547087414241169	0.0342915263098229	0.312275501143062	0.94937247832934	-0.986710800700467	-0.140384579302825	0.0818166589088846	0.158826594134567	-0.939561696366885	0.303311608277354	15.0959335108449	-71.6903314160538	83.7333574317502
63852	1649162504380	9.18368359056636	0.750318096096104	3.01623534980645	0.051787544160952	-0.070600090232506	-0.117687062078506	0.0279174120484851	0.00258463353776508	0.0202272187769371	0.350830078125	-0.280517578125	0.158935546875	0	0	0	-0.46672231438939	0.361201600759481	-0.593765161303519	-0.546942975164693	0.0339526736619893	0.312349673609747	0.949360256882015	-0.986673061880216	-0.140773571053564	0.0816031289396836	0.159133544267455	-0.939478835891853	0.303407369719601	15.0537898049968	-71.688102575522	83.7962580084236
63853	1649162504381	9.1828997441988	0.783123373599769	3.02351409741953	0.0197892709106279	-0.0824979796798454	-0.113544625136379	0.0218065668600927	0.00335160086658953	0.0168721135510948	0.3505859375	-0.272705078125	0.167236328125	0	0	0	-0.466748830714327	0.361168082686138	-0.593848351901986	-0.546852155540162	0.0338035019842265	0.312344942032968	0.949367136802209	-0.986644063173329	-0.141020672059794	0.0815270670184329	0.15934495868532	-0.939443349669487	0.303406290151255	15.0404453710492	-71.6893572428836	83.8232102711468
63854	1649162504381	9.18183825623347	0.775147361993849	3.05719048717089	0.0307138144112814	-0.113486348707744	-0.104979169946613	0.0182644020577421	-0.00144642563592879	0.0129856815449276	0.3525390625	-0.27734375	0.16943359375	0	0	0	-0.466718916688931	0.361205336824287	-0.593933018083937	-0.546761124700786	0.0335485493587173	0.312316242919228	0.949385621991793	-0.986641696938796	-0.141165954331169	0.0813039679197974	0.159413477151898	-0.939431071312094	0.303408314908727	15.0010492033173	-71.6927287345628	83.8688816862456
63855	1649162504382	9.20740401098324	0.761606994535305	3.03725412275514	0.0413335556064042	-0.0855024891643776	-0.087862055620711	0.0109772123197401	-0.0045559933509154	0.01119180866233	0.361083984375	-0.277587890625	0.166015625	0	0	0	-0.466749204771397	0.361212694070751	-0.593962891761669	-0.546697953807708	0.033466945704533	0.312245119705914	0.949411896262655	-0.986628070549341	-0.14129347388923	0.0812477977572233	0.159514933311258	-0.939435543002368	0.303341138974838	14.9943225309959	-71.6975218995981	83.8822992609029
63856	1649162504383	9.18328745789094	0.760675848367614	3.03563284091808	0.0406964084412889	-0.0914409019308134	-0.111324297862037	0.00622607905831738	-0.00937108520958607	0.00605158738639267	0.357421875	-0.273681640625	0.159912109375	0	0	0	-0.466775030576322	0.361192372702529	-0.594008723362594	-0.546639531410904	0.0333874129413178	0.312226138761521	0.949420938746959	-0.986608462010149	-0.14145058520077	0.0812125275824311	0.159652821293747	-0.939418208371772	0.303322281463983	14.9889962451426	-71.6991717831565	83.8963596252518
63857	1649162504383	9.23259446838111	0.781878704231998	3.02310958233784	0.0196904075565985	-0.0685221686121014	-0.0665987447964049	0.000274003530386937	-0.0132095406177061	-0.0022592701973339	0.35791015625	-0.280029296875	0.165771484375	0	0	0	-0.46682599864291	0.36122352609629	-0.59396249651809	-0.546625652449288	0.0334522338491209	0.31209320777279	0.949462362451821	-0.986607340985646	-0.141435920557906	0.0812516774545027	0.159646179922153	-0.939464586899382	0.303182102371224	15.0025174903517	-71.7067317521864	83.8820142481336
63858	1649162504384	9.20935912069351	0.747935605926967	3.01393058636875	0.0514868222138476	-0.0641929419967315	-0.0942147993528106	0.00144391197493943	-0.0103247367117885	-0.00190369795080847	0.35888671875	-0.279052734375	0.1611328125	0	0	0	-0.466862157223207	0.361297180281372	-0.593874626991793	-0.546641565460387	0.0335545498721769	0.311921149602348	0.949515291405897	-0.98662507354164	-0.141294692863496	0.0812820646118412	0.159515066504167	-0.939542977302986	0.303008147347247	15.0161020385041	-71.7163958620067	83.8600853886566
63859	1649162504385	9.18716949326057	0.700892348248438	2.9840402811521	0.0931674113020629	-0.0378441182099607	-0.128178229305565	-0.000791464579179695	-0.0188406123045246	-0.00656130053133416	0.365966796875	-0.279541015625	0.16845703125	0	0	0	-0.466934846641877	0.361337162925071	-0.593801187833884	-0.546632831988581	0.0336712080326586	0.311740624374782	0.94957044649886	-0.986624275400497	-0.141256003362809	0.0813589620411404	0.159495419809056	-0.939608708254872	0.302814607361577	15.0388366116699	-71.7264716865893	83.8353624582871
63860	1649162504386	9.21021365148482	0.728295232679323	3.02392447490746	0.0745659408604414	-0.0746540332261651	-0.0920168633795644	-0.00319073618815506	-0.023741258253685	-0.00434466254057225	0.361083984375	-0.28173828125	0.166259765625	0	0	0	-0.467019999240319	0.361434331190343	-0.593668041548744	-0.546640467757593	0.033846961361336	0.311451829694001	0.949658960357276	-0.986640074005758	-0.141098846493499	0.0814400385812558	0.159360432895109	-0.93972808476626	0.302515089093124	15.0673700167894	-71.7426527716459	83.7977336081792
63861	1649162504387	9.23514754454947	0.729229445717014	3.02304784023525	0.0753283608608926	-0.0680908185568839	-0.0685489671506119	0.000385149787500881	-0.0149618632995707	-0.00812256193856142	0.350341796875	-0.282470703125	0.16015625	0	0	0	-0.467087436508199	0.361456780603185	-0.593601071792112	-0.546640732089585	0.0339735266464749	0.311309206786308	0.949701204199132	-0.9866368910281	-0.141065811553088	0.0815357717402247	0.159353207528454	-0.939780301230531	0.302356644824361	15.0918192146248	-71.7503801897538	83.7718933542679
63862	1649162504388	9.26101360434818	0.717186943263744	3.00173417743909	0.0835952492087705	-0.040501214225246	-0.0514113602005448	0.00420764765751879	-0.0223852284645597	-0.00841804697954061	0.36083984375	-0.276123046875	0.160400390625	0	0	0	-0.46710155904857	0.361596995001594	-0.593536114539008	-0.546606464907021	0.0339249878875101	0.311056314500586	0.949785799223249	-0.986666394950677	-0.140937971455334	0.0813997130037398	0.159180778587957	-0.939883214772649	0.302127493480425	15.0786896212176	-71.7658641709588	83.7757051420562
63863	1649162504389	9.21294782287274	0.737643045357975	2.98469133547488	0.0603135072018717	-0.0443889816765994	-0.100566132877962	0.00900869904808612	-0.019440453019539	-0.00429650655581799	0.3623046875	-0.274658203125	0.166259765625	0	0	0	-0.467198493023295	0.361615772457235	-0.59348486875956	-0.546566841091158	0.0340194873272111	0.310865612015676	0.949844853514569	-0.986650987797576	-0.14099744265958	0.0814834304722465	0.159256091751809	-0.939937387504922	0.301919202453838	15.1034277091388	-71.776680797144	83.7547051269454
63864	1649162504390	9.21345892907038	0.717666576185608	2.99585118483358	0.0841853335002099	-0.0547661838899708	-0.09837276785046	0.0115081842639877	-0.0251372714453592	1.16205628046079E-05	0.359619140625	-0.27734375	0.1640625	0	0	0	-0.467351223712662	0.361656570878078	-0.593362603318565	-0.546542019810007	0.0342506914474495	0.310553909467715	0.949938502983056	-0.986636473322095	-0.140992690645416	0.0816671947302303	0.159296452081994	-0.940041132344157	0.301574716869973	15.1524234663713	-71.7938467463961	83.7063394421888
63865	1649162504391	9.19087956571448	0.724502277193804	2.95898149357049	0.0713609364795802	-0.0305544496785035	-0.130398590328797	0.0174651073673424	-0.0212979528844109	0.00831697547720586	0.366943359375	-0.26416015625	0.159912109375	0	0	0	-0.467454427166725	0.361684796343329	-0.593356133840282	-0.54644209670415	0.0342252130563968	0.310327221156736	0.950013500220067	-0.986611858315072	-0.141170286087314	0.0816577697350706	0.159454306380619	-0.940089339443419	0.301340933232629	15.1619683687131	-71.8076050247589	83.706426480842
63866	1649162504393	9.21610868462659	0.724631843742337	2.9573257312294	0.0753634703587265	-0.0249149173155286	-0.106955815663454	0.0188467618672314	-0.0307612749516782	0.00933694457408976	0.359130859375	-0.273193359375	0.167236328125	0	0	0	-0.467689596557346	0.361703256676824	-0.593201470096521	-0.546396569587266	0.0345655399694105	0.309916796292401	0.950135149766852	-0.986576197047049	-0.141243085705295	0.0819621751823897	0.159601475139816	-0.940213789579955	0.300874390762812	15.2383716109291	-71.829943094993	83.6360065747006
63867	1649162504393	9.21601070128873	0.717215071173204	2.98810051020754	0.0880137346769516	-0.0561267310029141	-0.0984144652796157	0.0237486984793247	-0.0305675951559532	0.00950680474270976	0.35595703125	-0.27734375	0.164306640625	0	0	0	-0.467836225062538	0.361740655530473	-0.59318682904104	-0.546262162800843	0.0345461679772402	0.309600274883816	0.950239039436896	-0.986541805823913	-0.141482695257059	0.0819628714997912	0.159818107984613	-0.940282041057184	0.300545929311236	15.2543734253519	-71.8490410111211	83.6330947161336
63868	1649162504395	9.21885570438956	0.710689149459521	2.93137452214191	0.0859349350682467	-0.00310631251920341	-0.113308965871294	0.0259419372187811	-0.0201782109292825	0.0151737113551625	0.35888671875	-0.2734375	0.16015625	0	0	0	-0.467947904768224	0.361711382988849	-0.593241223679004	-0.546126802461811	0.0344594518882657	0.309445697551796	0.950292537296933	-0.98649403275359	-0.141820782098265	0.0819535789736898	0.160131413273975	-0.940281992825407	0.300379267678647	15.2607927999242	-71.8588830377969	83.6457992564506
63869	1649162504395	9.2429294986952	0.703525526435207	2.96376367188492	0.0991771759559074	-0.0276222423245278	-0.0812954082900976	0.0285138470078296	-0.0237699008820253	0.0108030212459841	0.35546875	-0.277099609375	0.1591796875	0	0	0	-0.468085114311964	0.361718797806556	-0.593254609893045	-0.545989747993117	0.0344169583080619	0.30919150026238	0.95037681429332	-0.986452239542653	-0.142109412799586	0.081956658637617	0.160397793258221	-0.940322035772456	0.300111674145871	15.2743118938509	-71.8743979924776	83.6483959492234
