// Start Time : 17/05/2022 11:24:41																																
// Update Rate : 100Hz																																
// Filter Profile : 46.1 human																																
// Firmware Version : 4.4.0																																
PacketCounter	Time_Of_Arrival	Acc_X	Acc_Y	Acc_Z	FreeAcc_X	FreeAcc_Y	FreeAcc_Z	Gyr_X	Gyr_Y	Gyr_Z	Mag_X	Mag_Y	Mag_Z	VelInc_X	VelInc_Y	VelInc_Z	OriInc_q0	OriInc_q1	OriInc_q2	OriInc_q3	Mat[1][1]	Mat[2][1]	Mat[3][1]	Mat[1][2]	Mat[2][2]	Mat[3][2]	Mat[1][3]	Mat[2][3]	Mat[3][3]	Euler_X	Euler_Y	Euler_Z
33447	1652786713459	8.90728394527548	1.9355166019227	3.41368821565111	5.63785129692462E-15	-2.25514051876985E-15	-0.0792810370424313	0.0253342790464502	-0.0088415459243399	-0.00807940158756972	0.363525390625	-0.21923828125	0.287841796875	0	0	0	-0.516542502769958	0.240398924958912	-0.654501607191912	-0.497010911242351	0.0276720061236079	0.402236355677103	0.915117574002761	-0.898941405123038	-0.390377021969295	0.198771554488572	0.43719401898072	-0.828137485499834	0.350784399421495	29.5380068305752	-66.222429633947	86.0645154334292
33448	1652786713459	8.94896847916956	1.95175656694925	3.44465439325194	-0.00362290686312461	-0.00669797565250232	-0.0270358164712245	0.0249217931399276	-0.00804238347347978	-0.00520595206079184	0.365478515625	-0.21484375	0.287841796875	0	0	0	-0.515424530699151	0.242007324699044	-0.652880920886437	-0.499516277100205	0.0303579158689778	0.402776270464369	0.914794880229936	-0.901722317499416	-0.383831887407925	0.19892195538037	0.431248488771349	-0.83092981542347	0.351540015891142	29.5037265027126	-66.1766141031935	85.689671856093
33449	1652786713460	8.91018065464019	1.95897798420669	3.39838608658829	-0.0294828544369317	0.0127090185389521	-0.0773439706259555	0.0228793447691648	-0.0107270920084622	-0.00692251133794148	0.370361328125	-0.216064453125	0.289306640625	0	0	0	-0.515525063362558	0.241941586808761	-0.652863665562123	-0.499466927640136	0.030466605522493	0.402713714673133	0.914818807175553	-0.901621522151631	-0.383994113532362	0.199065696606597	0.431451523048547	-0.830885181470136	0.351396355234978	29.5315117113469	-66.1800083628024	85.6736287867215
33450	1652786713462	8.88676488481639	1.95949932344557	3.39089988416997	-0.0318131590871251	0.00870952073845753	-0.101284708557756	0.0181720962476902	-0.0100921830280145	-0.00961126480862618	0.36669921875	-0.22314453125	0.287109375	0	0	0	-0.515621985028325	0.241874476957221	-0.652831211287192	-0.499441803938576	0.0306162939319378	0.402670799792622	0.914832700301122	-0.901533991538101	-0.384109243750504	0.199239933162995	0.431623799908267	-0.830852764248748	0.351261411904243	29.562457759234	-66.1819794408188	85.6519922092906
33451	1652786713462	8.91879980507002	1.96945079503334	3.36305042910785	-0.0500088515381071	0.0402388501194395	-0.0797682614216413	0.011120601541629	-0.0139352418992511	-0.0100699748573908	0.3662109375	-0.218994140625	0.289306640625	0	0	0	-0.515707417959961	0.241847014004039	-0.652783583388094	-0.499429148265697	0.0307672301526593	0.402593699839992	0.914861568980728	-0.901482896373389	-0.384161095359862	0.199371112145556	0.431719776122172	-0.830866153878624	0.3511117617568	29.5891262851249	-66.1860756569801	85.6298061104051
33452	1652786713463	8.86110433946934	1.9406556047648	3.39470945580545	-0.0102942874122754	0.000960538884282662	-0.127169341097371	0.0066720897778523	-0.0150016846477254	-0.0136616778591013	0.364990234375	-0.224853515625	0.28076171875	0	0	0	-0.515790525486482	0.241827347020952	-0.652718178587465	-0.499438331921619	0.030957027148541	0.402520447863404	0.914887398274765	-0.901449465451159	-0.384161773680317	0.199520908379578	0.431776011038065	-0.830901330300197	0.350959336102374	29.6182951496801	-66.1897411731034	85.6021555956919
33453	1652786713464	8.90844161589113	1.94411405768322	3.4057726795731	-0.0051838580981396	0.00904225237440179	-0.0792866175525013	0.00200879776376965	-0.0108700900896097	-0.0193881277502451	0.36962890625	-0.21630859375	0.2919921875	0	0	0	-0.51585445706344	0.241797933246144	-0.652644154109262	-0.499483279712827	0.0311787351697987	0.402504602012293	0.914886840998458	-0.901434768307299	-0.384100425530422	0.199705336919459	0.431790742096189	-0.830937367354649	0.350855877211353	29.6483064657705	-66.1896620826657	85.5706103285263
33454	1652786713465	8.93533666784599	1.91323272264629	3.40347018402211	0.0247544463645858	0.0331631739611908	-0.0616568010154221	-0.00426678078700682	-0.0198213304109717	-0.0225589211138246	0.371337890625	-0.220458984375	0.2841796875	0	0	0	-0.515936994506751	0.241803026266198	-0.652530660393709	-0.499543843355114	0.0314700674693166	0.402425094731409	0.9149118416459	-0.901445601269087	-0.383974490109019	0.199898521500618	0.431746989342243	-0.831034075159337	0.350680628375697	29.6844428143858	-66.1932104980515	85.5285096980452
33455	1652786713466	8.90615431473929	1.92738508501904	3.41573570333593	0.0188958306184981	0.00533047364097215	-0.081230004843718	-0.00177543420669638	-0.0144482723366986	-0.0267635465794235	0.35888671875	-0.2216796875	0.300048828125	0	0	0	-0.516012051236665	0.241775862286018	-0.652424386468941	-0.499618269616922	0.0317737047129572	0.402407768771544	0.914908967778282	-0.901444803322432	-0.383852034161689	0.200137159050773	0.431726415976362	-0.831099033510592	0.350551990788762	29.7229121944066	-66.192802576235	85.4853506878671
33456	1652786713467	8.9323050763083	1.95101916653999	3.40783709748344	-0.00260365561444561	0.0130305143008999	-0.0553451787005539	-0.0117941304215415	-0.0167732248417399	-0.0242490066308567	0.36474609375	-0.2177734375	0.28857421875	0	0	0	-0.516067550345	0.241794932547674	-0.652305820659872	-0.499706524280429	0.0320646538550327	0.402357911768249	0.914920744551489	-0.901487985871101	-0.383657200371678	0.200316159939813	0.431614723223413	-0.831213127567449	0.350418988150352	29.7543390510813	-66.1944742338898	85.4436215240439
33457	1652786713468	8.92432651998415	1.94514961906284	3.43894990651843	0.0181472143662742	-0.014457945812265	-0.0529205401156378	-0.0111705084924825	-0.0227818980951724	-0.0249952402277095	0.360595703125	-0.22216796875	0.289794921875	0	0	0	-0.516144154733637	0.241823786796841	-0.652171069032417	-0.49978932000459	0.0323883057127026	0.40226440217527	0.914950462263194	-0.901528138298241	-0.383463783497172	0.200505717131811	0.431506678406683	-0.831347627342862	0.350232935347071	29.7908122246403	-66.1986930150656	85.3967620495267
33458	1652786713469	8.94092419004531	1.96235969020171	3.3718871755271	-0.0233665878163253	0.0404835126731181	-0.057769698940719	-0.0148068782957489	-0.0221115578133955	-0.0262934288797006	0.365478515625	-0.22216796875	0.2880859375	0	0	0	-0.516211544188955	0.241860959167535	-0.652030264591887	-0.499885439008628	0.032719620973589	0.402178031703064	0.914976642990844	-0.901583708546644	-0.383235648595423	0.200691938375525	0.4313655559808	-0.831494599177346	0.350057836153228	29.8261130129228	-66.2024102630639	85.3488845618926
33459	1652786713470	8.91266688674416	1.92184097595372	3.38946928106714	0.0221865887738537	0.0290497611764682	-0.0855979166399425	-0.0159250812665643	-0.0256581610983579	-0.0246495963450207	0.356689453125	-0.22265625	0.28515625	0	0	0	-0.516285189184053	0.24191338142504	-0.651883158855302	-0.499975865935069	0.0330525261766726	0.402059101883974	0.915016944709546	-0.901644285464697	-0.383004098739961	0.200861750558051	0.431213535272486	-0.831658787568941	0.349855038633379	29.8613617749683	-66.2081335368753	85.3003891352672
33460	1652786713471	8.94564651712393	1.87772823755702	3.36645029642123	0.0553920070032168	0.0768815084614372	-0.0723350641465625	-0.0136670151058099	-0.0281769681973454	-0.020806339237839	0.359619140625	-0.21484375	0.2900390625	0	0	0	-0.516370131171311	0.24197814456841	-0.651740956699487	-0.500042188765898	0.0333606058233336	0.401895376490023	0.915077688688257	-0.901696521495545	-0.382808774010879	0.200999566325707	0.431080564514262	-0.831827836091237	0.349616930370706	29.8951860894565	-66.2167622805666	85.2548599448787
33461	1652786713472	8.94290342331076	1.91285342527345	3.37148777046771	0.0280344438126092	0.056786086379582	-0.066023905509244	-0.0102550844660767	-0.023654853119222	-0.021648251173935	0.369140625	-0.20849609375	0.296142578125	0	0	0	-0.516447760200191	0.242014809068046	-0.651613341431344	-0.500110584215773	0.0336577709208712	0.401781445575105	0.915116836501338	-0.901733469888981	-0.382636471494232	0.201161825315894	0.430980166293783	-0.831962138966686	0.349421086351926	29.9290472728733	-66.2223248299176	85.2114362375848
33462	1652786713473	8.96457818992876	1.89492250575695	3.3880089014729	0.0545483315608231	0.0568995444671481	-0.044024010584911	-0.0101898768410871	-0.0331174205898356	-0.0256038935485877	0.3681640625	-0.21630859375	0.285400390625	0	0	0	-0.516563864075875	0.242074824150527	-0.65145112963962	-0.500172949623184	0.0340224104075098	0.401582252977039	0.915190783216237	-0.901770679211776	-0.382453599955471	0.201342707826813	0.430873667916707	-0.832142378427505	0.349123107686985	29.972469026371	-66.2328353335154	85.1574139261198
33463	1652786713475	8.95526820657083	1.89061516697775	3.32687252959664	0.0345459027797838	0.104140315368271	-0.0747565825549277	-0.00852024107618307	-0.0261301083272971	-0.0240509226104469	0.36474609375	-0.220703125	0.280517578125	0	0	0	-0.516656770762393	0.242105801102737	-0.651313168605865	-0.500241660298666	0.0343518749459795	0.401456758914402	0.915233532717	-0.901799164436731	-0.382286124748071	0.201533088713283	0.430787901070712	-0.832279874529624	0.348901124595557	30.0116905827194	-66.2389135819522	85.1092248155268
33464	1652786713476	8.97369151017871	1.90637199203391	3.35056778810443	0.0336027662684418	0.0839803313925991	-0.0464436941446138	-0.00841188685101731	-0.0287367075632422	-0.0229898529081376	0.36572265625	-0.220703125	0.280517578125	0	0	0	-0.516761085558573	0.242164264328534	-0.651171329845646	-0.500290264468137	0.0346647365385461	0.40126721740928	0.915304854282619	-0.901831489880905	-0.382132240721244	0.201680228234072	0.430695158900003	-0.832441932409687	0.34862889906909	30.0491856727631	-66.2490575512968	85.06258120051
33465	1652786713477	9.02936061109211	1.91803139915403	3.32805561786838	0.017960985035641	0.119546635581116	-0.000983275336141176	-0.00522445597381659	-0.0190078025236276	-0.0259606762733894	0.372802734375	-0.218994140625	0.287841796875	0	0	0	-0.516841330675231	0.242161742419508	-0.651050942886284	-0.500365265762007	0.0349807205504553	0.401208161742339	0.915318720523678	-0.901844950505264	-0.381984582654527	0.20189963809379	0.430641422111166	-0.832538161026616	0.348465458828408	30.0878487971098	-66.2510302018316	85.0170703548102
33466	1652786713479	8.99779102228985	1.91139327481474	3.35307601478532	0.0359039077405443	0.087369008023901	-0.022495160509763	-0.00670851455481497	-0.0182508022960881	-0.0244740356828036	0.35986328125	-0.21533203125	0.284423828125	0	0	0	-0.51692177612799	0.242194086120601	-0.650933060901517	-0.500419875942466	0.0352563497471776	0.40108888883606	0.915360417024223	-0.901870477496687	-0.381843944819867	0.202051586542398	0.430565478902342	-0.832660137785313	0.348267804025782	30.1206585327254	-66.2569629937239	84.9765218012114
33467	1652786713479	8.97655569888732	1.93328023744887	3.333035255973	0.00929568946328208	0.0870279996574147	-0.0444947008405645	-0.00556568179380516	-0.011211030479717	-0.0291601243389133	0.367919921875	-0.210693359375	0.285400390625	0	0	0	-0.516979644391534	0.242164883158149	-0.650824374381865	-0.500515584532846	0.0355676061509074	0.401106853985491	0.915340503353018	-0.901884114702361	-0.381680638009486	0.202299120651103	0.4305113111641	-0.832726354965743	0.348176433299605	30.1576474010967	-66.2541294002772	84.9326283486444
33468	1652786713481	8.99992613212487	1.93671370551264	3.3383838706985	0.0115510984590938	0.0902112755255142	-0.0205443278947577	-0.00823995828983958	-0.00789821206512465	-0.0301280351277462	0.3681640625	-0.213623046875	0.28564453125	0	0	0	-0.517033179700167	0.242169431427438	-0.650716036841643	-0.500598938241335	0.0358452117584336	0.401076251964852	0.915343083714418	-0.901914776593291	-0.38150933902752	0.202485456261577	0.430424042726086	-0.832819586912203	0.348061315142492	30.188801005165	-66.2544965519361	84.8928981947722
33469	1652786713481	8.94420608955005	1.92934465083844	3.35861076009366	0.0271955180246646	0.0546520311225243	-0.0660093287913419	-0.0111734468006966	-0.00288183726420823	-0.0301874698630829	0.369140625	-0.217041015625	0.284912109375	0	0	0	-0.517051135548766	0.242134948120703	-0.650619492000571	-0.500722544684414	0.0361298870550067	0.401167395547911	0.915291949058167	-0.901951995075315	-0.3812952002867	0.202722886764135	0.43032223953806	-0.832873754531641	0.348057580252632	30.2182612821428	-66.2472217563541	84.8537188804541
33470	1652786713483	8.97296028858202	1.92007148621999	3.34469836255145	0.032703291825332	0.0814427114343214	-0.0464191493537207	-0.00684426055256665	-0.00256679147380176	-0.0357264142558682	0.367919921875	-0.215087890625	0.28662109375	0	0	0	-0.517100501563958	0.242114925092629	-0.650511352318529	-0.500821739578477	0.036430687104217	0.401184955764389	0.915272329039527	-0.901975952570464	-0.381115896425958	0.202953330783317	0.430246657188314	-0.83294736013734	0.347974868659387	30.2525046242833	-66.2444310240563	84.8113322329943
33471	1652786713484	8.95437091067715	1.90895397112367	3.31880572921316	0.033455001558827	0.101203465594933	-0.0747218090022983	-0.0122256953836865	0.000559831055261531	-0.0346224677356467	0.362060546875	-0.212646484375	0.281494140625	0	0	0	-0.517109975472559	0.242063763221868	-0.650411287597367	-0.500966630393255	0.0367405830016042	0.401321528909872	0.915200065556239	-0.902015875559693	-0.380875139534591	0.203227676074854	0.43013659434996	-0.832991691746051	0.348004815603275	30.2840522293181	-66.2341549991712	84.7692098636383
33472	1652786713485	8.94225415637488	1.93786533517254	3.35890290150127	0.0264241934688748	0.052379326946331	-0.0659947285039255	-0.00897627590343783	0.000827253637029532	-0.0415546745930514	0.378173828125	-0.220947265625	0.2822265625	0	0	0	-0.517152896275322	0.242035338105454	-0.650294566204862	-0.501087571335247	0.0370717445452188	0.401370497459779	0.915165236187031	-0.902047601868628	-0.380660281923045	0.203489247208113	0.430041637192762	-0.833066308006246	0.34794355396445	30.3205508217224	-66.2292036814354	84.7229674137018
33473	1652786713485	8.93902772824964	1.9205497071674	3.37199842655603	0.0504787746315163	0.0486837289195307	-0.0679358475551428	-0.00693865995575233	0.0035161470115227	-0.0398409946489501	0.3662109375	-0.215087890625	0.287841796875	0	0	0	-0.517172284761038	0.241946060563573	-0.650195429982497	-0.501239298621618	0.0374160132152865	0.401551408721625	0.915071859532765	-0.902062596444007	-0.380442538590154	0.203829700798917	0.42998036472817	-0.833078592321731	0.347989863305632	30.3589817531139	-66.2159341152287	84.6766281098498
33474	1652786713486	8.91117289745864	1.95643742329366	3.37356731359209	0.0200138412864444	0.0231653147164217	-0.0855774096178443	-0.00464139598205962	0.00450189779768393	-0.0390358263931561	0.366943359375	-0.215087890625	0.285400390625	0	0	0	-0.517210024375087	0.241910781672077	-0.650100042219639	-0.50134110095099	0.0376982176336561	0.401606379218936	0.915036152596116	-0.90208110435978	-0.380272548416109	0.204064867329383	0.429916882134543	-0.833129704842994	0.347945928793454	30.3909589382456	-66.2108617179178	84.6374405021479
33475	1652786713487	8.91605771453709	1.94697660945077	3.35379677180006	0.0233182497521623	0.0469593380382973	-0.0899302512344633	-0.00482640421419073	-0.00326653380525824	-0.0420960692310907	0.369384765625	-0.21630859375	0.291259765625	0	0	0	-0.517259458875289	0.241825816813719	-0.649980203631098	-0.501486451874921	0.0380920184201087	0.401739149921518	0.914961558511077	-0.902085914510074	-0.38006322581656	0.204433234148545	0.42987207512841	-0.833161208771896	0.347925853052842	30.4375160275115	-66.2002684394703	84.5835341561317
33476	1652786713488	8.90730316520275	1.94278824275852	3.38626219597075	0.0435019285110878	0.0181051386564599	-0.0875124965162168	-0.00483012666139087	-0.00327371391801268	-0.042101280294791	0.376953125	-0.218017578125	0.28125	0	0	0	-0.517324968000484	0.241801305336609	-0.64985815650432	-0.501588858175315	0.0384330103246366	0.401743516302361	0.914945381335083	-0.902102926485308	-0.379881492183791	0.204695778957114	0.429806018738721	-0.833241981062663	0.34781401244162	30.4776962392845	-66.1979716672284	84.535398325265
33477	1652786713489	8.95383862072443	1.94862492847859	3.39815880952384	0.0485986794548431	0.0261507681647905	-0.0396222586746742	-0.00335184929851396	-0.00404064599513237	-0.0435982546099867	0.36962890625	-0.213623046875	0.2841796875	0	0	0	-0.517382379608375	0.241709554017822	-0.649734306591487	-0.50173428785101	0.0388436446691695	0.401875430756461	0.914870105218836	-0.902100487683739	-0.379678391782291	0.205082980606324	0.429774221411168	-0.833270938511552	0.347783929534563	30.527216872486	-66.1872870025146	84.4791728919078
33478	1652786713490	8.95785515563324	1.99366877748695	3.37222091074278	-0.000215033273982292	0.0320818936492535	-0.0357385704015449	-0.00337941195394794	-0.00754378600183057	-0.0405646534480947	0.37548828125	-0.211669921875	0.27783203125	0	0	0	-0.517461087564136	0.241702046237152	-0.649608575386803	-0.50181953178971	0.0391776392574043	0.401829734869664	0.914875935171973	-0.90211534971908	-0.379514556718259	0.205320717513274	0.429712704470602	-0.833367605210041	0.347628287403431	30.5674980780372	-66.1881143426507	84.4313702526643
33479	1652786713490	8.96300909787383	1.9842876878772	3.35171267907951	0.00309049740081389	0.0558764831831177	-0.0400840865727083	-0.00108277533267602	-0.0065550780467717	-0.0397590668573415	0.369873046875	-0.211669921875	0.284423828125	0	0	0	-0.517527735406533	0.241619188268102	-0.649490484806955	-0.501943543728651	0.0395645560117804	0.401925848453773	0.914817062724731	-0.902104373794396	-0.379345693539574	0.205680683521812	0.429700296356205	-0.833398138429463	0.347570421891298	30.6156435532755	-66.1797608808477	84.3780615599364
33480	1652786713492	8.98366190991647	1.96836451867653	3.37013430165934	0.0290963197825844	0.0546975328444381	-0.0180660970559856	0.00123551041144989	-0.00207066572375118	-0.0419928601759176	0.3701171875	-0.22021484375	0.2802734375	0	0	0	-0.517607367637748	0.241576318973843	-0.649378813201388	-0.50202654515805	0.0398960781524111	0.401927439085319	0.914801965814664	-0.90209416927599	-0.379220460135442	0.205956190421474	0.429691066588915	-0.83345436367265	0.34744699015634	30.6581949236459	-66.1776192117751	84.3312816565134
33481	1652786713492	9.03232127886536	1.99515739570744	3.36960963798829	0.0101344323499764	0.0664209904811786	0.0317645779808249	-0.00157053760428043	0.00382996881439447	-0.0440279710100932	0.36962890625	-0.21142578125	0.28662109375	0	0	0	-0.517644273631353	0.241457911530854	-0.64927616147367	-0.502178204502987	0.0402770862023492	0.402126063537013	0.914697974935593	-0.902083284444744	-0.379030255762628	0.206353611894487	0.429678373033171	-0.833445075719296	0.347484965871655	30.7039176825258	-66.1628718410964	84.2803107432141
33482	1652786713493	8.98394970025846	1.99673627804021	3.35822698420179	0.00434728330217125	0.056867405407668	-0.0161194800754014	-0.00018153636257972	0.0125342366765753	-0.0415566325323991	0.37255859375	-0.21240234375	0.2841796875	0	0	0	-0.51766907356655	0.241388128050019	-0.649203378014998	-0.502280276223516	0.0405334912208454	0.402245766833992	0.91463401377468	-0.902082441304461	-0.378892591506671	0.206609954241179	0.429656031238516	-0.833449906812336	0.347501003818513	30.733993730923	-66.1538055136691	84.2458441395698
33483	1652786713493	9.00045885352983	2.01449702035425	3.38565650244894	0.00358682715414982	0.0370793426268987	0.0121657374803856	0.000388164792618118	0.0194816662118954	-0.0413890068278975	0.3701171875	-0.205810546875	0.2890625	0	0	0	-0.51765684512887	0.24123091341818	-0.649150183089259	-0.502437137259815	0.0408233724132251	0.402564652110883	0.914480810698429	-0.902063986461325	-0.378729139027185	0.206989863474592	0.429667332472826	-0.833370229923395	0.347678074205312	30.7674197532011	-66.1321025638128	84.2095307786591
33484	1652786713494	8.99881352201177	2.01832845390024	3.38774757957635	0.00307302044694254	0.0354952105265287	0.0121717624822981	0.00109577521651297	0.0273210982317744	-0.0431985452574092	0.364501953125	-0.2099609375	0.28515625	0	0	0	-0.517647105617717	0.241111175729641	-0.649108779865404	-0.502558122892781	0.0410463856798317	0.402808775427695	0.914363322023069	-0.902050784421829	-0.378601468105508	0.207280753260681	0.429673802490429	-0.833310277619803	0.34781374996774	30.7929678353469	-66.1154715424677	84.181618983837
33485	1652786713495	8.94392349380767	2.03287227333566	3.39815607698559	-0.00531361172046961	0.00368022536549038	-0.0313910400248876	0.00192339059073433	0.0325593538793194	-0.0439444248184351	0.376220703125	-0.2080078125	0.28857421875	0	0	0	-0.51759937668099	0.240909333174489	-0.649084782754117	-0.502735042786869	0.0413032759729289	0.403246290684896	0.914158885775759	-0.90202437343589	-0.378440339887016	0.207689525190344	0.429704630090828	-0.833171853938353	0.348107156897747	30.8213698339967	-66.0865586809258	84.1517646246418
33486	1652786713495	8.94196424389121	2.0368662744695	3.4009194312015	-0.00577401365442001	0.00219576819710534	-0.0313908550853661	0.000961812246694291	0.029896724465836	-0.0442808330765479	0.373291015625	-0.215087890625	0.289794921875	0	0	0	-0.517581734207013	0.240775842574836	-0.64904741270724	-0.502865387659239	0.0415288993808313	0.403524601290427	0.914025845733926	-0.902009313910581	-0.378306791053402	0.207998003503495	0.429714496072426	-0.833097754165907	0.348272284095277	30.8468367351029	-66.0677608511921	84.1240682840135
33487	1652786713496	8.91061462854742	2.05247018212877	3.41752147415289	-0.011615266135198	-0.0256067003268355	-0.0510098893603192	-0.00187092697688351	0.0322947963632145	-0.0432811233133993	0.372802734375	-0.216796875	0.285888671875	0	0	0	-0.517524504311336	0.240588518672628	-0.649019756425608	-0.503049607781838	0.0417810409043108	0.403957360087031	0.913823175375011	-0.901999175563233	-0.378116513586899	0.208387594247202	0.429711335554696	-0.832974401398029	0.348571104240433	30.8724097085739	-66.0391513168211	84.0949326596533
33488	1652786713497	8.87912549813914	2.06827012437693	3.43427603691899	-0.0180834145319535	-0.0548364203005014	-0.070637987212045	-0.00119317479022292	0.0332536067472641	-0.0501317236593532	0.37255859375	-0.21484375	0.286865234375	0	0	0	-0.517488312928905	0.24044631204111	-0.648973552409014	-0.503214412831598	0.0420377985989092	0.404289377501214	0.913664557005818	-0.902002002973739	-0.377921651488758	0.208728560497536	0.429680358080657	-0.832901749653397	0.348782834015649	30.8983478540684	-66.0167826934351	84.0637471221442
33489	1652786713497	8.85343385863662	2.07139480901843	3.43094485839194	-0.0206188497138425	-0.058837008340203	-0.0945877094205816	0.0036464838020601	0.0300500125959192	-0.04638069461858	0.362060546875	-0.21044921875	0.279541015625	0	0	0	-0.517455866667134	0.240238722981868	-0.648938865890427	-0.503391627233363	0.0423274086337757	0.404714910135935	0.91346276989925	-0.901966656566286	-0.377764451222776	0.209165412616402	0.429726123154021	-0.832766390355672	0.349049564063614	30.9318425285695	-65.9883546818589	84.029384543073
33490	1652786713498	8.82208572843218	2.08723753540212	3.44715700620759	-0.0268617476805988	-0.0875737947585691	-0.11422069401703	-0.000827467243471365	0.02543952987998	-0.0469481421905937	0.371337890625	-0.211181640625	0.281005859375	0	0	0	-0.517439732110422	0.240095156297893	-0.648886939375269	-0.503543622205645	0.0426001116609723	0.405016212998331	0.913316537513124	-0.901955306421498	-0.377596272916618	0.209517731702067	0.429722998808038	-0.832696176217934	0.34922087911157	30.9619715697172	-65.9677730579293	83.9956356138249
33491	1652786713498	8.84160145825466	2.07195418462821	3.46821386264344	-0.000264699110187609	-0.0872687942605887	-0.0922038463989061	-0.00164567624025811	0.023667891690946	-0.0492623425780849	0.372314453125	-0.21240234375	0.285400390625	0	0	0	-0.5174180181788	0.239913382714799	-0.648822070566189	-0.503736125371676	0.0429429790810911	0.405399217727554	0.913130535473175	-0.901941245803007	-0.377382969579747	0.209962099890651	0.429718384138916	-0.832606490808869	0.349440326516531	30.999658945128	-65.9416179468134	83.9533423227957
33492	1652786713499	8.875913971487	2.12669693968962	3.41831121847799	-0.0668940190395099	-0.0491667035369132	-0.0667832982271932	-0.00516614835981998	0.0217067154288511	-0.0495028146935867	0.37939453125	-0.21337890625	0.2841796875	0	0	0	-0.517403606648395	0.239781691576454	-0.648745430194578	-0.503912308853058	0.0432682143727737	0.405693791114619	0.912984342404644	-0.901949439234261	-0.377154250742229	0.210337538761084	0.429668559112712	-0.832566645379285	0.349596496423934	31.0335569305294	-65.9210794227036	83.9122803663137
33493	1652786713499	8.86375323409045	2.10244496325048	3.46584549849137	-0.0220857542729312	-0.0803547806768879	-0.0663273122080614	-0.00637990619627545	0.0242316734874072	-0.0519771906965038	0.37109375	-0.209716796875	0.28466796875	0	0	0	-0.517371382993803	0.239606864777233	-0.648669325994218	-0.504126480087003	0.0436333117316635	0.406091298098536	0.912790223280231	-0.90195423811696	-0.376890084853426	0.210789981455551	0.429621561900915	-0.832492475370092	0.34983080482141	31.0709967826727	-65.8938332470849	83.8672658682675
33494	1652786713500	8.86412285522341	2.12768085926968	3.45507226669595	-0.0462734542748224	-0.0772947282047911	-0.0644000148284327	-0.00423563434795401	0.017459326325629	-0.0542296594971909	0.37353515625	-0.217041015625	0.284423828125	0	0	0	-0.517379706911106	0.239463986295155	-0.64856517390061	-0.504319792738183	0.0440404289418111	0.406380894067212	0.912641775044159	-0.901956122247823	-0.3766370918403	0.2112336492838	0.429576063297633	-0.832465656941602	0.349950476288423	31.1156060077687	-65.8730168701015	83.8148635654329
33495	1652786713500	8.81517617310158	2.12974561521654	3.44445123544169	-0.0513429010254942	-0.0852888001356376	-0.112301844960813	-0.00910245900096869	0.0171403659381002	-0.0549595649203955	0.37060546875	-0.211181640625	0.283203125	0	0	0	-0.517367227883897	0.239308157726538	-0.64845970802795	-0.504542133247134	0.0444632254196728	0.406730092480507	0.912465699879221	-0.901970885172433	-0.376337682847924	0.211703733481279	0.429501506268065	-0.832430525833509	0.350125514314524	31.1592966147785	-65.8483483361423	83.7612704432398
33496	1652786713501	8.83110367051957	2.14836386258323	3.47227064300704	-0.0522141329007755	-0.105320165236352	-0.0840337088607583	-0.0116740316494256	0.0178250793009131	-0.0548749467726746	0.372314453125	-0.2099609375	0.285400390625	0	0	0	-0.517346797890382	0.239172282889434	-0.648350470840889	-0.504767844429915	0.0448765721157088	0.40706290980899	0.912297035363473	-0.902002968596915	-0.376012084654067	0.212145131540785	0.429391124637547	-0.832414980434603	0.350297819620051	31.1996686454076	-65.8247402425549	83.7088431359857
33497	1652786713502	8.83305137749094	2.11942282862221	3.46673033327327	-0.0248470663209242	-0.0852199100605005	-0.0902860739424316	-0.0073606743246605	0.0146530490781857	-0.0573819742073632	0.37939453125	-0.207763671875	0.298828125	0	0	0	-0.517349567197266	0.239010958021194	-0.648234393773122	-0.504990453371333	0.045331865350767	0.407399929429423	0.912124070225493	-0.902008792180098	-0.375716807899213	0.212642938024817	0.429331062018136	-0.832383431936825	0.350446374533184	31.2484295442454	-65.8005526720239	83.6507497543795
33498	1652786713503	8.85709449939339	2.14626498960814	3.4615961466286	-0.0461076442216336	-0.0773951291087825	-0.0644000257681334	-0.00966302905656284	0.0136313435033186	-0.0582087809033705	0.36962890625	-0.21533203125	0.2802734375	0	0	0	-0.517355086507998	0.238846914726889	-0.648104816110537	-0.505228674091322	0.0458245973195474	0.407744941370057	0.911945266486772	-0.902019606292849	-0.375392276402741	0.213169577286396	0.429256026333695	-0.832360920276953	0.350591731579496	31.3007711743515	-65.7755724882573	83.5876947505083
33499	1652786713504	8.80012152678914	2.14051156242319	3.48332183095475	-0.0304276187335395	-0.112881061941285	-0.109915109721635	-0.00629657704974773	0.0146856642306486	-0.056003906519428	0.368896484375	-0.20947265625	0.289306640625	0	0	0	-0.517358778015076	0.238685269346253	-0.647993477446596	-0.505444052487041	0.0462675907675493	0.4080770598932	0.911774326921683	-0.902020737009908	-0.375111304005168	0.213658839301454	0.429206127692358	-0.832324830097278	0.350738474015708	31.3484577644911	-65.7517135983975	83.5314538427915
33500	1652786713505	8.8140159514776	2.13857545896987	3.52332931036247	-0.00703186012921304	-0.135903848820367	-0.0835707360808264	-0.00373947840215775	0.0104993899395157	-0.0530557233846475	0.3759765625	-0.20263671875	0.287353515625	0	0	0	-0.517369870998989	0.238514785110209	-0.647885308245317	-0.505651798401026	0.0467106492874044	0.408408015336055	0.911603536770462	-0.902009469751336	-0.374853912115278	0.214157561273905	0.429181816625616	-0.832278461562677	0.350878227732642	31.3976891763341	-65.7278975709009	83.4752894582008
33501	1652786713506	8.76759101951312	2.16106818438489	3.49906645266494	-0.0361595136091391	-0.140205216771732	-0.129538738531629	-0.00118014114917895	0.00631624948055534	-0.0501056454638814	0.37646484375	-0.212158203125	0.285888671875	0	0	0	-0.517406386497787	0.238373066097287	-0.647773301503168	-0.505824734893784	0.0471360624381286	0.408648023472632	0.911474072329949	-0.901991010543814	-0.374639237858022	0.214610480534643	0.429174100472033	-0.832257312595733	0.350937825141363	31.4472118788482	-65.7098588724709	83.4202183713635
33502	1652786713507	8.76426162217836	2.14478433695786	3.51203666398363	-0.0116115723734672	-0.143239346277996	-0.131461767465613	0.00206058528864909	-0.000386427696133209	-0.0509575493934462	0.37255859375	-0.21142578125	0.289306640625	0	0	0	-0.517472540002793	0.238201508920696	-0.647639588946242	-0.506009065452888	0.0476460079548935	0.408897526598579	0.911335652033611	-0.901948486013341	-0.374429733654798	0.215154138081142	0.429207160359894	-0.832229047376239	0.350964422981923	31.5098334619431	-65.6905862350066	83.353690314538
33503	1652786713508	8.77141622478421	2.15697443447605	3.47908743669716	-0.0323490325368245	-0.115749454684393	-0.133850403582205	0.00894055546959671	-0.00431504647806338	-0.0424064993700279	0.369873046875	-0.2099609375	0.27978515625	0	0	0	-0.51756005384817	0.238073658412137	-0.64753136138033	-0.506118227156342	0.0480481383983968	0.409020018364657	0.911259568385114	-0.901889680235122	-0.374330546620766	0.21557283352034	0.429285896672413	-0.832213474081966	0.350905047661882	31.5638123547562	-65.6799990097365	83.3000926856183
33504	1652786713509	8.78836733566508	2.17543779564253	3.50421634522708	-0.0328791017839448	-0.134522189606539	-0.105561983573549	0.0125924718842686	-0.0118337472916819	-0.0461503608740371	0.37158203125	-0.200927734375	0.27734375	0	0	0	-0.517665778025267	0.23790390881152	-0.647404302486008	-0.506252448444747	0.0485387985896115	0.409190602434074	0.911156976547464	-0.901809450634745	-0.374220377231798	0.216099106917058	0.429399231225833	-0.832179163488326	0.35084774486739	31.6303340692374	-65.6657299551964	83.2351008870278
33505	1652786713510	8.73689877851432	2.21025691925358	3.49767061783613	-0.0653131267962777	-0.162631870858516	-0.147201369249384	0.0128570195631837	-0.0136152805690057	-0.0359160530261492	0.375732421875	-0.203125	0.294921875	0	0	0	-0.517785495630043	0.237803807437594	-0.64729302656221	-0.506319333471742	0.0489221738642373	0.409211222946197	0.911127211710459	-0.901736672133341	-0.37418016344183	0.216472121568884	0.429508550595079	-0.832187106546072	0.350695059366668	31.6856211887255	-65.6615915632858	83.1825108341805
33506	1652786713511	8.77430437118078	2.21019402499281	3.44958458532529	-0.0793674663544127	-0.10591225482682	-0.129945457226004	0.0142108809062544	-0.0187376316003336	-0.0323781453063926	0.3818359375	-0.207275390625	0.287109375	0	0	0	-0.517913958901696	0.237646382013011	-0.647178929701939	-0.506407702588291	0.0493672601319579	0.409312032853769	0.911057919886645	-0.901633546961863	-0.37415087175075	0.216951773814192	0.429674086512131	-0.832150698449067	0.350578656581796	31.7508412277357	-65.6519600454588	83.1227560501361
33507	1652786713512	8.77434252778574	2.21334849798137	3.44746431442733	-0.0793487547734583	-0.105914500746901	-0.129945328435756	0.0152931356741733	-0.0221540891901141	-0.0279285281514162	0.373779296875	-0.203857421875	0.288818359375	0	0	0	-0.518058212915666	0.237580286991634	-0.647068437229633	-0.506432357580753	0.0497160895483481	0.409231950558839	0.911074926162403	-0.901553626170347	-0.374163748856346	0.217261474221418	0.429801546738863	-0.832184294302393	0.350342590527198	31.8047089801762	-65.6543235752382	83.0732896296408
33508	1652786713513	8.74886100105919	2.19418670385949	3.45168269365114	-0.0569362723603118	-0.112132056123668	-0.155807899732215	0.0166429547724396	-0.0238010291008388	-0.0274446617818373	0.374755859375	-0.205322265625	0.285400390625	0	0	0	-0.518201815514212	0.237441521888228	-0.646951598197131	-0.506499784473157	0.0501503065471601	0.409276434660949	0.91103114479388	-0.901446945544697	-0.374158984024095	0.217711871615198	0.429974826148417	-0.83216455987099	0.350176804162354	31.8700371335898	-65.6482392834641	83.0141394437604
33509	1652786713513	8.8198849303331	2.20139379503393	3.46756644268137	-0.0492756326291767	-0.100111773855399	-0.0839633911812143	0.0190730693616476	-0.0253831899495654	-0.0255614713074661	0.37646484375	-0.214111328125	0.28466796875	0	0	0	-0.518363471170448	0.23737724867348	-0.646842986439321	-0.506503212687337	0.050492385412939	0.409160712273023	0.911064229649888	-0.901351490670126	-0.374213074699231	0.218013910085777	0.430134873361894	-0.83219714386459	0.349902707136665	31.9257989867918	-65.6528369503136	82.9649947915796
33510	1652786713514	8.79853366367911	2.22382688898653	3.44623507312306	-0.0752179696187762	-0.0989363246557679	-0.105953135416673	0.0214873237748246	-0.0200176516935341	-0.0297891960935509	0.371826171875	-0.19873046875	0.293701171875	0	0	0	-0.518499350560368	0.237218616858424	-0.646737746252375	-0.506572836674699	0.0509152307763496	0.409244151843492	0.911003218137506	-0.901234946971178	-0.37422257791825	0.218478906382464	0.430329187521424	-0.832151840926955	0.349771502568506	31.9902696078728	-65.6443590648017	82.9081097699868
33511	1652786713514	8.83393984676858	2.25582609851343	3.49570068091027	-0.0767099249214257	-0.138513047991607	-0.0493838336652423	0.0224427457077568	-0.0277349200913729	-0.0314578425366346	0.375	-0.20751953125	0.281982421875	0	0	0	-0.518684132862004	0.23713425211712	-0.646611929379724	-0.506583783370409	0.0513207185133716	0.409130687252744	0.911031428985504	-0.901121782977736	-0.374280433797955	0.21884626823193	0.430517962568693	-0.832181613365804	0.349468233580091	32.0558888803231	-65.6482787729385	82.8502502373198
33512	1652786713515	8.81477444933763	2.29888371765916	3.46121171628226	-0.126314719648798	-0.133179541454109	-0.0694123432107361	0.0233875852014097	-0.0251390898539607	-0.019977914214352	0.37646484375	-0.21240234375	0.2890625	0	0	0	-0.518835437344962	0.236971078607126	-0.646526409807597	-0.506614348671784	0.051696618650148	0.409181125593095	0.910987522460385	-0.900977098422038	-0.374373219247278	0.219282832956518	0.430775727889987	-0.832115075676915	0.349308993717675	32.1190310409395	-65.6421785121747	82.799307924593
33513	1652786713516	8.81527733275041	2.30126713473014	3.45834593125041	-0.126281984030045	-0.133179014487951	-0.0694119116684053	0.0185358378682097	-0.0289425019330735	-0.0176436558293483	0.38134765625	-0.203369140625	0.28955078125	0	0	0	-0.518997928855093	0.236937803485907	-0.646427745055154	-0.506589377648512	0.0519832954043659	0.409006399571121	0.911049670494848	-0.900887316677764	-0.374455359465934	0.219511335507705	0.430928972857524	-0.832164015610569	0.349003254246795	32.1685152065783	-65.6508136237648	82.7567398697844
33514	1652786713517	8.80431722273605	2.27582227667368	3.4094301794506	-0.121042059992841	-0.0876457035258779	-0.102010298176561	0.0139597068403352	-0.0310287587873348	-0.00811660926342097	0.37255859375	-0.200439453125	0.2900390625	0	0	0	-0.519132766649117	0.236851295428076	-0.646338322851126	-0.506605770653344	0.0522964725360709	0.408962911741559	0.911051269567278	-0.900791984861578	-0.374504113989547	0.219819172535158	0.431090337364944	-0.832163448743556	0.34880526889055	32.2193762243909	-65.6510358436203	82.7128034297225
33515	1652786713517	8.79144130619951	2.28184719720847	3.45864066177961	-0.103559293314277	-0.138930296063013	-0.0952579356839696	0.00844233334696842	-0.0391971249093387	-0.00701865728715637	0.37451171875	-0.201171875	0.281982421875	0	0	0	-0.519290306940276	0.236904044033207	-0.6462278849193	-0.506560531221407	0.0525319893468801	0.40866313386682	0.911172230214139	-0.900751028832407	-0.374545804258797	0.219915948874771	0.431147276638296	-0.832291946092403	0.348428102077172	32.2587250161999	-65.6678510242871	82.6750296165437
33516	1652786713518	8.83016103533997	2.2790168393599	3.40855420126589	-0.116910603383104	-0.0814699970497137	-0.0780278034585127	0.0102003736336587	-0.03824395626703	-0.00132940470492529	0.37158203125	-0.200927734375	0.28662109375	0	0	0	-0.519438991370949	0.236847072545262	-0.646127460061752	-0.506562833046819	0.0528455391617766	0.408553104412308	0.911203440437846	-0.9006635223006	-0.37459512080464	0.220190179314237	0.431291744168353	-0.832323768941164	0.348173196940542	32.3099010909884	-65.6721914427444	82.6298252539278
33517	1652786713519	8.85898995307865	2.24738676488273	3.40379719730112	-0.0869528160034212	-0.0573386189286597	-0.0603832384573035	0.00925715921029048	-0.0409086838914789	-0.00166095601129944	0.369384765625	-0.19970703125	0.288330078125	0	0	0	-0.519597965334402	0.236914963560742	-0.646026959658908	-0.506496220968359	0.0530409348697586	0.408219361374961	0.911341655048622	-0.900621493468703	-0.374665756371566	0.220241904515752	0.431355520111132	-0.832455718943141	0.347778508922724	32.3453483669139	-65.6914217535234	82.5968948638799
33518	1652786713519	8.88013012367465	2.28282260004438	3.41293576328418	-0.110274523537795	-0.071120207779833	-0.0301058898063342	0.00845524611784282	-0.0461664978781606	-0.000921711049132135	0.373046875	-0.20751953125	0.292236328125	0	0	0	-0.519764323078374	0.236875596946569	-0.645915019777399	-0.506486709847405	0.0533674775943389	0.408055777814713	0.911395849522724	-0.90053371501759	-0.374722328638315	0.220504432011006	0.431498482560293	-0.832510455557111	0.347470000052172	32.399208244767	-65.6989659322952	82.5488760468513
33519	1652786713520	8.88748486801863	2.27019847226859	3.38911798323854	-0.106922564850122	-0.047312490506116	-0.0344647736532462	0.000342098449367722	-0.0397962700270591	-0.000783930889482666	0.369873046875	-0.203369140625	0.289306640625	0	0	0	-0.519896103429605	0.236971115902392	-0.645809141779896	-0.506441787632303	0.0535504852429785	0.40772875289855	0.911531463850829	-0.900530192030626	-0.374722811935545	0.22051799803282	0.431483161631513	-0.832670449983012	0.347105463733377	32.4280181985048	-65.7178538650085	82.5176846091071
33520	1652786713521	8.87110689992915	2.2557354252395	3.35977763783121	-0.104967706299634	-0.0252633165973265	-0.0627474522909015	-0.0051909222843681	-0.0375908934453159	0.00231122040319175	0.37451171875	-0.206298828125	0.280029296875	0	0	0	-0.519990423351913	0.236962420215354	-0.64572534335963	-0.506455873666274	0.0537751846975402	0.40762640742676	0.91156400843775	-0.900499164251864	-0.374702518869226	0.2206791279998	0.431519970212782	-0.832729688627354	0.34691754205596	32.4610133542546	-65.7223886254285	82.4847816677161
33521	1652786713522	8.86455489245132	2.24745321678768	3.38923381689969	-0.0841638210087791	-0.0527259030697	-0.0603327407878424	-0.0041107094326715	-0.0375295538942261	0.00370467660397567	0.379150390625	-0.1982421875	0.28466796875	0	0	0	-0.52009801960254	0.237077783841457	-0.645631794144471	-0.50641066418879	0.05390742159723	0.407302279652801	0.911701071013065	-0.900517023123605	-0.374684727209384	0.220636457233682	0.43146619909483	-0.832896276967103	0.346584348828678	32.4809316925142	-65.7414956542143	82.460587081326
33522	1652786713523	8.88944352996042	2.24857686732705	3.39215053819969	-0.079638789661965	-0.0469852767165097	-0.0363670602172927	-0.00871745544906884	-0.0360936620757128	-0.000975940179407861	0.376953125	-0.2021484375	0.277587890625	0	0	0	-0.520211132188567	0.23709565438724	-0.645485311018433	-0.506472844165619	0.0542687278602454	0.40716196506572	0.911742309745606	-0.900521160288821	-0.374541817586949	0.220862098945788	0.431412268078349	-0.833029147798854	0.346332057235551	32.5263805285079	-65.7472472533009	82.4080574765334
33523	1652786713524	8.90037465828524	2.20200956809885	3.36218699631576	-0.0489298209941801	-0.0030739662939196	-0.047063354707733	-0.0111575338171725	-0.0345231568726927	-0.00286079278689712	0.376953125	-0.21142578125	0.2890625	0	0	0	-0.520299294568377	0.237208942949249	-0.645374204402146	-0.506470826157683	0.0544481073543933	0.406887121605216	0.911854305181121	-0.900565704332434	-0.374438439272108	0.22085576147272	0.431296667951135	-0.833209892804502	0.346041122913099	32.5474680710318	-65.7628738167861	82.3781727673118
33524	1652786713526	8.89160090159865	2.1734434552845	3.40487034902207	-0.00253748964718775	-0.032727873308314	-0.0465987447627878	-0.0121167350234888	-0.0337119751505646	-0.0062455272326894	0.37548828125	-0.203125	0.28564453125	0	0	0	-0.520394803864362	0.237232110008951	-0.645226329410458	-0.50655025212429	0.0548078196324172	0.406770404963322	0.911884828557377	-0.900587834397068	-0.37425553610704	0.221075431084579	0.431204888009332	-0.833349045322072	0.345820348183348	32.5898970837066	-65.7671343418234	82.3262417592608
33525	1652786713526	8.87682659555742	2.18008839068428	3.36338242021447	-0.0258033573508834	-0.00926964663226523	-0.0729530428176286	-0.0106386134682461	-0.0344768985554792	-0.00775035386022951	0.37841796875	-0.202880859375	0.28466796875	0	0	0	-0.520490002139499	0.237331016617488	-0.645103364557863	-0.506562725889162	0.0550312751748674	0.40651379496739	0.911985796629442	-0.900627480355414	-0.374136386582102	0.22111559389592	0.431093609766239	-0.83352774323144	0.345528292448268	32.616594604147	-65.7812327219901	82.2905252658707
33526	1652786713527	8.9288667154442	2.14988942980517	3.36557792041014	0.00845574298412935	0.0206260192280958	-0.031414306586738	-0.00727624725098874	-0.0299174576789217	-0.00859854119416926	0.37841796875	-0.20263671875	0.281494140625	0	0	0	-0.520594338067596	0.23730144995447	-0.644972659989916	-0.506635791162646	0.0553965794300774	0.406456885221479	0.911989045681745	-0.900608050267591	-0.374016393925011	0.221397553890145	0.431087414314842	-0.833609343476538	0.345339114042937	32.6640084418097	-65.7816865219431	82.2388970946435
33527	1652786713528	8.90219818846924	2.18259108865451	3.36408160089683	-0.0214011831736983	-0.00350007914991189	-0.0490092407559821	-0.00444427670865577	-0.0323248580548534	-0.00962144491573767	0.3740234375	-0.210205078125	0.290771484375	0	0	0	-0.520700698492631	0.237369728913428	-0.64485772315241	-0.506640810906052	0.0556282573725119	0.406225312261477	0.912078117630153	-0.900619646846391	-0.373941401040048	0.221477042382473	0.431033349865157	-0.833755854112144	0.345052788769703	32.6949539721851	-65.7941304469663	82.2024489370216
33528	1652786713529	8.93051558147144	2.15108670438848	3.36043411090847	0.0097936719572941	0.0221782933537673	-0.0314189512004273	0.00163611735325486	-0.024138231153112	-0.00444764638615264	0.377197265625	-0.20751953125	0.283935546875	0	0	0	-0.52079364658209	0.237322683630308	-0.644778008322812	-0.506668769017299	0.055878527635552	0.406185467883738	0.912080564330449	-0.900570051181641	-0.373929404674008	0.221698857089606	0.43110459643105	-0.833780646213505	0.344903843028475	32.7322826350765	-65.7944723515987	82.1670436123627
33529	1652786713530	8.90374094982751	2.18362247440131	3.35932600895131	-0.0200647401926042	-0.00194927851394117	-0.0490059700777525	0.00298873176182072	-0.0257846366278296	-0.0039683312221586	0.37890625	-0.207763671875	0.281005859375	0	0	0	-0.520890984584355	0.237365014614863	-0.644703284662123	-0.506643964497256	0.0560310491655104	0.405987463794011	0.912159361499688	-0.900552648468474	-0.373939486150778	0.221752537829243	0.431121153349995	-0.833872556173543	0.344660864031255	32.7569630841527	-65.8054859839557	82.142147210499
33530	1652786713531	8.91030481060755	2.17124572747802	3.33718543904376	-0.0155345657386519	0.0228778411228371	-0.0533901866867286	0.00852310912004614	-0.0210852583034477	-0.00202193076183736	0.376708984375	-0.201416015625	0.2724609375	0	0	0	-0.520992673332562	0.237328920612197	-0.64462386032544	-0.506657375821144	0.0562701242803557	0.405913609310606	0.912177512817494	-0.900500124546125	-0.373946573934163	0.221953791441629	0.431199720322134	-0.833905331329245	0.344483235549679	32.7940644921996	-65.8080236964379	82.1076229099433
33531	1652786713532	8.90127147885778	2.21796898670019	3.3621752809778	-0.04610910112403	-0.0209888567267223	-0.0426476495901049	0.0117786672069758	-0.0208847712598208	0.00216567710343937	0.380126953125	-0.2041015625	0.289306640625	0	0	0	-0.521089283195407	0.237346735456817	-0.644587662964333	-0.506595727243201	0.0563465438443427	0.405733031286898	0.912253130616466	-0.900448392278749	-0.374054592613848	0.221981653717385	0.431297762386282	-0.833944763798679	0.344264972213777	32.8138757929257	-65.8185984174037	82.0935668733834
33532	1652786713533	8.87636804458245	2.19590311173062	3.36715060065459	-0.0229592973422637	-0.0277568085468709	-0.0685452492725673	0.014480829303385	-0.01378006918896	0.00513330670005116	0.380126953125	-0.196044921875	0.283203125	0	0	0	-0.521188883238118	0.237285021915698	-0.644535962119625	-0.50658795869819	0.0565384238179918	0.40568768355276	0.912261426371725	-0.900368945878261	-0.374128916952935	0.222178565117554	0.431438486844009	-0.833933484705597	0.34411593272694	32.8483221511243	-65.8197587963806	82.0661094149364
33533	1652786713534	8.90259597958026	2.21798204827012	3.35865796796249	-0.0443442610504033	-0.0199886345061287	-0.042637382374398	0.01679397453543	-0.0162432206291374	0.00899169663900417	0.37646484375	-0.206298828125	0.289794921875	0	0	0	-0.521275544585566	0.237292639234681	-0.644534658695934	-0.506496874345515	0.0565345542095107	0.405519880587279	0.912336270587118	-0.900299279560097	-0.374306239286526	0.222162207530327	0.431584350276863	-0.833935528491056	0.343928019964122	32.8606624241179	-65.8302300903565	82.0634045372089
33534	1652786713535	8.88170342207062	2.23688907768653	3.33801398644996	-0.0692558372690577	-0.0188757606814727	-0.0645843293919803	0.012073994860819	-0.0191679891981049	0.00935639154340755	0.37451171875	-0.204345703125	0.278076171875	0	0	0	-0.521383107618024	0.237216053490364	-0.644510209926484	-0.506453145273626	0.0566702665339527	0.405467559665085	0.912351105085214	-0.900189332247844	-0.374467511217817	0.222335892625358	0.431795839486847	-0.833888566357385	0.343776398114056	32.8925934242009	-65.8323060596194	82.0435828106979
33535	1652786713536	8.88247107623948	2.2362829216973	3.33637706249683	-0.0691637725692404	-0.0188566536619161	-0.0645836387697489	0.0132993879496155	-0.0113016321712422	0.0138254077489713	0.374755859375	-0.211181640625	0.2890625	0	0	0	-0.521439556118735	0.237234367790107	-0.644529747295948	-0.506361579214444	0.0566025191796984	0.405323434509761	0.912419348906917	-0.90013696825609	-0.374635611669365	0.222264699958979	0.431913872434362	-0.833883128445666	0.343641288107849	32.8944965604121	-65.841858396273	82.0501831533877
33536	1652786713537	8.85568165475735	2.19271691269581	3.35454707350575	-0.0229350536390924	-0.0293749119430071	-0.0924660731123072	0.0138331081276128	-0.0147287771578125	0.0119927542581612	0.37939453125	-0.20654296875	0.28466796875	0	0	0	-0.521506775843947	0.237209425105031	-0.644529910358148	-0.506303827798991	0.0566257665901174	0.405243276517899	0.912453510813082	-0.900068566463183	-0.374776245194861	0.222304614667694	0.432053351130381	-0.833858892663908	0.343524742780384	32.9080524940352	-65.8466414966584	82.0454068338232
33537	1652786713538	8.89977461460601	2.22877884911598	3.37200508298545	-0.0450081441468171	-0.0413190759336171	-0.038224287635007	0.00948844799049762	-0.0149995665286021	0.00640980197843134	0.371337890625	-0.20361328125	0.283935546875	0	0	0	-0.521574084339223	0.237230214719502	-0.644516644756101	-0.506241636377509	0.0566402397129546	0.405096057787897	0.912517981855681	-0.900028585867584	-0.374882461643922	0.222287391844413	0.432134733464526	-0.833882679947545	0.343364599539679	32.9182142737512	-65.8556706875089	82.0405452233343
33538	1652786713539	8.90421804095917	2.19496710487336	3.36352910991205	-0.0166195839818315	-0.0201354982514091	-0.0445951325767862	0.00907884870482077	-0.0106910472781262	0.0062566950085758	0.37939453125	-0.196044921875	0.279296875	0	0	0	-0.52163269160658	0.237175680603635	-0.644506140616206	-0.506220175699746	0.0567190624764127	0.405086846170808	0.912517175186958	-0.899961200798394	-0.374977660489443	0.222399620483887	0.432264716359443	-0.833844350699369	0.343294063154955	32.9367800620657	-65.8555576936774	82.0294318709912
33539	1652786713540	8.89885747386933	2.20771180039025	3.3823469144679	-0.0198251685036086	-0.0439015026998885	-0.0401950545098124	0.00811739796089994	-0.00987494136008056	0.00287768808245239	0.37890625	-0.205078125	0.281005859375	0	0	0	-0.521684178250433	0.237178555926602	-0.644495730737234	-0.506179023501786	0.0567431713401013	0.404995839176899	0.912556071020114	-0.899925039365673	-0.375058257550701	0.222410042412037	0.43233683168215	-0.833852309280505	0.343183901543486	32.9463972469849	-65.8610065795662	82.0243187189928
33540	1652786713542	8.89925496387972	2.20773024541323	3.38128890143879	-0.0178670976851023	-0.0431256784508696	-0.0401878239146249	0.00811704704121211	-0.00987563393431256	0.00287718425902467	0.369140625	-0.201904296875	0.28173828125	0	0	0	-0.521770520982032	0.237125592204675	-0.644426629558307	-0.50620282108246	0.0569715452754055	0.404970868160541	0.912552923928377	-0.899871443291766	-0.375060314899482	0.222623327024587	0.432418349028955	-0.833863511690492	0.343053953911442	32.9813745634754	-65.8605656630304	81.9921472193616
33541	1652786713543	8.87026422073815	2.21896847498686	3.39420454848253	-0.0236574062624509	-0.070964458855237	-0.0597166758947249	0.00421694181264691	-0.011016682135423	0.00555703972212172	0.372314453125	-0.208740234375	0.27490234375	0	0	0	-0.521813255259431	0.237150708408579	-0.644414804603099	-0.506162056801194	0.056978202219318	0.404859879578566	0.912601754534519	-0.899853412145609	-0.375119027512188	0.222597286255278	0.432454993174733	-0.833890995937682	0.34294093627373	32.9869351058497	-65.8674078232351	81.9890566331013
33542	1652786713544	8.9003172401002	2.20698848715534	3.37897638148285	-0.0173487694154651	-0.0425359887097145	-0.0401843055121329	0.00640560934357354	-0.0143649515174754	0.0113969362893507	0.379150390625	-0.20849609375	0.2822265625	0	0	0	-0.521850586778555	0.237190017627649	-0.64438707932027	-0.506140447525946	0.0570123750857744	0.404745229660189	0.912650474253096	-0.899856229168207	-0.375125485832062	0.222575013661542	0.432444627570114	-0.833943744473559	0.342825721233346	32.9931093720903	-65.8742362639325	81.982073434769
33543	1652786713544	8.87745213278037	2.20477330723521	3.37150419360445	-0.0198535265787668	-0.0465924653956048	-0.0641153183489429	0.00207651450846899	-0.0181160766561864	0.00886767604067239	0.372802734375	-0.201904296875	0.283203125	0	0	0	-0.521906706412305	0.2372489826469	-0.644362593495564	-0.506086117314574	0.0570195366733625	0.404562255904011	0.912731150742327	-0.899849596435666	-0.37517952418894	0.222510737772201	0.432457484883917	-0.834008216822363	0.342652620069741	32.9987679354718	-65.8855476877624	81.9774998080839
33544	1652786713546	8.85847112002645	2.16890719616298	3.35688532617679	0.00582769155552535	-0.0296751125797707	-0.0944347817424411	0.00627963596272433	-0.0152525396783098	0.0133772776874027	0.381103515625	-0.2099609375	0.282470703125	0	0	0	-0.521962718952273	0.237249835273363	-0.644347994127273	-0.506046537534714	0.0570563562538429	0.404469004610563	0.912770177273762	-0.899811280971616	-0.37525883502378	0.22253194236517	0.432532346590696	-0.83401776422684	0.342534871373426	33.0102576177551	-65.8910212787691	81.9705602465996
33545	1652786713546	8.87533136118433	2.16142223034655	3.39377013320592	0.0292867369452908	-0.0530741683309282	-0.0680861190046826	0.00305207086973914	-0.0224196861886076	0.0152930518679673	0.376708984375	-0.198974609375	0.28076171875	0	0	0	-0.52202757401142	0.23733329429805	-0.644329643388965	-0.505963862385087	0.0570244361357671	0.404225982327474	0.912879821715206	-0.899804077745673	-0.375346954756	0.222412421477887	0.432551540692733	-0.834095928995452	0.342320238778773	33.0126018540426	-65.9064055055731	81.9702320148725
33546	1652786713547	8.86432612823228	2.13297713126072	3.34596795190386	0.0345765971057491	-0.00885548067552765	-0.10083397728302	0.00534828333451226	-0.0214049788756922	0.0160964623452145	0.3740234375	-0.20361328125	0.2841796875	0	0	0	-0.522110876978721	0.237365196626601	-0.644283647663039	-0.505921512613305	0.0571126895688469	0.404052013205523	0.912951319246967	-0.899775817105288	-0.375402373010961	0.222433219844185	0.432598681970628	-0.83415527868755	0.342115991141852	33.0306749923535	-65.916442311669	81.9545499992021
33547	1652786713547	8.85966162224164	2.14456270206454	3.36378422018748	0.0313873846640466	-0.0326309957783424	-0.0964253795312366	0.00778519640494571	-0.0229892448646663	0.0179663968845699	0.379150390625	-0.211669921875	0.28125	0	0	0	-0.522186654465597	0.237441841258827	-0.644275837017455	-0.505817275063934	0.057060035710153	0.403793775105212	0.913068858033739	-0.899749617973604	-0.375540512533029	0.222305979233089	0.432660117506928	-0.834218143313073	0.341884939835291	33.0333820271169	-65.9329509322336	81.9567969762473
33548	1652786713548	8.92155461541765	2.14109400465262	3.32076548120638	0.0196254925371846	0.0275176420838381	-0.0553946701342287	0.00899471494381369	-0.0220417940888184	0.0173749462699902	0.375	-0.205078125	0.288330078125	0	0	0	-0.522254687806093	0.237481969019749	-0.64426482158181	-0.505742222013568	0.0570503081253219	0.403611701683948	0.913149963919724	-0.899715988043891	-0.375654238526563	0.2222499357373	0.432731329118902	-0.834255049334923	0.341704710910126	33.0405876500544	-65.9443486721337	81.9545699680417
33549	1652786713548	8.87346493892944	2.11627821065778	3.31950639497245	0.0385563317510518	0.0156725127635692	-0.105246748406737	0.00804618938672645	-0.0247106488743454	0.0170454277681035	0.3740234375	-0.208740234375	0.2841796875	0	0	0	-0.522337638225255	0.237559923846473	-0.644250509496306	-0.505638166369065	0.0570131271916161	0.403342313490221	0.913271307704447	-0.899688271725973	-0.375790654585976	0.222131487287545	0.432793850518426	-0.83432389518352	0.341457348550641	33.0455916536135	-65.9614104996828	81.9544450499184
33550	1652786713549	8.90013364677241	2.13738320563834	3.31034942157158	0.0172989779809503	0.0246413990205379	-0.0793276011805535	0.0118033235697429	-0.0209762265828778	0.0132932190066692	0.374755859375	-0.206787109375	0.283203125	0	0	0	-0.522405413081007	0.237540370613664	-0.644277429287438	-0.505543025689363	0.0569623328789865	0.40323517110298	0.913321788538155	-0.899604672838365	-0.376001643011134	0.222113027669034	0.432974277804538	-0.83428062499286	0.341334313424772	33.0528540044249	-65.9685118316904	81.9594113372652
33551	1652786713550	8.87749518274571	2.13483969816211	3.30245752525479	0.0147835333613711	0.0205778635657233	-0.103256667582551	0.00616331569972281	-0.0196393750759866	0.0183954078535915	0.375732421875	-0.205078125	0.285400390625	0	0	0	-0.522465314794338	0.237614841599573	-0.644277938535287	-0.505445466697629	0.0568902499366623	0.403003700619654	0.913428440956931	-0.899585752684165	-0.376128134492851	0.221975449116773	0.433023062930612	-0.83433545036142	0.341138363776926	33.0516657792079	-65.9835215300605	81.9649012493979
33552	1652786713551	8.92769169016333	2.15726549423845	3.29957165955265	-0.0036533642994916	0.0333572741651098	-0.0534086991266882	0.00679926066638107	-0.0187010289905111	0.0115308107343937	0.373291015625	-0.20166015625	0.277587890625	0	0	0	-0.522523961034968	0.237616436272017	-0.644279869256257	-0.505381627514154	0.0568837585690536	0.402893854822932	0.913477301172271	-0.899534980774401	-0.376255679569064	0.221965046697043	0.433129376023211	-0.834330992674934	0.341014278715429	33.0599676524485	-65.9904008070386	81.9636442625857
33553	1652786713552	8.94457706755266	2.14999875940888	3.33632747873224	0.0198101159502591	0.00997648020758571	-0.0270579909278172	0.00437491012096532	-0.0206049994275096	0.0127079548089478	0.377197265625	-0.203369140625	0.284423828125	0	0	0	-0.522589055670917	0.237684069391494	-0.644261541872855	-0.505305875400327	0.0568666976422227	0.402676098063011	0.91357437505001	-0.899520471548298	-0.376344510886817	0.221873230451288	0.433161748039686	-0.834396050550403	0.340813924100958	33.0645248014209	-66.0040738343497	81.9617353047622
33554	1652786713553	8.94540223753019	2.14923722581407	3.33460530877878	0.0207490780396766	0.0106301654638664	-0.0270606250871062	0.00678250308780141	-0.0152195357624508	0.00847932857985039	0.36962890625	-0.213134765625	0.274169921875	0	0	0	-0.52265763718173	0.237680646076219	-0.644230258214185	-0.505276438375754	0.0569505697641512	0.402577530964665	0.913612589758883	-0.899479950492758	-0.376407262606209	0.221931050821749	0.433234868477924	-0.834415306798536	0.340673809552805	33.0821257440528	-66.0094584548172	81.9480899303644
33555	1652786713554	8.95368572355044	2.15649326956504	3.30054411084313	9.11296669047976E-05	0.0381343535982482	-0.0294829637116969	0.00637977557217694	-0.0109051786831757	0.00832839056208157	0.384033203125	-0.20458984375	0.27978515625	0	0	0	-0.522701973235373	0.237705610097174	-0.644228427059337	-0.505221163326349	0.0569315533939648	0.402457287839823	0.91366674980146	-0.899454053627468	-0.376495238111001	0.221886775389742	0.433291130351484	-0.834433620574073	0.340557380208355	33.0858547337361	-66.0170917912661	81.9483699385925
33556	1652786713555	8.95219466187356	2.13532089518402	3.31246358377012	0.0243058545692019	0.0340424469786467	-0.0314783439874802	0.00489015883127421	-0.00665542031932779	0.00678545095659176	0.373291015625	-0.203369140625	0.28125	0	0	0	-0.522721989181154	0.237780261546155	-0.644179948061832	-0.50522714076007	0.0569854834681957	0.402328443981658	0.913720131023277	-0.899500329195341	-0.376412166916894	0.22184011894696	0.433187964342696	-0.834533225078682	0.34044453849108	33.089028499214	-66.0246175979931	81.9382959701063
33557	1652786713556	8.94485217232575	2.12718481517225	3.34457585472274	0.045155670843965	0.0065638584565137	-0.0290581215910137	0.00731333477673281	-0.00475439783528085	0.00560572597884323	0.361572265625	-0.19775390625	0.276123046875	0	0	0	-0.522752150742438	0.237780442386631	-0.644188090482603	-0.505185465144189	0.0569643305975899	0.402268444937402	0.913747866343453	-0.899469395585801	-0.376496214050935	0.221822918585582	0.433254972786327	-0.834524235126193	0.340381300225147	33.0918650052523	-66.028528664467	81.9400629531701
33558	1652786713557	8.92347125211946	2.14623652811024	3.32512666790303	0.0186631411072768	0.00695062341465004	-0.0509897087560649	0.00892624504423525	-0.00812027363947914	0.00516568497863675	0.380859375	-0.212890625	0.27734375	0	0	0	-0.522780844457341	0.237754746774261	-0.644196299000185	-0.505157398648422	0.0569676174815433	0.40225379865897	0.913754109168821	-0.899428307828528	-0.376577365954132	0.221851767015181	0.43333983158162	-0.834494678782002	0.340345738109552	33.0980118403863	-66.0294090725882	81.939314374237
33559	1652786713558	8.92953758281376	2.13320987929357	3.3043421863478	0.0220537393925382	0.0307489644792662	-0.0554095044680878	0.00188996902666524	-0.00856730224589535	0.00169240660434453	0.382568359375	-0.20361328125	0.280517578125	0	0	0	-0.522814137064574	0.237771415317886	-0.644178365707074	-0.505137966597362	0.056997974425386	0.402177384922479	0.91378585126293	-0.899418414194652	-0.376600777519224	0.22185213674764	0.433356374268316	-0.834520943672974	0.340260264286307	33.1046392365765	-66.0338860416924	81.9335633178985
33560	1652786713560	8.90248638304868	2.16510783733805	3.30472702255146	-0.00712410863607671	0.00611958977034662	-0.0729189794584872	0.0062397446989573	-0.00830720761265534	0.00726034484705716	0.3818359375	-0.20751953125	0.287109375	0	0	0	-0.522867810145563	0.237827698851917	-0.644115939444982	-0.505135521741734	0.0571052844234206	0.402026786086096	0.913845418963298	-0.899436578448736	-0.376552180667017	0.221860984815593	0.433304543986502	-0.834615431503755	0.340094477544771	33.1184614192173	-66.0422897153916	81.9155898055671
33561	1652786713560	8.942531863131	2.15994773347603	3.34831459669533	0.0189638729397088	-0.013204434680393	-0.0226451298032959	0.00445117945524206	-0.00926789968557592	0.00157813735297644	0.37451171875	-0.206298828125	0.282958984375	0	0	0	-0.522910319074335	0.237838252646862	-0.644098339066483	-0.505108991600093	0.0571405903793709	0.401943571915027	0.913879815909777	-0.899415878233638	-0.376595744365249	0.221870960937204	0.433342856076238	-0.834635854922477	0.33999552756693	33.1272704680136	-66.047143620814	81.9090051106734
33562	1652786713561	8.90703611110015	2.13118031300514	3.29575135434861	0.0206646868610475	0.0268617628292553	-0.0793400393602361	0.00311506241197508	-0.0111045044638669	0.00414972755131663	0.3720703125	-0.203369140625	0.273193359375	0	0	0	-0.522951002126894	0.237818746433582	-0.644099196677493	-0.505074962811111	0.0571569373683354	0.401901652073096	0.913897229764698	-0.899371859161109	-0.376683051572229	0.221901188837111	0.433432051721792	-0.834616642967986	0.339928986438474	33.1359759897505	-66.0496013199468	81.9058880988916
33563	1652786713562	8.94337719216106	2.15950607561697	3.34634112025891	0.0194109954827335	-0.01253185608223	-0.0226451220704575	0.00285241260172879	-0.00938939908060319	0.0050653002096039	0.37744140625	-0.2099609375	0.280029296875	0	0	0	-0.522985636552946	0.237843692843731	-0.644088318157484	-0.505041226185378	0.0571612323750406	0.401804637743903	0.91393961868433	-0.899359978151832	-0.376727475255253	0.221873926107912	0.433456137587304	-0.834643302540249	0.339832803467533	33.1401755341938	-66.0555848595198	81.9033594074719
33564	1652786713563	8.90214663563443	2.14359821667514	3.31379018197667	0.0175098987650201	0.00268651303228288	-0.0749196755717225	0.00445021823788621	-0.00926942957513671	0.00157696599217877	0.378173828125	-0.20947265625	0.27734375	0	0	0	-0.523017502342291	0.237911207299872	-0.644026844947331	-0.505054821452024	0.0572553608566084	0.401674275527933	0.913991028420022	-0.899401177212805	-0.376635769538363	0.221862614093645	0.433358219122934	-0.834747430953432	0.339701899369498	33.1489438426137	-66.0628436491602	81.8876067576016
33565	1652786713564	8.92619127176824	2.14492601279751	3.31866533158291	0.0202269688343833	0.00676385426222037	-0.0509926926632609	0.00202651381037495	-0.0111710721573819	0.0027570003439141	0.3701171875	-0.2109375	0.279052734375	0	0	0	-0.523058581678039	0.237937904582149	-0.644004234885347	-0.505028533001605	0.0572881980255893	0.40157010218557	0.914034745180757	-0.899391953778303	-0.376663468834606	0.221852979976221	0.433373021594364	-0.834785052738819	0.33959054739203	33.1564050550951	-66.0690178605895	81.8809385156491
33566	1652786713565	8.90479471799148	2.164149438417	3.29913088918699	-0.00723597831447818	0.00601537236609318	-0.0729189970042885	0.00661114108366234	-0.00565324881952811	0.00131177012213766	0.380615234375	-0.204345703125	0.282958984375	0	0	0	-0.523058602866296	0.238004288926173	-0.643982654144475	-0.505024749474065	0.0572805992275681	0.401473975466093	0.914077447471264	-0.899434738833734	-0.376607921742809	0.221773812384721	0.43328522191649	-0.834856347106502	0.33952731284061	33.1519273885539	-66.0750502440087	81.8800832743193
33567	1652786713565	8.92873998304191	2.16543325837736	3.30429748934709	-0.00453439579984546	0.0100825449555404	-0.0489914174308374	0.00150212273713384	-0.00773983050598982	0.00458884052727891	0.367919921875	-0.21435546875	0.282958984375	0	0	0	-0.52308478642443	0.238029675251903	-0.643973091612981	-0.504997858598629	0.0572810619557856	0.401390660835752	0.914114006749188	-0.899429468203025	-0.376638073020545	0.221743982284513	0.433296101608636	-0.834882805754921	0.339448359821564	33.1544995217318	-66.0802159660554	81.8783556145693
33568	1652786713566	8.94879703013018	2.12550223891845	3.33507949541715	0.0454346869083615	0.00714798633134183	-0.02905982267953	0.00469693426381579	-0.00749983818956705	-0.00238786133033616	0.377197265625	-0.2099609375	0.279541015625	0	0	0	-0.523090498666769	0.238028140666197	-0.64398332372497	-0.504979616637825	0.0572561660302682	0.401376386275966	0.914121834326017	-0.899417421467185	-0.376676382062616	0.221727772634684	0.433324397435495	-0.834872385299852	0.339437868911088	33.1533925469279	-66.0813221168894	81.8815535750152
33569	1652786713567	8.90553480204145	2.16407530726068	3.29718126802594	-0.0078271615048882	0.00639368529262217	-0.0729196951514002	0.00231390825473985	-0.0024717981266173	0.00384856422312953	0.3740234375	-0.202880859375	0.2783203125	0	0	0	-0.523102168302028	0.238035917576059	-0.643987058703231	-0.504959099021101	0.0572391403329694	0.401340040652466	0.914138858479946	-0.899408459123663	-0.376710420519044	0.22170629835249	0.433345248584475	-0.834874500054614	0.339406046922881	33.153311198525	-66.0837280445247	81.8832103059494
33570	1652786713568	8.90001397847497	2.17671672285138	3.3168145243701	-0.0110097322391616	-0.017519525807984	-0.0685006368394614	1.42238539015349E-05	-0.0034873649058195	0.00304754096410212	0.37841796875	-0.198974609375	0.286376953125	0	0	0	-0.523107291533559	0.238076133559715	-0.643959386894245	-0.504970122090871	0.05727212532009	0.401281777632691	0.914162369932863	-0.899439223253508	-0.376649860849574	0.22168438374212	0.433277033010575	-0.834929827747185	0.339357032347363	33.1545067347548	-66.0870511601412	81.8774318255413
33571	1652786713569	8.92952821996728	2.16499325546227	3.30245525277719	-0.00501833804710606	0.0103273266532758	-0.0489919100175982	0.00122591199832522	-0.00253689963739874	0.00245704880390427	0.37646484375	-0.20166015625	0.28369140625	0	0	0	-0.523118116029291	0.238084253753484	-0.643958002301481	-0.504956845748721	0.0572679587730645	0.401249630714081	0.914176741527469	-0.899434375833131	-0.376668944092299	0.221671626795263	0.433287646336279	-0.834936668501394	0.339326649593223	33.1553458790616	-66.0890826595877	81.8773728317742
33572	1652786713570	8.87477249938491	2.15418295074789	3.32313958777555	0.011986577148605	-0.0241386627198926	-0.0944250978445105	-0.000935888819316862	-0.00615423572026388	0.00272178544566016	0.37158203125	-0.19921875	0.273681640625	0	0	0	-0.523171336424212	0.237986460072678	-0.643964402768965	-0.504939645435562	0.0573445855769735	0.401310925680389	0.914145031947642	-0.899341703148749	-0.376796798578969	0.221830280976578	0.433469836877392	-0.834849515487785	0.339308395132361	33.1755296903158	-66.0846005621725	81.8678754013523
33573	1652786713571	8.89106855898872	2.14755775144475	3.36122352456331	0.0354390799752761	-0.0475505373107311	-0.0680780325654506	-0.00093598354569363	-0.00615442249149577	0.00272165055603846	0.37841796875	-0.20654296875	0.286376953125	0	0	0	-0.523188407802416	0.238010246826903	-0.643951616906001	-0.504927051593313	0.0573548749790867	0.401248778430132	0.914171666660294	-0.899345586742243	-0.376799589949361	0.221809793790186	0.433460417943074	-0.83487812692771	0.339250024693139	33.1776207690198	-66.0883652822336	81.8651928644152
33574	1652786713572	8.89904412228436	2.1549142564892	3.32779482705182	0.0153698286492228	-0.019713934210013	-0.0704989429206311	0.00137776874873132	-0.00862709564786019	0.00656946316134985	0.37353515625	-0.212646484375	0.27294921875	0	0	0	-0.523225019586898	0.238016646131435	-0.64393212527137	-0.504910955601214	0.0573989884156808	0.40118424075792	0.914197222209927	-0.899329298094431	-0.376826006156425	0.221830959681412	0.433488373221052	-0.834897218854925	0.339167310085268	33.1865246652322	-66.0919779910504	81.8577279049445
33575	1652786713573	8.87015926684706	2.16591869626869	3.34096356207887	0.00953642718025012	-0.0475858901696079	-0.0900019687862379	-0.00296077115810185	-0.0123746080134225	0.00405149179143613	0.368408203125	-0.20947265625	0.2802734375	0	0	0	-0.523255623894643	0.2380658815669	-0.643903877973354	-0.504892051855918	0.0574248639293021	0.401065277521266	0.914247793636655	-0.899342523070531	-0.376817304012991	0.221792122478486	0.433457507951854	-0.834958299894774	0.339056376192806	33.1905152909025	-66.099128631837	81.8517228357152
33576	1652786713574	8.88583906669159	2.10587514140294	3.29291507021915	0.0418159703931562	0.0194800908673412	-0.10526713644604	-0.00320853577140673	-0.0141473707209777	0.00801404745662937	0.375	-0.20849609375	0.277099609375	0	0	0	-0.52322110537652	0.238242271644364	-0.643877262161867	-0.504878565757394	0.057325382545341	0.400852887853808	0.914347178491459	-0.899466426722517	-0.376676507680979	0.221528679317797	0.433213512849099	-0.835123805708185	0.338960589780611	33.1667401683992	-66.1131872087924	81.8613974155727
33577	1652786713576	8.84579539162629	2.14260945333222	3.34547819946454	0.0293468883004968	-0.0559627218305089	-0.115930046242479	-0.00230202122835376	-0.0184117563740537	0.00328249104357041	0.3779296875	-0.19970703125	0.2890625	0	0	0	-0.523273102099989	0.238303751173069	-0.643832335022941	-0.50485295599254	0.0573824931115023	0.400685428763031	0.914416992767137	-0.899477201236613	-0.376669630004878	0.221496623648166	0.4331835799518	-0.835207265898097	0.338793165590997	33.1759070697919	-66.1230675113708	81.8500391044572
33578	1652786713577	8.90712366703175	2.13976486677427	3.30287570170141	0.0177194623881952	0.00424090344899992	-0.0749206075462698	-0.00498751830975335	-0.0185982874485004	0.00537898491007491	0.37548828125	-0.20947265625	0.28173828125	0	0	0	-0.523323450435923	0.238318169632526	-0.643807039960732	-0.504826219152535	0.0574338906400065	0.400586374026987	0.914457164196258	-0.899456321361657	-0.376709876958319	0.221512967034899	0.433220122072495	-0.835236628474805	0.338674032493684	33.1870736836546	-66.1287544241383	81.8408474781657
33579	1652786713577	8.90787491003549	2.13907477316145	3.30129631196876	0.0177927117411156	0.00423365373550242	-0.0749207379563348	-0.00620027683275508	-0.0195508628671134	0.00596829401063944	0.373291015625	-0.197509765625	0.280517578125	0	0	0	-0.523366146153466	0.23840161603974	-0.643761322854483	-0.504800857494077	0.0574720573325739	0.400399865549975	0.914536445579685	-0.899485205643883	-0.37668152748577	0.221443879298502	0.433155084760347	-0.83533883814806	0.338505093060219	33.1919823015959	-66.1399817252049	81.8317467708206
33580	1652786713578	8.90863526894236	2.13856304854337	3.29957563822013	0.0181901790204285	0.00486893515245662	-0.0749217692363597	-0.00664538546108222	-0.0221641290483683	0.000761297606134861	0.37353515625	-0.2021484375	0.281982421875	0	0	0	-0.523423039135613	0.238435048275996	-0.643708199646456	-0.50479382282629	0.0575769629230829	0.40027505055819	0.914584483380947	-0.899484640978464	-0.376663848380087	0.221476242444527	0.433142325320902	-0.835406625077957	0.338354099711324	33.2075310668116	-66.1467869390211	81.8145216746092
33581	1652786713579	8.9330194314104	2.13949375161126	3.30376576989456	0.0208899130158705	0.00895473212637011	-0.0509958527554648	-0.00863963635311106	-0.0179667654690062	0.00410144630444613	0.371337890625	-0.2021484375	0.27685546875	0	0	0	-0.523456737856577	0.238517077037302	-0.643659068176021	-0.504782776557311	0.0576252158327148	0.400109281042303	0.914653977044895	-0.899522765318431	-0.376607904905347	0.221416531985954	0.433056727432001	-0.835511250185547	0.338205295108265	33.2120010549224	-66.156634906588	81.8044067982138
33582	1652786713580	8.93927849803743	2.12597907042183	3.28259289609461	0.0246026823349134	0.0333536785180051	-0.0554241547542542	-0.0124278460418078	-0.0147276848469577	0.00176304955082665	0.376708984375	-0.203125	0.2734375	0	0	0	-0.523473268891449	0.238556744315253	-0.643617001414755	-0.504800526928892	0.057695670463173	0.40004024538351	0.91467973175495	-0.899552560434738	-0.37653421550804	0.221420811052288	0.432985450823827	-0.835577516826085	0.338132832995616	33.2181349879598	-66.1602855869653	81.7931261955971
33583	1652786713581	8.92660075822237	2.13044895545607	3.33421652544368	0.0421306906380394	-0.0179161982557089	-0.0485736018672931	-0.0125515534531315	-0.0156163374662588	0.00374287401737107	0.38037109375	-0.21142578125	0.28759765625	0	0	0	-0.523490011715807	0.238644078425497	-0.643568503016971	-0.504803717687106	0.0577371715138794	0.399895962996842	0.914740202354966	-0.899607128640328	-0.376444420883443	0.221351783560088	0.432866530382149	-0.835687032784737	0.338014422932458	33.2191447307717	-66.1688592473573	81.7843807141874
33584	1652786713581	8.93847295371989	2.10385294942187	3.29330476941952	0.0488997993587087	0.0295427249005369	-0.0574278489916686	-0.0105111107320239	-0.0128851648510984	0.00545933157018569	0.380126953125	-0.20361328125	0.27490234375	0	0	0	-0.523500828058502	0.238736687134024	-0.643517859748283	-0.504813273818471	0.0577791168025196	0.399755008275163	0.914799162122728	-0.899670421885584	-0.376336705585896	0.22127768982202	0.432729367671916	-0.835802977613551	0.337903354476668	33.2189833892919	-66.1772214960235	81.7756344624246
33585	1652786713582	8.91527894804754	2.10171284393669	3.28667799644679	0.046357328170703	0.0254527500636702	-0.081353901669182	-0.0140395477149324	-0.0113619584534453	0.00220496326341872	0.376220703125	-0.20556640625	0.276123046875	0	0	0	-0.523502029039049	0.238814242923588	-0.643474679342159	-0.504830387372173	0.0578161888446788	0.399651661805128	0.914841974071958	-0.899730624740819	-0.37622807472499	0.22121762744461	0.432599227011528	-0.835901300994996	0.337826765937665	33.2178073062558	-66.1832952364276	81.7683308915113
33586	1652786713583	8.9317625909452	2.09465996848953	3.32464203162016	0.0706264287798765	0.00124487278258582	-0.055011496524795	-0.0130878449324484	-0.00869446536214135	0.00253165901813083	0.374267578125	-0.196533203125	0.271240234375	0	0	0	-0.523522151277878	0.238937223490313	-0.64336089814544	-0.504896340935062	0.0579915159364648	0.399483268224632	0.914904422597223	-0.89983898527268	-0.375977376282251	0.221203103747094	0.432350303183453	-0.836094570567518	0.337667120704244	33.22849614556	-66.1921574386913	81.7402797900391
33587	1652786713584	8.93205259118815	2.09422506969926	3.32413685508315	0.0707185400197131	0.00123248144180722	-0.0550121620912236	-0.0125833831480024	-0.00863666119280558	-0.00234818585529581	0.380126953125	-0.205810546875	0.2802734375	0	0	0	-0.523524194496167	0.238991669282725	-0.643314427429418	-0.504927665365799	0.0580590589492345	0.399418661571078	0.914928346081101	-0.899890346181209	-0.375862069523401	0.221190120808887	0.432234323629895	-0.836177276348954	0.337610799581192	33.2313356483586	-66.1955532940338	81.7294735531316
33588	1652786713584	8.91054348472296	2.11327086955914	3.30502397425998	0.0455729066939889	0.000535199017281725	-0.076938534802256	-0.00919246837611408	-0.00755736192673252	-0.000158188321368701	0.37060546875	-0.210693359375	0.2763671875	0	0	0	-0.523572408824057	0.239038289365183	-0.643210977907581	-0.50498739274829	0.0582806682330817	0.399319163513032	0.914957687197369	-0.899934575369476	-0.375696858765302	0.221290827574135	0.432112397143228	-0.836299035013874	0.337465257871083	33.2546199302332	-66.1997187864757	81.6963047306105
33589	1652786713585	8.9145557962571	2.07927005531431	3.29736561228073	0.0730353993196285	0.0205798664256631	-0.0833743735744683	-0.00822559358836926	-0.00838206354916519	0.00321217006833079	0.37841796875	-0.20849609375	0.274658203125	0	0	0	-0.523578665191239	0.239092468791435	-0.643183745459751	-0.504989942771283	0.0582989218871673	0.399235214288083	0.914993158105099	-0.899970076956473	-0.375639898134146	0.221243141165391	0.432035989576973	-0.836364699519365	0.337400345447554	33.2540118592977	-66.2047554286087	81.6920180502407
33590	1652786713586	8.9017596735052	2.0839348534721	3.3492796120955	0.0893124063278404	-0.0315849112313722	-0.0765274798289397	-0.00744745657698151	-0.0135335614889659	0.000456427658878222	0.377685546875	-0.210693359375	0.275146484375	0	0	0	-0.523562222890943	0.239265689894625	-0.643108086528768	-0.505021303948706	0.0583278373611127	0.399025615951901	0.915082740085825	-0.900107521802961	-0.375410824394396	0.221072753005098	0.431745657282744	-0.83656755300557	0.337269056801488	33.2439960691951	-66.2174799695074	81.6836498995103
33591	1652786713587	8.90973040365943	2.09136034303335	3.31563563826383	0.0686773248835804	-0.00411081806550966	-0.0789424457073444	-0.00566460686328698	-0.00908413874269159	0.00309320324560941	0.3720703125	-0.207763671875	0.27734375	0	0	0	-0.523577084866855	0.239314064419777	-0.643081721414157	-0.505016548596398	0.0583493563077828	0.398935102394924	0.91512083174607	-0.900132543261106	-0.375374128429338	0.221033183635867	0.431690580370663	-0.836627185658622	0.337191629546426	33.2453251460437	-66.2228925869055	81.678763537408
33592	1652786713588	8.8920277138083	2.07681123593523	3.28914501645362	0.0683237462370683	0.0149070701277073	-0.107282357753077	0.00188247356353047	-0.00858120040556198	0.00167606957294582	0.373046875	-0.211669921875	0.272705078125	0	0	0	-0.523569778257086	0.239428625953921	-0.643042463886294	-0.505019811501181	0.058340645425725	0.398783182600037	0.915187599548145	-0.900213552996408	-0.375257846130258	0.22090067432958	0.431522801359202	-0.836751768562855	0.337097240739288	33.2369268070867	-66.2323827289044	81.6768632264085
33593	1652786713589	8.93022196181716	2.05095856346306	3.3455629244503	0.118438623822332	-0.00820450132233272	-0.0590218188089366	-0.000679077938262232	-0.00788072042797265	0.00179439999179802	0.3701171875	-0.2099609375	0.273193359375	0	0	0	-0.523594680588448	0.239455326588261	-0.643021915427586	-0.505007498268916	0.0583679256966959	0.398706707203977	0.915219179694365	-0.900216848164709	-0.37525714652136	0.220888433977525	0.431512237984349	-0.836788525026012	0.337019514055981	33.24152862726	-66.2368726641102	81.6714510765173
33594	1652786713591	8.94677423415267	2.1193689869697	3.36491841078976	0.064321169768662	-0.0454195131074283	-0.0222343685469273	0.00648659681906606	-0.00654930102192112	0.00327561875964218	0.377197265625	-0.213623046875	0.277099609375	0	0	0	-0.5235581405947	0.239624993946339	-0.642989143643932	-0.505006630500314	0.0582896468645199	0.398512329218687	0.915308822490588	-0.900342794300932	-0.375096330853873	0.220648125599001	0.431259979384594	-0.836953204211956	0.336933471386476	33.2196461154003	-66.2496220639815	81.6784642003578
33595	1652786713592	8.94898270236337	2.13998248229036	3.35137470493644	0.0403428153525296	-0.0417387078288955	-0.0202331684437613	0.00648639937028646	-0.0065496890951504	0.00327533894552576	0.371337890625	-0.208251953125	0.278076171875	0	0	0	-0.523594603064534	0.239630506471502	-0.642984469472978	-0.504972161635132	0.0582963847695296	0.398440035058978	0.915339865833999	-0.900316994731375	-0.375160672683507	0.220644008913734	0.431312926447456	-0.836958785206212	0.33685182401981	33.2255205938647	-66.2540386904877	81.6760268573414
33596	1652786713593	8.9199913831584	2.15109103013584	3.36496722499216	0.0326730436806459	-0.0700205059353835	-0.0397413959379467	0.00316263921281153	-0.00419162745191361	0.00919166477418366	0.375244140625	-0.20947265625	0.27587890625	0	0	0	-0.523543168595289	0.239748739198162	-0.643007692494156	-0.504939798454665	0.0581232988924655	0.398322720132534	0.915401929620031	-0.900397978478659	-0.375112683978907	0.220394996925256	0.43116720941811	-0.837036131206031	0.336846185340193	33.1963114143605	-66.2628710064181	81.6979861628348
33597	1652786713594	8.904329299545	2.15656206792071	3.32575387992365	0.00938440093279516	-0.0466379665082186	-0.0660871483563259	0.000752267131841921	-0.00959146387622206	0.0134131900376437	0.373046875	-0.215087890625	0.27294921875	0	0	0	-0.523562288618486	0.239807698768107	-0.643014030182847	-0.504883902037023	0.0580504491991146	0.398186330055811	0.915465887897777	-0.900403400437261	-0.375169026150829	0.220276912766762	0.431165701127534	-0.83707577218178	0.336749595096236	33.189771776883	-66.2719761686066	81.705446198406
33598	1652786713595	8.88494929270377	2.12020397287127	3.31213047977148	0.0321848987206305	-0.0318506856181233	-0.0964253992959669	-0.0047516180769846	-0.0073612684936077	0.0165492273806669	0.369140625	-0.208251953125	0.270751953125	0	0	0	-0.523486317637392	0.240048540046156	-0.642998170532575	-0.504868424799882	0.0578601022269404	0.397934694445985	0.915587345656584	-0.900583199577963	-0.37496914412359	0.219881881002373	0.430815632502127	-0.837284969357149	0.336677547336305	33.1482877930026	-66.2892760801718	81.7271116004755
33599	1652786713596	8.87819736164839	2.11073903529995	3.34386747738508	0.0529186382951439	-0.0594462725389987	-0.0940083049121085	-0.00152423438525773	-0.0176008133233371	0.018693445823173	0.3779296875	-0.208251953125	0.275146484375	0	0	0	-0.523518641064383	0.2401501759933	-0.642994165537072	-0.504791668427454	0.0577727921113421	0.397710007646385	0.915690479534199	-0.900602382795924	-0.375026528913228	0.219705372518741	0.43078724748298	-0.837366020584313	0.336512250856978	33.140104715346	-66.3039753610641	81.734820507585
33600	1652786713596	8.92840073530121	2.13263656838084	3.3411306891286	0.0332673435823077	-0.0485402692854764	-0.0441578175907811	-0.00128075134938047	-0.0158248478043138	0.0147322658779336	0.372802734375	-0.2138671875	0.271728515625	0	0	0	-0.523518189778742	0.240348320269891	-0.642939632357761	-0.504767291985028	0.0577226281742186	0.397416359182043	0.915821126449457	-0.900723229358263	-0.374885331771087	0.219450796574781	0.430541243426323	-0.837568639263298	0.336322779828461	33.1244699586427	-66.3226083167748	81.7358805042894
33601	1652786713597	8.90926308844535	2.0963739105613	3.32673989960015	0.0580554117040096	-0.032664152872935	-0.074488713048245	-0.00332657818052103	-0.0185596283756791	0.0130127762219129	0.37255859375	-0.20654296875	0.28076171875	0	0	0	-0.523555786519332	0.240444164101657	-0.642916374403435	-0.504712272364682	0.0576902789467953	0.397203701630788	0.915915417015044	-0.900747435431694	-0.374904252147869	0.219319080986297	0.430494935252748	-0.837661041909105	0.336151884703157	33.1220542584064	-66.3360646942681	81.7360870152216
33602	1652786713597	8.94121760703992	2.10439319971808	3.29844568336513	0.0383008401392202	-0.00134209381456364	-0.0529682054069216	-0.0083401531304074	-0.012770760620116	0.00823185498208926	0.3818359375	-0.208251953125	0.266845703125	0	0	0	-0.523502163487987	0.24061052881719	-0.642903688896083	-0.504704770187005	0.0575628404522422	0.397032852325775	0.915997507405522	-0.900873381900926	-0.374759336745589	0.219049285103592	0.430248380800507	-0.837806871358827	0.336104116491418	33.0935116750682	-66.3477858378402	81.7505912775341
33603	1652786713598	8.936152024845	2.11627042609047	3.31761964551836	0.0349588383769368	-0.0252107093452007	-0.0485613997942647	-0.0110370241288421	-0.00946237606658606	0.00729080070495944	0.374267578125	-0.204833984375	0.27978515625	0	0	0	-0.523497465391778	0.240693898164312	-0.642880779552934	-0.504699073108189	0.0575415013357612	0.396917375870303	0.916048891902752	-0.900927958367438	-0.374690585980407	0.218942409344419	0.430136942677453	-0.837892332886447	0.336033702229704	33.0862127841805	-66.3551254769403	81.7512412091632
33604	1652786713599	8.91094366504288	2.09338098087317	3.3241223558344	0.0569825204740545	-0.0341418608535044	-0.0744874446716164	-0.0130963941321278	-0.00869882912144421	0.00253243637513585	0.379638671875	-0.205078125	0.27734375	0	0	0	-0.523512045060963	0.240842596408312	-0.642763391941371	-0.504762522788106	0.0577001314706515	0.396717742177318	0.916125388726893	-0.901053742911349	-0.374419278687778	0.218888912767118	0.429852122495303	-0.838108129532612	0.335859964862781	33.0933618506302	-66.3660560809141	81.7247107206719
33605	1652786713600	8.91683117141967	2.07987649718748	3.30374926782138	0.060346775850074	-0.0104666877917904	-0.0788919930638627	-0.0155356832075841	-0.00710763376443363	0.000672702240065467	0.376220703125	-0.20751953125	0.278076171875	0	0	0	-0.52349684393912	0.240917685842799	-0.642723849296154	-0.504792805594399	0.0577294443881691	0.396645453841631	0.916154842369672	-0.901124046592919	-0.374285784136571	0.218827796326873	0.429700784154086	-0.838201965960495	0.335819446067861	33.0892051887667	-66.3702659722672	81.719076962132
33606	1652786713601	8.90392191606469	2.08447124618085	3.35627122595727	0.0781314809093619	-0.0617835315625771	-0.0720774910279509	-0.0108068394398323	-0.00418745658054252	0.000291441871954637	0.369384765625	-0.21044921875	0.28369140625	0	0	0	-0.523494750740534	0.240958554292021	-0.642682031658384	-0.504828710796106	0.0577975625939032	0.396607606352046	0.91616693257392	-0.90116975962365	-0.374173895738883	0.218830893814019	0.429595747299783	-0.838269826685471	0.335784442121211	33.0923080680968	-66.3719942635865	81.7086614233704
33607	1652786713601	8.88407130767449	2.04914020260422	3.34314194915514	0.102925816348198	-0.0459319494058837	-0.102404504489179	-0.0177182965415154	-0.00723483488716642	-0.00210726177527695	0.3759765625	-0.20458984375	0.277099609375	0	0	0	-0.523478030463957	0.241033626186512	-0.642632268166845	-0.504873559002344	0.0578531179162347	0.396544464894886	0.916190757489181	-0.90124769654169	-0.374010960935375	0.218788460798317	0.429424738721082	-0.838372404401187	0.335747085337914	33.0901414916915	-66.3754003774126	81.6994996370549
33608	1652786713602	8.86065024136964	2.04748377217891	3.33686439946082	0.0992038748960183	-0.0488501128071136	-0.126318139458736	-0.00529260471999298	-0.00991791163944024	0.000189014502948918	0.373291015625	-0.205322265625	0.279052734375	0	0	0	-0.523445572372791	0.24103237163651	-0.642678739658752	-0.504848656705392	0.0577348668278354	0.396576341356381	0.916184419551412	-0.901245652282959	-0.374062459292081	0.218708826500953	0.429444943378584	-0.838334349782201	0.335816257173201	33.075203595705	-66.3744942329864	81.71688668573
33609	1652786713603	8.86111900082891	2.04733459087344	3.33571099014104	0.0992135147554083	-0.0489451174478533	-0.126318717782587	-0.00559890690329418	-0.0186324738220537	-0.000922827514475581	0.37353515625	-0.202880859375	0.26806640625	0	0	0	-0.523494186569259	0.241100062936974	-0.64261730772173	-0.504844126534569	0.0578275109365247	0.39641418416757	0.916248750923921	-0.901272109483523	-0.37400633511067	0.218695784056769	0.429376948200536	-0.838436077401161	0.335649192559954	33.0866803134128	-66.38369330739	81.7004336780849
33610	1652786713604	8.88551593811648	2.04845926722511	3.33971827585873	0.102153271514138	-0.0450357908784399	-0.102392148816497	0.000369890490782927	-0.021756825577779	0.00418121825455586	0.37548828125	-0.2080078125	0.2734375	0	0	0	-0.523567136905952	0.241178275931111	-0.642543889201982	-0.504824566379442	0.0579407793361744	0.39619784166597	0.916335165945924	-0.901289919318633	-0.373970392797411	0.218683850902536	0.429324291677665	-0.838554360533756	0.335420984742001	33.1030761051041	-66.3960555556854	81.6799270329619
33611	1652786713605	8.89390610460372	2.05574771879034	3.30487225004084	0.0814795430797037	-0.0175989722203204	-0.104809328498085	0.00608175030370876	-0.02316461308429	0.0102041367169111	0.373779296875	-0.210205078125	0.276611328125	0	0	0	-0.523646614722264	0.241249029247126	-0.642512469927332	-0.504748308333085	0.0579532637503965	0.395955689616887	0.916439038387547	-0.901272639498046	-0.374056102244416	0.218608466592535	0.429358880789604	-0.838630505189103	0.335186257554465	33.1123893280539	-66.4109232880846	81.6731414268951
33612	1652786713606	8.93489437161675	2.04979837676754	3.34671529215598	0.10632619523969	-0.0374314017868431	-0.0545211964144432	0.00974577492158302	-0.0273077291959521	0.0145060845725457	0.373779296875	-0.212158203125	0.273193359375	0	0	0	-0.523700044405764	0.241402653247556	-0.642477928351103	-0.50466338689875	0.0578937411734318	0.395625014207891	0.916585600402903	-0.901315335109548	-0.374079249857846	0.218392723143778	0.429277278025879	-0.838776229371575	0.334926044988883	33.1068641969094	-66.4319164132813	81.6747186519508
33613	1652786713606	8.89068552634909	2.06664977947292	3.31978037538236	0.077066778090003	-0.0419031137228546	-0.100397409120035	0.0141092478538127	-0.0270636653006004	0.0200567899198072	0.37939453125	-0.21044921875	0.275390625	0	0	0	-0.52380021117411	0.241483782478951	-0.642470827626694	-0.504529639587495	0.0578336368966603	0.395312637700756	0.916724161848795	-0.901269662731145	-0.374270851154742	0.218252892343703	0.429381258887475	-0.838838034694407	0.334637843147232	33.1126417763713	-66.4517797877708	81.6767609757536
33614	1652786713609	8.96306333859343	2.06950836722623	3.3342189425919	0.0835673875632365	-0.0307170628277237	-0.0285953066473912	0.0167885194884224	-0.0268807826160711	0.0179520818111965	0.375	-0.204833984375	0.27490234375	0	0	0	-0.523859365343472	0.24167586651104	-0.642428095103217	-0.504430652825663	0.0577578363363793	0.394912514714311	0.916901378591918	-0.901329178911541	-0.374284984072027	0.217982710187876	0.429266518126431	-0.839020176408304	0.334328281776145	33.1044310343208	-66.4772076157719	81.6792131308602
33615	1652786713609	8.92645808899442	2.09408195608681	3.27414880835822	0.0336252141411272	-0.0076437119441834	-0.0768929249144179	0.0169323898600625	-0.0329980939009301	0.0220420388492178	0.375732421875	-0.207763671875	0.275146484375	0	0	0	-0.523983097650801	0.241768990417324	-0.642413708801979	-0.5042758128169	0.0577047640317474	0.394541661312123	0.917064358536036	-0.901273119371228	-0.374507319760885	0.217832577325742	0.429391341909566	-0.839095432554956	0.333978937297719	33.1137764362576	-66.5006155921553	81.6790472395089
33616	1652786713611	8.96974761908785	2.10815030156422	3.30261121295876	0.035434921704127	-0.0233517639106371	-0.0246278490523881	0.0183342915415595	-0.0242237257891978	0.0245372445488786	0.373046875	-0.206298828125	0.263427734375	0	0	0	-0.524071494309879	0.24185085409989	-0.642422841096201	-0.504133044404799	0.0576021152180797	0.394238888337516	0.917201011362724	-0.901227442370515	-0.374716075820607	0.217662490199635	0.429500981885611	-0.83914454144921	0.333714466445929	33.1140667062218	-66.5202593046114	81.687352239014
33617	1652786713612	8.947380757402	2.10526783309069	3.29427372729603	0.0328243999193218	-0.0275300072431384	-0.0485602549034549	0.0185859102214457	-0.0259490071635213	0.0236124201979055	0.37890625	-0.20361328125	0.272216796875	0	0	0	-0.524174930444417	0.241925043692105	-0.642432683767307	-0.503977343097583	0.057505040124218	0.393920948268051	0.917343696155324	-0.901165120068338	-0.374958221757748	0.217503467348192	0.429644733160469	-0.83918568770676	0.333425831056327	33.1175912175271	-66.5407866656592	81.6945612929929
33618	1652786713613	8.93054034773134	2.08939402764161	3.26600138131469	0.0344160923789099	-0.00951760907738155	-0.07689734011438	0.0145553418620528	-0.0244836500136539	0.0252434920943435	0.37451171875	-0.204345703125	0.271240234375	0	0	0	-0.524293306792259	0.242124721292767	-0.642324572786947	-0.503896111302522	0.057589525065931	0.393440967277314	0.917544359620052	-0.901218450408271	-0.374928656706192	0.217333400618048	0.429521537581523	-0.83942403328019	0.332984295583475	33.1318271251071	-66.569683842894	81.6725249944473
33619	1652786713614	8.92625939832518	2.10052146470311	3.28374977122687	0.0310569614770005	-0.0334305918555851	-0.0725011729098739	0.0105143210259233	-0.0195136603418918	0.0238400949645356	0.373046875	-0.202392578125	0.279296875	0	0	0	-0.524356042845014	0.242209926753503	-0.64234115007941	-0.503768735263157	0.057464396593447	0.393174300105477	0.917666504161898	-0.901191255026468	-0.375102825506843	0.217145555240264	0.429595350286721	-0.839471166886243	0.33277018342796	33.1260192858872	-66.5872901312257	81.6848085506283
33620	1652786713615	8.98184621512565	2.03441838192887	3.27907057731694	0.0916441568356955	0.0153660955291881	-0.0374079159433318	0.0106227700808732	-0.015122266623639	0.0188241294438855	0.37158203125	-0.210693359375	0.278076171875	0	0	0	-0.524421607512022	0.242199636667929	-0.642381557544661	-0.503653897134654	0.0573705410488373	0.39304650420915	0.917727119872095	-0.901105395410041	-0.375344175797997	0.21708481305111	0.429787956302497	-0.83942313240909	0.33264262714486	33.1287364953176	-66.5960321057277	81.6955385390611
33621	1652786713615	8.94788756434168	2.05786227498023	3.31194793602259	0.0823116744501133	-0.0363765380846036	-0.0525444599692459	0.00733452411066072	-0.011802774928774	0.0116281024864248	0.375732421875	-0.208251953125	0.27392578125	0	0	0	-0.524466544894183	0.242243125114743	-0.642383664507181	-0.503583497739676	0.0573229918179375	0.392890795620117	0.917796762538435	-0.901084455033311	-0.375443858277833	0.216999341424752	0.429838201543746	-0.839451447076271	0.332506223242802	33.1291650735469	-66.6060797501894	81.6990828002144
33622	1652786713616	8.92670824980513	2.07647589490418	3.29227552797304	0.0541508384469033	-0.036458245872139	-0.0744796836250892	0.0108531300997932	-0.00983872548667899	0.0118303820361396	0.37841796875	-0.204833984375	0.2783203125	0	0	0	-0.52445118677888	0.242306696253022	-0.642434407606837	-0.503504170350178	0.0571309937475957	0.392780737984243	0.917855839128326	-0.901092875641712	-0.375542030781848	0.216794401643573	0.429846110859644	-0.839459037109493	0.332476835274339	33.1067089836214	-66.6146061757258	81.7242143045464
33623	1652786713617	8.97468383770687	2.07816815869796	3.30269865925828	0.059384258571254	-0.0284770815185992	-0.026614927161452	0.00766572948758321	-0.00658535491327187	0.0157728079932222	0.3798828125	-0.213623046875	0.2724609375	0	0	0	-0.524474793056118	0.242347115521372	-0.642461326000404	-0.503425775701856	0.0570226403845467	0.392653276278756	0.91791711124215	-0.901073089322031	-0.37566072791491	0.216670960680226	0.429901972760334	-0.839465557441161	0.332388134094427	33.0987736086706	-66.6234525784683	81.7370487748925
33624	1652786713618	8.97520775638863	2.07677860223754	3.30214895911222	0.059207922294345	-0.0290749146105336	-0.0266156166303233	0.00678441413291436	-0.00231935087392375	0.0205093313361756	0.375732421875	-0.216796875	0.26806640625	0	0	0	-0.524466762112953	0.24244661907669	-0.642476083896799	-0.503367394611204	0.0568882370378324	0.392492638317514	0.917994148866584	-0.901113411487049	-0.375681805881221	0.216466626453121	0.42983525695887	-0.839531243966763	0.332308504674076	33.0803258993349	-66.6345796750113	81.7529291371775
33625	1652786713619	8.95752418272934	2.06089369201688	3.27608087959001	0.05998037669282	-0.00949036191366589	-0.0549447836538039	0.0115262295710664	-0.00290928763660583	0.023153632165289	0.376220703125	-0.212646484375	0.2724609375	0	0	0	-0.524479461847482	0.242485082132096	-0.642535614361601	-0.503259638080113	0.0566979384407025	0.392367590709036	0.918059375823678	-0.901081372239773	-0.375861443245729	0.216288085857094	0.429927557129177	-0.839509290742172	0.332244558087132	33.063749308667	-66.6440047840643	81.7775552137497
33626	1652786713620	8.98188321680315	2.06012818435299	3.28127577247998	0.0601964194900214	-0.00757657124023035	-0.0309981732162772	0.00834782858421106	-0.00316114508235861	0.0301291987486469	0.37841796875	-0.2109375	0.275390625	0	0	0	-0.524391397083749	0.242803216457532	-0.642530640998051	-0.503204368145851	0.0564019469130208	0.39200061464636	0.918234359246754	-0.901296286224731	-0.375663923913625	0.215735070647602	0.429515802761584	-0.839769095874988	0.332120521484863	33.0064891310625	-66.6693071434663	81.8123439387304
33627	1652786713621	8.95343559948306	2.06925479275838	3.295122283799	0.0541925484716515	-0.0355590373839509	-0.0505434686073425	0.0128354686184258	-0.00203544934407439	0.0336907380794218	0.37109375	-0.2197265625	0.275634765625	0	0	0	-0.524391422454418	0.24286454021819	-0.642620344255583	-0.503060179610427	0.0561118165068869	0.391841248187546	0.918320151290999	-0.901265575022566	-0.375894541589863	0.2154614974472	0.429618234398332	-0.839740275217149	0.332060902321678	32.9779823537987	-66.6817220227868	81.8506257295854
33628	1652786713622	8.98893308439269	2.04184177776338	3.26034580817969	0.0605771254573794	0.0153981067836934	-0.0353675315214783	0.0159855654332818	-0.00275680308757509	0.039819397237625	0.377685546875	-0.21240234375	0.278076171875	0	0	0	-0.524279751552713	0.243086227245977	-0.642745471235278	-0.502909621544152	0.0555746906597145	0.391595389723488	0.918457677035467	-0.901376137029118	-0.375981997363269	0.214845519509231	0.429456066847985	-0.839815806237318	0.332079656470285	32.901648711555	-66.7016362642347	81.9226005717737
33629	1652786713623	8.98980912811218	2.038872490095	3.25978854226988	0.0605451636793495	0.0152317550646427	-0.0353670729799855	0.0137984664383736	-0.00288128353223852	0.0370441820309287	0.369384765625	-0.216552734375	0.2724609375	0	0	0	-0.524280076620787	0.243156369229653	-0.642842916148457	-0.502750799620749	0.0552559305216007	0.391415500467231	0.918553584793058	-0.901343660029451	-0.3762332271675	0.214541756541333	0.429565348540713	-0.839787154443978	0.332010762723108	32.8701063729745	-66.7155335839108	81.9646808665385
33630	1652786713625	8.99813438783833	2.04374984356327	3.2262781862909	0.0370861496195827	0.0423553564040007	-0.0377686061862565	0.0176961292493813	-0.00525999814560113	0.0373790594385525	0.372314453125	-0.2138671875	0.27734375	0	0	0	-0.524189640588716	0.243350595586482	-0.64296551287802	-0.502594327043871	0.0547516737544188	0.391177916039637	0.918684979861964	-0.901425360989748	-0.376358860102046	0.213977398309242	0.429458464563912	-0.839841560310977	0.332011416654354	32.801297468827	-66.7345858471631	82.0322908053979
33631	1652786713626	9.02278383225862	2.04239599043747	3.23098836168014	0.039628411945325	0.0462265284057519	-0.0138309341868741	0.0183185101449238	-0.00781375837401858	0.0335598237599847	0.38037109375	-0.208251953125	0.271728515625	0	0	0	-0.524220690571221	0.243410306353788	-0.643047138590727	-0.502428569936131	0.0544836006220667	0.39096907070945	0.918789814381856	-0.90137194626519	-0.37663390974538	0.213718301780668	0.429604645865659	-0.83981550579785	0.331888180675575	32.7793769476622	-66.7497974098131	82.0666229741342
33632	1652786713627	8.99797499540649	2.01805225523002	3.23724557159061	0.0602070501163321	0.0377628170818479	-0.0397248485694934	0.0110179930970159	-0.00651104972296365	0.0310400031716778	0.376220703125	-0.20458984375	0.280517578125	0	0	0	-0.524199934221188	0.243555730326023	-0.643098428154055	-0.50231409187245	0.0542100358622826	0.39073101021342	0.918907258470304	-0.901418601477797	-0.376722318663428	0.213365413154671	0.429541356474115	-0.839886642516984	0.331790070375721	32.7439982187429	-66.7668498013374	82.1012044969381
33633	1652786713627	9.02643178832074	2.05807092052448	3.21663168529608	0.0146716193291293	0.0492339658749973	-0.0118605457433354	0.0114784169221792	-0.000405120683162833	0.0332000727815102	0.37060546875	-0.2119140625	0.2763671875	0	0	0	-0.524190308717537	0.243618333589404	-0.643190115590012	-0.502176366422238	0.0539131654928572	0.39058501134442	0.918986789621929	-0.901394489318346	-0.376938009092161	0.213086160808618	0.429629311398859	-0.839857777373478	0.33174925557147	32.7130750511267	-66.7784041093586	82.1410192073
33634	1652786713629	9.01964406954853	2.04793890255737	3.24920062736389	0.034615796845504	0.0227856616687318	-0.00944199603972429	0.00480450899778855	-0.00164459277452474	0.0268691660145338	0.374755859375	-0.20947265625	0.2763671875	0	0	0	-0.524142330756564	0.243616945089938	-0.643330633789874	-0.50204710615802	0.0535529593851301	0.390584659171554	0.919008000270365	-0.901344472816489	-0.377198974526809	0.21283579336918	0.429779271096524	-0.83974076811583	0.331851202348246	32.6744526995826	-66.7814865157273	82.1928702335475
33635	1652786713629	9.02215446751054	2.06631741087199	3.23634819555595	0.0105178582902769	0.0264183257608919	-0.00748060650930249	0.000778382194421311	0.00334242574575098	0.0254702400661145	0.37548828125	-0.212890625	0.27880859375	0	0	0	-0.524102949535688	0.243683842028927	-0.643400057936495	-0.501966780643229	0.053309101162671	0.390500070773001	0.919058123547966	-0.901361752219197	-0.377295072529387	0.212592144448901	0.429773348835832	-0.839736936767298	0.331868566844026	32.6432744942113	-66.7887721440706	82.2263222825614
33636	1652786713630	9.01847210853794	2.02292678849879	3.26250006586719	0.0574478693421721	0.0191061123634951	-0.0113959669615085	-0.00492872601745794	0.00477780809307118	0.0194676631998708	0.372802734375	-0.211181640625	0.269287109375	0	0	0	-0.524006029135823	0.243759020145875	-0.643489364832794	-0.501916984046084	0.0530059548892193	0.390494090099855	0.919078198165623	-0.901418874950571	-0.377321762447212	0.212302377439766	0.429691029263038	-0.8397277256235	0.33199844305366	32.5976133707584	-66.7916906797752	82.2698749714731
33637	1652786713631	8.9745837899165	1.98499605176367	3.24490691022743	0.0796411485901106	0.030826599863599	-0.0656113381640289	-0.00773748468965566	0.0107167453387153	0.0174772870011615	0.3779296875	-0.211181640625	0.275634765625	0	0	0	-0.523931007838326	0.243813919088891	-0.643547906851981	-0.501893577833453	0.0528017288898989	0.390501778247831	0.919086687212647	-0.901468467660852	-0.377315218776101	0.212103341541661	0.429612126504168	-0.839727090705798	0.332102143768062	32.5651091270053	-66.7929249588712	82.2994500117815
33638	1652786713632	8.97251833585699	1.96302669113853	3.25871913270989	0.102961568550816	0.0258802230601267	-0.0675583998887514	-0.00514776034913861	0.00746820928546972	0.00728447921566337	0.37744140625	-0.21142578125	0.279541015625	0	0	0	-0.523863570615482	0.243944459383582	-0.643529633728144	-0.501923968975154	0.0527214224995471	0.390418664778821	0.919126605970009	-0.901593126877008	-0.377126860208562	0.211908387935385	0.429360320916786	-0.839850342323891	0.3321161202361	32.5401196657606	-66.798729844598	82.3094043370555
33639	1652786713633	8.94117104892382	1.95349169171964	3.28674543700002	0.120928941633891	-0.0059173624033871	-0.0890714625245312	-0.0025913967041933	0.0102613874228483	0.0041244757885885	0.373779296875	-0.209716796875	0.278564453125	0	0	0	-0.523819241254929	0.243949593271906	-0.6435594825281	-0.501929468034849	0.052639576781272	0.390471955723947	0.91910865883714	-0.901613919132501	-0.377110810121451	0.211848478200993	0.429326700523997	-0.839832774237027	0.332203996867164	32.5259016250204	-66.7961198477337	82.3222362915921
33640	1652786713634	8.96461437750272	1.95438793979231	3.2933457562479	0.122764461149921	-0.00118326052752589	-0.0651237258802553	-0.00221647162125696	0.00943539813261796	0.00123036445708409	0.369140625	-0.213134765625	0.26904296875	0	0	0	-0.523749042483352	0.243911523307598	-0.643634041980534	-0.501925621282017	0.0524847776031341	0.39061597923265	0.919056312142008	-0.901609686364691	-0.377155678996857	0.211786607824439	0.429354540645971	-0.839745646352833	0.332388218591077	32.5039183733265	-66.7885088110028	82.3473356085192
33641	1652786713635	8.96432519201962	1.95443852079145	3.29410280922492	0.122689637967237	-0.00135441293203047	-0.0651228060951769	0.00557912709959959	0.00818776822649224	-0.00112322165641735	0.373291015625	-0.2158203125	0.271728515625	0	0	0	-0.52373809122328	0.243881590320153	-0.643655530255981	-0.501924038152787	0.0524586565476103	0.390672208653361	0.919033902932381	-0.90159252304846	-0.377188059654626	0.211802006688063	0.429393772353922	-0.839704944036822	0.332440363409417	32.5017331520834	-66.7852513064525	82.352187022994
33642	1652786713636	8.89485886469953	1.97186199423894	3.26489834727518	0.0882531745797141	-0.0112559326095244	-0.134960368438286	0.00691994850692888	0.0100308615461769	-0.00369123700583841	0.3828125	-0.20556640625	0.272216796875	0	0	0	-0.523637159740992	0.244037360252759	-0.643645118515043	-0.501966984124462	0.0523334564252435	0.390603137587968	0.919070398960287	-0.901751258361744	-0.376949827299714	0.2115502203774	0.429075608001198	-0.839844043025341	0.332499783478503	32.4662184430432	-66.7905567560132	82.368891069471
33643	1652786713637	8.89446895498794	1.97246362174041	3.26559710157621	0.088159672448165	-0.0114386912493031	-0.13495973051276	0.00947645911277719	0.00931638590429459	-0.00381737638662652	0.37646484375	-0.200927734375	0.27392578125	0	0	0	-0.523635208499475	0.243986246124503	-0.643667597101374	-0.501965043168873	0.0523254722876338	0.390677688609974	0.919039165962063	-0.901716844051608	-0.377003614277091	0.211601058540875	0.429148899688073	-0.839785221615848	0.332553760243569	32.4682415150771	-66.7860163255657	82.3714804147276
33644	1652786713638	8.91446073807105	2.0079973430912	3.27874686767858	0.0663439837100772	-0.0279741138619266	-0.104718445800698	0.012408561463387	0.00426951193194356	-0.00380281320239599	0.36962890625	-0.218994140625	0.271728515625	0	0	0	-0.523776865448636	0.243863318861495	-0.643596227661691	-0.501968497691139	0.0526291549069948	0.390670133535697	0.919025037100174	-0.901589992540397	-0.377116618079116	0.211939948380615	0.429378221856655	-0.839737996717888	0.332376953869317	32.5235945679094	-66.7839626479985	82.3275858438713
33645	1652786713639	8.91835268505701	2.05003517732342	3.25295424696899	0.0182092925265037	-0.0205338716187351	-0.100807167690245	0.0150901733597032	0.000941963585795763	-0.00287043288998025	0.373779296875	-0.210205078125	0.278076171875	0	0	0	-0.523815845653457	0.24381714294124	-0.643605057852744	-0.501938930704414	0.0526514606286742	0.390670303239967	0.919023687322617	-0.901531434898269	-0.377221021302561	0.212003238130274	0.429498423261292	-0.839691023683024	0.332340321300649	32.5342134705164	-66.7837664622742	82.3243761108594
33646	1652786713640	8.93646883168919	2.06506835214739	3.27846408117373	0.0144612109609594	-0.0407157966840352	-0.0724901240202715	0.0115677628422377	0.00249219181760279	-0.00610563290307819	0.3779296875	-0.218017578125	0.270751953125	0	0	0	-0.523737106505149	0.243894376973823	-0.643639086384228	-0.501939939264292	0.0524885187180541	0.390663257277356	0.919036003003272	-0.90160939843394	-0.377143660503819	0.211809234919938	0.4293546879427	-0.839729050798665	0.332429952300331	32.5034324101551	-66.7855565639637	82.3477118063326
33647	1652786713642	8.95998116062784	2.06708387810911	3.28419174020903	0.0169563919878699	-0.036875849842042	-0.0485506280876997	0.0134976950870978	0.0043234658616715	-0.00242082702721448	0.371337890625	-0.209716796875	0.281494140625	0	0	0	-0.523760019313668	0.243846772655717	-0.643656376285283	-0.50191698805802	0.0524904414653775	0.39068975874743	0.919024627507144	-0.901558520170366	-0.377236177128312	0.211861042605373	0.429461276791038	-0.839675162831134	0.332428387267874	32.5099052123423	-66.7839031148345	82.3479477532405
33648	1652786713643	8.98351765997779	2.06896435246078	3.2899402675754	0.0175219695825948	-0.0332710271734576	-0.0246080822387782	0.00888531727042472	0.00231189421622315	-0.00400459200002633	0.373046875	-0.21142578125	0.2822265625	0	0	0	-0.523705975541889	0.243906886128446	-0.643674614578224	-0.501920783220239	0.0523848428934002	0.390676345893611	0.919036354555275	-0.901618320858741	-0.377169916541413	0.211724484998804	0.429348613281677	-0.839711168685614	0.332482964161687	32.4889024409317	-66.7856076644613	82.3629009497914
33649	1652786713644	8.93583286797325	2.067212421809	3.27884628707217	0.0122685408458116	-0.0415255572492248	-0.0724905339851425	0.0120303855665371	0.00859786946448662	-0.00394801402637892	0.3701171875	-0.21875	0.278076171875	0	0	0	-0.523712922656698	0.243849821165595	-0.643697697823845	-0.501911658737042	0.0523810770675775	0.390744153416069	0.919007741717337	-0.901573363543857	-0.377243903082677	0.211784106427195	0.429443468821518	-0.839646380423394	0.332524078719775	32.4930017290091	-66.7814489395606	82.3647530542463
33650	1652786713645	8.9538320928322	2.08203245998144	3.30479409983444	0.00808999289643435	-0.0603380561216606	-0.0441702685571332	0.0074186742074213	0.00308158947882427	-0.00249551925164706	0.367431640625	-0.21337890625	0.2822265625	0	0	0	-0.52359306604624	0.243860377086779	-0.643816365856309	-0.501879372689262	0.0520652070853386	0.390869102593971	0.918972556091064	-0.901603512698207	-0.377298423512254	0.21155851555875	0.429418583786746	-0.839563722568187	0.332764835350783	32.4465617100273	-66.7763358590546	82.4126549791069
33651	1652786713646	8.92657211771699	2.11471385668796	3.3062948060881	-0.0220664524445877	-0.084508269241017	-0.0618073383138089	0.00582701050085904	0.00295968191495504	0.00099034350510552	0.37109375	-0.212158203125	0.267333984375	0	0	0	-0.52359565768364	0.24385057422286	-0.64383038831803	-0.501863443363105	0.052038657058873	0.39087166767268	0.918972968907295	-0.901588074819687	-0.377339963333818	0.211550219603206	0.429454213525075	-0.83954385917712	0.332768969412036	32.4452221848615	-66.776395842233	82.4165282017348
33652	1652786713647	8.91030797453423	2.12105416289769	3.26791228110845	-0.0479313365532956	-0.0609094773237669	-0.0881975420941945	0.00192962773309893	0.00183265022331247	0.00368484794775549	0.37158203125	-0.214111328125	0.2783203125	0	0	0	-0.523489212429538	0.243940979046593	-0.643898087361017	-0.501843697085572	0.0517761036692266	0.39087145141438	0.918987890865842	-0.901673335415946	-0.377291404874549	0.211273263825957	0.429306919684177	-0.839565783174258	0.332903686423383	32.4007558182551	-66.7785641365021	82.4543433998135
33653	1652786713648	8.93201201563471	2.10133001215608	3.28664759846926	-0.02147603891682	-0.0608899844946559	-0.0661849082456065	-0.00293266190198995	0.00154169737312664	0.00301879240094129	0.377197265625	-0.198486328125	0.273681640625	0	0	0	-0.523471288080852	0.243968739012941	-0.643903290615177	-0.501842223486981	0.0517356134387655	0.390854458020677	0.918997398770789	-0.901696978270938	-0.377267274220157	0.211215442568841	0.429262140980513	-0.839584537999512	0.332914129878819	32.3928479373172	-66.7799458200371	82.4598523388152
33654	1652786713649	8.93412413260364	2.12150907148374	3.27381233114483	-0.0446789377656355	-0.0565983644939142	-0.064250444818823	-0.00402283740074704	-0.00201937602347536	0.0046709586961487	0.368408203125	-0.212646484375	0.28271484375	0	0	0	-0.523490275044149	0.243934106264524	-0.643914843835026	-0.501824429082566	0.0517396513796846	0.390870133008473	0.918990504628338	-0.901658662532732	-0.37733678835377	0.211254832925896	0.429342130188495	-0.839546000691327	0.332908167470257	32.3981455203676	-66.7789439592951	82.4595695304136
33655	1652786713650	8.96140658659913	2.08828525353029	3.27258632187544	-0.0147825148271549	-0.0327992928335005	-0.0466098425493016	-0.00976300835146122	0.00195584343501683	0.00873166449596153	0.373779296875	-0.210693359375	0.277587890625	0	0	0	-0.523447170015784	0.243997323456896	-0.643927004326881	-0.501823055914081	0.0516466384889597	0.390835417283954	0.919010501207287	-0.901714251103707	-0.377277853397848	0.211122785819044	0.429236571239302	-0.839588648048549	0.332936732696676	32.3797172740509	-66.7818499861936	82.4723085561851
33656	1652786713651	8.95065727992686	2.11337314483717	3.31260960988003	-0.0236844583783725	-0.0789281619524996	-0.037862372646261	-0.0134974995030472	-0.00432120101501443	0.00242081366818922	0.375732421875	-0.20947265625	0.274658203125	0	0	0	-0.523338383567979	0.244023111965192	-0.644017566172168	-0.501807763563852	0.0513881905770007	0.390932707215199	0.918983608286142	-0.901759351091565	-0.377283378507737	0.210920186375576	0.429172839993565	-0.839540869005901	0.333139314222556	32.3390900346922	-66.7779418197346	82.5113924661866
33657	1652786713652	8.97799913524389	2.08008259561751	3.31124097959519	0.00619046679206942	-0.0551126659230845	-0.0202181602330285	-0.0130345073115681	-0.00171974960511121	0.00761457526224558	0.37255859375	-0.21533203125	0.270263671875	0	0	0	-0.523299647364844	0.244102913975125	-0.64401403023057	-0.501813885143547	0.0513193925100623	0.390872427586085	0.919013093108776	-0.90182830280174	-0.377193184131983	0.210786655436508	0.429036166561901	-0.839609461117094	0.333142492913366	32.3224459989578	-66.7822266825507	82.5201642948383
33658	1652786713653	8.95993415843534	2.06485582820187	3.28572120946268	0.00596022534773508	-0.0365845637700167	-0.0485366282457349	-0.0175216676888012	-0.00283814291479719	0.00405391795094526	0.376953125	-0.216796875	0.273681640625	0	0	0	-0.52322534982668	0.244308929503517	-0.643948709177393	-0.501874924869098	0.0512864138272303	0.390706169865395	0.919085628538416	-0.902020670286433	-0.376869413504964	0.210542526679145	0.428635525980706	-0.839832205856347	0.333096760527187	32.296005225572	-66.7927710277877	82.5217716974121
33659	1652786713653	8.93431493212532	2.0421930632091	3.29308586745085	0.0272887006738166	-0.0446240681754137	-0.0744013565721584	-0.0161809023637592	-0.000996850268532566	0.00148491223198258	0.373291015625	-0.218017578125	0.274169921875	0	0	0	-0.523183805937661	0.244381702390069	-0.643927642810137	-0.501909832107816	0.0512695487238241	0.390674131868914	0.919100188261392	-0.902100328500758	-0.376728207940871	0.210453925267468	0.428469871394104	-0.839910459531331	0.333112577483032	32.2838857823109	-66.7948880940416	82.5235968975324
33660	1652786713654	8.97977980781224	2.02340072599455	3.31749732756228	0.0537559634915902	-0.0418855949366619	-0.0284275388374553	-0.0170212834323577	-0.00277315353174583	-0.000817391419510226	0.369140625	-0.2119140625	0.271484375	0	0	0	-0.523058709155599	0.244649561830304	-0.643863904362198	-0.501991485318411	0.051171729111413	0.390496227374499	0.919181239226537	-0.902360563400266	-0.376302281128111	0.210099992474379	0.427933251523766	-0.840184080796621	0.333112357345436	32.2403719683891	-66.8066767006473	82.5343391906826
33661	1652786713655	8.96346824054511	2.02955827143767	3.27938383001909	0.0304451187457063	-0.0185005489118327	-0.054820855316164	-0.014840050848274	0.004350363491969	-0.00411849627067606	0.3720703125	-0.2109375	0.2734375	0	0	0	-0.523009728193125	0.244691063642823	-0.64384443904045	-0.502047254653769	0.0511812433800655	0.390529052714468	0.919166763602781	-0.902432279462947	-0.376149674935915	0.210065235174496	0.427780856642021	-0.840237157611794	0.333174215177395	32.2312950085606	-66.8045708517577	82.5335873247825
33662	1652786713655	8.95788069115486	2.04254369173721	3.29970354174119	0.0255718679870871	-0.0427162570143616	-0.0504552364199444	-0.012747629392545	-0.0024710081621128	-0.00640557719110397	0.372314453125	-0.21728515625	0.275146484375	0	0	0	-0.522942906388288	0.244804625012369	-0.643808736071816	-0.502107282946917	0.0511620138603296	0.39048442621049	0.91918679343473	-0.902559794615543	-0.375917943968437	0.209932171298478	0.427514052963532	-0.840361596153471	0.333202824461448	32.2126992921529	-66.8074847499252	82.5355175656161
33663	1652786713656	8.93405244193784	2.04129744487979	3.29435305457798	0.0228466084453698	-0.0469387431194887	-0.0744008037273609	-0.0160571674092432	0.00339847305471049	-0.0035278353460304	0.373291015625	-0.20947265625	0.28125	0	0	0	-0.522892976385999	0.244854405206399	-0.64378684833532	-0.502163070533554	0.0511696283229931	0.390506663619172	0.919176922472659	-0.902637258497563	-0.375757141686666	0.209886993507151	0.427349562664209	-0.840423176822539	0.333258510994423	32.2028201291833	-66.8060486997315	82.5348394869806
33664	1652786713658	8.92982454019061	2.00000573472084	3.32054508662797	0.0690579801350792	-0.053950126524585	-0.0782059019814927	-0.0105670925409429	0.00114634817416091	-0.00667211942646933	0.37255859375	-0.2138671875	0.2734375	0	0	0	-0.522794886934214	0.244887875457826	-0.64382498247859	-0.502199986644401	0.0510386407803901	0.390605536881092	0.919142193409226	-0.902710053527228	-0.37565020373623	0.20976530622054	0.427211442272042	-0.840425034723955	0.333430869298389	32.1744838419791	-66.8009969034969	82.5555983126243
33665	1652786713659	8.88427748524679	2.0184760086515	3.29656173615405	0.0397499463605989	-0.0583570502893664	-0.124190806719684	-0.00691952606800604	0.000488907803399889	-0.0054129398061517	0.376953125	-0.212890625	0.273681640625	0	0	0	-0.522779108499755	0.244910669299687	-0.643802397338996	-0.502234249090943	0.0510744744874826	0.390610864463862	0.919137938841947	-0.902747589898135	-0.375559046206473	0.209766993937541	0.427127834481594	-0.840463298053686	0.333441535558763	32.1738655224453	-66.8003780925311	82.550530824093
33666	1652786713660	8.88966250000614	2.00590722605107	3.27654715130213	0.0420841234124873	-0.0354799294921687	-0.128551134567667	-0.00616730265084878	-0.00466806825969087	-0.00816742820855925	0.381103515625	-0.212158203125	0.274658203125	0	0	0	-0.522750923829697	0.245030436795755	-0.64373195677673	-0.502295455387845	0.0511385057361682	0.390507498351002	0.919178299875881	-0.902867047156502	-0.375318721080799	0.209682981582132	0.426867600539056	-0.840618671775685	0.33338311335776	32.1680460854892	-66.8062490824671	82.5393445776973
33667	1652786713661	8.93154290222651	2.02200945643319	3.30768843376876	0.0435122561042256	-0.0514078335503561	-0.0762995573797855	-0.003610522903294	-0.00187423700471617	-0.0113261824437342	0.376953125	-0.22119140625	0.27734375	0	0	0	-0.522758213519461	0.245033603785084	-0.643692297183106	-0.502337147502722	0.0512375191264595	0.39051444693902	0.91916983379878	-0.902887762806724	-0.375231846509846	0.209749253011018	0.426811907527935	-0.840654226240921	0.333364766428072	32.1776277540552	-66.8050174750239	82.5251940974373
33668	1652786713661	8.9496340934552	2.03712932601508	3.33320574637352	0.0411566567436771	-0.0723291467063641	-0.0479968198323561	0.00125315828034367	-0.00158079319020131	-0.0106582308318467	0.373291015625	-0.209716796875	0.271484375	0	0	0	-0.522730106253978	0.245150036627533	-0.643620111047232	-0.502402078232935	0.0513092243941356	0.390417553376331	0.919206993830939	-0.903006772154238	-0.374987222657493	0.209674395878952	0.426551442308728	-0.840808371068735	0.333309391114448	32.1726996404825	-66.8104238117818	82.5130152939643
33669	1652786713662	8.93130909720955	2.0238991106363	3.3071640209647	0.0418779025546552	-0.0527851580623721	-0.0762997602195146	0.00041397056575641	-0.00686341607458357	-0.00992792112550098	0.374267578125	-0.212646484375	0.267822265625	0	0	0	-0.522761715379593	0.245157146445295	-0.643575745972308	-0.502422552913753	0.0514164654859743	0.390376397742943	0.919218480646562	-0.903011479396177	-0.374939103740855	0.209740164405229	0.426528563118178	-0.840848938021122	0.333236324960372	32.1864616630631	-66.8120952459556	82.4967629323003
33670	1652786713663	8.90004164434633	2.01601104076566	3.33389768919617	0.0595300388848994	-0.0859061140346419	-0.0978022992533418	0.00733200591188515	-0.0003369601124567	-0.010582228783248	0.37255859375	-0.215087890625	0.27490234375	0	0	0	-0.522790310933394	0.245229363387187	-0.6434865991352	-0.502471737374644	0.0515751121322579	0.390260588619159	0.919258767039604	-0.903074729159903	-0.374769424944842	0.209771093526444	0.426375469933852	-0.840978329742889	0.333105700253759	32.2003989057673	-66.817958175542	82.47166876631
33671	1652786713664	8.9331323227088	2.0466469507055	3.29352904383035	0.0172643641742444	-0.0506326869738459	-0.0744078128755188	0.00272024055460211	-0.00585787414978582	-0.00913520931662555	0.374267578125	-0.21630859375	0.274169921875	0	0	0	-0.522823666143221	0.245229231302873	-0.64344928919899	-0.502484875856456	0.0516712726878331	0.390223780895654	0.919268992407728	-0.903070363916663	-0.374743147300247	0.20983682080829	0.426373073017334	-0.841007119098885	0.333036076470327	32.213894850505	-66.8194465091948	82.4570905898552
