// Start Time : 17/05/2022 10:20:08																																
// Update Rate : 100Hz																																
// Filter Profile : 46.1 human																																
// Firmware Version : 4.4.0																																
PacketCounter	Time_Of_Arrival	Acc_X	Acc_Y	Acc_Z	FreeAcc_X	FreeAcc_Y	FreeAcc_Z	Gyr_X	Gyr_Y	Gyr_Z	Mag_X	Mag_Y	Mag_Z	VelInc_X	VelInc_Y	VelInc_Z	OriInc_q0	OriInc_q1	OriInc_q2	OriInc_q3	Mat[1][1]	Mat[2][1]	Mat[3][1]	Mat[1][2]	Mat[2][2]	Mat[3][2]	Mat[1][3]	Mat[2][3]	Mat[3][3]	Euler_X	Euler_Y	Euler_Z
5811	1652782848360	5.1006110434572	1.85521114354901	8.49730762465376	-1.04083408558608E-15	3.14418630020796E-16	0.270083992020606	0.00461507456200023	-0.00450796429145686	-0.0122405363284201	0.474853515625	-0.29052734375	0.4326171875	0	0	0	0.216447732899362	-0.178227308137427	0.487880653127261	0.826654627919623	0.460414989876407	0.729463805985993	0.505866180776633	-0.883771393134402	0.430245694453687	0.183947729209532	-0.0834635355972103	-0.531762351206339	0.842770811113626	12.3125883789895	-30.3888682677694	57.7411466589322
5812	1652782848361	5.05148180336126	1.85077415540241	8.4741764281291	7.80625564189563E-16	-8.45677694538693E-16	0.224966718387506	0.00463792031276415	-0.004488007345865	-0.0107131544220782	0.47314453125	-0.28369140625	0.435546875	0	0	0	0.21551853094357	-0.177269876483856	0.486569568650829	0.827875116532844	0.46365089150869	0.729227789975584	0.503244156578616	-0.882047563416979	0.433603635365744	0.184336603168719	-0.0837851220287243	-0.529353112510861	0.844254307422648	12.3168040297819	-30.214864778925	57.5513593657448
5813	1652782848361	5.0741156736316	1.87903222041861	8.49699357458039	-0.0251568934689983	0.004392097210291	0.260825407930374	0.00291749464185299	-0.00155461974358181	-0.0137786577151398	0.4736328125	-0.286865234375	0.435302734375	0	0	0	0.215977777857201	-0.177754007547708	0.487132874093821	0.827320176986932	0.462210151555647	0.729247880112173	0.504538705304962	-0.882811542333637	0.432110324897919	0.184185905647308	-0.0836992026330619	-0.530545187960946	0.84351422454519	12.3175103338354	-30.3007353813498	57.6327570874329
5814	1652782848363	5.0757891277809	1.85490234571367	8.47299240556794	-0.00037854675265488	0.00748874650019518	0.236981389965953	0.00308448455245695	-0.00299858987106425	-0.00765127747138488	0.472900390625	-0.28857421875	0.43505859375	0	0	0	0.216004640715392	-0.177750636047373	0.487100726597083	0.827332816176635	0.462275187066695	0.72919890724181	0.504549903478141	-0.882778756347191	0.432149754676016	0.184250527477037	-0.0836858337149036	-0.530580383364113	0.843493413148337	12.3219946744769	-30.3014785115463	57.6273719088728
5815	1652782848363	5.07592260986449	1.85573338469466	8.4727304693355	-0.000375051503090449	0.00751936901526196	0.236981367231268	0.00461528743259179	-0.0045079264477992	-0.0122406714625285	0.476806640625	-0.287353515625	0.43603515625	0	0	0	0.216044632776567	-0.177743670842211	0.48705057129574	0.827353397965142	0.462377856952057	0.72912475809386	0.504562983714613	-0.882727022475718	0.432212915297863	0.184350209223846	-0.0836643364377917	-0.530630834935449	0.843463808247948	12.3288766922013	-30.3023465458596	57.6189827166259
5816	1652782848364	5.07427948593888	1.88156727543843	8.49633474063575	-0.0251533822790001	0.00442273163857313	0.260825403295048	0.00296302107775766	-0.00151470217734771	-0.0107239471498354	0.47216796875	-0.291748046875	0.43115234375	0	0	0	0.216070109013305	-0.177731136568174	0.487007205134991	0.82737496531607	0.46247125048158	0.729070366807791	0.504555985714922	-0.882679911021167	0.432275380275167	0.184429309730383	-0.0836451860997916	-0.530654686072509	0.843450702170327	12.3341906331005	-30.3018821416898	57.6118155639246
5817	1652782848365	5.05174056156438	1.85503654763267	8.47309012136338	-0.00954594456237427	-0.0116461023518848	0.224955423074705	0.00311445079604851	-0.00456287989542239	-0.0106884626122844	0.4755859375	-0.292724609375	0.437255859375	0	0	0	0.216103899366443	-0.177730677658037	0.486960723757586	0.827393597035487	0.462562119473406	0.728999784731701	0.504574671866715	-0.88263295464747	0.432336716392213	0.184510246407824	-0.0836382268974374	-0.53070168411296	0.843421821795666	12.3398472746023	-30.3031222047826	57.6042142852163
5818	1652782848367	5.07606504481506	1.85834204093355	8.47207335030757	-0.00036821926676549	0.00751616289152722	0.236981369882296	0.00446384325706205	-0.00145968388187722	-0.0122763569757099	0.47119140625	-0.288330078125	0.43701171875	0	0	0	0.216136829143096	-0.177712582517255	0.486912325405107	0.827417365343275	0.462669250767277	0.728938958711502	0.504564325797056	-0.882579895047944	0.432402516913118	0.184609837832012	-0.0836055814620511	-0.530731625060908	0.843406218206032	12.346525029409	-30.3024356099451	57.5960485887847
5819	1652782848368	5.07441536540407	1.8841778900396	8.49567502473298	-0.0251357315525223	0.0044182107371572	0.260825449336995	0.00311467133796153	-0.0045629505502711	-0.0106884570127081	0.4677734375	-0.286865234375	0.435302734375	0	0	0	0.216170635304764	-0.177711913732171	0.486865814539914	0.827436046339516	0.46276030870007	0.728868454776132	0.504582671446483	-0.882532843946967	0.432463870128641	0.184691040357229	-0.0835983016974247	-0.530778462887871	0.843377464299168	12.3521972974418	-30.3036530831215	57.5884392621897
5820	1652782848369	5.04952601103686	1.88179577400365	8.47185077792259	-0.0320444479779242	-0.00261131837468013	0.227735447046804	-9.15312046143092E-06	-0.00318963169439184	-0.01065651687146	0.47265625	-0.283935546875	0.43603515625	0	0	0	0.216187830661274	-0.177713613685904	0.486818270204823	0.827459162242738	0.462851686610963	0.728805434812821	0.504589887323044	-0.882483517299746	0.432541587337513	0.184744734479265	-0.0836131442756261	-0.530801670504945	0.84336138676934	12.3559064006581	-30.3041319548125	57.5810780878175
5821	1652782848369	5.07698016260427	1.86110259473716	8.49589647160172	-0.00258150250311258	-0.00462023895311266	0.258045444626191	-8.51964593815663E-05	-0.00166557371387738	-0.0106743767592646	0.473876953125	-0.28857421875	0.434326171875	0	0	0	0.216202200674957	-0.177707383324339	0.486771726903871	0.827484126870325	0.462946743598079	0.7287503001426	0.504582315023034	-0.882433209546241	0.432619788620657	0.184801918777206	-0.08361784069117	-0.530813638234633	0.843353388670644	12.3597270246038	-30.3036294296318	57.5737913520576
5822	1652782848371	5.07685807092613	1.86163450789519	8.49585289326808	-0.00258150216955319	-0.00462023885354553	0.258045444626319	-0.000161321727474289	-0.000141519238628645	-0.0106922336489437	0.466552734375	-0.29345703125	0.42578125	0	0	0	0.21621137779699	-0.177696802789806	0.486727191617009	0.827510197719659	0.463040974437802	0.728703288018442	0.504563746243033	-0.882383570263658	0.432698562103494	0.184854508417648	-0.0836199193999401	-0.530813971542461	0.843352972778816	12.363142030478	-30.3023971492211	57.5668400589872
5823	1652782848371	5.05324967713797	1.8605288948174	8.52093712958766	-0.0139802629731124	-0.0359104764719007	0.267083695373133	0.00303895230100006	-0.00303841823139039	-0.01070649266287	0.47021484375	-0.292724609375	0.436279296875	0	0	0	0.216241820470237	-0.177688320480717	0.486681834892332	0.827530741078718	0.463135304701149	0.728641067201906	0.504567026990708	-0.882335650790103	0.432760533331101	0.184938152190908	-0.0836031631230553	-0.530848863592877	0.84333267168892	12.3688525918615	-30.3026148684344	57.5593419708772
5824	1652782848373	5.07680800201612	1.86293034425667	8.49559876244393	-0.00253358616320067	-0.00461548044946659	0.258045458976911	-6.21004947643713E-05	-0.00164551938561693	-0.00914696749268501	0.47412109375	-0.282470703125	0.43115234375	0	0	0	0.216253694051892	-0.177685390204706	0.486642153063187	0.827551603695346	0.463214633939655	0.728592744364753	0.504563985796836	-0.882293232408031	0.432827509341873	0.184983780921191	-0.083611332671714	-0.530860584349553	0.843324483833425	12.3719267413017	-30.3024130466375	57.5531787863381
5825	1652782848373	5.07682545662468	1.86349539288251	8.49546440846893	-0.00247165565086249	-0.00457374284993551	0.258045493409028	0.00151510631714497	-0.0031140596600454	-0.0106815976504356	0.471923828125	-0.287353515625	0.43798828125	0	0	0	0.216276810873045	-0.177679486204413	0.486595635341365	0.827574183337938	0.463309375697739	0.728532065799167	0.50456461577579	-0.882243876334573	0.432898057490637	0.18505408531286	-0.0836072069902958	-0.530886335219915	0.843308682521442	12.3767086529457	-30.3024548536995	57.5457125467061
5826	1652782848375	5.05260727698354	1.86180690443524	8.49606516407071	-0.0116495771897159	-0.023736058947786	0.2460197790164	0.00303902150433867	-0.00303822344781632	-0.010706633846317	0.4755859375	-0.298095703125	0.4365234375	0	0	0	0.216306289299615	-0.177673085756087	0.486550746217602	0.82759424548654	0.46340129190601	0.728469583637116	0.504570419639725	-0.882196807190362	0.432959921129052	0.185133735659	-0.0835944737585725	-0.530921625488633	0.843287727614683	12.3821697010999	-30.3028400142293	57.5383402708009
5827	1652782848375	5.07377711808393	1.88856639666636	8.47010185379824	-0.0226371650505454	0.0166653565821109	0.23976171700798	0.00153824583042556	-0.0030938748325192	-0.00915415547489039	0.470458984375	-0.2880859375	0.436767578125	0	0	0	0.216327231859633	-0.177667454765508	0.486510700642064	0.827613522384611	0.463483227355828	0.728417051910429	0.504571002383157	-0.882154286634305	0.433019733833433	0.185196448895608	-0.0835889498232037	-0.530944920492646	0.843273608546189	12.3864356457957	-30.3028786867856	57.5318812511231
5828	1652782848376	5.07962368408745	1.8412196038908	8.49538631216861	0.0201127014772907	-0.0135393710044824	0.255265116942803	0.000144413570862523	-0.00623826232644541	-0.0106208423622851	0.470458984375	-0.290283203125	0.43359375	0	0	0	0.216352438731236	-0.177681429498446	0.486460130809287	0.827633658691723	0.463571701488801	0.728337934560207	0.504603934446959	-0.882105176917171	0.433096326776117	0.185251257995629	-0.0836165918625374	-0.53099098374041	0.843241863732872	12.3904402540839	-30.3050641795171	57.52410882673
5829	1652782848377	5.0504441244166	1.88802373816979	8.49489808313511	-0.034007827384165	-0.0145649103279972	0.248800808518231	0.00280879788743087	0.00153407060816191	-0.0107604891987463	0.469482421875	-0.294921875	0.439697265625	0	0	0	0.216369066002238	-0.177651925768328	0.486419507711372	0.827659521219897	0.463671711577261	0.728302711224841	0.504562884787971	-0.882056236232809	0.43316097959029	0.185333110596002	-0.0835783465128584	-0.530986559700832	0.843248441096247	12.3956520236503	-30.3023399808333	57.5172546856288
5830	1652782848378	5.07633840405676	1.86597917981865	8.47023071461223	-5.21520617302587E-05	0.00769379431541942	0.236981242072074	-0.00301011858413475	-0.00330201939362127	-0.00755145690763615	0.47412109375	-0.294921875	0.432373046875	0	0	0	0.216371347545223	-0.177664741340706	0.486382011059375	0.827678209791488	0.463735558004356	0.728252465386491	0.504576732421232	-0.882018703367139	0.433231958558605	0.185345830797531	-0.0836202078025423	-0.530997567548076	0.843237359291609	12.3966343653893	-30.3032589496607	57.5118897415582
5831	1652782848379	5.05215764995206	1.86400716964251	8.47087243700727	-0.00911412187576035	-0.0113972184110399	0.22495611013602	0.00303904211432189	-0.00303776985746403	-0.0107069251417565	0.466796875	-0.294189453125	0.443115234375	0	0	0	0.216400690582193	-0.177651817038556	0.486336508401953	0.827700050509752	0.463833264996594	0.728193553357416	0.504571948418954	-0.881969456918716	0.433295083421895	0.185432596230864	-0.0835977233248947	-0.53102685387004	0.843221146036899	12.4024891139679	-30.3029414685167	57.5043204313767
5832	1652782848380	5.07645950964596	1.86710122537443	8.46991086912086	6.40813041134086E-05	0.00776536760351427	0.236981186953361	0.00148469747001014	-0.00154938660023555	-0.00764472037890079	0.480712890625	-0.291259765625	0.4326171875	0	0	0	0.216417391200872	-0.177646348017324	0.486304513929722	0.82771565622108	0.463899389535368	0.728152201352684	0.504570835516634	-0.88193523812977	0.43334286503477	0.185483684103058	-0.0835918185811185	-0.531044567798879	0.843210575643833	12.4059509968912	-30.3028676130341	57.4991449635807
5833	1652782848381	5.05454203470606	1.8408985384512	8.47123158296739	0.0135216980411468	-0.0203601539135612	0.222175354833396	-0.000162597715167143	-0.000142413756538819	-0.0106924930531144	0.465087890625	-0.2763671875	0.442138671875	0	0	0	0.21642661123925	-0.17762876602484	0.48625922169025	0.827743627428916	0.46399998160337	0.728108760286566	0.504541029318759	-0.881883127844029	0.433422982537374	0.185544245484573	-0.0835832871817347	-0.531038747552726	0.843215086855974	12.4098117877805	-30.3008896064735	57.4919660269086
5834	1652782848383	5.0770710644062	1.86873183954407	8.49416729326924	-0.00207685428683111	-0.00429338988003538	0.258045705989632	3.79527925850128E-05	-0.00314976991937819	-0.00760169664154227	0.466552734375	-0.293701171875	0.429443359375	0	0	0	0.216441178780334	-0.177633482170589	0.486224384410817	0.827759270648449	0.464064388032546	0.728059083079063	0.504553481115781	-0.881847884166494	0.433478128265003	0.18558292353271	-0.0835975654613034	-0.531061845609289	0.843199124280261	12.4125462236613	-30.301715930973	57.4865898703055
5835	1652782848384	5.07883018453016	1.84419583291377	8.47023563000564	0.0228078446893669	-0.00109011076221703	0.234199944180967	-0.00160951773794972	-0.00174295031639049	-0.0106494554607472	0.470703125	-0.29052734375	0.431884765625	0	0	0	0.216446405065199	-0.177626023941241	0.486176795112425	0.827787456565626	0.464162239026073	0.728009076678471	0.504535628212779	-0.881795133990898	0.433566155257125	0.185627936166758	-0.0836107500999609	-0.53105854036002	0.843199898706355	12.4154524531964	-30.3005311811616	57.4793304253739
5836	1652782848385	5.05444527633423	1.84224215232094	8.47099722270581	0.0136297799157681	-0.0202528165110046	0.222175425821323	0.00138430201537672	-4.54535879175324E-05	-0.00919024777306854	0.4697265625	-0.29541015625	0.4345703125	0	0	0	0.216460415653509	-0.177612879398195	0.486139935456253	0.827808260819849	0.464243256452945	0.727968993570329	0.504518922576912	-0.881753624370128	0.4336257032194	0.185686012983271	-0.0835987125983885	-0.531064867890622	0.843197107053985	12.4192561663597	-30.2994225789653	57.4733670945096
5837	1652782848386	5.05501051803586	1.84328816239952	8.4954113237744	0.0113850500255364	-0.0322527847513323	0.243240555439907	-0.00475766933582095	-0.000392750543464344	-0.0121445342464622	0.475830078125	-0.296875	0.443359375	0	0	0	0.216447560438381	-0.177608844831397	0.486085903667648	0.827844216065762	0.464351184986526	0.727920805372653	0.504489125856284	-0.881692810076793	0.433741895671759	0.185703410302443	-0.0836406938068911	-0.53103603365939	0.84321110363586	12.4201838732865	-30.2974452708045	57.4656090719744
5838	1652782848387	5.07842416259379	1.84562104659548	8.47016865043086	0.0228307396673064	-0.000958282345615848	0.234199905618873	0.00450936600822775	-0.00141569244321362	-0.00922281838760661	0.473388671875	-0.292724609375	0.434814453125	0	0	0	0.21647784468718	-0.177593782312786	0.486050204838833	0.827860489224821	0.464431293719934	0.727873282281569	0.504483952524045	-0.881653759181234	0.433785082271442	0.185787920275663	-0.083607549510952	-0.531065897360593	0.843195582486863	12.4258821511714	-30.2971019729247	57.459431354447
5839	1652782848388	5.05160922707915	1.86811206699979	8.4702952119266	-0.00887467727349947	-0.010898417749746	0.224956878662935	-0.00163259067619914	-0.00176364730410488	-0.0121770669166041	0.476806640625	-0.288330078125	0.4326171875	0	0	0	0.216478107390158	-0.177588029254041	0.485998549946468	0.827891979871995	0.464535802631194	0.727820762524074	0.504463502854932	-0.881596444396325	0.433885276941412	0.185825928441732	-0.0836313177078419	-0.53105602726299	0.843199441772882	12.4282901145575	-30.2957449622282	57.4517104334186
5840	1652782848389	5.07971857326035	1.84809105579343	8.51881768562448	0.0182768989737103	-0.0250337866847504	0.276330198462443	-0.000162961092936167	-0.000142413894659586	-0.010692681602223	0.47119140625	-0.293212890625	0.433349609375	0	0	0	0.216487251614455	-0.177577470502184	0.485953998639055	0.827918005037443	0.46462990635352	0.7277736131111	0.504444861388373	-0.881546647261759	0.433963962190268	0.185878423227867	-0.0836334790826799	-0.531056350662847	0.843199023716932	12.4316978657731	-30.2945079576188	57.4447634578168
5841	1652782848389	5.07887713137529	1.84796281634553	8.49436845729412	0.0205071032083684	-0.012701669418541	0.25526541301293	0.00148504336642939	-0.00154873943333755	-0.007644981751104	0.4697265625	-0.289794921875	0.439697265625	0	0	0	0.216494597063762	-0.177568990484453	0.485923149375476	0.827936009581387	0.464695893038702	0.727741092422403	0.504430995670183	-0.881512000606205	0.434017564686436	0.185917579402545	-0.0836320499581902	-0.531057111753062	0.843198686121063	12.4342400399186	-30.2935878707451	57.439911580159
5842	1652782848390	5.05203437036402	1.87026487753014	8.49454804491915	-0.0111816592363971	-0.0228295909791663	0.246022408251342	-0.000139737133340182	-0.00012215526836143	-0.00916519454142513	0.47216796875	-0.288330078125	0.433837890625	0	0	0	0.216502455614412	-0.177559993141882	0.485884923720391	0.827958318062942	0.46477657947337	0.727700579363159	0.504415104817011	-0.881469277499542	0.43408505522832	0.185962570566937	-0.0836339882910684	-0.531057465461083	0.843198271096769	12.4371613734176	-30.2925334126902	57.4339522720496
5843	1652782848391	5.09717590623643	1.89944433197055	8.46794087309124	-0.0130778949679187	0.0369468715937241	0.251783685351718	0.00288466170552523	1.1699933382329E-05	-0.0107432207860348	0.471923828125	-0.283203125	0.43359375	0	0	0	0.216512035493333	-0.177534899044704	0.485845727889796	0.827984194776057	0.464870576624843	0.727668282857895	0.504375075822676	-0.881422052310984	0.434152934355537	0.186027942230114	-0.0836092858980366	-0.531046231238977	0.843207796215441	12.4412611407075	-30.2898772873934	57.427542302653
5844	1652782848392	5.05416890645898	1.84702739655198	8.49509991723343	0.0113155044264388	-0.0315843687848472	0.243242755559679	-0.00471122848915343	-0.000353888516935187	-0.00908953663162609	0.468017578125	-0.29248046875	0.441650390625	0	0	0	0.21650148363783	-0.177537992240695	0.485803501625147	0.828011066775383	0.464950438239777	0.727626873803325	0.50436120241335	-0.881375828692093	0.434244130782728	0.186034092246769	-0.083652486980161	-0.531028405454882	0.843214737787523	12.4415604027168	-30.2889567336239	57.4215974590646
5845	1652782848392	5.05394239204649	1.84731741240273	8.4951716196433	0.0113316698992723	-0.0313185636938851	0.243243568702594	-0.000240882647613835	0.00138152090205998	-0.0107106895608727	0.472412109375	-0.288818359375	0.443359375	0	0	0	0.216496177708083	-0.177514007040544	0.485762913136101	0.828041408725269	0.465046339051877	0.727601405771569	0.504309524849258	-0.881325821827263	0.434327594518637	0.186076157581121	-0.0836462689840194	-0.530995042311029	0.843236364684399	12.4439767873997	-30.2855278056166	57.4153256335042
5846	1652782848393	5.0512747857086	1.87215155500395	8.49458416192199	-0.011175544851778	-0.0222822696384024	0.246023642374984	0.00146213430997084	-0.00156874127105112	-0.00917263375776992	0.476318359375	-0.281982421875	0.447021484375	0	0	0	0.216514235790069	-0.177506951517208	0.485724507123215	0.828060729079227	0.465125970685956	0.727553215089848	0.504305612308522	-0.88128434291054	0.434386577760306	0.186134918815431	-0.0836405304513595	-0.531012824961992	0.84322573572662	12.4479360287585	-30.2852682042104	57.4091516575807
5847	1652782848393	5.05361470160006	1.84819231336597	8.49517626472506	0.0114698986112468	-0.0309450409262925	0.243244568363465	-0.00478920759082169	0.0011695367247136	-0.00910749116648193	0.471435546875	-0.2900390625	0.43310546875	0	0	0	0.216487891835183	-0.177488743248279	0.485686585992981	0.828093762140126	0.465212572413259	0.727539736731251	0.504245172456475	-0.881236392132434	0.434483065750482	0.186136742094281	-0.083664112079484	-0.530952349136045	0.843261477417809	12.4475429954056	-30.2812580404249	57.4038288503079
5848	1652782848395	5.05617736612889	1.82400836279713	8.49568595636689	0.0339864896672156	-0.0399815583087351	0.240464497442128	-0.00285164199111298	-0.0063524975902988	-0.00751591835054917	0.4736328125	-0.29248046875	0.436279296875	0	0	0	0.21649836234243	-0.17751352136093	0.485645987457736	0.828109523978132	0.465273849200486	0.727473361654473	0.504284397273308	-0.88119890832759	0.434552867938493	0.186151252826011	-0.0837181534222203	-0.530986170299727	0.843234817674177	12.4488644254198	-30.2838605751149	57.3980310356648
5849	1652782848395	5.05324752384566	1.84800704296675	8.47045610268078	0.0135657308177262	-0.018428897797214	0.222179027970105	0.0016183444964862	-0.00461622150631746	-0.009137139883891	0.469970703125	-0.288330078125	0.43017578125	0	0	0	0.216503887743274	-0.177517115255975	0.485609300603575	0.828128823040565	0.465342561917008	0.727427825945001	0.504286682462907	-0.88116040832056	0.43461934751871	0.186178295111852	-0.0837414764430417	-0.530994143850326	0.843227480766489	12.4507214401144	-30.284012197714	57.3925624183148
5850	1652782848396	5.0809498323731	1.82722067210848	8.4944233556604	0.0429906751316925	-0.0204290705606431	0.25248770760312	-0.0030079566648003	-0.0033047772195482	-0.00755152060021952	0.47900390625	-0.2841796875	0.43310546875	0	0	0	0.216506299450029	-0.177529727460863	0.485571715913613	0.828147527238255	0.465406609144762	0.727377422991544	0.504300280276104	-0.881122640331238	0.434690262006328	0.186191484264398	-0.0837829389558755	-0.531005141819787	0.843216436332253	12.4517339626766	-30.2849144190668	57.3871804802596
5851	1652782848398	5.05435043039859	1.8495123792478	8.49445124180214	0.0111085334859729	-0.0302539671577975	0.243247076936575	0.00466599977822937	-0.00446069793662597	-0.00918794505428455	0.471435546875	-0.2890625	0.4306640625	0	0	0	0.216526361815514	-0.177529172096364	0.485532123040446	0.828165614590194	0.465483901101234	0.727322526661853	0.504308120126768	-0.881081509662437	0.434749784269549	0.186247143356728	-0.0837861035407266	-0.531031606674969	0.843199455387433	12.4555830754409	-30.2854346006463	57.3808975350239
5852	1652782848400	5.05205906930796	1.87436249735097	8.49363013452033	-0.0113959045708549	-0.0212210818552915	0.246025689922755	-0.00297643350826896	-0.00486974625715726	-0.0105887094641836	0.472900390625	-0.287109375	0.439453125	0	0	0	0.216535513416233	-0.177545046142489	0.485480140556021	0.828190292834646	0.465573579431935	0.727250264103046	0.504329550489543	-0.881029494986937	0.43484280911055	0.186276032618018	-0.0838347845348127	-0.531054408443142	0.84318025603966	12.4577295839867	-30.2868565397593	57.3733010921242
5853	1652782848402	5.07752029116887	1.85163489969198	8.44441264432656	0.0246561802604682	0.0136352663384241	0.213133060790643	0.00158688224243586	-0.00305137435086294	-0.00610004994777584	0.470458984375	-0.283203125	0.43603515625	0	0	0	0.2165309334258	-0.177543202070934	0.485457802239294	0.828204979768382	0.465618267286789	0.727229948028345	0.504317590273767	-0.881004329099644	0.434890154229494	0.186284529314522	-0.0838510660429207	-0.531043460034052	0.843185532536302	12.4582045551829	-30.2860629576229	57.3700770800442
5854	1652782848403	5.07988635184342	1.85394524222093	8.51744549545906	0.0178546093294247	-0.0227485098479551	0.27633636624333	-0.00305491221296323	-0.00334598634713062	-0.0106065062916552	0.4775390625	-0.293701171875	0.440185546875	0	0	0	0.216536093344851	-0.177552953357135	0.485407301896213	0.828231139416375	0.465709400039995	0.72716563969747	0.504326171398786	-0.880952131224648	0.434983743089577	0.186312870565972	-0.0838933680641026	-0.531054870697135	0.843174138066218	12.4602038730078	-30.2866323302722	57.3626838088448
5855	1652782848404	5.05497734291739	1.85100805144836	8.49375237455274	0.0107577066875475	-0.0292946434675806	0.243250298797553	-0.00300792231228573	-0.00330536664618855	-0.00755138392610306	0.469970703125	-0.294189453125	0.428955078125	0	0	0	0.216513635173853	-0.177561439271648	0.485376436423826	0.828253280121541	0.465763300496576	0.727140305756665	0.504312922355396	-0.880918196490289	0.435063121496622	0.186287979767648	-0.0839504556439828	-0.531024534327482	0.843187562135168	12.4583990553601	-30.2857532344646	57.3587655806722
5856	1652782848405	5.05495488729533	1.85133444885723	8.49369460317511	0.0107637767002897	-0.0292994943295624	0.243250278169556	-0.000164604339129545	-0.000142055022230424	-0.0106930577724935	0.473876953125	-0.2861328125	0.435791015625	0	0	0	0.216523104529539	-0.177550757796322	0.485331590102222	0.828279373919024	0.465857952109601	0.727092608606722	0.504294266243153	-0.88086797376525	0.435141985707479	0.186341259707172	-0.0839522557823911	-0.531025226127746	0.843186947221685	12.4618597657078	-30.2845153841058	57.3517702796248
5857	1652782848405	5.05164821531251	1.87539300786274	8.46866287095297	-0.00985921116918769	-0.00767455400387464	0.224958942522585	-0.00150746903184547	-0.0032477409139167	-0.0091044826847274	0.473876953125	-0.2890625	0.44287109375	0	0	0	0.216503999638584	-0.177563340468938	0.485295284505499	0.82830294282873	0.465919493916478	0.727056677792195	0.504289215100213	-0.880829371395047	0.435229009954446	0.186320496408419	-0.0840157346954726	-0.5310031037309	0.843194556524016	12.460405624846	-30.2841802387714	57.3470460027749
5858	1652782848406	5.07852576098777	1.85404932152474	8.46826683344593	0.0218297968056855	0.00244914713687177	0.234201877504477	-7.21788478455775E-06	-0.00318987684051583	-0.0106575928347787	0.471923828125	-0.286865234375	0.44140625	0	0	0	0.216521407841991	-0.177565124041491	0.485247436050791	0.828326042374853	0.466011105060528	0.726992875270789	0.504296548933044	-0.880779477835194	0.435306811504512	0.186374599348028	-0.084030716911308	-0.531026684040724	0.843178213340504	12.4641448035394	-30.2846668418596	57.3396441292102
5859	1652782848407	5.05501458169624	1.85273420096811	8.4933538560445	0.0103084892745924	-0.028173990955193	0.243253971536021	-8.60621956195552E-05	-0.0016659516202832	-0.0106753809290607	0.468017578125	-0.290283203125	0.43701171875	0	0	0	0.216506417187039	-0.177545945376006	0.48521323180516	0.82835410802299	0.466091113923465	0.726977074626941	0.504245383209839	-0.880736420704721	0.435386181996047	0.186392676280858	-0.0840382696503206	-0.530983244080035	0.843204817194743	12.4649349462559	-30.2812720235547	57.3346092769474
5860	1652782848408	5.05503999810478	1.85316647260448	8.49324442096264	0.01031605421031	-0.0281766497117332	0.243253956328791	-0.00150732455810031	-0.00324792208407623	-0.00910452643978955	0.47412109375	-0.294189453125	0.433349609375	0	0	0	0.216516410345876	-0.177552972113181	0.48517048076281	0.828375030249642	0.46616909338032	0.726919959019877	0.504255639091434	-0.880692487692627	0.43546049729464	0.186426654257582	-0.084066155489248	-0.531000497621654	0.843191172289424	12.4673316101735	-30.2819524863882	57.3282084045112
5861	1652782848408	5.05597608975602	1.85417735441109	8.51745087445546	0.00758913184211781	-0.0396950345915232	0.264326281376453	0.000119046217528053	-0.00467318680517676	-0.00758476868527829	0.470458984375	-0.291748046875	0.4404296875	0	0	0	0.216499645841746	-0.177567293437695	0.485147942011429	0.828389542433803	0.466202661326573	0.726896451106421	0.504258493176774	-0.880669475675774	0.435518755424947	0.186399271152173	-0.0841210626714696	-0.530984899071522	0.84319551930322	12.4654953486832	-30.2821418516405	57.325491622869
5862	1652782848410	5.07622577645572	1.88007058059766	8.46718162934718	-0.00119932735222899	0.0127544569162	0.236976022129117	-0.00326017132202135	-0.00033944883102177	-0.0136972296086549	0.464599609375	-0.29541015625	0.43505859375	0	0	0	0.216499192864788	-0.177561674015302	0.48508791202118	0.828426019038943	0.466323139063631	0.726834977463172	0.504235704318876	-0.880602813895305	0.435635634199654	0.186441085534104	-0.0841511386346732	-0.530973172346377	0.843199902819558	12.4681414659495	-30.2806298475389	57.31656121223
5863	1652782848410	5.05764392547836	1.83002889899271	8.49351800342605	0.0319368649756014	-0.0357793862193152	0.240487051470939	-0.00158635443599404	-0.00172404403504823	-0.00912233251685678	0.460205078125	-0.2939453125	0.43798828125	0	0	0	0.216462193620113	-0.177557687014102	0.48507050683613	0.828446733298593	0.466359742359884	0.726841100765398	0.504193023498112	-0.880579206466142	0.435701444261817	0.186398799909297	-0.0841953196174373	-0.530910788839623	0.843234773030742	12.4649026725306	-30.2777981063421	57.3147366173346
5864	1652782848411	5.05583892739922	1.85540924457808	8.51726403034481	0.00715426486959589	-0.0388543697391699	0.264329875949677	0.00146116184825347	-0.00156680536679619	-0.00917356534487248	0.468505859375	-0.29541015625	0.44091796875	0	0	0	0.216479886160847	-0.177550505509022	0.48503244439666	0.828465934582635	0.466438691752183	0.726793488259169	0.504188627658915	-0.880537941140745	0.435759973540775	0.18645691103137	-0.08418955426969	-0.530927933794984	0.843224553762555	12.4688135628078	-30.2775064605716	57.3086222161986
5865	1652782848412	5.08184214683907	1.8335621386752	8.49252288943917	0.0406370665405854	-0.0154948068727422	0.252506290713059	-8.62323897239352E-05	-0.00166577077636413	-0.0106755854145728	0.4697265625	-0.286865234375	0.43359375	0	0	0	0.216439537953788	-0.17753391358126	0.485020128919745	0.828487242196008	0.466474368142391	0.726815261583233	0.504124230121757	-0.880516694489855	0.43581880190605	0.186419748497404	-0.0842140997150531	-0.530849835108643	0.843271271877745	12.4657370556512	-30.2732340493657	57.3074104702914
5866	1652782848412	5.05435331039514	1.85521267661881	8.46822092808316	0.011219249943437	-0.0134914425104197	0.222189778617516	7.25516227633618E-05	-0.00471359964968224	-0.0106402019739864	0.475830078125	-0.29150390625	0.44091796875	0	0	0	0.216459887577477	-0.177541285858391	0.484971912415353	0.828508571502969	0.466562671967889	0.726745639194079	0.504142885537993	-0.88046790630315	0.435894722476283	0.186472670618168	-0.0842350229793489	-0.530882818359866	0.843248417771391	12.4694926200492	-30.2744717112498	57.2999852789762
5867	1652782848413	5.05444871495013	1.85574074697582	8.4680482761106	0.0109240434237979	-0.0129026986796199	0.222190878592674	0.00148474720867063	-0.00154640204860192	-0.0076460658912128	0.473876953125	-0.294921875	0.4306640625	0	0	0	0.216445348418177	-0.177533531769533	0.48494909860007	0.828527385191673	0.466612433728833	0.726734602948816	0.504112738944853	-0.88043983150788	0.435951565830228	0.186472344717782	-0.0842528324985619	-0.530851249529469	0.84326651249114	12.4692123089452	-30.272471694531	57.2968116406917
5868	1652782848414	5.05532244968407	1.8567486114256	8.49229389949417	0.00864749411238841	-0.0249989483260123	0.243263931421415	-0.00295111223657896	-0.0048512356613136	-0.00906124192919374	0.47802734375	-0.2919921875	0.432861328125	0	0	0	0.216452132285723	-0.177550488921478	0.484904568042333	0.828548042182459	0.466686767550846	0.726671097162759	0.504135475384559	-0.880395824824465	0.436032068641285	0.18649189459076	-0.084300964553158	-0.530872067135458	0.843248596625416	12.4707353565589	-30.2739800953459	57.2903854983373
5869	1652782848415	5.08298828279638	1.8360162070926	8.51629440959645	0.0372411798698994	-0.0266737262931626	0.273585361406438	-8.65710804311783E-05	-0.00166574280933613	-0.0106757032792937	0.472900390625	-0.290283203125	0.44287109375	0	0	0	0.216432198958536	-0.177573805970337	0.484866460475722	0.828570553539604	0.466744117877908	0.726626764491123	0.504146281897957	-0.880357521705508	0.436123237519435	0.186459528241656	-0.0843834249299469	-0.530857859337815	0.843249293374364	12.4686287284775	-30.2746970386586	57.2855946564464
5870	1652782848416	5.05218514405532	1.88144138920504	8.46700083133359	-0.0124204827024982	-0.00352543940617566	0.224958414794795	0.0046677378554446	-0.00445608833693361	-0.00918991242928782	0.465576171875	-0.2939453125	0.4345703125	0	0	0	0.216469580458742	-0.177571154160156	0.484828502405662	0.828583568025175	0.466819616930626	0.726564354321924	0.504166326005128	-0.880319367292418	0.436164487982197	0.186543161207008	-0.084363835964352	-0.530909388174661	0.843218811892493	12.4744830927764	-30.2760268513284	57.2791424482201
5871	1652782848416	5.05734651033481	1.83356162044839	8.46794691570553	0.032192213783062	-0.0206816044466584	0.219429205491693	-0.00163422601968564	-0.00176545059069433	-0.0121775926654543	0.467529296875	-0.29248046875	0.431640625	0	0	0	0.216432547797123	-0.177560572061844	0.484799942489804	0.828612220079452	0.466882518021906	0.726562539282416	0.504110693079419	-0.880282087281054	0.436251936031857	0.186514597607175	-0.0844047461795503	-0.53084001810333	0.843258391006233	12.4720656759765	-30.2723359670695	57.2755665540746
5872	1652782848417	5.07990175325973	1.86148935572817	8.49080152487903	0.0165614299433655	-0.00456226013440354	0.255279655148954	9.67776007325843E-05	-0.00469342513753458	-0.00911271940776527	0.468017578125	-0.286376953125	0.434326171875	0	0	0	0.216451220069022	-0.177569873986148	0.484758301745393	0.828629711072502	0.466956657482933	0.726499831286954	0.5041323984554	-0.880240694774171	0.43631651643911	0.186558882784831	-0.0844262950498912	-0.530872765003505	0.843235618366351	12.4752606455086	-30.273775961658	57.2691795596711
5873	1652782848417	5.0565039228876	1.86009644015627	8.5158467923867	0.00465760511570001	-0.035279605131343	0.2643444884838	0.00148449855208047	-0.00154607134574439	-0.00764631814601193	0.474365234375	-0.294921875	0.433349609375	0	0	0	0.216433163886749	-0.177569665818712	0.484735850247959	0.828647605943197	0.467000338530839	0.726486474478709	0.504111184374616	-0.880214332812535	0.43637568210872	0.186544880325174	-0.08445952950062	-0.530842412080691	0.843251398702005	12.4741274732934	-30.2723685607162	57.2662626676551
5874	1652782848418	5.05751989525581	1.83494534089691	8.4675436227563	0.0317000008454687	-0.0200649965293276	0.219432025098261	-0.00158676252468969	-0.00172509288733701	-0.00912232969312128	0.468017578125	-0.29345703125	0.4345703125	0	0	0	0.216437496305416	-0.177570796764535	0.484696031103307	0.828669523852635	0.46707673913822	0.726439701277932	0.504107806092344	-0.880171615952627	0.436449135251491	0.186574593151286	-0.0844822243276571	-0.530846034877775	0.843246844658903	12.4761174114003	-30.2721444379655	57.2603210941998
5875	1652782848419	5.05582475903358	1.8603303863942	8.49121092891852	0.00602249999210932	-0.0224877336729474	0.243271775425123	0.00162074944175218	-0.00461401167543111	-0.0091386325066454	0.47216796875	-0.2890625	0.437744140625	0	0	0	0.216416381769632	-0.177595425813036	0.48467781587749	0.82868041441092	0.467094559053025	0.726416907687687	0.504124140592888	-0.880155145580864	0.436502728995934	0.18652690767455	-0.0845552636480322	-0.53083316004613	0.843247628864055	12.4730172848304	-30.2732281097627	57.2585088537758
5876	1652782848419	5.05584218494569	1.86089344705691	8.49107717228917	0.00599132628647976	-0.022459112777781	0.243271858009711	-0.000167171379517632	-0.000142201164082593	-0.010693559358467	0.47265625	-0.294677734375	0.4404296875	0	0	0	0.216423789155639	-0.177585212493292	0.484634686307158	0.828705892714171	0.467185426263351	0.726371911541235	0.504104774437877	-0.880106569884465	0.436579928630957	0.186575431294662	-0.084558873770479	-0.530831246292567	0.843248471582456	12.4761483853553	-30.2719433117091	57.2518238139432
5877	1652782848419	5.06095446380462	1.81270249523447	8.49213856252508	0.0505871457834057	-0.0396787530745216	0.237757121647213	-0.00145883557169164	-0.00320857810139312	-0.00604933329868729	0.464599609375	-0.28173828125	0.438232421875	0	0	0	0.216387850950101	-0.177589409306401	0.484629046325641	0.828717676365661	0.467193378319406	0.726384933077963	0.504078640939906	-0.880097695603203	0.436621970837393	0.186518901926863	-0.0846072895702971	-0.530778846205643	0.843276599326801	12.4720836151622	-30.2702095782417	57.2518474209343
5878	1652782848420	5.07677322890266	1.88782534862627	8.46512772013505	-0.00553371369580741	0.0187481479853485	0.23696517596481	0.00292787785533231	5.77103602763149E-05	-0.00769008344575552	0.47021484375	-0.28955078125	0.439208984375	0	0	0	0.216404778801869	-0.177573984807515	0.484601505572527	0.828732666442041	0.467257721432842	0.726354477943422	0.504062887081491	-0.880065913556368	0.436660705017109	0.186578177958077	-0.0845825605995891	-0.530788659511016	0.843272903262589	12.4759761498128	-30.2691644596347	57.2471644169348
5879	1652782848421	5.0342746171329	1.83553776731926	8.4920721533191	0.0190874217377419	-0.0489259798297083	0.228510331296915	0.00173398237834478	-0.00770229651417282	-0.0121586211921849	0.474853515625	-0.284423828125	0.437255859375	0	0	0	0.21641186568167	-0.177557410158139	0.48455343425371	0.828762474924539	0.467362670901739	0.726308346014723	0.504032062826315	-0.880010467606437	0.436747747490228	0.186635961072114	-0.0845796119090905	-0.530780172549398	0.843278540980225	12.479638098241	-30.2671195957795	57.2396534173444
5880	1652782848422	5.0561654473565	1.86309727777835	8.49040138552052	0.00572421597894966	-0.0206732080731546	0.243275843683239	0.00298402445413162	-0.00148640056384214	-0.00920018434510126	0.47216796875	-0.294921875	0.431884765625	0	0	0	0.216434187994727	-0.177545947027198	0.484518142012999	0.828779734924516	0.467439213508974	0.726263608854131	0.504025547098841	-0.879971660360477	0.436796824654669	0.186704073158633	-0.0845603845576516	-0.530801002660858	0.843267357922557	12.484210102943	-30.2666873515147	57.2337774024261
5881	1652782848422	5.03190921539847	1.86123895131477	8.49107347018012	-0.00397062271594245	-0.039455593990911	0.231269871782235	0.00151684036150249	-0.00311047802590057	-0.0106841618812621	0.478759765625	-0.2861328125	0.427490234375	0	0	0	0.216427658322545	-0.177557022406507	0.484476959383907	0.828803142086997	0.467511159240519	0.726215551255946	0.50402806380162	-0.879928553568602	0.436882289078288	0.186707273838983	-0.084611208478877	-0.530796419170042	0.84326514501431	12.4844491452155	-30.2668543058383	57.2280386170866
5882	1652782848423	5.05444958272366	1.88927973288805	8.51389635269474	-0.0196165360148291	-0.0233120602656303	0.267111312501953	1.71549459562235E-05	-0.00317002243834117	-0.00913052288299389	0.472412109375	-0.291259765625	0.4208984375	0	0	0	0.21644172900107	-0.177560041762727	0.4844373979769	0.828821945267871	0.467585678021179	0.726161888222187	0.504036254453054	-0.879887497984694	0.436946770776796	0.186749860503206	-0.0846263824094555	-0.530816758968026	0.843250819032493	12.4874129436905	-30.2673976634519	57.2219549799743
5883	1652782848424	5.08401777738885	1.84379802561022	8.51399835302052	0.0335325880784494	-0.0227247865308086	0.273608042840131	7.37660418598916E-05	-0.00471426985998054	-0.0106404755078396	0.468994140625	-0.291015625	0.43408203125	0	0	0	0.216451348105591	-0.177634021281014	0.484357313148089	0.828850385526105	0.467688295367001	0.726021244718978	0.504143640834053	-0.879817738221749	0.437093614206473	0.186734892107204	-0.0847844672512295	-0.530888241192653	0.843189936773617	12.4873167437732	-30.2745218204119	57.2111793982422
5884	1652782848424	5.05573439062187	1.86473760245941	8.46530392744708	0.00637588842065271	-0.00863061978173256	0.222199382668686	0.00148414177667743	-0.0015457318482635	-0.00764670167343308	0.470458984375	-0.296875	0.4384765625	0	0	0	0.216466417679013	-0.177629639587254	0.484326409338294	0.82886544769027	0.467751280715155	0.725981148698679	0.5041429471127	-0.879784555718947	0.43714043846938	0.186781617332148	-0.0847813358455015	-0.530904519465548	0.843180002314635	12.4904858474471	-30.2744757963449	57.2062259236605
5885	1652782848425	5.08513947464762	1.84544270590445	8.53796620070177	0.0303817677691323	-0.0337373643880079	0.294691516456327	0.000283504710431773	-0.0077212431917658	-0.00754962572501755	0.483154296875	-0.298828125	0.4326171875	0	0	0	0.216432869336663	-0.177655786002077	0.484326220014728	0.828868715404876	0.467733068612459	0.725984600603634	0.504154873241105	-0.879786806678392	0.437169851353889	0.18670215816068	-0.0848584192700347	-0.530875579353205	0.843190469541366	12.4851887659651	-30.2752670232753	57.2073656627323
5886	1652782848426	5.03608874764352	1.84003318172911	8.51501487592729	0.0142826704476406	-0.0599621795275549	0.249598206231814	-0.00158753271052769	-0.00172647977510816	-0.00912221514765526	0.468505859375	-0.291259765625	0.435791015625	0	0	0	0.216436422410277	-0.177658052832986	0.484286751283925	0.828890362984571	0.467807917588908	0.725937895385607	0.504152679536908	-0.879744588855797	0.437243235170204	0.186729246977644	-0.0848835120625546	-0.530879011961302	0.843185782635664	12.487010673919	-30.2751214837098	57.2015130256036
5887	1652782848427	5.06136854376002	1.81747966308575	8.46587827242575	0.0493236290249228	-0.0250578239967598	0.216705343560879	0.00145979737510051	-0.00156597421732032	-0.00917452377890678	0.47021484375	-0.286376953125	0.433349609375	0	0	0	0.216403647446429	-0.177686536486668	0.484272867627765	0.828900926409686	0.467814568861907	0.725924428027783	0.504165899236636	-0.879732486419135	0.437298502102926	0.186656830567072	-0.084972239580675	-0.530851904820049	0.843193912246507	12.4822032553509	-30.275998537475	57.2006581063178
5888	1652782848429	5.057780232574	1.86787751058187	8.5133853435809	-0.000337969036365291	-0.0311661555144617	0.264359120775394	0.00156489388707137	-0.0030694038371946	-0.00762910719011172	0.47412109375	-0.2939453125	0.439697265625	0	0	0	0.216421859323187	-0.177689028923172	0.484241030433439	0.828914236970385	0.467874466890202	0.725876988461206	0.504178619989681	-0.879700148544744	0.437344406503711	0.186701683844235	-0.0849772433217578	-0.530878957694131	0.84317637561487	12.4853601908074	-30.2768424962946	57.195612770227
5889	1652782848429	5.05983256431849	1.84351768828458	8.4892963735616	0.0240763363540708	-0.0272969313255229	0.240535560180604	0.00170277138421756	-0.00613750074293051	-0.00912130592820089	0.472900390625	-0.292236328125	0.431884765625	0	0	0	0.216410965872696	-0.177695138756194	0.484216352539609	0.828930187317183	0.467917923191308	0.725852750407181	0.504173186397952	-0.879673456843624	0.437401635566568	0.186693381051605	-0.0850142722201483	-0.530864948861782	0.843181463024927	12.4847493987731	-30.2764820035674	57.1923182311972
5890	1652782848430	5.05675514313005	1.86773698520128	8.4640329118027	0.00378511762352089	-0.00612839332138947	0.222202534434242	0.00162169347612174	-0.0046136816250795	-0.00913910343677694	0.465576171875	-0.284912109375	0.43701171875	0	0	0	0.216434399085629	-0.177702167102609	0.484176748924785	0.828945695748585	0.467989631215324	0.725790740499353	0.504195900499345	-0.879634187511622	0.437458053386137	0.186746211978666	-0.085025885680269	-0.530903242157187	0.843156181398958	12.4885342472118	-30.2779889839576	57.1860904275564
5891	1652782848431	5.05950781000769	1.84399903305142	8.46438864871497	0.0260115604795245	-0.0143830799739366	0.219458142171277	1.68973970454532E-05	-0.00317038649615859	-0.00913064074257315	0.47119140625	-0.29150390625	0.431396484375	0	0	0	0.216411547621997	-0.177697456135582	0.484148607981064	0.82896910770474	0.468047478945882	0.725776916127522	0.504162102372667	-0.879600042090696	0.437532334891701	0.186733022998781	-0.0850607042437964	-0.530860927118055	0.84317931227759	12.4873480831634	-30.2757466358045	57.1823679089073
5892	1652782848434	5.06043475633833	1.84515667844548	8.48858132170573	0.0236607809588792	-0.0264505558683105	0.240538809285923	7.38718177837371E-05	-0.0047146757799674	-0.0106405979287911	0.4716796875	-0.28564453125	0.43310546875	0	0	0	0.216430020278115	-0.177706874778589	0.484101452216207	0.8289898050887	0.468132101237172	0.72570813200796	0.504182549210886	-0.879552542055522	0.437607660569148	0.186780248353158	-0.0850862007316116	-0.530892872949633	0.843156625957683	12.4907325997536	-30.2771031820842	57.1751763704406
5893	1652782848434	5.06144169270286	1.84627990217167	8.51273490531082	0.0208373246464139	-0.0381531115818111	0.261621903588418	0.000122463432313941	-0.00467376288099828	-0.00758521917561833	0.47216796875	-0.289794921875	0.42919921875	0	0	0	0.216417450742058	-0.177732669513549	0.484065702027463	0.82900843260039	0.468182988616494	0.725660195327384	0.504204293999517	-0.879518000326196	0.437687766269936	0.186755204371509	-0.085163233101724	-0.530892362136674	0.843149170403794	12.4892173315112	-30.2785458615091	57.1706152207376
5894	1652782848435	5.0592193780385	1.87092092583752	8.5118618100769	-0.00174383684646657	-0.0290847208281462	0.264365198026475	-0.00126275751854891	-0.00782259793943616	-0.00905106045663221	0.47705078125	-0.291015625	0.43798828125	0	0	0	0.216436474858466	-0.17776015586393	0.48402052552519	0.829023950322541	0.4682509157151	0.72558165320521	0.50425424585616	-0.879476779227132	0.437758766442318	0.186782914644703	-0.085215460640903	-0.530941170879499	0.843113158676144	12.491529073637	-30.2818600469763	57.1640029651501
5895	1652782848436	5.06489936338175	1.82255329718703	8.51267542185974	0.0425443876167254	-0.046797942118227	0.258883956646738	-0.00279466310385847	-0.00631822412063298	-0.00445929353749579	0.471923828125	-0.288818359375	0.43017578125	0	0	0	0.216410373094073	-0.177811747448445	0.483998434452022	0.829032597872126	0.468256995834644	0.725540345747949	0.504308033392152	-0.879461572171258	0.437824131730551	0.186701292840859	-0.0853389062853147	-0.530943722409762	0.843099065773229	12.4864438287679	-30.2854288457066	57.1621778397905
5896	1652782848437	5.0375227357355	1.84378301505462	8.4883589751558	0.0130850743938425	-0.0448168966140971	0.22853912800849	-0.00153170223814463	-0.00327151753647393	-0.0106320756358899	0.47705078125	-0.287109375	0.443115234375	0	0	0	0.216418651728409	-0.177819702898184	0.483951287155974	0.829056253884702	0.468342609842556	0.72547868168048	0.504317243640366	-0.879412683088365	0.437908237688268	0.186734325146929	-0.0853729033662694	-0.530958621544004	0.843086240890518	12.4887677151239	-30.28603995796	57.1551862594914
5897	1652782848437	5.03699168874339	1.84342984064533	8.46375220251297	0.0152746494559685	-0.0321674554335967	0.207459947924123	-0.00129522450697762	-0.0062578619553704	-0.00601353786965527	0.47021484375	-0.296875	0.4384765625	0	0	0	0.216408294636107	-0.177833567487604	0.483922005757047	0.82907307556777	0.468389429237418	0.725444093157742	0.504323517477807	-0.879382729433932	0.437973884713538	0.186721427485602	-0.0854245734667395	-0.530951734163732	0.843085344574647	12.4879450417371	-30.2864562376219	57.151331577486
5898	1652782848438	5.03823236385879	1.84435323334792	8.48781391381424	0.0129156564730594	-0.0442401811253138	0.228541904839497	-0.00126262002041131	-0.00782251578493564	-0.00905130468360583	0.468017578125	-0.296630859375	0.436767578125	0	0	0	0.216427503352682	-0.177861286721234	0.483876578515391	0.829088629304871	0.468457638900211	0.725364990011769	0.504373940466064	-0.879341286924458	0.438045185113527	0.186749342459069	-0.0854771411903685	-0.531000985935131	0.843048996956784	12.4902750087493	-30.2898019518154	57.1446821917767
5899	1652782848439	5.06033881328926	1.87154659737869	8.4860556561898	-0.00174092196649385	-0.0142369144276842	0.243288494260497	0.000228447973870503	-0.00617686650766315	-0.0060401685024948	0.480224609375	-0.292724609375	0.429931640625	0	0	0	0.216353525492174	-0.177877774441214	0.483925589272514	0.829075794734232	0.468351042814181	0.725453017822566	0.504346329050784	-0.879390952250799	0.438014352108714	0.186587728552059	-0.0855502997908386	-0.530906155811849	0.843101298733896	12.4790547121793	-30.2879698387276	57.1537925783447
5900	1652782848440	5.06276255275527	1.84686836019545	8.4618165637506	0.0229833191128037	-0.0111335430870827	0.219469669386271	-0.00259821534984967	-0.0109308547376613	-0.00746161318575562	0.4716796875	-0.287841796875	0.4384765625	0	0	0	0.216372294558719	-0.177923304398167	0.483883143621197	0.829085900988975	0.468400802142611	0.725366036948914	0.504425218434988	-0.879356731461317	0.438080266933327	0.186594261855223	-0.0856295941005706	-0.530970613277846	0.843052655798865	12.4801754616718	-30.2932045135419	57.1478880888561
5901	1652782848441	5.0885305893475	1.85055634871319	8.48482837015499	0.0291679978641901	-0.00376566891361978	0.252557283534982	0.00496273098469367	-0.00898099624428855	-0.00608518944220808	0.465576171875	-0.2880859375	0.43359375	0	0	0	0.216391039862816	-0.177965348371384	0.483856051094945	0.829087796596324	0.468423313195717	0.725298080956948	0.504502025184158	-0.879338508131476	0.438116479371792	0.18659511949667	-0.0856935690227549	-0.531033562275527	0.843006505292283	12.4808928502237	-30.2983012643468	57.1441868559114
5902	1652782848443	5.03787881385913	1.86983411342476	8.48564357522623	-0.0117494165615776	-0.0330651354050643	0.231286855002926	-0.00747155044802957	-0.00505904792660635	-0.00592390718201254	0.47607421875	-0.2890625	0.443603515625	0	0	0	0.216374103008387	-0.178000375579668	0.483821806815272	0.829104681623991	0.468464651087005	0.725248507002227	0.504534908378966	-0.879307193407054	0.438197413594643	0.186552636919387	-0.085788870516759	-0.531034490226394	0.842996227681626	12.4782876710735	-30.3004834120333	57.1400976308007
5903	1652782848442	5.0894495118522	1.85069036024824	8.48424797030955	0.0292549519410901	-0.00254817464612869	0.252557413037776	-0.00121340980109152	-0.00778174562335545	-0.00599600652205334	0.468505859375	-0.294677734375	0.44287109375	0	0	0	0.216353057449267	-0.177987840797483	0.483815683599862	0.829116437759741	0.468485425662095	0.725262645146566	0.504495293830589	-0.879295499327881	0.438227477670304	0.186537134845734	-0.0857952842756395	-0.530990370317325	0.843023366121208	12.4768941423993	-30.2978545738473	57.1394486697762
5904	1652782848442	5.04142073846181	1.8455645703324	8.48565716786696	0.0108639339596285	-0.0408784267285223	0.22855858291188	-0.00434251059263082	-0.0064205029693577	-0.00595986524080752	0.46826171875	-0.284423828125	0.43408203125	0	0	0	0.216352347737026	-0.178020221536516	0.483782872680775	0.829128816562001	0.468525865649653	0.725206455649371	0.50453851181225	-0.879266827145734	0.438291587458827	0.186521663738815	-0.0858682706144557	-0.531014200419629	0.843000924705533	12.4762134492896	-30.3007225408873	57.1351711722324
5905	1652782848444	5.06778275378335	1.84942499695351	8.5332863200915	0.0154762466569988	-0.0443530795849126	0.282735538156864	-0.00271205133955448	-0.00784264566877634	-0.00444152567676459	0.47216796875	-0.285888671875	0.429931640625	0	0	0	0.2163092580188	-0.178007323127891	0.483799433120432	0.829133165613671	0.468503002850382	0.725259047035073	0.504484143471281	-0.879277574985901	0.438296826815409	0.186458675664226	-0.0858829578384933	-0.530938043746463	0.843047395616397	12.4714661260669	-30.2971146439978	57.1383393426263
5906	1652782848444	5.09015710604619	1.85010634266313	8.4589380467369	0.0314361022293125	0.011165588650149	0.231470781098986	-0.00281900304162223	-0.00633917951993434	-0.00598681700560629	0.4677734375	-0.29443359375	0.4296875	0	0	0	0.216314355928664	-0.17803487892601	0.483768500595033	0.829143967678112	0.468543239435668	0.725204467706679	0.504525235045189	-0.879250468377549	0.438352274502401	0.186456153817547	-0.0859409485460284	-0.530966819544164	0.843023362609936	12.4716471365541	-30.2998414790083	57.1341311684713
5907	1652782848445	5.06987392162397	1.82395929974898	8.48440444146679	0.0414146684187519	-0.0287283427824914	0.237836370084787	-0.00265490344897853	-0.00938677621729783	-0.00595182576491536	0.471435546875	-0.28759765625	0.4345703125	0	0	0	0.216286106713984	-0.178110829177617	0.483740579473027	0.829151315709786	0.468543168601523	0.725142480251697	0.50461438989714	-0.879234071477402	0.438430743627214	0.186348948469691	-0.0861089235219889	-0.530986691336899	0.842993705144337	12.4651253996873	-30.3057580517898	57.1319026691913
5908	1652782848446	5.06881881304299	1.8489151929735	8.50777206800518	0.0165192872499516	-0.0317185142567436	0.26165222338944	-0.00254772632550753	-0.0108902977964203	-0.004406645287995	0.472900390625	-0.2890625	0.434326171875	0	0	0	0.216301607178964	-0.178158835170698	0.483711648898751	0.829153836692606	0.468564940340544	0.725070654313504	0.504697377580913	-0.87921482383572	0.438473310902898	0.186339607097831	-0.0861869493089674	-0.531049622803028	0.842946088364835	12.465202167349	-30.3112656744473	57.1281019381489
5909	1652782848447	5.06851047081496	1.84849310738843	8.48303546931037	0.0185752101027332	-0.0190654731965281	0.240566210092513	0.00158720644445819	-0.00304716476531961	-0.00610322563170795	0.4755859375	-0.28955078125	0.44140625	0	0	0	0.216291710739476	-0.178157437408185	0.483690967906421	0.829168783136032	0.468605950123796	0.72505494870976	0.504681865000182	-0.879190856381669	0.43852188686228	0.186338382513138	-0.0862084773293313	-0.531030955871909	0.842955646723079	12.4649858837813	-30.3102361313996	57.1252502439677
5910	1652782848449	5.04710268764812	1.82180759858446	8.48428739528368	0.031856827504636	-0.0472291530089731	0.22584418463763	-0.00442490828969436	-0.00489706913063857	-0.00597694971101013	0.474853515625	-0.294677734375	0.4306640625	0	0	0	0.216286368941617	-0.178183336271027	0.483660329687629	0.829182483396647	0.468646768323559	0.725008092965732	0.504711275556706	-0.879162600197586	0.438585784193009	0.186321314716333	-0.0862747295197353	-0.53104215937908	0.842941810570754	12.464078016309	-30.3121880681542	57.1212870022027
5911	1652782848450	5.0666098665399	1.87303982571054	8.48198340464322	-0.00486504502123725	-0.00929076292280994	0.24329325429481	0.000417691079814471	-0.0092034759182814	-0.00447867959253593	0.479736328125	-0.29736328125	0.434814453125	0	0	0	0.216269298297428	-0.178230227096577	0.483662845092104	0.829175391000271	0.468608476853029	0.724991205083962	0.504771084722956	-0.879174109682233	0.4385956857827	0.186243682516364	-0.0863653882405285	-0.531057037392132	0.842923153526082	12.4593141166875	-30.316157637274	57.1228129065255
5912	1652782848451	5.04561899122796	1.84629509377318	8.48300257310635	0.0084129614686076	-0.0374536844386678	0.22857429382012	-0.0027116953850288	-0.00784291194481245	-0.00444150450901096	0.47412109375	-0.294677734375	0.432861328125	0	0	0	0.216276620877447	-0.178266065580279	0.483637026201704	0.829180836736555	0.468632873498599	0.724935543563776	0.504828374355423	-0.879154672687057	0.43863930029721	0.186232719271583	-0.0864308473229355	-0.53109699859128	0.842891266248722	12.4590602015215	-30.3199601342717	57.1194474213984
5913	1652782848451	5.07311085144158	1.82446394426582	8.48236084085149	0.0381963818697195	-0.0267648945430667	0.237854536747104	-0.00573347308950199	-0.00798597446554894	-0.00285905095806199	0.475830078125	-0.2958984375	0.442626953125	0	0	0	0.216211503375424	-0.178370695285173	0.483657119882424	0.829163597403227	0.468519370901045	0.724930162491336	0.504941440763951	-0.879193347234244	0.438656752390354	0.186008902371349	-0.0866525087319238	-0.531089929383558	0.842872961743246	12.4448153375662	-30.3274651482339	57.1255808042043
5914	1652782848452	5.06933100890234	1.87369425067546	8.50523311357422	-0.00925120834240015	-0.0207190328832314	0.264381775219871	0.0034902164712499	-0.00901977595055538	-0.00300628265542232	0.4716796875	-0.286865234375	0.428955078125	0	0	0	0.216245564141449	-0.178398910492782	0.483641718619827	0.829157628400412	0.468529033490898	0.724874494729167	0.505012387637394	-0.879186386896093	0.438657087999214	0.186041006889999	-0.0866708824962561	-0.531165629572533	0.84282336944827	12.4476058897618	-30.332174685615	57.1230362407535
5915	1652782848453	5.07250764838863	1.84934484751815	8.50547981404917	0.0126780097422916	-0.0289354439563847	0.26166616767596	-0.00894527182463346	-0.00510192595381938	-0.00283843367650167	0.473388671875	-0.2861328125	0.443603515625	0	0	0	0.21617910625876	-0.17843888217103	0.483647295799849	0.829163103745102	0.468489717190093	0.724895469667565	0.505018755040431	-0.879194501945747	0.438703774565314	0.185892511765578	-0.0868009944385203	-0.531098443075845	0.842852318693434	12.437565819942	-30.3325973724364	57.1259840006824
5916	1652782848453	5.07744220130703	1.79979406538766	8.48198289274558	0.0599034673861546	-0.0348483976539695	0.235143692733141	-0.00423538046011925	-0.00792452270562271	-0.00441420661215394	0.470703125	-0.291259765625	0.429931640625	0	0	0	0.216179543464874	-0.178479711183616	0.483620537677294	0.829169809640858	0.468512336465076	0.72483977336575	0.505077710384377	-0.879174423291416	0.438755161048088	0.185866194031817	-0.0868822422031197	-0.531132009580251	0.842822795366264	12.43628182156	-30.3365110871163	57.1227159140585
5917	1652782848455	5.10037031108715	1.82716224539325	8.50468391795007	0.0443719848213558	-0.0177436255060048	0.270946110164262	-0.00282547925283664	-0.00475497375417796	-0.00142082316313563	0.466552734375	-0.2919921875	0.438232421875	0	0	0	0.216147627528489	-0.178471850265271	0.483627744704337	0.829175618508463	0.468504006430175	0.724872134655227	0.505038992909705	-0.879177202717059	0.438768815332005	0.185820808616138	-0.0868990344105197	-0.531076562364151	0.842856003553392	12.4328649052178	-30.3339408334565	57.1243464975538
5918	1652782848455	5.04964603954373	1.84598277351207	8.50569296507463	0.00345660952327468	-0.0470352453007727	0.249676478164259	-0.0058413814732425	-0.00648247464376314	-0.00440386854583006	0.46923828125	-0.291015625	0.4423828125	0	0	0	0.216137913889781	-0.178510067104567	0.483601311267093	0.829185341080295	0.468527855366143	0.724824649435153	0.505085018899997	-0.879155823484376	0.438828347840243	0.185781374645873	-0.0869867046134681	-0.531092184750454	0.842837116243393	12.430578380589	-30.3369962693832	57.1213056608904
5919	1652782848456	5.1011433545321	1.8265330079095	8.50435543617609	0.0443981017101836	-0.0154092192957597	0.270949832720953	-0.00905336147523786	-0.00359849672098011	-0.00438292693995226	0.47216796875	-0.299560546875	0.428955078125	0	0	0	0.216036874959254	-0.178464663520863	0.483655880285594	0.82918961763724	0.468454706679104	0.724974972488625	0.504937102078379	-0.879194765279433	0.438810116246013	0.185640099615904	-0.0869870823481128	-0.530902035356126	0.84295686506445	12.4197094247668	-30.3271771485017	57.1308003410453
5920	1652782848457	5.04937666430957	1.84420434907346	8.48122130874298	0.00579486001351407	-0.0326133221025126	0.22859303383902	-0.0105823317809466	-0.00209659783954719	0.000210868046971888	0.47216796875	-0.291015625	0.432861328125	0	0	0	0.21599215991306	-0.178500002963266	0.483650014132642	0.829197081294731	0.468440825543219	0.724973157804837	0.504952585325464	-0.879191562542931	0.438860101371173	0.185537079253188	-0.0870941405474993	-0.530863195076628	0.842970271596411	12.4128395584718	-30.3282049224166	57.1315088859754
5921	1652782848457	5.07720331686973	1.82234195732968	8.50538801112719	0.0330304545925321	-0.0337604293916466	0.258971792348328	-0.00914125982313151	-0.00049098815079554	0.000166127426551051	0.468994140625	-0.294677734375	0.4296875	0	0	0	0.215877977140549	-0.178588246241169	0.483697584928971	0.829180067068721	0.468285769276769	0.725038253145522	0.505002940356345	-0.879251330504009	0.438866690639171	0.185238024321013	-0.0873243156274049	-0.530768837935227	0.843005874580417	12.3929436198791	-30.3315475508525	57.14249932662
5922	1652782848458	5.10236951462074	1.82481592169048	8.52900891996643	0.039743642156622	-0.026525638300881	0.292055967437118	-0.0106337238582696	-0.00213628437871753	-0.00284476372939809	0.47216796875	-0.29052734375	0.4326171875	0	0	0	0.21583508742743	-0.178621488572374	0.483679399710554	0.829194679885864	0.468297204231655	0.725023200815887	0.505013947121762	-0.879234339225632	0.438938906661663	0.185147543718868	-0.087434005028264	-0.530729681191234	0.843019157710766	12.3868879740499	-30.332278208576	57.1413195517728
5923	1652782848458	5.0531854747375	1.81818404402246	8.50646022572609	0.0223505548423477	-0.0520833047307114	0.246991060420418	-0.00905874144382919	-0.00201493151555404	0.000183021121977686	0.474853515625	-0.299560546875	0.426025390625	0	0	0	0.215738723027078	-0.178688417718455	0.483707338239803	0.829189039780968	0.468195320612479	0.725069624543524	0.505041761957257	-0.879269668776759	0.43896802863922	0.184910571363039	-0.0876241480745278	-0.530642166998543	0.843054505519841	12.3710196184157	-30.3341246540164	57.1486730158719
5924	1652782848459	5.07677292833507	1.81940163965826	8.48125710829963	0.0336541546502703	-0.0206977600191347	0.23788509842452	-0.0106337409247065	-0.00213616559765331	-0.00284481427314925	0.47265625	-0.289306640625	0.43408203125	0	0	0	0.215695296275525	-0.178722130199894	0.483689497348354	0.829203478946104	0.468205740663418	0.725054982212977	0.505053123124647	-0.879253073510813	0.43904001863902	0.184818545485125	-0.0877349253809945	-0.53060261477078	0.843067878682851	12.364862167362	-30.334878857805	57.1475646198881
5925	1652782848460	5.07684881283962	1.81882697980498	8.48133493866961	0.0316063970423028	-0.020371455231765	0.237892413371998	-0.00457061026645687	-0.000245647520112576	8.31240040691662E-05	0.473388671875	-0.291259765625	0.429443359375	0	0	0	0.215615525716103	-0.178809693476593	0.483719281878576	0.829187973217081	0.468085499715363	0.725080129769655	0.505128469173378	-0.879296714018019	0.439051202818086	0.18458420848249	-0.0879389201283167	-0.530558994568194	0.843074077177951	12.3495777503261	-30.3398808038134	57.1551761937973
5926	1652782848461	5.04990129570137	1.839895367916	8.48184479872328	-0.000210183567701198	-0.0304463719133908	0.228601508025724	-0.0107987727164092	0.000911468255596165	-0.00287826419960378	0.470458984375	-0.29052734375	0.436279296875	0	0	0	0.21556356311494	-0.17883216179371	0.483704588875131	0.829205209140971	0.468097857218659	0.725081333569701	0.505115289588511	-0.879280125552899	0.439124441916664	0.184488984275639	-0.0880389508966291	-0.530496733467948	0.84310281633076	12.3429942827637	-30.3390058413895	57.1545302997497
5927	1652782848461	5.07594630542006	1.81693666939565	8.45726250216809	0.0330798972803018	-0.0075436060974027	0.216800539766684	-0.0106851698764885	-0.00217509573706265	-0.00590061537631737	0.469970703125	-0.29345703125	0.43408203125	0	0	0	0.215487732631244	-0.178871470306547	0.483687302991233	0.829226523406534	0.468103180070883	0.725083466213056	0.505107295366031	-0.879261896488155	0.439223260021026	0.184340568623826	-0.0881925744696213	-0.530412004842427	0.843140068391639	12.3328405014235	-30.3384751270967	57.1543102114436
5928	1652782848462	5.05149455856245	1.83991330013903	8.53092523213956	-0.00567271473484809	-0.0538249731068959	0.270795876297228	-0.00620246687226018	0.00117655765519565	-0.00143349088926933	0.470458984375	-0.292724609375	0.442626953125	0	0	0	0.215452723377967	-0.178883372864882	0.483683116469634	0.829235494744239	0.468102763509413	0.725092597068714	0.505094573788907	-0.879256236471815	0.43926153366248	0.184276356784874	-0.0882511950076064	-0.530367825872416	0.843161725803002	12.3283689833057	-30.3376305827522	57.1546622155146
5929	1652782848463	5.05153739414816	1.81318019961854	8.45848211036697	0.0235410932443808	-0.024729856677629	0.204817631258134	-0.0107988011314285	0.000911286494673785	-0.00287822196838246	0.470458984375	-0.2939453125	0.44140625	0	0	0	0.215335331353347	-0.178850896299266	0.48374118653072	0.829239118962525	0.468013642693601	0.72524839661435	0.50495345672743	-0.879300064684132	0.439250319049592	0.184093871330126	-0.0882871819640153	-0.530164050481685	0.843286103927787	12.3147720879323	-30.328262766173	57.1652415650237
5930	1652782848463	5.07743580978008	1.8163327310171	8.50653454346299	0.0278872306391304	-0.0295219630929556	0.259000662107686	-0.00911003019309663	-0.0020543047139399	-0.00287313733046764	0.467041015625	-0.30126953125	0.43603515625	0	0	0	0.215296821633759	-0.178880965396542	0.483725672155024	0.829251682489323	0.468022148633944	0.725235648394357	0.504963882556054	-0.879285661596972	0.439313505385144	0.184011872704432	-0.0883854835255337	-0.53012913359316	0.843297757626405	12.3092892222167	-30.3289548364509	57.1643082984684
5931	1652782848464	5.07409488296053	1.83935639328794	8.48168291820013	0.00643532009277307	-0.0057868324046201	0.240597723717776	-0.00911002462635824	-0.00205431308593467	-0.00287316312861322	0.478271484375	-0.28759765625	0.4296875	0	0	0	0.215147989719539	-0.178869411472843	0.483841342403718	0.829225320127146	0.467806578040654	0.725460195489544	0.50484107430177	-0.879393772692341	0.439217795801219	0.183723488975826	-0.0884511056563191	-0.529901153623759	0.843434152318	12.2886577318231	-30.320803090504	57.1844123273527
5932	1652782848464	5.08032583574415	1.79074383541405	8.50718630479881	0.0490096723646478	-0.0357259238087251	0.256325229526507	-0.0106335415140215	-0.00213636449986895	-0.00284550744925502	0.47265625	-0.2890625	0.427978515625	0	0	0	0.215102131329436	-0.178903055360247	0.483825754378023	0.829239054362999	0.467812672366612	0.725449565055118	0.504850702816734	-0.879379279092466	0.439287424996143	0.183626364509765	-0.0885628989815946	-0.529857987390583	0.843449539760606	12.2821413736211	-30.3214421859668	57.1836899751454
5933	1652782848465	5.07725167312552	1.81381207235166	8.48216770942592	0.0280909636762028	-0.0155882219964821	0.237911410547511	-0.00570644552597981	-0.00796626237562897	-0.00133617469065454	0.4736328125	-0.290283203125	0.4384765625	0	0	0	0.215109129345902	-0.179015084571971	0.483748973804793	0.829257856345388	0.467881059676999	0.725289716089169	0.505016971725526	-0.879320832017407	0.439429985629715	0.183565144048872	-0.0887816894170364	-0.529958597877948	0.843363323935477	12.2793878798252	-30.3324789905976	57.1741239689439
5934	1652782848466	5.05425981767321	1.81131510871027	8.50728731618605	0.0164790023567657	-0.0467275748019197	0.247028695458029	-0.00905326276986383	-0.00359709802244333	-0.00438460250077653	0.462890625	-0.291748046875	0.44580078125	0	0	0	0.215075241222048	-0.179050079557134	0.483726127286647	0.829272418089571	0.467900205581693	0.725262992433048	0.505037611890114	-0.879299948639358	0.439503348787081	0.183489527569734	-0.0888875578437833	-0.529934333867888	0.843367419247724	12.2744251828223	-30.3338491559275	57.1720942615346
5935	1652782848467	5.07785288700419	1.81294125237718	8.48199397891496	0.0290403052638443	-0.0128598769964868	0.237912573619397	-0.004539566491809	-0.00180802720160044	-0.00295620050245261	0.48046875	-0.30419921875	0.435791015625	0	0	0	0.214998827278499	-0.17893654931614	0.483791169568466	0.829278794999172	0.467855631132817	0.725453219741492	0.504805640206224	-0.879337812782418	0.439443217032892	0.183452091879095	-0.0887475037865701	-0.529723781767899	0.843514431175406	12.2699228160576	-30.3184511780756	57.1814251507331
5936	1652782848468	5.08155219144455	1.78889235691885	8.5068433835763	0.0491050385120623	-0.03376942114317	0.256331516685501	-0.00897048594645871	-0.00512093446686701	-0.00436864115486957	0.477783203125	-0.295654296875	0.435302734375	0	0	0	0.214968600408931	-0.178975963258698	0.483767681046793	0.829291828121111	0.467872870700459	0.725420744545286	0.504836330156492	-0.879317593859537	0.439514663225667	0.183377833825966	-0.0888568848856788	-0.529708980661072	0.843512210827693	12.2651378568567	-30.3204881980236	57.1792952541425
5937	1652782848468	5.05307670140388	1.83497243231912	8.53105242945979	-0.00998831547428152	-0.046386957124896	0.270829485221821	-0.00451367049162811	-0.00178915461518463	-0.00142841248369892	0.46728515625	-0.2900390625	0.433837890625	0	0	0	0.214880027589934	-0.179069832041826	0.483853091800512	0.829244689190439	0.467640361615196	0.725508152548551	0.504926145860955	-0.879422274347241	0.43942551859607	0.183089259620824	-0.0890446829986786	-0.529663227147368	0.843521137990923	12.2462939523731	-30.3264498841543	57.1954100612576
5938	1652782848469	5.05249467282851	1.83403731446818	8.50658539284576	-0.00785735599936835	-0.0341690441110302	0.249725919746901	-0.00589752100423977	-0.00493772900888515	-0.00289657969333373	0.47802734375	-0.285400390625	0.437744140625	0	0	0	0.214860100129871	-0.179103738125157	0.483838947064271	0.829250783337293	0.467643448586665	0.725483157509865	0.504959199503769	-0.879412145938687	0.439470021351838	0.183031084541748	-0.089128461051926	-0.529660540820751	0.843513976723554	12.2426209738245	-30.3286439731401	57.1943389226665
5939	1652782848470	5.05474579381366	1.80875593744974	8.48252957691351	0.0178714589656548	-0.0306415122809493	0.225943160729237	-0.00733820186014841	-0.0065437315753795	-0.00285289710129469	0.47119140625	-0.29541015625	0.427001953125	0	0	0	0.214846465876372	-0.179100520652264	0.483792927459144	0.829281859769664	0.467734813685199	0.725443169455943	0.504932027065612	-0.879359625050972	0.439570798881889	0.183041423182164	-0.0891672243432867	-0.529631683965427	0.843527999205041	12.2430942593037	-30.3268402728209	57.1878033139917
5940	1652782848470	5.05601656091003	1.80887151371683	8.5067633441653	0.015395052793705	-0.0425324802138039	0.247049024253908	-0.00742104021427567	-0.00501995426813782	-0.0028687151485827	0.472412109375	-0.291259765625	0.432861328125	0	0	0	0.214820831332982	-0.179137810598013	0.483777241644672	0.829289597008325	0.467738450561646	0.725417800738948	0.50496510397973	-0.879347934322289	0.439623181784158	0.182971769519499	-0.0892633870593883	-0.529622953060988	0.843523310479114	12.238641762769	-30.3290359153167	57.1866878801625
5941	1652782848471	5.05464249905222	1.83324845457139	8.53049546490739	-0.0110940868697725	-0.0451568061604261	0.27083391325586	-0.00733816828433267	-0.00654374870925231	-0.00285300999378316	0.466064453125	-0.292724609375	0.439453125	0	0	0	0.2147531797383	-0.179236427084012	0.483779633355766	0.829284415233162	0.467663139112637	0.725398635415853	0.505062380357252	-0.879365005980747	0.4396766762849	0.182761064200076	-0.0894895221341322	-0.529604796114879	0.843510749996894	12.2251487379297	-30.3354933975316	57.1902002491779
5942	1652782848472	5.08126022142144	1.81035876572105	8.50552436292356	0.0226829531466658	-0.0227313898763759	0.259031342691999	-0.00878331790480233	-0.0065702322394381	0.00175828125708664	0.474853515625	-0.29736328125	0.429931640625	0	0	0	0.214721108129773	-0.179289093422702	0.483780391786105	0.829280892838169	0.467623907005897	0.725385364845352	0.505117762570984	-0.879373976106571	0.43970275649361	0.182655128804098	-0.0896063153079115	-0.529601320240139	0.843500533406376	12.2184190545954	-30.3391700164303	57.1919119105926
5943	1652782848472	5.03338773060453	1.80437228726325	8.50708976284957	0.00335651977343004	-0.0595705002118106	0.235086901197404	-0.00720310123415824	-0.00803029629241802	0.000218049216417792	0.476318359375	-0.306396484375	0.43310546875	0	0	0	0.214628499760467	-0.179332920391736	0.483847738613267	0.829256098315333	0.467462139005197	0.725487464479588	0.505120864229211	-0.879447287124954	0.439651945858797	0.182424328616367	-0.0897308072249706	-0.529503640578185	0.843548621508685	12.2027682030808	-30.3393759280508	57.2046108567534
5944	1652782848473	5.05479496421327	1.83013699287597	8.48104095633862	-0.00794190132591219	-0.0191085807252631	0.228626346145374	-0.0088314934439105	-0.00818649928344796	-0.00586504977616353	0.4736328125	-0.29345703125	0.4375	0	0	0	0.21460629211045	-0.179384147498226	0.483815761166222	0.829269423203393	0.467487273746967	0.725433300882071	0.505175390192328	-0.879421167914024	0.439732897267507	0.182355116422487	-0.0898557639184166	-0.529510627874519	0.843530934025878	12.1985252271335	-30.3429958461743	57.2012604315956
5945	1652782848474	5.08491589589637	1.7837618796355	8.48089238682081	0.0438739520883792	-0.016476399747661	0.235273393559471	-0.00576227507372646	-0.0064244303328085	0.000174341057250505	0.469970703125	-0.2890625	0.434326171875	0	0	0	0.214499450448256	-0.179467493735785	0.483925623904162	0.829214926890827	0.467214818442327	0.725565344133272	0.505237810165343	-0.879548059251879	0.439611952572728	0.182034454489933	-0.0900306886242547	-0.529430129996358	0.843562808899184	12.1772690684841	-30.3471400032041	57.2212145973256
5946	1652782848474	5.08274078839302	1.8074985414415	8.48022776349833	0.0211245700189832	-0.00728366571570201	0.237937916180165	-0.00739501997721633	-0.00500133437530659	-0.00134070902787366	0.46923828125	-0.296630859375	0.431884765625	0	0	0	0.214470497777182	-0.179507540811495	0.483917780022849	0.829218325022291	0.467201249939134	0.725548838732907	0.505274058970615	-0.879545125263304	0.43965197552193	0.181951952573266	-0.0901297103116971	-0.529419515160704	0.843558896750034	12.1719694295309	-30.3495466971134	57.2213787232257
5947	1652782848475	5.06082472730024	1.77940128821381	8.4570385012209	0.0362752085178788	-0.0222247830451897	0.202196869290173	-0.00875263595848991	-0.00813125715067381	-0.00128183190378441	0.47216796875	-0.296630859375	0.432373046875	0	0	0	0.214393854367876	-0.179549192104216	0.483939378597717	0.829216522186132	0.467129530914358	0.725592570251712	0.505277570591895	-0.879569543627156	0.439675906103483	0.181776003684749	-0.0902630559600564	-0.529339701503294	0.843594725648018	12.1600484029737	-30.3497798499436	57.2269542273549
5948	1652782848476	5.06046202802842	1.80421700017918	8.50510830677203	0.0088828702195393	-0.0371102612976615	0.247078346184637	-0.00731208740570151	-0.0065251332310175	-0.00132540040445493	0.4775390625	-0.28759765625	0.42919921875	0	0	0	0.214368523069187	-0.179595189780872	0.483930455463233	0.829218317694355	0.467113764165441	0.725568885153258	0.505326156283891	-0.879567107487882	0.439714901184567	0.181693448152783	-0.0903683282604825	-0.529339776111436	0.843583408249416	12.1548482435342	-30.353005736483	57.2269831746941
5949	1652782848477	5.06105426013856	1.8037308275049	8.50485902962565	0.00793777670471552	-0.0373305943748859	0.247078321099636	-0.00570564280040117	-0.00796658088660371	-0.00133850664708485	0.4677734375	-0.29833984375	0.43408203125	0	0	0	0.214348419728531	-0.179689409832934	0.483903264937141	0.829218970560218	0.467098692354134	0.725491252324525	0.505451535165984	-0.879555816483093	0.439784770286114	0.181578967711434	-0.0905559346029728	-0.529388136082574	0.843532941907546	12.148122453283	-30.3613308607812	57.2250341998774
5950	1652782848478	5.03646499528777	1.80006853856703	8.48116266060821	0.000939801127255134	-0.044333468657878	0.213996042694212	-0.00742159960483792	-0.00501951580419406	-0.00286830154165886	0.469482421875	-0.287353515625	0.4365234375	0	0	0	0.214320499425074	-0.179728330496124	0.483889166967495	0.829225979353497	0.46709800261716	0.72546800564881	0.505485537608147	-0.879545867859865	0.439835995235382	0.181503067814119	-0.0906560658847216	-0.529377436311031	0.843528901486526	12.1432517136083	-30.3635887360018	57.2242370557404
5951	1652782848479	5.06032798561385	1.82761635851685	8.52833293939165	-0.0171701913133502	-0.0383169009126438	0.2708537086794	-0.00872268778320306	-0.00969139420541532	-0.00432241293196018	0.46826171875	-0.293212890625	0.427978515625	0	0	0	0.214243178390934	-0.179729577742589	0.483913764429494	0.829231335631438	0.467049494960295	0.725541242443746	0.505425241524915	-0.879564586389477	0.439854658217254	0.181367080844599	-0.0907243496909292	-0.529261547023556	0.843594278794842	12.1335108464045	-30.3595849113215	57.2295778481433
5952	1652782848480	5.08968025683849	1.78069749688545	8.50370297014284	0.0391016766477869	-0.0248431179352171	0.256401312567885	-0.00423832933400189	-0.006342457263344	0.000145489971210039	0.46923828125	-0.285400390625	0.4248046875	0	0	0	0.214228510730634	-0.17976882214963	0.483914218433993	0.829226353277853	0.467020399560705	0.725525631212815	0.505474534321371	-0.879572059392476	0.439866348775105	0.181302475303942	-0.0908016449753992	-0.529273231581293	0.843578631546139	12.1295350385897	-30.3628580754684	57.230641288289
5953	1652782848482	5.06330614658061	1.80193341397857	8.5038996382738	0.00669794282245261	-0.0351228092155852	0.247087173558897	-0.00578850600951116	-0.00644288422278983	-0.00135381839689221	0.4697265625	-0.288818359375	0.4296875	0	0	0	0.2141948723033	-0.17985294319235	0.483858695414831	0.829249201612808	0.467067363393014	0.725431717331412	0.505565922054382	-0.879526030133244	0.440002639100862	0.181195032775001	-0.0910057161454981	-0.529288674613273	0.843546951008045	12.123001376995	-30.3689267378138	57.2246432420405
5954	1652782848483	5.06125495382099	1.82574018051558	8.50316185098026	-0.0160641334926014	-0.02591899305081	0.249740797430981	-0.00567871122152074	-0.00794873717310632	0.000188894219009725	0.482421875	-0.303466796875	0.431884765625	0	0	0	0.214178101740652	-0.179902777501661	0.483856158284513	0.829244203761541	0.467036417474681	0.725407358657164	0.505629457961513	-0.879532300189871	0.440021917649847	0.181117765308836	-0.0911038839739065	-0.529306032455506	0.843525462763917	12.1182841300161	-30.3731461033577	57.2254954775576
5955	1652782848484	5.08961529496593	1.80412876211661	8.52687854503205	0.0112358235940318	-0.0276570241596308	0.280173033067545	-0.00886231285454781	-0.00662564118309084	-0.00282441435770211	0.473388671875	-0.297119140625	0.430908203125	0	0	0	0.214112160733249	-0.180026339196737	0.483867239728443	0.829227950649963	0.466926023025997	0.725380822224723	0.505769465042831	-0.879564136121963	0.440056953887433	0.180877880857051	-0.0913620242176716	-0.529313272159218	0.843492999643121	12.1031594119499	-30.3824444973918	57.2307062428187
5956	1652782848486	5.09121623690898	1.77811039310838	8.47829891517993	0.0381874917186792	-0.0123908298041627	0.23530248291409	-0.00711899130092694	-0.00955510616560435	0.000232136057395905	0.4609375	-0.295166015625	0.429443359375	0	0	0	0.214092983103962	-0.180087301183151	0.483861830421139	0.829222821441692	0.466892586028149	0.725347689360632	0.505847845355834	-0.879569399478402	0.440083847294303	0.180786832628508	-0.0914821546158137	-0.529336317372836	0.843465517076432	12.0976291106399	-30.3876504134861	57.2313825563639
5957	1652782848486	5.06319407908457	1.82408247510579	8.50236315352524	-0.0201212951250399	-0.0238198466122961	0.24973869053251	-0.00423816818149732	-0.00634259029397569	0.00014516744842648	0.466796875	-0.297607421875	0.429443359375	0	0	0	0.213982572202337	-0.180139999853142	0.483945503813411	0.829191044684737	0.466692659583387	0.72547291470484	0.50585275675897	-0.879660196805256	0.440016416264911	0.180508979205812	-0.0916291419119719	-0.529220751149319	0.843522078493164	12.0787964045772	-30.3879766315816	57.2470504411578
5958	1652782848488	5.06646926871255	1.79919105441969	8.50259624985468	0.0021579057100771	-0.0326114205723915	0.247097626713016	-0.0102489635738539	-0.0081962523019333	0.00027487046649509	0.468994140625	-0.29345703125	0.432861328125	0	0	0	0.213946138737595	-0.180203132754335	0.483939728566876	0.829190098698372	0.466658340120283	0.725448533706446	0.505919379485852	-0.879663591471279	0.440058777667784	0.180389129487857	-0.0917712342514393	-0.529218950095992	0.843507761329594	12.0712107968351	-30.3924018573207	57.2480914659965
5959	1652782848488	5.09046349493526	1.80073778654016	8.4770332451885	0.0122315164828947	0.00041866186675691	0.237955303838124	-0.00274175053997545	-0.00627781790960303	-0.00141161782296248	0.475830078125	-0.29345703125	0.4326171875	0	0	0	0.213857203728303	-0.180233933430798	0.48400805358525	0.829166466831716	0.466503866609362	0.725557845377828	0.505905085415436	-0.879735145459682	0.440002600956258	0.180177093424108	-0.0918706497285545	-0.529115794663524	0.843561651307147	12.0566895628336	-30.3914523973312	57.2606489613092
5960	1652782848490	5.06947173780511	1.77340947903667	8.47814721672107	0.0254196317539822	-0.027600053545688	0.223352549319717	-0.00717486549819605	-0.00801374383811385	0.00174510364908281	0.473876953125	-0.302001953125	0.431396484375	0	0	0	0.213830980635104	-0.18029044587881	0.484012045135098	0.829158613903027	0.466455390577919	0.725542147230362	0.505972292910547	-0.879748878595987	0.440017303769539	0.180074104169613	-0.0919852119087848	-0.5291250938821	0.843543333690899	12.050253456632	-30.3959166243657	57.2627935441638
5961	1652782848490	5.09263854432811	1.80021105816766	8.50087182457381	0.00768138800296336	-0.0107067461300723	0.25907391697983	-0.00720201864920273	-0.00803135462274125	0.000217285234813054	0.470458984375	-0.290771484375	0.426513671875	0	0	0	0.213755019108546	-0.180394128675838	0.484070172829218	0.82912171478154	0.466268052232752	0.725585882697168	0.506082236694439	-0.879826484385862	0.439969719165992	0.179811021881899	-0.0921925205224923	-0.529104690063856	0.84353350029038	12.0332981112273	-30.4032200297328	57.274833041189
5962	1652782848492	5.07430782471399	1.74832669395629	8.5025041101505	0.043402277525383	-0.0477184680101896	0.241847007206065	-0.0103592036744339	-0.00669003274934263	-0.00126710742495517	0.469970703125	-0.3017578125	0.43505859375	0	0	0	0.213714630515808	-0.180450288879448	0.48406045474396	0.82912557920974	0.46624633879279	0.725564076195547	0.506133503037313	-0.879823543452915	0.440023065713125	0.179694835836701	-0.0923302981056352	-0.529090231411359	0.843527499893631	12.0258321938062	-30.4066257649358	57.2752634049545
5963	1652782848493	5.06947621804133	1.79632707742225	8.50140941876903	-0.00322126595287721	-0.0284413905382121	0.2471099963564	-0.00279771381672091	-0.00473638169956112	0.000101228045572555	0.468505859375	-0.293701171875	0.435302734375	0	0	0	0.213633289754142	-0.180498256689944	0.484125509343188	0.829098117259901	0.466085741070179	0.725654223884736	0.506152180010423	-0.879895969370977	0.439966617424042	0.179478295727242	-0.0924508791508838	-0.529013537549549	0.843562393681428	12.0112792476751	-30.4078665466037	57.2874767598106
5964	1652782848494	5.04847380150984	1.76903464650738	8.50252317221257	0.00995009712449999	-0.0564494406510001	0.232519752348363	-0.00714618500715584	-0.00957269464172652	-0.00129632076210772	0.47021484375	-0.293212890625	0.4287109375	0	0	0	0.213612609073416	-0.180558804633779	0.484115980246162	0.829095826177147	0.466060471479037	0.725617802517505	0.506227657871836	-0.8798963519135	0.440002741830291	0.179387839808445	-0.0925745473337685	-0.529033450597874	0.843536342628138	12.0057613257729	-30.4128809858624	57.2875816421538
5965	1652782848495	5.07357193664225	1.77132751251049	8.50116185440476	0.0187242392318203	-0.0358913583478661	0.244491534328254	-0.00249274385716584	-0.0108490512615146	-0.00136934864318368	0.4697265625	-0.293701171875	0.433837890625	0	0	0	0.213573470037469	-0.180582923417987	0.484135040859424	0.829089526455383	0.466006139963714	0.725647140365415	0.506235622211254	-0.879918026700975	0.439999270216396	0.179290012258633	-0.0926420196389373	-0.528996096288559	0.843552361331935	11.9991826528587	-30.4134101189027	57.2916721631255
5966	1652782848496	5.09588172251238	1.79794534560148	8.49940768189771	0.00494693492247037	-0.0074029253833249	0.259078601495297	-0.00578890551710083	-0.00644262472739448	-0.00135388643242778	0.46875	-0.2978515625	0.435546875	0	0	0	0.213550609421825	-0.180626838228175	0.484130191229513	0.829088680701489	0.465983806503536	0.725627780305344	0.506283928764893	-0.879919665831601	0.440028190311285	0.179210974591902	-0.0927387392586239	-0.528998597522257	0.843540165054519	11.994214580294	-30.4166195606146	57.2922256521132
5967	1652782848497	5.07511439369292	1.7707401458654	8.50036349278786	0.0180485798035077	-0.0335441531901783	0.244500872195637	-0.00387746099139621	-0.0139965185760269	-0.00283972253113413	0.47509765625	-0.294189453125	0.428955078125	0	0	0	0.213489268073733	-0.180638567607758	0.484190413605023	0.829066754660297	0.465858702531229	0.72572355852135	0.506261776043806	-0.879981140859221	0.439963951580678	0.179066783747345	-0.0927839480083887	-0.528920634799422	0.843584080619919	11.9842374686421	-30.4151477416866	57.3026580169348
5968	1652782848498	5.07327735327458	1.79473829610582	8.49947725207029	-0.0047999163181562	-0.0242947901667519	0.247120235783303	-0.00581651731033063	-0.00645999839050757	-0.00288144521611237	0.473388671875	-0.293701171875	0.43212890625	0	0	0	0.213467152983526	-0.180680443319642	0.48417987473781	0.829069478932739	0.465848852601392	0.725698833246699	0.506306280777105	-0.879976192587681	0.440003246991973	0.178994533758463	-0.0928802832083025	-0.528921871414767	0.843572703997851	11.979698673073	-30.4181046428718	57.3023213226479
5969	1652782848500	5.09727618530805	1.79641835948962	8.47385534600603	0.00579589455757898	0.00700581817676811	0.237958642499258	-0.00717365941592875	-0.00959019607323233	-0.0028237950768404	0.479736328125	-0.297607421875	0.43603515625	0	0	0	0.213441518910086	-0.180769003530868	0.484154642342214	0.829071509380401	0.46583369932188	0.725630418829392	0.506418265710838	-0.879964861571357	0.440074000607677	0.17887625999237	-0.0930634567152716	-0.528956868996552	0.843530570735625	11.9725920825023	-30.4255453351403	57.3007129310328
5970	1652782848500	5.07651629311373	1.76908193116481	8.47483548908237	0.0189742099477405	-0.0209843951203151	0.22338281794368	-0.00553930282955785	-0.0110142408225562	-0.00131140184464229	0.472412109375	-0.29541015625	0.431884765625	0	0	0	0.213430219864651	-0.180831110485494	0.484145827997713	0.829066021473271	0.465805853425983	0.725588063523317	0.506504559689816	-0.87996735820047	0.44010071696187	0.178798231063213	-0.093179157625393	-0.528992741918195	0.843495301458219	11.9680060154784	-30.4312794127215	57.3007495588885
5971	1652782848501	5.07646763582421	1.79413904092378	8.52273764097923	-0.00908513814900742	-0.0354462980915095	0.268243964559534	-0.00412686555299628	-0.00942500324418907	-0.00288278617661007	0.47265625	-0.289794921875	0.43212890625	0	0	0	0.213402365102376	-0.180888021269586	0.484170871705955	0.829046151502666	0.465716181505339	0.725596132599789	0.506575454044425	-0.880003858830263	0.440075995120416	0.178679397140861	-0.0932826175015062	-0.529002240897905	0.843477908659772	11.9605204302363	-30.4359904655811	57.3060538427917
5972	1652782848502	5.07817045134095	1.76854104048491	8.47395731456026	0.0178377556229812	-0.0201447316948746	0.223386622706155	-0.00401575867719279	-0.0109317023142611	-0.00134103331026248	0.482177734375	-0.292236328125	0.430908203125	0	0	0	0.213397100093237	-0.18094622694948	0.4841634466185	0.829039141164661	0.465688439822484	0.725554095728184	0.506661160133435	-0.880007696143511	0.440094869260584	0.178613999391705	-0.0933848582152968	-0.5290441949616	0.843440281249089	11.9567868509511	-30.44168608779	57.3060963909266
5973	1652782848502	5.08065535956954	1.76938839945707	8.522374386633	0.0135375482573764	-0.0450339747293047	0.265628371571013	-0.0042933819851256	-0.00637735796909151	-0.00291072955141491	0.461181640625	-0.3037109375	0.42724609375	0	0	0	0.213432054133146	-0.180997090510075	0.484079871137898	0.829067843939511	0.465813463172007	0.725408948478251	0.506754057699965	-0.879931271757004	0.440226873255243	0.178665209394594	-0.0934814126540836	-0.5291334023964	0.843373622990787	11.9610343218351	-30.4478599974662	57.2938929367829
5974	1652782848503	5.1036795707924	1.77059430718339	8.47237643374847	0.0269841269009694	-0.00150045668735396	0.235346343467397	-0.00725699355456856	-0.0080664892339326	-0.00283740362360334	0.46923828125	-0.30078125	0.42529296875	0	0	0	0.213408454767935	-0.181049789924806	0.484065681683416	0.829070697117028	0.465802778769107	0.725374232519575	0.506813569360191	-0.879924456135223	0.440274494499864	0.178581412773059	-0.0935987328232107	-0.52914137268742	0.843355610003492	11.9558338915141	-30.4518153078115	57.2932437384793
5975	1652782848504	5.0782020145825	1.79265189207439	8.49697626812592	-0.0109993827689386	-0.0212282539308938	0.247122305943936	0.000248785727355078	-0.00614631213527951	-0.00452792750386556	0.474609375	-0.29150390625	0.427490234375	0	0	0	0.213248635524096	-0.181146531503776	0.484219795591488	0.829000689462078	0.465434247362978	0.725578587446854	0.506859620427872	-0.880095590139266	0.440112418008898	0.178137058838915	-0.0938227776133055	-0.528996004666378	0.843421907142526	11.926027196912	-30.4548760999374	57.3211941605294
5976	1652782848505	5.07777705998479	1.79215358634235	8.47229170547956	-0.00899025096373299	-0.00895286045699197	0.225997815097093	-0.0027417869034634	-0.00627770703276202	-0.0014127306029753	0.463134765625	-0.29345703125	0.441162109375	0	0	0	0.213236454507913	-0.181183259402384	0.484218801862538	0.828996376894394	0.465409556870273	0.725561513034072	0.506906732227462	-0.88010101643868	0.440124732783406	0.178079814846988	-0.0938943301665132	-0.529009177988476	0.843405681962446	11.922527273889	-30.4580074932839	57.3219627525502
5977	1652782848505	5.08282363557508	1.76861986017632	8.52124093637303	0.00985373420846307	-0.0402044951441561	0.265653069446547	-0.00722873482991355	-0.00804969884436305	-0.00130933469543722	0.4755859375	-0.300048828125	0.424072265625	0	0	0	0.213184102891568	-0.181142645360429	0.484228881820759	0.829012828801075	0.465419464084887	0.72563044551768	0.50679895322381	-0.880097374903954	0.44014985656987	0.178035711161248	-0.0938793541632269	-0.528893713612987	0.843479760612286	11.9186420788863	-30.4508438638929	57.3238821370022
5978	1652782848506	5.08080936834249	1.79259764599864	8.52047447478563	-0.0130247010645978	-0.0309461670781731	0.268254463171806	-0.00113505744640723	-0.00771877046327533	-0.00142902945558648	0.4736328125	-0.292724609375	0.432861328125	0	0	0	0.213181999302168	-0.181180467026371	0.484228116203603	0.829005551862921	0.465393539692033	0.725606765011456	0.506856661969171	-0.880104421792186	0.440153133302882	0.177992769475332	-0.0939417902467447	-0.528923474439607	0.843454147083273	11.9162010342113	-30.4546794625818	57.3244827667197
5979	1652782848507	5.06337024395312	1.71598972283002	8.47360700535155	0.0485227668866444	-0.0531923649224504	0.206253236030736	-0.00265847043911331	-0.00780152235401249	-0.00139907236173599	0.467529296875	-0.298583984375	0.43115234375	0	0	0	0.213152236370832	-0.181290515433782	0.484236473331731	0.828984264651093	0.465297573818002	0.725563875929225	0.50700614369615	-0.880133791119351	0.440162324050721	0.177824740168927	-0.0941417948042171	-0.528974659537514	0.843399746287733	11.9060190099484	-30.4646154338426	57.3283131640326
5980	1652782848507	5.10540498657404	1.79469060991443	8.49437899356841	-0.00372998677033018	0.000547474605575406	0.259081831461595	0.00188341446045402	-0.00757017005598718	-0.00301697650062033	0.468994140625	-0.29638671875	0.42919921875	0	0	0	0.213163563216	-0.181319461302984	0.484231933750571	0.828977673164988	0.465285374577958	0.725533518521962	0.507060779103444	-0.88013632832896	0.440161459306483	0.177814322530005	-0.0941783614184611	-0.529017016023427	0.843369096539708	11.9057617323931	-30.4682472733551	57.327906426554
5981	1652782848508	5.08800246466549	1.74413750034071	8.52022363235599	0.0284995009080175	-0.0467968954508961	0.263075300478819	-0.00265839925960378	-0.00780158792559333	-0.00139893321277416	0.470947265625	-0.295166015625	0.43212890625	0	0	0	0.213072617171932	-0.181356130200694	0.484312809681691	0.828945786061041	0.465102112833709	0.725654074837971	0.507056395589946	-0.880222176046114	0.440082324379458	0.177585102318347	-0.0942812040348666	-0.528917490200335	0.843420027700264	11.8901536011129	-30.4679558782447	57.3424874097003
5982	1652782848509	5.10646124338102	1.79460648885291	8.49376183004439	-0.00556807859825332	0.00271800933233973	0.259080631148857	-0.00290853761387759	-0.00323013124794067	-0.00144007477453863	0.466552734375	-0.28857421875	0.43603515625	0	0	0	0.213051400075968	-0.181380376002438	0.484315772386418	0.828944203637755	0.465078783637923	0.725654818392877	0.507076729453316	-0.880228190607376	0.440094667086835	0.177524692541044	-0.0943401159101152	-0.528906200138483	0.843420520253768	11.8862172121746	-30.4693075840435	57.3438197458594
5983	1652782848510	5.08523440615445	1.76747403017477	8.49499339337854	0.00925067822215644	-0.0238834339804347	0.244540394495479	-0.00584557458982525	-0.00647715483508871	-0.00440795685324126	0.46728515625	-0.291748046875	0.431396484375	0	0	0	0.213013674392276	-0.181318420735396	0.48430147699702	0.828975804352834	0.465151419361053	0.725701806814038	0.506942841603704	-0.880195018957443	0.440154507800812	0.177540806197141	-0.0942914930887376	-0.528791922072818	0.843497609647846	11.8862099102182	-30.460407653568	57.3414401902782
5984	1652782848511	5.08194350408006	1.79094660989175	8.47004849622443	-0.0112897177402408	-0.00261179943417061	0.22599914490759	-0.00454389270949687	-0.00180602085059194	-0.00295130468620374	0.468505859375	-0.290771484375	0.435302734375	0	0	0	0.21298362960016	-0.181338077695502	0.484298498873038	0.828980964250304	0.465142931134044	0.725704389216885	0.506946933206405	-0.8801925571061	0.440185875023327	0.177475231638033	-0.0943563248068496	-0.528762266903849	0.843508950200084	11.8817893546905	-30.460679622735	57.3420078319699
5985	1652782848511	5.08576351192972	1.76679393769295	8.4948181183923	0.0102657776326092	-0.0219897235740232	0.244543728382487	-0.00894720232765642	-0.00510225245651476	-0.00283345183303805	0.475830078125	-0.294189453125	0.4296875	0	0	0	0.212930118437195	-0.181280501624227	0.484282627747777	0.829016574535695	0.465215432385153	0.725756492962813	0.50680579554008	-0.880156807687617	0.44026220224806	0.177463199432536	-0.094332366406438	-0.528627190176599	0.843596288786381	11.8798116035778	-30.4512986290057	57.3398196520585
5986	1652782848512	5.0895051942894	1.74273824839015	8.51961241342288	0.0301581891782364	-0.0426540249082827	0.263088862160737	-0.00313261145167122	-0.000215997282500491	-0.00452286992128303	0.46875	-0.294921875	0.431884765625	0	0	0	0.212903542364861	-0.181287451032728	0.484276378057082	0.829025531212679	0.465222499507941	0.72576148212272	0.506792163533155	-0.880148444167377	0.440296942608816	0.177418484265519	-0.0943755380452453	-0.52859140495884	0.8436138834931	11.8766626140881	-30.4503925985667	57.3396031626019
5987	1652782848513	5.08692329338177	1.76686868341327	8.51915757689379	0.00713692505703439	-0.0331132583416942	0.265681153095114	-0.0044603930596604	-0.00332983912114884	-0.00293782334934769	0.474853515625	-0.302490234375	0.438232421875	0	0	0	0.212863163736315	-0.181312357975201	0.484275100017065	0.829031199577616	0.465206912697869	0.725768889899249	0.50679586307756	-0.88014777847162	0.440333802055257	0.177330287370867	-0.0944585434441483	-0.528550528541948	0.843630204739279	11.8707029900209	-30.4506384822805	57.3407410117972
5988	1652782848514	5.08714987887379	1.76654446675001	8.519089512572	0.00681876041948486	-0.0328052765492755	0.265682380571196	-0.00753581279532677	-0.00351242145440205	-0.00440508313325051	0.47802734375	-0.29345703125	0.42724609375	0	0	0	0.212826170655572	-0.181343767620849	0.484261866324931	0.829041557373727	0.46520976553714	0.725757024399458	0.506810236265728	-0.880135822939456	0.440390931815159	0.177247737231431	-0.0945558418479048	-0.528519222649299	0.843638918058321	11.8652145869054	-30.451593776846	57.3401558024517
5989	1652782848515	5.09090804713854	1.7168126612915	8.47104354667667	0.055444399127336	-0.0263335947143532	0.218244881785095	-0.00293937506508123	-0.00482056037449636	-0.0075381893353329	0.4716796875	-0.298095703125	0.440185546875	0	0	0	0.2127948282556	-0.181391432877007	0.484279663373489	0.829028779228656	0.465140711443373	0.725765238651376	0.506861851911608	-0.880161873875776	0.44038313742106	0.1771377092848	-0.0946530207306413	-0.528514437494848	0.843631018292991	11.8581656467088	-30.4550244183294	57.3443145148499
5990	1652782848516	5.08508802959939	1.79085809225537	8.51828752995953	-0.0172523895791336	-0.0230937558008093	0.26826916127148	0.000248410752052098	-0.0061450848079534	-0.00452989104310839	0.4677734375	-0.30029296875	0.4306640625	0	0	0	0.212796452613069	-0.181415105526452	0.484270191978492	0.829028715065549	0.465141881295882	0.725738808188043	0.506898621574696	-0.880156771813861	0.440400101832816	0.177120883398453	-0.0946947057376039	-0.528536595322826	0.84361245848424	11.8573246299125	-30.4574683930547	57.3433011089129
5991	1652782848517	5.06471535822272	1.73883575682826	8.47106457368539	0.022804115978147	-0.033694573584488	0.208897896661941	-0.0013873665014879	-0.00472096365397635	-0.00604070733764691	0.47314453125	-0.297607421875	0.430908203125	0	0	0	0.212704962729432	-0.181368728607341	0.484384167622927	0.828995754675422	0.464954724879202	0.72594877986537	0.506769644734652	-0.880260894500206	0.440257153973031	0.176958740923596	-0.0946459794508054	-0.528367303480777	0.843723966227255	11.8452554502849	-30.4488959395993	57.3613038484924
5992	1652782848518	5.08735114631197	1.76670140548901	8.49388666226064	0.00659848595606742	-0.0171030517476443	0.244556300410357	0.00298660999326785	-0.00144058926572085	-0.00768649306901215	0.470458984375	-0.302490234375	0.441162109375	0	0	0	0.212708670032291	-0.181362396616464	0.484369947596408	0.829004497365412	0.464986869917971	0.725935021535829	0.506759859609721	-0.880244438248456	0.440281551117094	0.176979899080619	-0.094641110182351	-0.528365877260921	0.843725405573253	11.8466120765206	-30.448245601453	57.3590116262448
5993	1652782848519	5.09106278143137	1.74346172281413	8.51853369980391	0.0259204871102274	-0.0357106103772813	0.263127656261931	-0.00144478626498728	-0.00475437649883138	-0.00909627649255824	0.47021484375	-0.299072265625	0.424560546875	0	0	0	0.212628902099745	-0.181327135403779	0.48447134694727	0.828973421736315	0.464815967906715	0.726116960980565	0.506655972978995	-0.880338519867755	0.44015292795791	0.176831814013005	-0.0946055305782646	-0.528223020121641	0.843818839916234	11.8357056666332	-30.4413413645264	57.3750971536513
5994	1652782848520	5.11098903012005	1.76955718063289	8.46818577154076	0.0167406731362212	0.016849099522666	0.23535461633548	-0.00302317195852022	-0.0032972085546286	-0.00755139899385271	0.464111328125	-0.296875	0.43115234375	0	0	0	0.212611411829123	-0.181342845649454	0.484450991341589	0.828986367125501	0.46484401863982	0.726095417847941	0.506661112100591	-0.880317651602506	0.440207249096357	0.176800481108132	-0.0946618751759762	-0.528207366498464	0.84382231978357	11.8336202057484	-30.4416828956607	57.372755232193
5995	1652782848520	5.06343773007	1.76491441588538	8.49447743968395	-0.0056780069726663	-0.0320915248841666	0.232630423326901	-0.00163873491345646	-0.000149704070653618	-0.00608077255291814	0.462890625	-0.295654296875	0.432373046875	0	0	0	0.212506640268221	-0.181370624973368	0.484520308627836	0.828966642734114	0.464689533847912	0.726217422846553	0.506627962005969	-0.880387271472305	0.440161996738198	0.176566329907467	-0.094772830293076	-0.528077334659947	0.843891248477365	11.8174508599482	-30.4394798574317	57.385773115773
5996	1652782848521	5.09040359241205	1.74349039384659	8.49387159715263	0.0255578596643921	-0.0213998994361518	0.241998661518746	-0.00147086129214909	-0.00319730841140086	-0.00605412371101811	0.467529296875	-0.292724609375	0.428955078125	0	0	0	0.212493238432203	-0.181384031057662	0.484508280664921	0.828974175028987	0.464703118488791	0.726203944199171	0.506634822230332	-0.880375464836491	0.440196699175435	0.176538684001506	-0.0948158878075002	-0.528066944112788	0.843892913795736	11.8156298982958	-30.4399357596333	57.3845299018221
5997	1652782848522	5.08785288852771	1.76814227485751	8.49328629277801	0.00298840234693202	-0.0104174212725264	0.244567168252022	0.00151814532991982	-0.00306367369763229	-0.00917079347865729	0.466796875	-0.300048828125	0.42724609375	0	0	0	0.212438404810709	-0.18132579497018	0.484519690627221	0.828994300121789	0.464723250945868	0.726286998384481	0.506497281343114	-0.880369248922476	0.440221187111966	0.176508617266714	-0.0947749206382122	-0.52793228959346	0.843981760479827	11.8124654134129	-30.430795766836	57.3863777612343
5998	1652782848523	5.08959101847212	1.7436502151354	8.46927318407204	0.0275608195071636	-0.00703227897562814	0.220857974642346	-0.00629565028488995	-0.00045003503861949	-0.0105726408872115	0.468505859375	-0.300048828125	0.4326171875	0	0	0	0.212402043729655	-0.181334110126196	0.484488029996618	0.829020301991575	0.464778578589473	0.726269354700795	0.506471812944057	-0.880332297055604	0.440313441218924	0.176462801300311	-0.0948468220087134	-0.527879624445233	0.844006624648413	11.8091472579753	-30.4291034114807	57.3826491114902
5999	1652782848523	5.11547460686886	1.74753705613955	8.51717300031236	0.0296801941394066	-0.00955229195714656	0.275088902361718	-0.00178081810763416	0.00134094618506894	-0.0091497155952654	0.4765625	-0.3037109375	0.4248046875	0	0	0	0.212281116985249	-0.181336826949225	0.4845941569565	0.828988652278848	0.464570916471212	0.726457345804462	0.506392721408823	-0.880434882505831	0.440210460830228	0.176207740586448	-0.0949119657158191	-0.527706807708953	0.844107365126963	11.791188547292	-30.4238480274905	57.4010041386055
6000	1652782848524	5.11250961065906	1.77211504038752	8.51684917361207	0.00674858378393161	-0.000218338761983651	0.27764565911631	-0.00178081376962227	0.00134093753954645	-0.00914974002369415	0.4775390625	-0.3037109375	0.433837890625	0	0	0	0.212256947426252	-0.181328484681533	0.484575162688892	0.829007768731646	0.464613784696266	0.726456687527125	0.506354334648504	-0.880409610086845	0.440267799948647	0.176190756837887	-0.0949365553248093	-0.527659876696623	0.844133937824777	11.7897231141734	-30.4212974499267	57.3985809838987
6001	1652782848525	5.06457487858178	1.74180262540248	8.47053902538932	0.0123062305408514	-0.0235659173417837	0.208945222207763	-0.00180967366530052	0.00132440116340206	-0.0106776030421061	0.473388671875	-0.2998046875	0.434814453125	0	0	0	0.212176454838305	-0.181438266500456	0.484673875997947	0.828946645681545	0.464342778748872	0.726543711199794	0.506478054351623	-0.880531423832091	0.440144771874751	0.17588914530338	-0.0951325153036858	-0.527642696819878	0.844122614923117	11.7702578796504	-30.4295181454544	57.4168673059653
6002	1652782848526	5.11365318303302	1.74799327752762	8.49312071928407	0.0275525517310547	0.00346265220279118	0.253953476770896	-0.00183631604934768	0.00288120105815078	-0.00763519084493593	0.46484375	-0.29638671875	0.437255859375	0	0	0	0.212146312517368	-0.181426554319075	0.484662946184378	0.828963314067077	0.464372467967575	0.726557655165982	0.50643082914986	-0.880513553132077	0.440191541362325	0.175861563918289	-0.0951530017625826	-0.52758447724774	0.844156694946383	11.7680017881199	-30.4263801317958	57.4157040008169
6003	1652782848527	5.08998434705318	1.74622011952821	8.51861315422386	0.0162491972943236	-0.0252758875587191	0.263179473894253	-0.000286218000862274	0.00140824232673787	-0.0107081459680384	0.4716796875	-0.295654296875	0.42724609375	0	0	0	0.212067490808438	-0.181323457953962	0.484733184504842	0.828964970778395	0.464311086870825	0.726748038750738	0.506213890347539	-0.880559281762762	0.440122238364015	0.175806048243221	-0.0950292897494367	-0.527380037041037	0.844298365875662	11.762471407302	-30.4119663088592	57.4259518293105
6004	1652782848527	5.08770740033548	1.7456798080114	8.46998680879712	0.0205733202579819	-0.000952684096890664	0.220877154415064	-0.000455196811234783	0.00445576945324663	-0.0107346363039155	0.467041015625	-0.2919921875	0.427734375	0	0	0	0.212041577704956	-0.181297848395581	0.484713010826057	0.828988996686606	0.464368774606144	0.726758141434647	0.506146465985139	-0.880528868667899	0.440183332920665	0.175805417610736	-0.0950292197864333	-0.527315121419168	0.844338918983052	11.761881185836	-30.4074869407088	57.4230836062695
6005	1652782848528	5.11242229138702	1.74966739260664	8.49351701819703	0.026567925149746	0.00667810049959646	0.25395450399504	0.00580729437491519	0.00174420939992489	-0.0108299282616092	0.474609375	-0.296875	0.429931640625	0	0	0	0.212038556773231	-0.181291508845065	0.484658454519004	0.829023052589888	0.464479142567861	0.726704483076185	0.506122238591034	-0.880467642639182	0.440291665809553	0.175840778217261	-0.0950571216944174	-0.527298628194332	0.84434607852441	11.764084013128	-30.4058774329667	57.4149857728663
6006	1652782848529	5.06424949440103	1.7456972034905	8.52002929687763	0.0058434395775438	-0.0435151166622477	0.251260822726621	0.000869921685142423	0.00757044774552327	-0.012319674484462	0.471923828125	-0.292724609375	0.42333984375	0	0	0	0.21201201881498	-0.181248229319429	0.484636170381393	0.82905232983487	0.464553723453258	0.726723886344581	0.506025919338074	-0.880431098363191	0.440357372472107	0.175859220811554	-0.0950311478447944	-0.527217011794661	0.844399966493137	11.7645535566063	-30.3994788815771	57.41150547078
6007	1652782848530	5.08326429000478	1.77252976393643	8.47006892263946	-0.00432677878790671	0.00802377945278667	0.223418552157396	0.0056654510999561	0.00323511507711771	-0.0138988257386749	0.468017578125	-0.297119140625	0.432373046875	0	0	0	0.212028166833346	-0.181284461434367	0.48456179002526	0.829083754610629	0.464671631379934	0.726609792363382	0.506081499990223	-0.880359440496579	0.440487856233613	0.175891171009994	-0.0951185077640602	-0.527265263555603	0.844360001023485	11.7671727725975	-30.4031710897273	57.4008236478672
6008	1652782848531	5.06213871730529	1.74725713422347	8.49591971482085	0.00650484191200909	-0.0318066592415252	0.2301087421404	0.0056941418274406	0.00325170358982997	-0.0123710163909655	0.46826171875	-0.2998046875	0.43359375	0	0	0	0.212032273098235	-0.181247959594022	0.484538764177049	0.829104142021723	0.464742726305564	0.726605358964281	0.506022579210118	-0.880327026432831	0.440529002349148	0.175950347033457	-0.0950711569194408	-0.527236996438654	0.844382984615598	11.7707097650547	-30.3992570021993	57.3966862806009
6009	1652782848532	5.08599209846906	1.75121080688314	8.49492598241966	0.0146310482776191	-0.0102531514119941	0.242038044332194	0.00733006041431768	0.000255253214473669	-0.0154303984933807	0.473388671875	-0.29736328125	0.435302734375	0	0	0	0.211981507706885	-0.181171870741258	0.484599070638771	0.829098507041514	0.464680987976304	0.726750559333004	0.505870738353714	-0.880370904588238	0.44045516225271	0.175915662746172	-0.0949665718442666	-0.527098543494577	0.844481187284858	11.76712381234	-30.3891709882809	57.4053374430027
6010	1652782848534	5.08287187574801	1.77670151425213	8.49448241372483	-0.00834555625998431	-0.000915132748788414	0.244569503254661	0.00414196819533139	0.00315044803107514	-0.0138688043072083	0.4697265625	-0.2978515625	0.43017578125	0	0	0	0.211980187808575	-0.181137638738406	0.484568970024274	0.829123916612306	0.464764138243778	0.726740263232696	0.505809139497291	-0.880330625948572	0.440514626532511	0.175968329047919	-0.0949330544094774	-0.527063045192313	0.844507111617832	11.7701971801767	-30.3850795872016	57.4003161404529
6011	1652782848535	5.061793954595	1.75150443775173	8.52029665667562	0.00213006812864311	-0.0399010375636468	0.251277271584396	0.00724514171808162	0.00177911631936819	-0.0154439069557066	0.469970703125	-0.299560546875	0.43359375	0	0	0	0.211962947205907	-0.1810839576967	0.484588645792885	0.829128550735833	0.464764889267035	0.726806384448384	0.505713433902707	-0.880338741908794	0.440491106760807	0.17598660278294	-0.0948540837235893	-0.52699152212318	0.844560618553371	11.7706604066637	-30.3787231535992	57.4026400569025
6012	1652782848536	5.08549469916562	1.75563233395568	8.51935997502302	0.010707692322486	-0.0201705757643849	0.263198400292889	0.0086264873651353	0.00492804014187221	-0.0139734467905116	0.4716796875	-0.2939453125	0.431396484375	0	0	0	0.21197573523585	-0.181031298740652	0.484564327982388	0.82915099263914	0.464850161846499	0.726805501785728	0.505636321485394	-0.880302472390731	0.440527399436395	0.176077163336346	-0.0947728027128648	-0.526962401808519	0.844587913094988	11.7761783747998	-30.3736019150381	57.3978375051358
6013	1652782848537	5.05723716410496	1.77789135583899	8.49546503731898	-0.0190549825154828	-0.0173899938300738	0.232650163921836	0.00597861535416038	-0.00130267497329121	-0.0108027930020772	0.467529296875	-0.297607421875	0.427978515625	0	0	0	0.211959067114643	-0.180993108268596	0.484585993840542	0.829150929083925	0.464835818665693	0.726863593262303	0.505565998139914	-0.880316114793468	0.440499536882928	0.176078664354485	-0.0947164173748602	-0.52690556534899	0.844629697254324	11.7757096515563	-30.3689317904804	57.4007184707756
6014	1652782848537	5.08386275518997	1.75736050834949	8.49493059609941	0.0120995064068417	-0.00658212963714514	0.242044482705948	0.00408485144427978	0.00469031992145052	-0.012355016820311	0.477783203125	-0.2939453125	0.427490234375	0	0	0	0.211951908648501	-0.180954008706605	0.484564275859244	0.82917398518904	0.464906218588032	0.726869088342977	0.505493359332867	-0.880283278434826	0.440547701962528	0.176122321139514	-0.0946760668078849	-0.526857713910488	0.844664070306535	11.7780818238744	-30.3641081319055	57.3969766780833
6015	1652782848538	5.05993006553375	1.75647478690019	8.52038057074785	-0.000717214237741251	-0.0380590668792173	0.251284605819588	0.00865468726115418	0.00337062946572326	-0.0170159027405905	0.46435546875	-0.29443359375	0.430419921875	0	0	0	0.211966342320006	-0.180968902707655	0.484512822726696	0.829197112024442	0.464995161732393	0.72679463392636	0.505518604663878	-0.880231899448786	0.440635188673775	0.176160250042988	-0.0947169613018021	-0.526887265549544	0.844641051952531	11.78085949461	-30.3657845484493	57.3893370471066
6016	1652782848539	5.08096261578096	1.78474305457338	8.51898882297811	-0.0147381764007348	-0.00939487903902267	0.265722922962709	0.0042560810969982	0.00164270488816994	-0.0123277887088163	0.46923828125	-0.296142578125	0.436279296875	0	0	0	0.211967227050368	-0.180942593288342	0.484487994199076	0.829217134451299	0.465062322822092	0.726783692942366	0.505472550752637	-0.880199291960895	0.440682556267069	0.176204685049692	-0.0946902440743461	-0.526862741399483	0.844659345181335	11.7834999703493	-30.3627263594612	57.3851888410786
6017	1652782848540	5.08340172353061	1.76161099179477	8.5193749282603	0.00801421722311764	-0.0162042224758161	0.263208062083882	0.0073884375509622	0.000289395932334756	-0.0123745166685125	0.462158203125	-0.302490234375	0.4326171875	0	0	0	0.211935564112476	-0.180839322707877	0.48451057813494	0.829234560122906	0.465093278075805	0.72689326452562	0.505286477828162	-0.880198400012868	0.440665632679345	0.176251458972969	-0.0945463870461997	-0.526725718151867	0.844760912053766	11.7851629575286	-30.3503712451793	57.3873788052792
6018	1652782848540	5.08128219439585	1.76163917279122	8.47053952529821	0.0123369030688558	0.00810689302863326	0.220887432323556	0.00425601542829439	0.00164247836936678	-0.0123279435544265	0.47119140625	-0.303466796875	0.430419921875	0	0	0	0.211936115719358	-0.180812391346605	0.484486246242787	0.829254508091989	0.465159912674191	0.726883455818938	0.505239247582427	-0.88016615940265	0.440712320110728	0.17629572526017	-0.0945187149898316	-0.526700192290963	0.844779923978626	11.7877821692834	-30.3472354375795	57.3833012774906
6019	1652782848540	5.05945658747522	1.76171673546257	8.54462400667447	-0.0065807463371168	-0.0441998665174331	0.27246752747234	0.0073600669692968	0.000272379176765346	-0.0139025076238196	0.475830078125	-0.294189453125	0.438720703125	0	0	0	0.211825847120619	-0.180787241902204	0.484653120528333	0.829190651430161	0.464854651855087	0.727148852128028	0.505138297397433	-0.880330494786167	0.440482326507563	0.176049822448156	-0.0944900661351709	-0.526526226206611	0.844891567314052	11.7702872015564	-30.3405332821666	57.409868122322
6020	1652782848541	5.08169257304758	1.76457885973295	8.49473274096107	0.00668270807239633	-0.000543157165471421	0.242051681745634	0.00595137327202319	-0.00131956745292676	-0.0123304851937933	0.470458984375	-0.2978515625	0.435546875	0	0	0	0.211839472853647	-0.180768678528505	0.484628178501944	0.829205795448895	0.464916426929891	0.72712510536745	0.505115627470699	-0.880300871639165	0.440519132685953	0.17610584637922	-0.0944621160151985	-0.526528228001112	0.844893445208294	11.7739028509339	-30.3390282725156	57.4055636342176
6021	1652782848541	5.07856047572168	1.78998945501006	8.49427145411181	-0.0152596688850276	0.00966918578415248	0.244556782836154	0.00557818246835804	0.00475778570910372	-0.0139143561560652	0.46826171875	-0.300048828125	0.4365234375	0	0	0	0.211836278081071	-0.180650019249974	0.484633427240235	0.829229403141933	0.464992023492735	0.727208119799723	0.504926498200959	-0.880281030652476	0.440511664980286	0.176223664953691	-0.0942747323599798	-0.526419816794209	0.844981923667486	11.780360568622	-30.3264732720985	57.4043043265976
6022	1652782848542	5.05658035163739	1.76426849690978	8.49571418692825	-0.00204100379575462	-0.0181433049348781	0.230144620098848	0.010405845385664	0.00201947499438338	-0.00939318339457111	0.47265625	-0.29296875	0.432373046875	0	0	0	0.211857650117676	-0.180609374322191	0.484628368345073	0.829235753322754	0.465031197004278	0.727215384946161	0.504879955742329	-0.880269295478654	0.440503361363617	0.176303023413864	-0.0941910465505252	-0.526416728956216	0.844993179987126	11.7853646422195	-30.3233838829316	57.402373450406
6023	1652782848543	5.07870341162781	1.79289100899472	8.51862505862352	-0.0182106153475348	-0.000334524164870363	0.265721620137018	0.00284753866102467	4.96458020318083E-05	-0.0107560668501193	0.471435546875	-0.28955078125	0.43896484375	0	0	0	0.211825165797888	-0.180548026295157	0.484655392236022	0.82924161745065	0.465023121954943	0.727303611519049	0.504760292335508	-0.880282073936861	0.440478499822492	0.176301337202946	-0.0941114570745663	-0.526315635209022	0.845065018671242	11.7842812327034	-30.3154413283572	57.4059796660104
6024	1652782848544	5.08388348967198	1.74511095379351	8.51957980332221	0.026556118510137	-0.0177060037648427	0.260718458099504	-0.000428665023002697	0.00289039445590796	-0.0137798411644411	0.46630859375	-0.300537109375	0.43603515625	0	0	0	0.211803259633542	-0.180525045120638	0.484623577642181	0.829270809377788	0.465101392154969	0.727296786945695	0.504698007440072	-0.880239958953869	0.440558734403798	0.176311134649564	-0.0941185936805392	-0.526257907531082	0.845100174585596	11.7844412571772	-30.3113074773345	57.4013591078649
6025	1652782848544	5.10402989426591	1.77237932022462	8.49385538986496	0.0163185817280739	0.0246332273597977	0.25394841257123	0.00425600519804976	0.00164198085707539	-0.0123283679992704	0.462890625	-0.293701171875	0.43408203125	0	0	0	0.211775812628579	-0.180386107995653	0.4846383928685	0.829299394299503	0.465172960400036	0.727417822104892	0.504457559163149	-0.880223480535636	0.440553266686684	0.176407039330697	-0.0939188012402087	-0.526095173229964	0.845223714455372	11.7889969027107	-30.2953505508928	57.401685192591
6026	1652782848545	5.0560861992335	1.768467293628	8.52018172677353	-0.00434070792998493	-0.0255275067356883	0.251323283894662	0.00422763287093545	0.00162449352260757	-0.0138563874988187	0.4658203125	-0.294677734375	0.435791015625	0	0	0	0.211776205679212	-0.180356122482135	0.484609525123328	0.829322685057552	0.465250554485903	0.727405074578924	0.504404380460153	-0.880185615740051	0.440608893735717	0.176457033312064	-0.0938893145936602	-0.526066212788674	0.84524501558265	11.7919555229733	-30.2918217905679	57.3968917920961
6027	1652782848546	5.07635843499649	1.79583582979295	8.49435370728356	-0.0148875517969355	0.017225254256784	0.244547237575899	0.00284788976091642	4.97261779620676E-05	-0.010756144615071	0.4658203125	-0.295654296875	0.43017578125	0	0	0	0.211719087399588	-0.180232728742013	0.48462888728919	0.829352779657568	0.465302010190098	0.727539211853696	0.504163400623604	-0.880174047248881	0.440619739271053	0.176487653716152	-0.0937426576462228	-0.525871600849496	0.845382383041787	11.7920817085035	-30.2758327677561	57.3988110030174
6028	1652782848546	5.05749039790629	1.74561197012904	8.49611473405341	0.0209603128315539	-0.0194628198118073	0.227657132819131	0.00589607961969096	-0.00135407544967177	-0.0153862578901513	0.46728515625	-0.294189453125	0.42626953125	0	0	0	0.211734663364227	-0.1802085392222	0.484592606113769	0.829375259349653	0.465389776982533	0.727505447973919	0.504131112557453	-0.880131025524206	0.440676876859806	0.176559531350751	-0.0937109032602848	-0.525870434013317	0.845386629442876	11.7966920895883	-30.2736906510481	57.3926988084446
6029	1652782848547	5.08064753782489	1.77491322485211	8.54330524093397	0.00135971028431495	-0.0140946927695044	0.284399356229468	0.00598121042565562	-0.00130135770472888	-0.0108023755255369	0.46826171875	-0.29296875	0.4287109375	0	0	0	0.211706224533982	-0.18021298382055	0.484586139324097	0.829385331755408	0.465399108074922	0.727512851021473	0.504111814780883	-0.880121692688082	0.440713496137067	0.176514646368251	-0.0937522067096711	-0.525829502710956	0.845407509912123	11.7934940067741	-30.272410383325	57.3924419959758
6030	1652782848548	5.0786150882121	1.77481083709653	8.49444156843901	0.00567912122248302	0.0102275925261761	0.242047111637937	0.00425557341460202	0.0016418091683808	-0.0123287939212853	0.468994140625	-0.296630859375	0.43212890625	0	0	0	0.211704695070592	-0.180183725495796	0.484564453888481	0.829404748707941	0.465462230188428	0.727508636894811	0.50405961503722	-0.880091599545893	0.440756824225653	0.176556501741706	-0.0937213352271854	-0.525799015919555	0.845429894303047	11.7959085699646	-30.2689473920264	57.3887638547157
6031	1652782848548	5.10253479485608	1.7788003572338	8.49341139067345	0.0138922754375415	0.0304118129623668	0.253936254495878	0.00888396704087668	0.000360028753203651	-0.0139330915186116	0.468505859375	-0.287841796875	0.43359375	0	0	0	0.211704574277544	-0.180152460967723	0.484544333312954	0.829423325625426	0.465523759723156	0.727506544590324	0.504005810196138	-0.880062944807219	0.440795924568538	0.176601715906204	-0.093684802985677	-0.525769132283378	0.845452528074474	11.7985376869751	-30.265378044554	57.3852508277709
6032	1652782848549	5.07615390435656	1.80221236681939	8.51817771649453	-0.0204083599996845	0.00852998586279236	0.265713805239834	0.00738913652537345	0.000291134952176919	-0.0123749694433193	0.47900390625	-0.3056640625	0.42919921875	0	0	0	0.211719205254228	-0.18012117753238	0.484523980730465	0.82943827475465	0.465585747002906	0.727495244195443	0.503964861732205	-0.880035694421887	0.440822980447243	0.176669964773291	-0.0936327332247279	-0.525762084580681	0.845462679061734	11.8028316897472	-30.2626616603984	57.381383221613
6033	1652782848550	5.07868761675602	1.77919223583025	8.51853289045168	0.00089470468105186	-0.000298340791390656	0.263224235075203	0.00583759054288425	0.000186619055332553	-0.0138728320735248	0.47314453125	-0.30126953125	0.43603515625	0	0	0	0.211727390806153	-0.180136063991068	0.484514540699554	0.829438466845446	0.465593316601013	0.727470517966489	0.503993560500567	-0.880029473242165	0.440834343666238	0.176672600222769	-0.0936535624607333	-0.525786769455001	0.845445020864448	11.8032424230489	-30.2645654328382	57.3800761010925
6034	1652782848550	5.05602432674633	1.75275917586763	8.49551582319491	0.0165110036802196	-0.016162163914363	0.227671291052639	0.00577853069785838	0.00172802964386149	-0.0123593812631624	0.466796875	-0.29833984375	0.4326171875	0	0	0	0.211731801254338	-0.180103115213073	0.48449424963001	0.829456348642648	0.465656379932001	0.727466548481772	0.503941024990665	-0.880000776464098	0.440869932826094	0.176726726197538	-0.0936096643045413	-0.525762420842278	0.84546502445628	11.8064855092483	-30.2610804452825	57.3764107230869
6035	1652782848551	5.05285909212679	1.77803031673004	8.49505920140519	-0.00758508253871741	-0.00538444151499472	0.23015690843407	0.00270382274346658	0.00153632827466012	-0.0138270571142206	0.470458984375	-0.29345703125	0.429443359375	0	0	0	0.211662726015471	-0.180062541265037	0.484590497255794	0.829426561919896	0.465499062405118	0.727639403480991	0.503836800364746	-0.880089516830714	0.440741880770163	0.176604181433678	-0.0935578177633288	-0.525630567068743	0.845552743297753	11.7973385946743	-30.2541669824443	57.3913805282832
6036	1652782848552	5.05611918798292	1.75550465927776	8.51993962688515	0.0122344300527297	-0.0256965104780277	0.248858191687708	0.00873727332317095	0.00342579552404204	-0.0124344114334143	0.4697265625	-0.286376953125	0.429443359375	0	0	0	0.211674817306754	-0.180015302694067	0.484574869756718	0.829442860065945	0.465563372792445	0.727644919153817	0.503769409098803	-0.880063744394564	0.440761934636823	0.176682548027313	-0.0934802209900134	-0.525606115456088	0.845576525028231	11.8021041259597	-30.2496970214084	57.3879845307416
