// Start Time : 10/05/2022 10:12:23																																
// Update Rate : 100Hz																																
// Filter Profile : 46.1 human																																
// Firmware Version : 4.4.0																																
PacketCounter	Time_Of_Arrival	Acc_X	Acc_Y	Acc_Z	FreeAcc_X	FreeAcc_Y	FreeAcc_Z	Gyr_X	Gyr_Y	Gyr_Z	Mag_X	Mag_Y	Mag_Z	VelInc_X	VelInc_Y	VelInc_Z	OriInc_q0	OriInc_q1	OriInc_q2	OriInc_q3	Mat[1][1]	Mat[2][1]	Mat[3][1]	Mat[1][2]	Mat[2][2]	Mat[3][2]	Mat[1][3]	Mat[2][3]	Mat[3][3]	Euler_X	Euler_Y	Euler_Z
24414	1652177576040	9.70889521409246	0.653727894981064	0.666611639540674	8.67361737988403E-16	1.38777878078145E-15	-0.0590020337976878	-0.0161854809976391	0.00571203631136631	-0.00209237204470165	0.555908203125	0.392822265625	0.265380859375	0	0	0	-0.590137374070212	-0.342903062688719	-0.655164691016673	0.323905228375891	-0.0936465655125536	-0.0197027117836441	0.995410530342167	0.82914236368666	-0.555005785258916	0.0670187963875299	0.551138151018238	0.831613120072973	0.0683107386484229	44.4530344742957	-84.5085741961663	-168.118580288638
24415	1652177576044	9.70884957558675	0.653719338131303	0.667284396216028	5.20417042793042E-16	6.93889390390723E-16	-0.0590020337976842	-0.0158594608464521	0.00598877838062717	6.73418753012565E-05	0.558837890625	0.39794921875	0.259765625	0	0	0	-0.587001477418607	-0.348195409363688	-0.652242717458481	0.329800939854335	-0.0933212111591405	-0.021438083008183	0.995405224089529	0.839002961915627	-0.539982593938503	0.0670285621228004	0.536064531045092	0.841403117916959	0.068378444812854	44.4288329628185	-84.5053981413679	-167.062278203731
24416	1652177576037	9.73994439389669	0.638597201812266	0.668254456410676	-0.014412537457143	0.00904950040824873	-0.0289969758782274	-0.0265574718546743	0.0021720439347125	0.00059420200528199	0.54736328125	0.39990234375	0.26171875	0	0	0	-0.58865012392663	-0.345421415454009	-0.653774926228822	0.326731423621008	-0.0934752168395058	-0.0205529067210969	0.995409444330383	0.833882342776753	-0.547861245128678	0.0669947348021389	0.543969321048496	0.83631670682306	0.0683501546938252	44.4262270005118	-84.5079240153399	-167.5993876014
24417	1652177576044	9.71804299113192	0.633008076416924	0.67794958840698	-0.0118000627004745	0.0202943905432532	-0.0505091554342663	-0.0289574680314312	0.00119110090964714	-0.00103013425128578	0.55078125	0.40087890625	0.260498046875	0	0	0	-0.58869175160026	-0.345327839583194	-0.653830120598318	0.32664488087985	-0.0934902867856142	-0.0205572221958636	0.995407939938362	0.833723825238118	-0.548103610007586	0.0669851918484384	0.544209655837769	0.836157780154106	0.068381409613245	44.4090525457348	-84.507023482577	-167.598801864361
24418	1652177576053	9.74555158764006	0.650632908566508	0.689182267609928	0.00617500362591859	0.0192643636123591	-0.0211776787650173	-0.0379493249880482	-0.000124111916979005	-0.00143465399871679	0.55712890625	0.400390625	0.261474609375	0	0	0	-0.588745219802576	-0.34521626875764	-0.653901259076865	0.326524022580821	-0.0935222576745132	-0.0205400829105992	0.995405290478953	0.833517795027167	-0.548415580925385	0.0669957906985437	0.544519671538607	0.83595362047921	0.0684095878893395	44.4017839654867	-84.5054378674172	-167.612926847576
24419	1652177576039	9.71443020464998	0.665428096864495	0.688921379429608	0.021314090412518	0.0113513979891261	-0.0511824434960353	-0.0432976246204533	-0.00202592548153635	-0.00117563344970217	0.556396484375	0.395263671875	0.263916015625	0	0	0	-0.588820489062273	-0.345081467114944	-0.653971934530742	0.326389217898481	-0.0935210202001661	-0.020516700012195	0.995405888972599	0.833280852943987	-0.548777718986832	0.0669778714244597	0.544882408320972	0.835716507055006	0.0684184254285263	44.3904223947857	-84.5057960064837	-167.626435049805
24420	1652177576059	9.72366426113416	0.644893065920728	0.698802295816623	0.00878217633000153	0.0305011181639982	-0.0426898731181176	-0.0412226158823227	-0.00131159694910249	-0.00171546410076592	0.551513671875	0.398681640625	0.261962890625	0	0	0	-0.588888755296095	-0.344953686971628	-0.654042296310807	0.326260114581883	-0.0935287430376667	-0.0204971343604823	0.995405566444554	0.833054523782564	-0.549122582955394	0.0669667775378334	0.545227048697329	0.835490428653378	0.0684339754609938	44.3791691932688	-84.5056030025576	-167.638861440192
24421	1652177576069	9.74695601435412	0.651373807965714	0.629733153380461	-0.025501593427675	-0.0314029650163507	-0.0237973971383774	-0.0348100507297182	-0.0027056051307127	0.00096154776802198	0.558349609375	0.40283203125	0.26123046875	0	0	0	-0.588956038313254	-0.344841427924027	-0.654092790540558	0.326156091288421	-0.0935059780996326	-0.0204798133324479	0.995408061704093	0.83286557827813	-0.549413187405554	0.0669333849757064	0.545519532720019	0.835299782563564	0.0684303490433504	44.3664017356024	-84.5070963663685	-167.646071790453
24422	1652177576042	9.7363279537913	0.670454228869031	0.67984062440588	0.0186970064175569	9.14631191992199E-05	-0.0296702109407221	-0.0316815082030956	-4.27628385644362E-05	-0.00482349864158305	0.54931640625	0.398193359375	0.25830078125	0	0	0	-0.588999447579535	-0.344751817603535	-0.65415523129143	0.326047187358085	-0.0935457647337695	-0.0204536862752515	0.99540486065627	0.832688206757341	-0.549678831749882	0.0669591834876158	0.54578341879139	0.835125636442708	0.0684516700201242	44.3685165218012	-84.5051806755449	-167.666436403893
24423	1652177576043	9.73067714485227	0.65812455168109	0.659836822452816	-0.0020951279781304	-0.0100370020589255	-0.0374899166136124	-0.0241551512841663	0.00317297116390741	0.00221060479571575	0.55810546875	0.39208984375	0.259521484375	0	0	0	-0.589032254231685	-0.344661126029295	-0.654202604647119	0.325988747891524	-0.093544679445712	-0.0204923358904427	0.99540416772141	0.832558415934709	-0.549880088904669	0.0669206386885298	0.545981572036719	0.834992186787365	0.0684994233579159	44.3320516991348	-84.5047660711962	-167.643707009958
24424	1652177576072	9.70877006039628	0.652509271462955	0.669621579161266	0.000509485439109322	0.00120649732958528	-0.0590021217240011	-0.0248065273582335	0.00263058556094497	-0.00211215858019549	0.553466796875	0.39404296875	0.25927734375	0	0	0	-0.589060140600477	-0.344582009791049	-0.65425681021191	0.325913202517856	-0.093577470360603	-0.0205028102987403	0.995400869906574	0.832420918842381	-0.550087645905833	0.0669252993671619	0.546185564542415	0.834855206962041	0.0685427785682154	44.3159249802783	-84.5027933138539	-167.641784231305
24425	1652177576074	9.70873965842556	0.652512793245981	0.67005880092174	0.000509485271383073	0.00120649746182394	-0.05900212172401	-0.0236063174477037	0.00312235304105637	-0.00130051521412624	0.5478515625	0.390625	0.264404296875	0	0	0	-0.589086149685533	-0.344503526710825	-0.654308792667087	0.325844797673705	-0.0936053521553138	-0.0205217201191313	0.99539785867322	0.8322907445318	-0.550284975825572	0.0669220587500991	0.546379130837354	0.834724687776755	0.068589656664956	44.2949576385913	-84.5009926061914	-167.63430791661
24426	1652177576076	9.74547485685879	0.649773786699047	0.691075222155341	0.00615362488538967	0.0192448531593455	-0.0211776269393624	-0.0297856613990519	-0.00105840758943498	-0.00146838646732062	0.555419921875	0.392822265625	0.2626953125	0	0	0	-0.589135257495354	-0.344412173580729	-0.654359686368492	0.325750370561586	-0.0936126889097449	-0.0205051114961635	0.995397510986248	0.832126529764232	-0.550533901536776	0.0669168268915386	0.546627938306874	0.834560940651566	0.0685998061305614	44.2884810644283	-84.5007847283778	-167.64494682166
24427	1652177576078	9.74547352886238	0.649662293995392	0.691198761142462	0.00615362457246117	0.0192448530628872	-0.0211776269389734	-0.0343024441620031	-0.000679051097531243	-0.000788507826982312	0.561279296875	0.384765625	0.26513671875	0	0	0	-0.589191982839732	-0.34430336652357	-0.654418031662095	0.325645572660569	-0.09361553672791	-0.0204951029191757	0.995397449283189	0.831938235800845	-0.550820305614213	0.0669011415122543	0.54691398144107	0.834372184147696	0.0686159983158417	44.2750082127259	-84.5007478376872	-167.651156402632
24428	1652177576079	9.73061075753631	0.657622523287448	0.661314703235924	-0.00213179920591795	-0.0100784180816951	-0.0374899671551692	-0.0388190623021919	-0.000298195166433309	-0.000109379359862364	0.5595703125	0.39697265625	0.25341796875	0	0	0	-0.589254692090824	-0.344176230939109	-0.654485389503221	0.325531111926822	-0.0936168060332683	-0.0204957951956765	0.99539731565211	0.831725631143696	-0.551144434448472	0.0668751588790194	0.547237031026547	0.834158099376713	0.0686432598109939	44.2525077063274	-84.5006679439082	-167.650914386127
24429	1652177576050	9.73061304253057	0.657340933087276	0.661560997741606	-0.00213179821324759	-0.0100784190620977	-0.0374899671559667	-0.0376186160627689	0.000195587364958585	0.000701307850921161	0.5498046875	0.39306640625	0.25927734375	0	0	0	-0.589316478659324	-0.344050736020035	-0.654549549849386	0.325422903030215	-0.0936120443279231	-0.0205012929152644	0.995397650261215	0.831520365841166	-0.551458050454919	0.0668423501968051	0.547549693039928	0.833950667352249	0.0686703580492935	44.2271515789001	-84.500867998247	-167.647094560445
24430	1652177576082	9.69948957011274	0.672051339404558	0.661454229438274	0.0129927231796886	-0.0180066538950259	-0.0674947233129988	-0.0310271212554147	0.000529323228119496	-0.000516146352253908	0.553466796875	0.399169921875	0.26416015625	0	0	0	-0.589363583515485	-0.343949576570282	-0.654606031529973	0.325330906443717	-0.0936207354765914	-0.0205044372101508	0.995396768099795	0.83134985719453	-0.551716980179267	0.0668265570301534	0.547807058033625	0.833779312430193	0.06869851040582	44.2086467124192	-84.5003405918484	-167.646369884373
24431	1652177576085	9.73061168419567	0.656957025045509	0.661962193451994	-0.00214653650677122	-0.0100939043371148	-0.0374899863591196	-0.0192244759747595	-0.00103758100519594	0.000135384801684224	0.557861328125	0.394775390625	0.2578125	0	0	0	-0.589398481189939	-0.34388794184141	-0.65463581185369	0.325272912591462	-0.0936139254105211	-0.02049653317493	0.995397571373892	0.831244655658375	-0.551877231580692	0.066812002680821	0.547967841582536	0.833673445295363	0.0687010276541449	44.2013598370457	-84.5008208328538	-167.650115034522
24432	1652177576090	9.70871166988665	0.651460882148974	0.671486352441633	0.000439703391128671	0.00116778773422352	-0.059002113617117	-0.0133709574780629	0.00287306329393311	-0.00185382752904717	0.555908203125	0.39697265625	0.260009765625	0	0	0	-0.589407018497745	-0.343845973374182	-0.654670796153156	0.325231397322204	-0.0936478094828911	-0.0205085356599991	0.99539413688455	0.831169455615725	-0.551988969580416	0.066824497850793	0.548076111348156	0.833599170720936	0.0687386262799213	44.1910470223935	-84.4987678007396	-167.647438969327
24433	1652177576052	9.71791660579224	0.631012372003705	0.681611833227706	-0.0120866087336646	0.0203254199494879	-0.0505095705588143	-0.0154880208346631	0.00422726289303336	0.000453970416907635	0.5546875	0.392578125	0.26513671875	0	0	0	-0.589419145355132	-0.343787062530358	-0.654709141521586	0.325194506001627	-0.0936672087103681	-0.0205462785421333	0.99539153324231	0.831084984865312	-0.552117977806211	0.0668093295476302	0.54820087736507	0.833512800754283	0.0687910534511481	44.1627137720484	-84.4972119323369	-167.627889639255
24434	1652177576102	9.7361661732967	0.669020293553815	0.683560012630131	0.0186076390010267	4.03949156332906E-05	-0.0296700402084493	-0.0170565241289747	0.00553124775407137	-0.000747255293724049	0.5537109375	0.39306640625	0.261962890625	0	0	0	-0.589426937618029	-0.343724239090705	-0.65475650735604	0.325151424334367	-0.0937048729271274	-0.0205893706533806	0.995387097869873	0.830990673182667	-0.552260397429696	0.0668053479461915	0.548337394195516	0.833417381176378	0.0688590653434947	44.1327102740412	-84.4945624793535	-167.607571935807
24435	1652177576054	9.74176175264886	0.681144396015994	0.704464671184533	0.0393996990807097	0.0101687886983962	-0.0218500916868489	-0.0130450655763337	0.0031444751325061	0.00030625512173706	0.550048828125	0.395263671875	0.2666015625	0	0	0	-0.589438376178145	-0.343675515300003	-0.654787695664832	0.325119384961414	-0.0937195724215659	-0.0206172704484614	0.995385136469484	0.830919421130946	-0.552369051411178	0.0667933127680385	0.548442847826948	0.833344682110812	0.0688990817434973	44.1109156025577	-84.4933912494881	-167.593185295861
24436	1652177576103	9.71421115172507	0.663512308534153	0.693840439873869	0.0211298855721159	0.011260176009651	-0.0511819373723323	-0.00922243907440889	0.00428865911611668	-0.00292211646808272	0.561767578125	0.389404296875	0.26220703125	0	0	0	-0.589430854729802	-0.343647602906206	-0.65482413632572	0.325089130846586	-0.0937766489958139	-0.0206394180572848	0.995379301836929	0.830865419284694	-0.55244676404446	0.0668223610303779	0.548514899651765	0.833292618063464	0.0689551850186286	44.1000591262276	-84.4899086265437	-167.587595765832
24437	1652177576055	9.73966819042835	0.636532393805344	0.674223439926172	-0.0148018791427605	0.00904436419453189	-0.0289975524222594	-0.00765388657145587	0.00298552015041084	-0.00172158081048229	0.552490234375	0.384033203125	0.2607421875	0	0	0	-0.589430557708402	-0.343622760437758	-0.654848890608958	0.325066065003585	-0.0938073420452947	-0.0206547934321782	0.995376090775076	0.830821814736691	-0.55251090378444	0.0668342229470289	0.548575696450389	0.833249710895585	0.0689900322973957	44.09067488578	-84.4879929176498	-167.582574117701
24438	1652177576106	9.73037874536422	0.657036587020147	0.665298981177889	-0.00234928136272142	-0.0101691481911109	-0.0374901109690917	-0.0055296069567408	0.0116113858642491	-0.000825295334088606	0.5537109375	0.382568359375	0.2666015625	0	0	0	-0.589396766738812	-0.343587491810986	-0.654897164438266	0.325067363541143	-0.0938853210364898	-0.0207526757384476	0.995366702750082	0.830790102799621	-0.552557689262893	0.066841642160022	0.548610382315238	0.83321625433386	0.0691181736577397	44.040720538764	-84.4823958561784	-167.535603352358
24439	1652177576056	9.73032186696339	0.657129111167497	0.666038986643019	-0.00234847592008088	-0.0101694141741548	-0.0374901110522607	-0.00193716333616892	0.00309466519743848	-0.00158734876119439	0.560791015625	0.39794921875	0.25439453125	0	0	0	-0.589387080383309	-0.343580768993499	-0.654912175420351	0.325061789728134	-0.0939154046719612	-0.0207697150879098	0.995363509327356	0.830777980339631	-0.552574176073156	0.0668560193241819	0.548623590586574	0.833204896092335	0.0691502493101493	44.0335943266032	-84.4804932541185	-167.529560303784
24440	1652177576109	9.71401758727338	0.663816424890487	0.696255363301105	0.0209813545311344	0.0111917077651423	-0.0511815382501179	-0.00202404625249747	0.00721352324329227	0.00196263808792322	0.5517578125	0.40185546875	0.26171875	0	0	0	-0.58936731533268	-0.343557623777044	-0.654936124738658	0.325073836650274	-0.0939463366860405	-0.020841928884213	0.995359080846535	0.830768466434418	-0.552590319740285	0.0668408086989861	0.548632701359915	0.83319238626485	0.0692286535244405	43.994635631342	-84.477855901085	-167.491555353307
24441	1652177576109	9.71756876913434	0.631210242771227	0.686371155918882	-0.0123359406318602	0.0202209360384703	-0.0505096654597104	0.000230617672870692	0.00966158204369305	-0.00246570824001875	0.560546875	0.39306640625	0.258544921875	0	0	0	-0.589331102267839	-0.343549925333002	-0.65496817203795	0.325083057572566	-0.0940197151580917	-0.020908799596558	0.995350749867112	0.830767424318686	-0.552588908965921	0.066865419902583	0.548621709242796	0.833191646493941	0.0693246014069246	43.9655232511851	-84.4728978403311	-167.462174216918
24442	1652177576058	9.72094441040648	0.677524227430236	0.658548482673172	0.00998290939325762	-0.029375606303314	-0.0459825555412312	-0.000824567432782811	0.00770125743746098	0.00277669886984465	0.555419921875	0.400390625	0.265625	0	0	0	-0.58930699131896	-0.34352793677781	-0.654991748457944	0.325102500894381	-0.0940512677896281	-0.0209920812646395	0.995346015992098	0.830765740690804	-0.5525938411308	0.0668455745638215	0.548618850497887	0.83318628125317	0.0694116532715519	43.9210986882187	-84.4700825182332	-167.417911009083
24443	1652177576058	9.71747027965427	0.631107900090836	0.68785801250901	-0.0124565991272025	0.0201857313282178	-0.0505097458170667	-0.001105957032716	0.00537352258547687	-0.0011599234394609	0.553466796875	0.3935546875	0.26318359375	0	0	0	-0.589289203225259	-0.343519064201459	-0.655011331622456	0.325104664590453	-0.0940903840473376	-0.0210303272681997	0.995341511725908	0.830758629812057	-0.552603219183366	0.0668564218379494	0.548622911135342	0.833179096883241	0.0694657749845867	43.9034311983916	-84.4674050746371	-167.400791861134
24444	1652177576115	9.71743098651844	0.631144544883026	0.688379289592528	-0.0125916060711589	0.0201374414091682	-0.0505098192883224	-0.00198054580340603	0.00515468957031982	0.000187146130793894	0.553466796875	0.38525390625	0.265380859375	0	0	0	-0.589270489274457	-0.343504261588964	-0.65503462302382	0.325107298257828	-0.0941310701794744	-0.0210792245244372	0.995336630452389	0.830746921701998	-0.552620133779432	0.0668620955718311	0.548633660751435	0.83316664241618	0.0695302254809237	43.8793131026147	-84.4645049864907	-167.377719123197
24445	1652177576060	9.73929056077197	0.636629377732537	0.679565752104709	-0.0152076421022621	0.00889334450078494	-0.0289980362788249	-0.00318008445450757	0.00466750406721913	-0.000627415652877426	0.558349609375	0.393798828125	0.2587890625	0	0	0	-0.589259235715448	-0.343488201488349	-0.655054880694053	0.325103847779821	-0.0941620825656004	-0.0211145342685803	0.995332948640569	0.830728914613774	-0.552646687194108	0.0668663559497518	0.548655604757238	0.833148135433308	0.0695788171246903	43.8611388292786	-84.4623185305968	-167.361284819701
24446	1652177576116	9.73001901221776	0.657147992247901	0.670430307061798	-0.00267397250284379	-0.0103807077594893	-0.0374904167698133	-0.00474822495195241	0.00597166136766464	-0.00182870234264046	0.55712890625	0.38818359375	0.25244140625	0	0	0	-0.589242810174968	-0.343463856894184	-0.655085638908073	0.32509736289438	-0.0942092305924541	-0.0211660108982659	0.995327393802579	0.830700443817713	-0.552688567292983	0.0668739128860036	0.548690617299251	0.833119047655427	0.0696509793289578	43.8347015373715	-84.4590213997288	-167.337600961048
24447	1652177576119	9.7299742183234	0.657276507850569	0.670954204965477	-0.00267455871010638	-0.0103803941344016	-0.0374904165971355	-0.00437957858051197	0.00418051496249046	-0.0014421424907592	0.55810546875	0.39697265625	0.25927734375	0	0	0	-0.589233741097548	-0.343446991849395	-0.655107829252922	0.325086902525024	-0.0942442083177478	-0.0211928383112129	0.995323511629699	0.830675061815685	-0.552725339192575	0.0668852830745393	0.548723036582271	0.833093970101073	0.0696955242835794	43.8212674441738	-84.4567182569435	-167.326623388295
24448	1652177576120	9.71726328427658	0.631375636187736	0.690531358450605	-0.012539091832523	0.0200418559802532	-0.0505095549889472	-0.00686627252236961	0.0073254018024579	0.000478494186813494	0.548583984375	0.391357421875	0.26123046875	0	0	0	-0.589222827011966	-0.343412721292633	-0.655137609285931	0.325082875404918	-0.0942751684929945	-0.0212548066813125	0.995319258227509	0.830641264568984	-0.552777653945718	0.0668726767335343	0.548768878673761	0.833057680170592	0.0697683259648295	43.7859892157196	-84.4541959728118	-167.294806353904
24449	1652177576063	9.7135950633851	0.664022649922637	0.701930420165227	0.0207810458615013	0.0110156046115792	-0.0511809094460993	-0.00474808342465155	0.00597239745576662	-0.0018289720957993	0.54931640625	0.39404296875	0.2626953125	0	0	0	-0.589207907688025	-0.343392970230053	-0.655166198977259	0.325073162891327	-0.0943229605714564	-0.0212941900339995	0.995313888469276	0.830613604050104	-0.552817413528821	0.066887577816816	0.548802532679954	0.833030290427725	0.0698306190289616	43.7668225173093	-84.4510133174258	-167.278270070099
24450	1652177576121	9.7334605947538	0.624822738744405	0.661994521327608	-0.0360713858226688	-0.00143355578749726	-0.036819516020854	-0.00765310012277211	0.00298771209258386	-0.00172508105776431	0.555419921875	0.39208984375	0.2685546875	0	0	0	-0.589201538473481	-0.343366646285677	-0.655196836951474	0.325050762386113	-0.0943670978653787	-0.0213201502240918	0.995309148975778	0.830568775232094	-0.552882696181466	0.0669046625622705	0.548862788363289	0.832986299681774	0.0698817865580189	43.7531680625212	-84.4482057310248	-167.269029388562
24451	1652177576064	9.72421068543715	0.645350654684467	0.652569890192659	-0.0235460321282147	-0.0205884288186409	-0.0453120705488246	-0.00728446476805234	0.00119640842908579	-0.0013386345331243	0.55517578125	0.398681640625	0.26025390625	0	0	0	-0.58920711772145	-0.343344935434107	-0.655215021784491	0.325026926524679	-0.0943849389206047	-0.0213224899040528	0.995307407150799	0.830527609069602	-0.55294350469134	0.0669131615811708	0.548922010742951	0.832945875819041	0.0698984554762609	43.7499774832944	-84.4471742624189	-167.270006114903
24452	1652177576124	9.72979107348893	0.657590201130498	0.673298626165644	-0.00276071532808921	-0.0105375133135639	-0.0374906086592226	-0.00889651636993464	0.00456060840059525	-0.000764901544435088	0.549560546875	0.392333984375	0.264404296875	0	0	0	-0.589204073192291	-0.343307594359703	-0.655246901676947	0.325007620881925	-0.0944172130045683	-0.0213640072993874	0.995303455776459	0.830476939117722	-0.55301988404725	0.0669108469683896	0.548993117882283	0.832894103137055	0.0699569115771347	43.7250624853689	-84.4448350574225	-167.250246383497
24453	1652177576126	9.70785148373604	0.652220613407603	0.683085165955715	-0.000150080257249954	0.000710055561448791	-0.0590020607978889	-0.00922097510645732	0.0042932308460808	-0.00292686546853387	0.55712890625	0.393310546875	0.258056640625	0	0	0	-0.589199853066323	-0.343279182051658	-0.655280194473149	0.324978157801104	-0.0944654601976471	-0.021383413635738	0.995298460990938	0.830423588137996	-0.553097200244291	0.0669339326944376	0.549065516212467	0.832842263999138	0.0700058726331356	43.7149121647991	-84.4418795596209	-167.245348262084
24454	1652177576067	9.74455162254419	0.649652540820613	0.704085488362784	0.00555056535627013	0.0187288984671852	-0.0211762660125174	-0.0333791566766179	-0.00248433124122723	-0.00394982163715455	0.56201171875	0.39013671875	0.257080078125	0	0	0	-0.589256571966748	-0.343184322980735	-0.655335246284325	0.32486447609998	-0.0944795291245642	-0.0213430474833022	0.995297992010697	0.830237518332732	-0.55337518525708	0.0669445105621032	0.549344410847247	0.832658620723894	0.070002425708502	43.7208438048619	-84.4416021366506	-167.270474216683
24455	1652177576068	9.72413394351056	0.645811230651302	0.653257471590292	-0.0235099112220756	-0.0206825355663263	-0.0453121823584332	-0.0502521655765596	-0.0104527485016881	-0.00363804972146794	0.552490234375	0.392578125	0.2607421875	0	0	0	-0.589366055659662	-0.343047527845752	-0.655396633834516	0.324686461734201	-0.0944527080053936	-0.0212356913639719	0.995302833997142	0.829957964924968	-0.553794190410886	0.0669460314339603	0.549771281905534	0.832382748547473	0.0699320921501796	43.7502638225294	-84.444467054829	-167.328951867088
24456	1652177576127	9.72978752379429	0.657931670624708	0.673016282152248	-0.00249202726874849	-0.0105344831461893	-0.0374905332028916	-0.0478526361459988	-0.00947137004992783	-0.00201190856577222	0.557861328125	0.39208984375	0.258544921875	0	0	0	-0.589478574478519	-0.342910292996282	-0.655445970251441	0.324527535455967	-0.0943937779232983	-0.021143989321571	0.995310376920153	0.82969707207941	-0.554188819376161	0.0669142814450873	0.550175047845886	0.832122397363529	0.069855082375954	43.7682217911155	-84.4489330062054	-167.374288505493
24457	1652177576129	9.71499258635031	0.666283813484476	0.642244894764875	-0.0107572329379467	-0.0398163712244076	-0.0538046157234753	-0.0481323345449213	-0.0117866486749774	-0.00595520684645974	0.549560546875	0.3935546875	0.255126953125	0	0	0	-0.589585080586962	-0.342789415433887	-0.65550330451034	0.324345906698056	-0.0943783311149644	-0.0210125770440641	0.995314624740299	0.829426677535848	-0.55459029894942	0.0669401740589136	0.550585249718696	0.831858204213411	0.0697696988315196	43.8143015534127	-84.4514495975591	-167.448276608236
24458	1652177576131	9.72986854259482	0.658150743924238	0.67162935391593	-0.00234396545331084	-0.0103267041242007	-0.0374902748683059	-0.0506182921701122	-0.00863362724358595	-0.00403629616304454	0.56298828125	0.39306640625	0.26318359375	0	0	0	-0.589694694934939	-0.342657867988681	-0.655560800887181	0.324169382593729	-0.0943487563087794	-0.0208984262912125	0.995319831994489	0.829152534013779	-0.554999593788505	0.0669442023861933	0.551003073967392	0.83158806308962	0.0696915045420822	43.8481223924331	-84.4545361521435	-167.51052896703
24459	1652177576071	9.72770031315184	0.692428189824309	0.622394890927031	-0.000694037324395005	-0.070007552582417	-0.0407845768011192	-0.0420412735565269	-0.00348305737044289	-0.00222223904513337	0.5576171875	0.397216796875	0.260986328125	0	0	0	-0.589770497597346	-0.342532653536527	-0.655625898247881	0.324032132622158	-0.0943478743842307	-0.020856408984004	0.995320796931055	0.828919023062312	-0.555349116579124	0.0669373731200331	0.551354452058384	0.83135574149643	0.0696842828500092	43.8481684659403	-84.4551082979901	-167.534741147779
24460	1652177576071	9.70797845146599	0.652715567771518	0.680804135973884	0.000450645847301437	0.00115578155273702	-0.0590021126864695	-0.0251254375511211	0.00242632047081727	-0.00430436632628251	0.55810546875	0.3955078125	0.258544921875	0	0	0	-0.589804981801219	-0.342465253951223	-0.655672672548397	0.323945951899126	-0.0943782073812652	-0.0208295903373663	0.995318482767138	0.82878044183437	-0.555553140168588	0.0669603440974423	0.551557552032719	0.831220089155212	0.0696952665571755	43.853478480983	-84.4537362450201	-167.554146390053
24461	1652177576134	9.72619815190394	0.691117614154397	0.682711702941088	0.0311594793712089	-0.0191084803264976	-0.0381626548272873	-0.0206087267757816	0.00204603981994073	-0.00498180301225853	0.558349609375	0.392578125	0.2685546875	0	0	0	-0.58982325484608	-0.34240950646212	-0.65572171414059	0.323872338324333	-0.094430473022211	-0.0208180705140509	0.995313766460041	0.828662428880959	-0.555724876705393	0.0669958235406114	0.551725896370571	0.831105570520886	0.0697285158542887	43.8549888547337	-84.4509410237024	-167.56748599644
24462	1652177576136	9.70226274053894	0.641314023812554	0.661210802908252	-0.0202746938742946	-0.00878143825126382	-0.0668217021142272	-0.0168300208118144	0.00524992050595362	-0.00642594813624225	0.556396484375	0.403564453125	0.264892578125	0	0	0	-0.589827524178907	-0.34236977032768	-0.655771319750627	0.323806127612299	-0.0945061668834159	-0.0208073153231613	0.995306806994731	0.828563771267469	-0.555865064172998	0.0670530191339607	0.551861088829457	0.831012085388048	0.0697728641735039	43.861216042433	-84.446818908069	-167.58335331277
24463	1652177576138	9.75157462650272	0.664855257006999	0.663893775343867	-0.00470469787728495	-0.0211327767155003	-0.0159773868403406	-0.0238334120885963	0.00877749346219993	-0.00382541240193801	0.5537109375	0.394287109375	0.26513671875	0	0	0	-0.589830921198366	-0.34228910435901	-0.655843848013442	0.323738320960486	-0.0945859678799448	-0.0208581768557951	0.995298161928609	0.828428967816749	-0.556063337157585	0.0670746625131041	0.552049762215591	0.830878150830447	0.0698753068707877	43.8284572921239	-84.4417026491663	-167.56412045692
24464	1652177576073	9.69287094133621	0.662554669212649	0.653111811225166	-0.0079573608375209	-0.0276491508958664	-0.0753133332259246	-0.0188588894927945	0.00249271880842981	-0.00767738644200655	0.552978515625	0.3935546875	0.268310546875	0	0	0	-0.589836086065491	-0.342261328138742	-0.655896368104899	0.323651864110883	-0.0946857248649872	-0.0208079999995528	0.99528972698547	0.828320328803283	-0.556213308236509	0.0671728265879939	0.552195659524787	0.830779021687848	0.0699011496712947	43.8597342565663	-84.4367152644662	-167.605776165232
24465	1652177576139	9.71470323796958	0.668485708189544	0.644330200274925	-0.0105748358213158	-0.0388829810782837	-0.0538006527651031	-0.0173795551593156	0.00529625635328292	-0.00291920110611615	0.558349609375	0.39208984375	0.263916015625	0	0	0	-0.589841734676587	-0.342204993745265	-0.655946297788981	0.323599945467311	-0.0947396066545348	-0.0208347981366018	0.995284038914294	0.828221946639394	-0.556357635098712	0.0671906911128403	0.552333969655857	0.830681703815592	0.0699649405790344	43.8412352338912	-84.4333545556308	-167.597147521298
24466	1652177576075	9.72948060726828	0.660402607623861	0.675030211611364	-0.0022768692832768	-0.00943247345861556	-0.0374893552294591	-0.0144311431361978	0.00622349680255528	-0.00479489952693132	0.55224609375	0.399169921875	0.263671875	0	0	0	-0.589842180589665	-0.342163117781776	-0.655995230635485	0.323544216778142	-0.0948106835732961	-0.0208424471927874	0.995277110495052	0.828131405231831	-0.556487081238546	0.067234694045236	0.552457518682764	0.830594799411614	0.0700212056541683	43.836964922289	-84.4292637365252	-167.601748699147
24467	1652177576076	9.70533438278733	0.689624886522306	0.635989630048655	0.00197898280061264	-0.0578712271040671	-0.0622910752525705	-0.00954544886357761	0.00404839996263798	-0.00508737799559593	0.55908203125	0.389404296875	0.26611328125	0	0	0	-0.589835459031849	-0.342140716718878	-0.656031733154325	0.323506145731906	-0.0948758098847507	-0.0208471415424263	0.995270806056433	0.828074048339886	-0.556567007273559	0.0672795428086911	0.552532307801729	0.830541126678302	0.0700677224635624	43.8370428238131	-84.4255439412855	-167.607292000781
24468	1652177576076	9.71305588962468	0.66784375899567	0.70575594303001	0.0211219785229803	0.0122850058161414	-0.0511831562272604	-0.00502889206618079	0.00366583175138676	-0.00576250766510323	0.551513671875	0.40283203125	0.263671875	0	0	0	-0.589827610226513	-0.342145999826399	-0.656054967871241	0.3234677482358	-0.0949440121314843	-0.0208109315001092	0.995265060016915	0.828039561204773	-0.556609461308109	0.0673527479922181	0.552572275489988	0.830513583701311	0.070079010034549	43.8635608936611	-84.4221557711616	-167.636767670081
24469	1652177576077	9.74557764620059	0.655189376737549	0.646874410141916	-0.0256959873609767	-0.0304543595247744	-0.0237949083121371	0.000272615171401262	0.00761492157321696	-0.00422340682570191	0.551513671875	0.399169921875	0.259765625	0	0	0	-0.589794706642063	-0.342147472874892	-0.656083887014976	0.323467531634396	-0.0950219199907085	-0.0208501341705286	0.995256804360739	0.828037207740809	-0.556607725567352	0.0673960120151386	0.552562410337588	0.830513763729302	0.0701546216446569	43.8510739701901	-84.4172913859435	-167.62403852863
24470	1652177576077	9.7199656924808	0.682645650113215	0.667643057716377	0.00981786588597089	-0.0275522392563274	-0.04597707424948	-0.000557114510119744	0.00533850176504187	-0.00465762048985941	0.556396484375	0.3955078125	0.26318359375	0	0	0	-0.589761409635541	-0.342191201843339	-0.656103472568234	0.323442258169235	-0.0951331706701701	-0.0208008463922775	0.99524720779694	0.828045508648309	-0.556580574022794	0.0675181473962435	0.552530827597523	0.830533195850606	0.0701733221714204	43.8952732044376	-84.4116422179811	-167.666393050804
24471	1652177576077	9.7347338156582	0.674713724452631	0.698207081274424	0.0180604817619829	0.00175110396276046	-0.0296691714328432	0.00635735521258033	0.00592338980202332	-0.0036981273009137	0.5546875	0.39208984375	0.2587890625	0	0	0	-0.589724748265533	-0.342214470583762	-0.656116263340828	0.323458538897799	-0.0951985897945099	-0.0208281307389519	0.995240381752599	0.828077500810279	-0.556527659474352	0.0675619485494721	0.552471611173768	0.830567970252839	0.0702279548124586	43.8915599301168	-84.4076274219317	-167.658937348229
24472	1652177576078	9.72348443563858	0.650816689428715	0.65794110479037	-0.0233937725545674	-0.0180059905079695	-0.045306602615593	0.00631222990731181	0.00797896066728727	-0.00191842868704966	0.54296875	0.39501953125	0.265625	0	0	0	-0.589695785458993	-0.342246430765575	-0.65611730431854	0.323475415161488	-0.0952450727960073	-0.0208330791964669	0.995235830805582	0.828118190439839	-0.556462072828654	0.0676034330924467	0.552402605687854	0.830611789173758	0.0702525224802502	43.8991192853446	-84.4049523392509	-167.661934880946
24473	1652177576149	9.71977784672633	0.68361299550327	0.66938573473688	0.00990707104971001	-0.0270158558892578	-0.0459756659016506	0.00912447966897376	0.00509852300024046	-0.0016810546871605	0.552490234375	0.391357421875	0.26318359375	0	0	0	-0.589660892746753	-0.342274297933752	-0.656119501515932	0.323505079202081	-0.0952889905911152	-0.0208644464401131	0.995230969748668	0.828167518775652	-0.556385537408825	0.0676290958632021	0.552321074301088	0.830662271104834	0.0702966730781181	43.8919991957903	-84.4020963790073	-167.649448326746
24474	1652177576079	9.72896485088539	0.663430103629611	0.679480455892856	-0.00299287806496112	-0.00761965559856262	-0.0374879670623418	0.00755642558919393	0.0064081201409999	-0.00288159124779575	0.55712890625	0.39013671875	0.266845703125	0	0	0	-0.589615602705264	-0.342308348281895	-0.656139192983779	0.323511661572849	-0.0953872917457663	-0.0208766749239542	0.995221296505219	0.828198047257046	-0.556330399045792	0.0677088001456727	0.552258326413486	0.830698893427499	0.0703568714860585	43.9012133905316	-84.3964174872377	-167.654776473103
24475	1652177576080	9.72890845168221	0.663657713316677	0.680065463550555	-0.00302069852480928	-0.00760460235454188	-0.0374879638974956	0.0078803357973478	0.00667091228715643	-0.00071884952881794	0.55810546875	0.39599609375	0.260986328125	0	0	0	-0.589578881468432	-0.342326793378895	-0.656146945788885	0.323543342681122	-0.0954328958663177	-0.0209266563870821	0.995215874792512	0.828241248135098	-0.556264143883298	0.0677247157055424	0.552185654716042	0.830742004043517	0.0704182181227124	43.8829919557207	-84.3932370581304	-167.631860875898
24476	1652177576151	9.71402775026992	0.672194064747255	0.650625513037912	-0.0110305074897192	-0.0365539804005992	-0.053792155498753	0.00875535726575518	0.00689286737777505	-0.00206489633109462	0.553955078125	0.400634765625	0.26416015625	0	0	0	-0.589553497590436	-0.342356501216152	-0.656142493652398	0.323567191750852	-0.0954618918027029	-0.0209374226894027	0.995212867453278	0.828287313548629	-0.556192596995005	0.0677489576476915	0.552111540748647	0.830789636056612	0.0704373991078389	43.8854404827743	-84.3914736990126	-167.629336598542
24477	1652177576082	9.75069704105177	0.669636249364569	0.67192975168578	-0.00540448601354954	-0.0184879460763072	-0.0159723996665839	0.00912465374546122	0.0051001527293489	-0.00168155439073385	0.55322265625	0.3876953125	0.266357421875	0	0	0	-0.589518410285473	-0.342384250874679	-0.656144945526733	0.32359678482209	-0.095506329574589	-0.0209691509345857	0.995207935921068	0.828336428064279	-0.556116291211582	0.0677748669551372	0.552030164894004	0.830839915602373	0.0704821373749469	43.8782098312864	-84.3885832812028	-167.616755211059
24478	1652177576084	9.71393393319337	0.672585453866446	0.651620968299966	-0.0111572731568525	-0.0362501715348094	-0.0537911663551753	0.0115221686254761	0.00606910912525401	-4.76517051765437E-05	0.5615234375	0.387939453125	0.25927734375	0	0	0	-0.589482433223602	-0.342421262496776	-0.656142771981812	0.323627567872269	-0.0955513164677241	-0.0209891409386912	0.995203196279002	0.82839441695508	-0.556025752606388	0.0678089403851296	0.551935354800668	0.830900005055456	0.0705162798217925	43.8787343307192	-84.3858067299192	-167.610970247494
24479	1652177576084	9.72312836376839	0.652155706200567	0.661865686769785	-0.0237122179692746	-0.0170794237205105	-0.045305706352174	0.0135504254752092	0.00883169090771702	0.00120228706423583	0.552734375	0.400634765625	0.258056640625	0	0	0	-0.589432740225224	-0.342448915812199	-0.656144159161984	0.323686000944195	-0.0955928350866762	-0.021068152175385	0.9951975396091	0.828470563512751	-0.555912225703608	0.0678094588248944	0.551813859261396	0.83097396486122	0.0705955696192657	43.8467844367905	-84.38249476097	-167.5710137978
24480	1652177576154	9.71942185763663	0.684721659341851	0.673409530948206	0.0100446437756984	-0.0252772469897154	-0.0459711519759551	0.0159936022923544	0.00774544771392714	0.00105689805460997	0.552978515625	0.399169921875	0.261474609375	0	0	0	-0.589406256053821	-0.342516492276027	-0.656104292248725	0.323743533582284	-0.0955807795765488	-0.0210563172440112	0.995198947989626	0.828581770640412	-0.555745153965166	0.0678201533958203	0.551648949911026	0.831086009597294	0.0705654356870887	43.8635199596598	-84.3833191829557	-167.57626076117
24481	1652177576157	9.72303443051342	0.652108095265417	0.663290982816073	-0.0232938975710016	-0.0162317809329557	-0.0453032543330476	0.0204649798356597	0.00942209141748159	0.00216130466177983	0.560302734375	0.395263671875	0.27099609375	0	0	0	-0.589345356480923	-0.342563344089024	-0.656093551875884	0.323826585177632	-0.095616787053135	-0.0211448366431757	0.995193612277012	0.828697301200947	-0.555573396037479	0.0678158137726731	0.551469140583499	0.831198590890718	0.0706448121618373	43.8295075420087	-84.3801964601904	-167.53021443281
24482	1652177576087	9.70816255404982	0.66044970277413	0.634097668953613	-0.0316730099328612	-0.0451216786318931	-0.0616025700228793	0.0266870622839849	0.0115426834721079	0.000573337701586913	0.5595703125	0.390625	0.264892578125	0	0	0	-0.589267203045678	-0.342647166732658	-0.65607691494902	0.323913822205508	-0.0956879983978841	-0.0212032872197108	0.99518552419822	0.82884623750803	-0.555345509828601	0.0678622080542204	0.551232910421166	0.83134937620972	0.0707141650896107	43.8209964411348	-84.3754662119568	-167.505839410308
24483	1652177576088	9.71921546925386	0.684987164238057	0.676112986555838	0.00988431145076684	-0.0248365668321711	-0.0459698578143879	0.0346143592231371	0.0161647514204615	-0.00192935780590728	0.548095703125	0.394775390625	0.26123046875	0	0	0	-0.589154070182145	-0.342741549681237	-0.656068587299137	0.324036603594764	-0.0957955222371637	-0.021325315476782	0.995172572390902	0.829035631537729	-0.555057019305747	0.0679089608244655	0.550929341712844	0.83153889640788	0.0708514234198327	43.7852049708593	-84.3678996990568	-167.449865256878
24484	1652177576089	9.73909975003679	0.646149990735973	0.636890765969062	-0.0466653806336649	-0.0367797608232613	-0.0315998426180926	0.0361825271812324	0.0148622781282179	-0.000730240228757604	0.560546875	0.396484375	0.257080078125	0	0	0	-0.589059469229888	-0.342846031992185	-0.656040787191541	0.324154323739357	-0.0958658322233655	-0.0214035121692389	0.995164123086711	0.829230318700798	-0.554761145496589	0.0679496136463407	0.550624028498117	0.831734309208256	0.0709310801156324	43.7701731216587	-84.3629690282124	-167.414254276989
24485	1652177576159	9.71342447756488	0.673465162434047	0.658272959796992	-0.0107564450807951	-0.0345561192735912	-0.0537845706734234	0.0382110514093305	0.0176325891578268	0.000514905864582418	0.55615234375	0.392822265625	0.25390625	0	0	0	-0.588939875085659	-0.342942503258256	-0.656026609253919	0.324298243818643	-0.0959609451804652	-0.0215515244977288	0.995151761688586	0.829441584619652	-0.55444217703021	0.0679744807530291	0.550289155538899	0.83194314957323	0.0710805259860991	43.7204078543765	-84.3557631536498	-167.342173432462
24486	1652177576090	9.72253335973692	0.653173715977957	0.669557931373803	-0.0224664436789358	-0.0141678549535736	-0.0452981041749769	0.0435123385944563	0.0215979552923157	0.00204601762147906	0.561279296875	0.39697265625	0.265380859375	0	0	0	-0.588839650707466	-0.343090747651569	-0.655955106163911	0.324468031288277	-0.0959767248532391	-0.0216220518047676	0.995148710074126	0.829723795837219	-0.554018471095595	0.0679849711802243	0.549860792299216	0.832223540018336	0.071113209261195	43.7116680427073	-84.3539856758225	-167.304111729481
24487	1652177576163	9.73508445326751	0.679437368620569	0.65222241392592	-0.0125571069038214	-0.044531192386657	-0.0322600887368836	0.048123739618912	0.0171102660323392	-0.00218384585852722	0.5625	0.396728515625	0.262451171875	0	0	0	-0.588701521667317	-0.343229001201534	-0.655925867605524	0.324631525466527	-0.0960897821197236	-0.0217495594120803	0.995135021209466	0.829987300562866	-0.553616450814946	0.0680434147543339	0.549443204231841	0.832487706847641	0.071248742241567	43.6817683436412	-84.3460191582591	-167.246221416482
24488	1652177576092	9.71304059281236	0.674358014820464	0.663006399192987	-0.00937370491953544	-0.0326384033110444	-0.0537765423779124	0.0546236369674161	0.0215688785030847	0.000160022764835	0.55859375	0.3994140625	0.267333984375	0	0	0	-0.588569692695491	-0.343390668377683	-0.655863200615083	0.324826150102488	-0.0961473780998636	-0.0218643565762818	0.995126942453086	0.830301717222489	-0.55314164216145	0.0680689509565178	0.548957867292115	0.83280026033764	0.0713371314229279	43.657026647363	-84.3413228047764	-167.188549202641
24489	1652177576092	9.74961390306711	0.671838827957363	0.685314901280531	-0.00372166176190892	-0.0145400668588404	-0.0159649610377208	0.0218029170216027	0.0137455820147529	0.000842470458048581	0.565185546875	0.3984375	0.26416015625	0	0	0	-0.588490721568331	-0.343439022271002	-0.655864025610973	0.324916433131492	-0.0962159642181869	-0.021980643579589	0.995117751593947	0.830423355703527	-0.552957898925294	0.0680779870311923	0.548761823136102	0.832919211763033	0.0714566172190453	43.6129359621949	-84.3359846818002	-167.131550216374
24490	1652177576093	9.72208126705225	0.65414808589449	0.675147801012435	-0.0215805123340367	-0.0128529584238805	-0.0452942877949685	0.00783555767276001	0.00874517533907635	0.001042488915702	0.5546875	0.38427734375	0.260009765625	0	0	0	-0.588468426185673	-0.343467902928581	-0.65585109100274	0.324952392622237	-0.0962217078232824	-0.0220007298871392	0.995116752360247	0.830480795013841	-0.552871484373853	0.0680791515769125	0.548673884977908	0.83297604386362	0.0714694220808014	43.608298293711	-84.3354046212407	-167.120925975968
24491	1652177576093	9.7128112920706	0.674488243713707	0.666225169019225	-0.00905150642169297	-0.0319856897326019	-0.0537740770622008	0.0057610110972915	0.00803771602454992	0.00157214955675177	0.559814453125	0.40234375	0.263427734375	0	0	0	-0.588435544093897	-0.34347068054615	-0.655861444140284	0.324988104616624	-0.0962526846092271	-0.0220736216695962	0.995112142389944	0.830515048819495	-0.552821246925718	0.0680692487974324	0.548616600541643	0.833007457453943	0.0715430041041685	43.5746920010822	-84.3327292748669	-167.083703956379
24492	1652177576166	9.72198803365727	0.653988662586283	0.676643129965819	-0.0209628768476773	-0.0122990693927703	-0.0452922295315936	0.00456285185731212	0.00755035058061131	0.000755717768488434	0.556396484375	0.391357421875	0.263671875	0	0	0	-0.588435221576899	-0.34347695000081	-0.655847286760823	0.325010632555849	-0.0962241574667848	-0.0220868126997769	0.99511460858766	0.830542553420913	-0.552783347087576	0.0680414442801297	0.548579965435193	0.833032258611527	0.0715351496517734	43.5661436701199	-84.3341603493974	-167.072541608827
24493	1652177576167	9.70187837965522	0.693286983107192	0.717889761181635	0.0357640538876877	7.2501813174617E-05	-0.0596787246703396	0.00382537090856203	0.011136971019061	-2.00838670144109E-05	0.558837890625	0.395751953125	0.25244140625	0	0	0	-0.588392867386122	-0.343472862409014	-0.655872422844184	0.325040907195073	-0.0962844845178834	-0.022176769886692	0.995106772622174	0.830564699415325	-0.552749602876725	0.068045254094263	0.548535849444916	0.833052259703444	0.0716404527953934	43.5256598548438	-84.3296145745247	-167.029525192025
24494	1652177576168	9.73109251094258	0.633536187617647	0.688015847442773	-0.0326660700915932	0.00777266002958618	-0.0368105289160656	0.00493160042226761	0.00575779330213042	0.00114341343583595	0.55517578125	0.39208984375	0.25341796875	0	0	0	-0.588404982306929	-0.343501899698347	-0.655833166883558	0.325067499014424	-0.096221395761781	-0.0221436362302906	0.995113612796125	0.8306165530879	-0.552675131976268	0.0680172054070915	0.548468399029543	0.833102549431651	0.0715720434000193	43.5411971059181	-84.3335824724348	-167.040044728428
24495	1652177576170	9.71816445218498	0.686605112823524	0.689447944747018	0.0132041344466267	-0.0203764835519642	-0.0459634583062929	-0.00193551765864705	0.00309859260467194	-0.00159226845812811	0.557373046875	0.39599609375	0.2646484375	0	0	0	-0.588396121314231	-0.343496794617362	-0.655846488714986	0.325062055229753	-0.096249329344356	-0.0221572518003659	0.995110608321214	0.830605978347274	-0.552689224674814	0.0680318283020616	0.548479512228606	0.833092838236537	0.0715999130199328	43.5362087948666	-84.3318392737895	-167.035981580584
24496	1652177576171	9.74372694608738	0.659549292322051	0.669912810026002	-0.0221344173212831	-0.0218142384893441	-0.0237631397875955	-0.00198275608141739	0.00515951466300262	0.000182121728843249	0.554443359375	0.3916015625	0.258544921875	0	0	0	-0.588410679718901	-0.343505555244949	-0.655828870646484	0.325061990911208	-0.0962151481151654	-0.022125402280992	0.99511462246672	0.830614751276588	-0.552677271161403	0.0680218266684901	0.548472223758788	0.833101614759862	0.0715536110172005	43.5505102546014	-84.3341684040974	-167.049544073682
24497	1652177576173	9.72176819463503	0.654030040526497	0.679754585817586	-0.01950146103638	-0.0105483211239529	-0.0452871547278431	-0.00235143927762115	0.00695292653234078	-0.000205925276615856	0.553955078125	0.396484375	0.260498046875	0	0	0	-0.588392541107046	-0.343488929658109	-0.655851566415706	0.325066601794132	-0.0962518439352162	-0.0221782316248765	0.995109897740478	0.830603528279572	-0.552694119200684	0.0680219774080859	0.548482781269017	0.833089032842813	0.0716191455438401	43.5243818046296	-84.3314270724307	-167.024449240993
24498	1652177576174	9.72888791613913	0.667732934545442	0.641070417244847	-0.0300132826156265	-0.0504037366073101	-0.0400389353687949	-0.00442616170626135	0.00624508487693878	0.000323506250039812	0.554931640625	0.398681640625	0.257568359375	0	0	0	-0.588399418363524	-0.343486429039012	-0.655850857287171	0.325058226370564	-0.0962465478765789	-0.0221650027421264	0.99511070473354	0.830593862991401	-0.552708445069701	0.0680235952420528	0.54849834711042	0.833079880564928	0.0716063950709882	43.5301562033771	-84.3318952039961	-167.031237744131
24499	1652177576174	9.70693155946805	0.662252828051624	0.650841510830399	-0.0273778051760957	-0.0391345506452534	-0.061563698108861	-0.00437875182382743	0.00418435834814614	-0.00145102948789913	0.557861328125	0.396240234375	0.26953125	0	0	0	-0.588391655685	-0.343471526996341	-0.655870661000491	0.325048066756049	-0.096278027636839	-0.0221874199003793	0.995107159954406	0.830570541700508	-0.552742128881913	0.0680346545402761	0.548528136610771	0.833056935243477	0.0716451393261326	43.5193313819444	-84.329839187104	-167.022666315516
24500	1652177576176	9.73434942287534	0.680066158548056	0.662457322422303	-0.00915698381452387	-0.0396421792065962	-0.0322352761865172	-0.00437873818350524	0.00418449609039713	-0.00145109915353908	0.549560546875	0.39453125	0.2685546875	0	0	0	-0.588388713373354	-0.343480693076192	-0.655878027101586	0.325028843372521	-0.0963099459015412	-0.0221582269491818	0.995104721775005	0.830558879219936	-0.55275452891964	0.0680762727222232	0.548540192209619	0.833049484566971	0.0716394709174959	43.5390910992034	-84.328425443327	-167.043314648234
24501	1652177576101	9.69046907775225	0.669146904093133	0.681419305359983	-0.0039249250452917	-0.0171515845232673	-0.0752867237653589	-0.00682214948525458	0.00527010066548184	-0.00130984923897155	0.553955078125	0.38916015625	0.26123046875	0	0	0	-0.588381476202892	-0.343455726496105	-0.65590507681632	0.325013742178566	-0.0963466117127812	-0.0221903523277547	0.99510045657463	0.830522301792214	-0.552808462664234	0.0680845785223643	0.548589132810001	0.833012840159367	0.0716908047966776	43.5220879875167	-84.3259531716305	-167.029935767655
24502	1652177576102	9.74348720930153	0.659719099120815	0.673224302689726	-0.0216538677696783	-0.0205446452266091	-0.0237593180714484	-0.00650101048753302	0.00553769925896263	0.000852507662724888	0.5595703125	0.393798828125	0.257568359375	0	0	0	-0.588385676274405	-0.343397432039926	-0.655945104480159	0.324986952864279	-0.0963715528462051	-0.0222469409390845	0.995096777917035	0.830447462065907	-0.552923368272752	0.0680643927924816	0.54869803767674	0.832935064958108	0.0717609992469921	43.4856067883144	-84.323821744384	-167.001233398908
24503	1652177576103	9.70882636748174	0.628243854778408	0.701913697885678	-0.0289514754140088	0.0211001500702142	-0.0583345289272845	-0.015810844188332	0.00396526643034958	-0.00174426464528065	0.55810546875	0.39794921875	0.266357421875	0	0	0	-0.588396413319789	-0.343345895783193	-0.655984849941689	0.324941738298153	-0.0964050550083664	-0.0222667276608089	0.995093090222274	0.830360702088412	-0.553052925121224	0.0680703051418042	0.548823441368965	0.832848518551926	0.0718065132824903	43.4699532628803	-84.3216858813525	-166.994432683843
24504	1652177576179	9.73423566106654	0.680016100541835	0.664178110810039	-0.00843209837027153	-0.0389702758983583	-0.0322319240905973	-0.0299178195863229	-0.00484278560295442	0.000570431831245067	0.55810546875	0.39892578125	0.256103515625	0	0	0	-0.58849061377702	-0.343275915934859	-0.655983131790435	0.324848539848717	-0.0963044473090073	-0.0221610161282751	0.995105191822789	0.83021963398177	-0.553270143394481	0.068025787606078	0.54905447159611	0.832707054006637	0.0716808860708614	43.5013317700485	-84.3286979665418	-167.041023874534
24505	1652177576179	9.7287367670742	0.667533268473835	0.643567297176482	-0.0291913482190634	-0.0490724466114541	-0.0400296700255414	-0.0311629780501462	-0.00326625440867781	0.00152690271562009	0.55322265625	0.39697265625	0.2705078125	0	0	0	-0.588555861041888	-0.343176211571467	-0.656022301183306	0.324756565129724	-0.0962703436767703	-0.0221383569804999	0.995108996079605	0.830051839742652	-0.553526522433197	0.0679877364151048	0.54931408526288	0.832537255690828	0.0716641724893949	43.491996058443	-84.3309040702432	-167.049395939696
24506	1652177576182	9.73796966861459	0.646921714729588	0.653178763098268	-0.0418194687040293	-0.0291963444988136	-0.0315523472959516	-0.0273343259019805	-0.00211423208733218	-0.00169448554310027	0.5546875	0.39208984375	0.264892578125	0	0	0	-0.588605114940874	-0.343133577191217	-0.656049366792723	0.324657658465449	-0.0962828469303458	-0.0220425452359125	0.995109913319383	0.82992325980675	-0.553713506007383	0.0680348153282583	0.549506138472288	0.83241544883822	0.0716067337388002	43.5347395996663	-84.3314361092902	-167.105185269466
24507	1652177576183	9.73428966153222	0.679520503834036	0.663893834909747	-0.00847112182487224	-0.0381706408353923	-0.0322288043509076	-0.0216181839514968	-0.00200409167438277	-0.00154826623292342	0.5517578125	0.39599609375	0.265625	0	0	0	-0.588645233053847	-0.343072490584701	-0.656080925622259	0.324585697222832	-0.0962818295227006	-0.0220129970062141	0.995110665839014	0.829804941704595	-0.553890782724755	0.0680349875813303	0.549684971621378	0.832298281132048	0.071596111613985	43.5390564313207	-84.331872640644	-167.121762653284
24508	1652177576105	9.70683394262308	0.661777032034579	0.652778476697572	-0.0267416905207703	-0.0369958654046737	-0.0615535841411745	-0.0253067611544989	0.000657430064700786	-0.000449103099559596	0.560791015625	0.40625	0.255859375	0	0	0	-0.588688978612325	-0.342982598230879	-0.656134236955898	0.324493585245495	-0.0962983991898055	-0.0220025510355985	0.995109293525795	0.829642852772947	-0.554133700890641	0.0680336562298943	0.549926681618783	0.832136845287581	0.0716164475423475	43.5303713003497	-84.3310765965438	-167.129811354753
24509	1652177576184	9.74350302600806	0.658905534087954	0.673791881933977	-0.0210551221470331	-0.0188655716253171	-0.0237546319376314	-0.0318515157222948	-0.00172702753133062	-0.00102913136728502	0.555908203125	0.388427734375	0.271484375	0	0	0	-0.588745440813902	-0.342885701651075	-0.656183656576514	0.324393604076853	-0.0962951911097493	-0.0219787754516754	0.995110129382061	0.82946834972106	-0.55439637047456	0.0680214761355376	0.55019041520201	0.831962497853287	0.0716164030481901	43.5252665435815	-84.3315614423034	-167.142842175443
24510	1652177576186	9.70686732716241	0.661378134772649	0.65268633999425	-0.0263682868574878	-0.0361993497824543	-0.0615495778082593	-0.0451278375514337	-0.00824477404336285	0.00170413682808807	0.554443359375	0.38134765625	0.26318359375	0	0	0	-0.588865356722337	-0.34277908886008	-0.656202656954515	0.324250151732215	-0.0961988615078211	-0.0218461612920705	0.995122366486354	0.829249083046265	-0.554728670683779	0.0679857351827389	0.550537680192309	0.831744460250989	0.0714801757850568	43.5647043483121	-84.3386644203463	-167.205484672622
24511	1652177576187	9.72166613696373	0.652749992697444	0.682439268582842	-0.0180816979367483	-0.0068457506392304	-0.0452811264132382	-0.0461856703804018	-0.00491332654447263	-0.00123444723964125	0.560546875	0.390380859375	0.26416015625	0	0	0	-0.588955159895003	-0.342641103260846	-0.656267417479273	0.324101790714473	-0.0961796977774486	-0.0217943988700058	0.995125353869217	0.828995381900373	-0.555110207223725	0.0679655399734913	0.550922973312326	0.831491227863487	0.0714577879784842	43.565166639073	-84.3403997840774	-167.232345583938
24512	1652177576107	9.72882007203791	0.666499020720034	0.64337990430074	-0.0271663445232738	-0.0476954534145174	-0.0400170136364775	-0.0296839379952987	0.00486230620831589	-0.00190080449518649	0.560302734375	0.394287109375	0.26611328125	0	0	0	-0.589061140908673	-0.342462202763295	-0.656307891944815	0.324016300393725	-0.0960408187010705	-0.021846558378639	0.995137623160856	0.828771261890016	-0.55546615351535	0.0677904695668419	0.551284279304661	0.831252115898583	0.0714532238997673	43.4932029855328	-84.3475325561634	-167.184899666756
24513	1652177576188	9.72877625343436	0.666504077025986	0.644036926632496	-0.027118884180936	-0.0476669578755244	-0.0400167427893834	-0.0239681404428731	0.00496886481742349	-0.00175300516783951	0.559814453125	0.395263671875	0.271240234375	0	0	0	-0.589082367223999	-0.342381446970779	-0.656364138264145	0.323949112356759	-0.096077874458076	-0.0218754133967072	0.995133412326378	0.828638906497206	-0.555663834746927	0.0677883868627483	0.551476748991952	0.831119226731678	0.0715138187919301	43.468074075067	-84.3450835701719	-167.173318550893
24514	1652177576108	9.72156740479855	0.652695431458888	0.683896387594638	-0.0157406101092111	-0.00718630223542626	-0.0452773177080754	-0.0227225733084846	0.00339796662510219	-0.00271390939401034	0.5595703125	0.391357421875	0.273681640625	0	0	0	-0.589128343936635	-0.342284059988954	-0.656411104697334	0.323873244152679	-0.0960678321849935	-0.0218895051179387	0.995134071964662	0.82848647078674	-0.555895487998994	0.0677522999291691	0.55170747624317	0.830963931821383	0.0715388332959118	43.4428372580632	-84.3454671404256	-167.164032207379
24515	1652177576108	9.73422934602029	0.678733894192121	0.665580739020591	-0.0057631715842079	-0.0375518323053388	-0.03222443832599	-0.0203268413689896	0.00436915062734486	-0.00107823456271687	0.55517578125	0.395263671875	0.261962890625	0	0	0	-0.589146813346411	-0.342213616707489	-0.656458476381457	0.323818068752633	-0.0960957813461688	-0.0219181085423447	0.995130743834897	0.828374355610214	-0.556063397778589	0.0677452922223669	0.551870933982605	0.830850825460778	0.0715917457274985	43.4187291577526	-84.3435321450139	-167.151429803497
24516	1652177576109	9.7122607871442	0.673254353820727	0.67543507381292	-0.00279288160250634	-0.0264142907470004	-0.0537536086584858	-0.014103322919985	0.00648952778977933	-0.00265826989344077	0.551513671875	0.394287109375	0.262939453125	0	0	0	-0.589165543969476	-0.342137260856866	-0.656506159381225	0.323768002166715	-0.0961164851442519	-0.0219604044560809	0.995127811851141	0.828262346075929	-0.556232751012669	0.0677245359797811	0.552035422193462	0.830736340445634	0.0716521130650254	43.3858554857889	-84.3418280178549	-167.130141249884
24517	1652177576190	9.73411755810196	0.678938457018709	0.667005509097035	-0.005337436947234	-0.0376227323802117	-0.0322244692022764	-0.00391800539836737	0.0082678426543614	-0.00139733540950229	0.566650390625	0.3935546875	0.262939453125	0	0	0	-0.589144080961311	-0.342114747300852	-0.65653771640423	0.323766858227097	-0.0961685467640145	-0.0220205507318372	0.995121452868324	0.828240064259324	-0.556265042386059	0.0677318136103554	0.552059785321308	0.830713126154091	0.0717335030950528	43.3564585563753	-84.3381338076266	-167.102822986634
24518	1652177576191	9.71214904755594	0.67340536806102	0.676889671166104	-0.00175306845991517	-0.0256070337422705	-0.0537512148769199	0.00493012561818695	0.00574962769798944	0.00115993711887261	0.551513671875	0.391845703125	0.26220703125	0	0	0	-0.589159328629212	-0.34214042867608	-0.656493611429444	0.323801406276828	-0.0960878695646503	-0.0219966586737951	0.995129774617218	0.828297559696634	-0.556185152716995	0.067684773012654	0.551987566819333	0.830767249537656	0.0716624251090499	43.3649415878099	-84.3429687598441	-167.105893142772
24519	1652177576208	9.71210864033509	0.673438982151377	0.67743578252707	-0.00169138603259705	-0.0255945717518996	-0.0537511712996181	0.0135968813995872	0.0067808988158535	-0.000560312993304186	0.56396484375	0.388916015625	0.258056640625	0	0	0	-0.589116215225576	-0.342175407228867	-0.656488998310323	0.323852235971223	-0.0961236284294636	-0.0220486982867318	0.995125169494479	0.828373021686494	-0.556071439888396	0.0676955735807973	0.551868086592749	0.830841987771626	0.0717161512921028	43.3480707928012	-84.3402926658661	-167.081057716092
24520	1652177576113	9.73396872136932	0.679094896421224	0.669015314408343	-0.00272356737225088	-0.0359699016170042	-0.0322171737127039	0.0152549260920756	0.0113410155236507	0.000306332545336206	0.552490234375	0.390869140625	0.26220703125	0	0	0	-0.589116927360092	-0.342216839657049	-0.656428808444082	0.323929158918472	-0.0960222918003503	-0.0220613974790084	0.995134671398139	0.828484329757576	-0.555915069315027	0.0676176830023733	0.551718619246758	0.83094628613993	0.0716577611058912	43.3384398302127	-84.3458157249369	-167.060684113245
24521	1652177576114	9.71917055345236	0.687513871473585	0.639714222953604	-0.0109190586224906	-0.0652637735883525	-0.0484768334822672	0.0205101386518752	0.00737093975202109	0.000408481293210849	0.55322265625	0.39599609375	0.26318359375	0	0	0	-0.58906304644776	-0.342270655571157	-0.656411732045387	0.324004882181966	-0.0960511272638692	-0.0221232216476178	0.995130516070767	0.828599201969287	-0.555743269314282	0.0676223417794329	0.551541062340059	0.831059553627659	0.0717110512891506	43.3191495971164	-84.3433997456482	-167.029411966444
24522	1652177576218	9.72832503432392	0.667234890621514	0.650067918217459	-0.0234268931434245	-0.0454073563686194	-0.0399964348806936	0.0242909555642993	0.0105813558487272	-0.00103055036902362	0.5576171875	0.394287109375	0.25732421875	0	0	0	-0.58899571450257	-0.342364970492789	-0.656387529462624	0.324076667538768	-0.0961167237091489	-0.0221367654924007	0.995123881251452	0.828742767156606	-0.555521081072878	0.0676886576113948	0.551313886374206	0.831207731013828	0.0717405505541585	43.3354201929787	-84.3395442775826	-167.030297778302
24523	1652177576117	9.71903623450475	0.687954350683529	0.64127948475382	-0.0108266650636154	-0.0645542777965753	-0.0484720141216819	0.0300067215563992	0.0106884380749487	-0.000880897710344713	0.552978515625	0.392333984375	0.26318359375	0	0	0	-0.5889132433019	-0.342448617967069	-0.656366021657411	0.32418171066503	-0.0961748206678635	-0.0222186669041197	0.995116442789741	0.828908771989079	-0.555270325045478	0.0677134687004445	0.551054127639982	0.831373079288049	0.0718202718321634	43.3141383826286	-84.3352249259022	-166.991538904174
24524	1652177576118	9.70623897761505	0.662226894051645	0.661115972856798	-0.0200311117871962	-0.0330573410316955	-0.0615233426363222	0.0341082846391353	0.014165492283322	-0.00015879646358733	0.5576171875	0.39892578125	0.260498046875	0	0	0	-0.5888429548785	-0.342583874497054	-0.656296561890399	0.324307086378611	-0.0961777764291445	-0.0222270496688091	0.995115969917158	0.829139453479092	-0.554922405318405	0.0677413519205805	0.550706457203416	0.831605124045455	0.0718005268490857	43.3337760191672	-84.3349504501295	-166.987184343241
24525	1652177576119	9.74278523907439	0.659827920659836	0.683202945542721	-0.0142525268096463	-0.0149196706462913	-0.0237355544490505	0.0301477387487849	0.0145074583504717	-0.00300200434427438	0.560302734375	0.38720703125	0.259765625	0	0	0	-0.588744350501035	-0.342668405729896	-0.656288950232786	0.324412187301885	-0.0962736449662424	-0.0223280917568063	0.995104437535786	0.829304443631498	-0.554670192889076	0.0677872915334953	0.550441209447445	0.831770661564169	0.0719169069352913	43.3068464825828	-84.3282606541038	-166.942624590815
24526	1652177576121	9.72075554871032	0.654640066142392	0.693510212526257	-0.0102002494500819	-0.00259993365629638	-0.0452676629015052	0.0287618400754213	0.0122735600110049	7.25106382116928E-05	0.551513671875	0.400146484375	0.26171875	0	0	0	-0.588714007888309	-0.342776247506594	-0.656199909560436	0.324533418547702	-0.0961877543236536	-0.0223232428436379	0.995112852267076	0.829511956757726	-0.554365008782081	0.0677447461727632	0.550143462666004	0.831974224280408	0.0718405221227649	43.3192827978283	-84.3331411623749	-166.934105760286
24527	1652177576122	9.71866202825735	0.689091785040483	0.645714239893867	-0.00843256511013478	-0.062254001747538	-0.0484547161484698	0.0349382845677845	0.0164606570167292	0.000265989590085958	0.55029296875	0.390380859375	0.2666015625	0	0	0	-0.588607423932406	-0.342863852185734	-0.656183700744306	0.324666952789352	-0.0962653405162688	-0.0224579075922152	0.995102319664599	0.82970674277056	-0.554071497261672	0.0677605853227196	0.549836071221556	0.832166100192016	0.0719713587120329	43.2739340235643	-84.3270329570554	-166.868238464909
24528	1652177576123	9.7222581541821	0.65676581317858	0.636275210755258	-0.0425406347618886	-0.0527523001323922	-0.0477552867026123	0.0325441000446996	0.0154923538963122	-0.00137258998153196	0.553955078125	0.396240234375	0.26416015625	0	0	0	-0.588482053067814	-0.342979794928234	-0.6561910399524	0.324756913050771	-0.0964436412856508	-0.0225302452527434	0.995083419671143	0.829880060773322	-0.553795615393442	0.0678933067530713	0.549543181912425	0.832347766513403	0.0721074669761559	43.2758615996577	-84.3160886282437	-166.850919231164
24529	1652177576123	9.72765044470149	0.669202030603666	0.65809137121823	-0.0216523663440998	-0.0425619709438156	-0.0399795357117334	0.0382115118212904	0.0176666777663864	0.0005515310243331	0.561279296875	0.3955078125	0.26513671875	0	0	0	-0.5883661521419	-0.343075597106176	-0.656172683353611	0.324902778234502	-0.096526911418474	-0.0226765177200609	0.995072022979293	0.830092793572643	-0.553474638731486	0.0679100753925102	0.549207164402264	0.832557265192697	0.0722488113679509	43.2269272692496	-84.309499340051	-166.779558825339
24530	1652177576124	9.72204353204465	0.657225209056267	0.639074088515954	-0.0420674142219822	-0.0521629071944148	-0.0477500703569778	0.0349397495650429	0.0164769399493096	0.000257861028018189	0.556884765625	0.390380859375	0.26025390625	0	0	0	-0.588274598155897	-0.343180263605296	-0.656136556528368	0.325030957023194	-0.0965757482822092	-0.0227609224777567	0.995065357276443	0.830297849147517	-0.553164367296773	0.0679313215988606	0.548888519232038	0.832761144123045	0.0723206076726354	43.2074719939458	-84.3056489162492	-166.738560330467
24531	1652177576125	9.72019378251598	0.655842309656215	0.700215855109418	-0.0103204402700428	-0.00144696604716457	-0.0452675503054536	0.0292243018430798	0.0163718404767879	0.000103822137434121	0.556396484375	0.39404296875	0.263427734375	0	0	0	-0.588176774723844	-0.343249950626695	-0.656130460244773	0.32514669336964	-0.0966554189324915	-0.0228940013679187	0.995054568700808	0.830460596902832	-0.552918198371121	0.0679460293308232	0.548628222918559	0.832920963003933	0.0724551061404551	43.1605397830759	-84.299422420017	-166.674386299912
24532	1652177576126	9.71461831800189	0.643739437558007	0.680873815051989	-0.0299227991019503	-0.0110505343976171	-0.0530366949125121	0.0135500173336199	0.00886401869766262	0.00120188527320441	0.549560546875	0.390625	0.25927734375	0	0	0	-0.588178877378366	-0.343272342471231	-0.656086562609921	0.325207825033372	-0.0965709574859767	-0.0229178860604465	0.995062219496229	0.830540050179529	-0.552807938862755	0.0678719955364331	0.54852281193951	0.832993489307589	0.0724194142004775	43.1434593546843	-84.3038372846794	-166.649731876617
24533	1652177576221	9.70536353560672	0.664073437779908	0.672026006501256	-0.0172982298332238	-0.0301796865699103	-0.061508780744731	0.00658763589830823	0.0103282280827376	0.00200576949058723	0.5546875	0.39453125	0.26220703125	0	0	0	-0.588141372337099	-0.343271799814269	-0.656098033303246	0.325253083449365	-0.0966003157042302	-0.0230111218991093	0.995057218090894	0.83058051160867	-0.552749806317906	0.0678503157796509	0.548456372687677	0.83302949520678	0.0725083951954134	43.0992246745445	-84.3009508554468	-166.601301851165
24534	1652177576128	9.74194344677447	0.661314197830014	0.693689158416493	-0.011211835375125	-0.011349615341609	-0.0237268092841578	0.00253588796169825	0.00478657374637522	-0.000487487386912197	0.556884765625	0.388427734375	0.26513671875	0	0	0	-0.588143828318137	-0.343294350819302	-0.656082670320934	0.325255831018281	-0.0965909631997862	-0.0229765208421493	0.995058925550707	0.830602335765564	-0.552715266168323	0.06786452950746	0.548424968112254	0.833053368059016	0.0724716518136798	43.1197016234281	-84.3019361070256	-166.619475195706
24535	1652177576222	9.71803265518091	0.689938349814596	0.654226433832271	-0.00686443697242473	-0.059797773771468	-0.0484381365368538	0.00529826253334669	0.00396803571164084	0.00153700072561145	0.550537109375	0.39404296875	0.26220703125	0	0	0	-0.588128557448053	-0.343301479454177	-0.656078243404775	0.3252848484783	-0.0965891345290439	-0.023013816229329	0.995058241186662	0.830635431753998	-0.552667723110046	0.0678466458066114	0.548375162280149	0.833083880587616	0.0724977882372923	43.1018603752907	-84.301541189639	-166.598294354336
24536	1652177576130	9.73815235201315	0.650756888199733	0.614472629381823	-0.0629450221603399	-0.0721467775601524	-0.0339601913202916	0.00148077728069679	0.00810911480986858	-0.00342866008512592	0.5595703125	0.393798828125	0.26220703125	0	0	0	-0.588129050349824	-0.34326663024282	-0.656100678982168	0.325275482837997	-0.0966001607982451	-0.0230567757695358	0.995056176316125	0.830597084815512	-0.552727761652494	0.0678270167012875	0.548431300738503	0.833042859995653	0.0725444813927064	43.0751852678422	-84.3003498059472	-166.57565953674
24537	1652177576224	9.72712984911795	0.669678168292498	0.665262881277826	-0.0186553916241724	-0.0406068714704645	-0.0399650359187174	0.00488033363765163	0.0078258700154421	0.00292153689765012	0.56982421875	0.39599609375	0.26318359375	0	0	0	-0.588104308385387	-0.34326159126422	-0.656106118309496	0.325314561521839	-0.0966075170407983	-0.0231345069278762	0.995053657970472	0.830628989830723	-0.552683832049218	0.0677942699952235	0.548381681772837	0.833069850841211	0.0726096048426022	43.0357360767313	-84.2988971132254	-166.533036457096
24538	1652177576131	9.72708573128788	0.669598945920537	0.665987292903304	-0.0163561205591608	-0.0397459729760526	-0.0399573780453011	0.00544022837931298	0.00777925269838213	-0.000586398116085932	0.5537109375	0.395751953125	0.26611328125	0	0	0	-0.588150342329643	-0.343277661484609	-0.656025137046997	0.325377690546925	-0.0964170666237457	-0.0231141398335786	0.995072603282507	0.830709636298748	-0.552579611240015	0.0676555496780214	0.548293032441662	0.833139550004432	0.0724792438863626	43.0285535517055	-84.3098346733924	-166.518851979238
24539	1652177576225	9.73252284508512	0.681838248145746	0.687018228857763	0.0045828740116478	-0.0295522132005628	-0.032196371278788	0.00373299615210229	0.00527556902992677	0.00032990742350397	0.554443359375	0.388427734375	0.260986328125	0	0	0	-0.588132264316337	-0.343280379073747	-0.656028377226125	0.325400966942602	-0.0964293007659163	-0.0231560033023077	0.995070444473586	0.830733069862361	-0.552545584111608	0.0676457250372823	0.548255375341505	0.833160955031995	0.0725180420262461	43.0091086079346	-84.3085872862142	-166.496979592176
24540	1652177576229	9.72699698873337	0.669685056425243	0.667195738063682	-0.0157082281861219	-0.0395639694934426	-0.039955576658711	0.00544031037386326	0.00777977265988981	-0.000586672404944351	0.555419921875	0.395751953125	0.258056640625	0	0	0	-0.588127192619685	-0.343264873212689	-0.6560350975843	0.325412942055357	-0.0964256448883301	-0.0231978099778999	0.995069824997271	0.830731434808022	-0.552551287922307	0.0676192090844382	0.54825849581167	0.833156009296956	0.0725512642391304	42.98481516967	-84.3082293952527	-166.473001786401
24541	1652177576229	9.75436171173908	0.687399894375963	0.67926750151738	0.00266526215320171	-0.0405747982523658	-0.0106548243471796	0.00539053969017698	0.00984298557406494	0.00118648461271084	0.561279296875	0.39111328125	0.261962890625	0	0	0	-0.588092984085803	-0.343262771873517	-0.656047577076993	0.325451821513065	-0.0964555078857663	-0.0232829022445594	0.995064943338659	0.830764613591203	-0.552503562639076	0.0676015537971491	0.54820296588322	0.833185285356264	0.0726346230295306	42.944539631436	-84.3054098918716	-166.42926347852
24542	1652177576135	9.72141364630911	0.657470875915221	0.64833612882285	-0.034790949945847	-0.0485497072515849	-0.0477028017626093	9.25443224964225E-05	0.00587379392901595	-0.000350748573341819	0.55859375	0.391357421875	0.253173828125	0	0	0	-0.588131522997138	-0.343290250010205	-0.655983939021448	0.325481470518528	-0.0963262480123264	-0.0232215990813348	0.995078897012681	0.830820869355615	-0.552427233194055	0.0675339549318829	0.548140435460702	0.833237606785524	0.0725062318099959	42.9665062000816	-84.3134728270632	-166.446183699613
24543	1652177576135	9.7213825533707	0.65741608697114	0.648857691575118	-0.0346348381907471	-0.0485050155621468	-0.0477020247147593	0.00285435777565693	0.00505571031890503	0.0016745749179475	0.558349609375	0.392578125	0.255615234375	0	0	0	-0.588118578035414	-0.343286353421421	-0.65598515091312	0.3255065275931	-0.0963240773277698	-0.0232687331863936	0.99507800607935	0.830841061319068	-0.552399960097812	0.0675086284125317	0.548110210590133	0.833254373009729	0.0725420354484521	42.9416812617587	-84.3129576731917	-166.419395972205
24544	1652177576234	9.72680959129162	0.669557150989754	0.670050067229691	-0.0112294024932597	-0.0362370426301745	-0.0399365014901569	0.00382572270615816	0.0111505542666098	-2.13642100689778E-05	0.56103515625	0.398681640625	0.2578125	0	0	0	-0.588165380429533	-0.34336712284588	-0.655862648688254	0.325583614864683	-0.0961135899916586	-0.0231629551580125	0.99510082671419	0.830989572900576	-0.552188657360377	0.0674093199273105	0.547921990386801	0.833397362721345	0.0723210084254517	42.9868135812086	-84.3261676759932	-166.450340389541
24545	1652177576255	9.72673235704201	0.669778593490744	0.670949292367057	-0.0110431745793661	-0.0361710738878973	-0.0399360448916077	0.000285419906583433	0.00762213714224978	-0.00424853613598724	0.557373046875	0.390625	0.26123046875	0	0	0	-0.588139122464584	-0.343368710953338	-0.655883928927542	0.325586505769823	-0.0961715997743723	-0.0231967685364182	0.995094434376108	0.830991057903986	-0.55218271119768	0.0674397148421748	0.547909559216165	0.83340036200127	0.0723806019296632	42.9761579965366	-84.3224643043542	-166.439173511988
24546	1652177576137	9.72666126858121	0.670018111972448	0.67174024593871	-0.00949786238551003	-0.0347798977893006	-0.0399293708464956	0.00299686676790999	0.00886751802428311	-0.000449854170978826	0.55712890625	0.3984375	0.26220703125	0	0	0	-0.588158128960698	-0.34342404437187	-0.655813371850237	0.325635935343663	-0.0960625059006173	-0.0231375147509167	0.995106351286758	0.831088088262416	-0.552042326720252	0.0673933161197313	0.547781511652609	0.833495005936113	0.0722598821694376	43.0041924293763	-84.3293702536909	-166.457741687516
24547	1652177576137	9.70464601464836	0.664641352912354	0.681756137490482	-0.00674511761292497	-0.0235135393891618	-0.0614774174535242	0.00387580242173986	0.00908847061490378	-0.00179481116321853	0.557861328125	0.39892578125	0.27001953125	0	0	0	-0.588125991651399	-0.343428156416989	-0.65582801189586	0.3256601574292	-0.0961065596144953	-0.0231960570934627	0.995100734666789	0.831112157308477	-0.552005126486434	0.067401204045231	0.547737264729282	0.833518016162827	0.0723298386481738	42.9798838324077	-84.3261143316586	-166.430736246668
24548	1652177576259	9.73381923514527	0.683969093421027	0.634132907293344	-0.0206335698029747	-0.0747174388304503	-0.0345910920501797	0.00419355442286198	0.009356875460905	0.000367837855059037	0.557861328125	0.394287109375	0.26708984375	0	0	0	-0.588070993319408	-0.34346727096607	-0.655845426829668	0.325683153844432	-0.0962059802365379	-0.0232293356692211	0.995090351340567	0.831161892508114	-0.551921434154128	0.0674732462801418	0.547644335138288	0.833572509434912	0.0724054811828899	42.9805420281589	-84.320100076113	-166.425512369181
24549	1652177576259	9.69905578795997	0.652542598161547	0.663016691527208	-0.027860637708518	-0.0330933507611056	-0.0692169986036859	0.00663727755301527	0.00827119475138894	0.000230976009571491	0.553955078125	0.386962890625	0.26025390625	0	0	0	-0.588040141208245	-0.343475968808616	-0.655849972496015	0.325720531676693	-0.0962298551440801	-0.023292289083379	0.995086571232979	0.831202917882807	-0.551860788190471	0.0674639145091706	0.54757787051894	0.833610904275519	0.0724661023575413	42.9526747173882	-84.3179121284106	-166.39334204856
24550	1652177576261	9.73559596894049	0.649832006872976	0.68490367603903	-0.02096087801441	-0.0150935006246113	-0.0314534777604383	0.00174993484516672	0.010443696396173	0.000503857321962366	0.548583984375	0.38818359375	0.259033203125	0	0	0	-0.588061385676238	-0.343402973929181	-0.655863715940917	0.325731469596215	-0.0961656327824661	-0.0233868467082677	0.99509056194529	0.831154961484809	-0.551946814422568	0.0673509023544939	0.547661940498638	0.833551299830924	0.0725164083462741	42.8849436403622	-84.320222000026	-166.331389451172
24551	1652177576261	9.7117016414206	0.678402024402024	0.6459103262367	-0.0165322863275148	-0.0635333570988258	-0.0561373381002905	0.00211792484695221	0.00864854873208121	0.000893824431812003	0.54638671875	0.39892578125	0.260498046875	0	0	0	-0.588038111921873	-0.34339365129043	-0.655875978695172	0.325758621914196	-0.0961849983518456	-0.023457401231163	0.995087029570548	0.831171618634292	-0.551924241003982	0.0673303242902483	0.54763325909673	0.833564264181028	0.0725839583615714	42.8496140227699	-84.3181773720559	-166.294362769355
24552	1652177576263	9.73548286514439	0.649791208243655	0.686548083027323	-0.0216113586134986	-0.0139692579832616	-0.0314532231310878	0.00216854586927158	0.00658497846503728	-0.000878929568771775	0.5556640625	0.40087890625	0.25732421875	0	0	0	-0.587990622882655	-0.343459138764447	-0.655891297606489	0.32574445985362	-0.0963151485534801	-0.0234044070493364	0.995075688523135	0.831207418796727	-0.551852733747715	0.0674743446982324	0.547556041968677	0.83361309609785	0.0726056948025021	42.9021043573668	-84.3116178378006	-166.341949639939
24553	1652177576144	9.74275668917199	0.663402521036955	0.647824900842389	-0.0322602027175432	-0.0544163087625581	-0.026110533401031	-0.000469231142069208	0.00592337789518521	0.00315489122668199	0.550048828125	0.3935546875	0.262451171875	0	0	0	-0.587983970796351	-0.343439796673053	-0.65589647229096	0.325766440542918	-0.0963021526051071	-0.023463927531139	0.995075544623843	0.831212309040392	-0.551850664554339	0.0674310116391232	0.547550904211986	0.833612792689597	0.0726479122954561	42.8671430299356	-84.3115346565054	-166.306743010465
24554	1652177576263	9.74817957689485	0.675415908080329	0.668957307598287	-0.011824207693692	-0.0425800094455635	-0.0183654014605761	0.00211803646747628	0.00864922342986838	0.000893534532574001	0.561279296875	0.397705078125	0.256591796875	0	0	0	-0.587937596504654	-0.343546480174103	-0.655869101088076	0.325792757461296	-0.0963769236041924	-0.0233870222718998	0.995070116014869	0.831322589636683	-0.551669790291499	0.0675514207066872	0.547370295646695	0.833734663828359	0.0726103971526311	42.9328733780207	-84.3083975224836	-166.360136544739
24555	1652177576265	9.72072910382456	0.657616990771661	0.658374174778289	-0.0298987665855153	-0.0414766715157708	-0.047653993115718	-0.000786416140806795	0.00565539732615732	0.000991798987548546	0.5517578125	0.39404296875	0.267822265625	0	0	0	-0.587928409912929	-0.343533838375057	-0.655877378189839	0.325806002841227	-0.0963812666597544	-0.0234309671897652	0.995068661557389	0.831324180578295	-0.551669900807846	0.0675309360847893	0.547367114670664	0.833733356846908	0.0726493734171097	42.9088744096556	-84.3075573000342	-166.336059490527
24556	1652177576147	9.72613477293849	0.669875011350299	0.679461921408861	-0.00861345174750817	-0.0303299127766936	-0.0399137276025065	0.000604593123712035	0.00789239161595453	-0.00208773954724081	0.55615234375	0.3955078125	0.261962890625	0	0	0	-0.587916262984068	-0.343578387963667	-0.655857691742628	0.325820575202315	-0.0963908409873614	-0.0233932169615124	0.995068622344179	0.831374504536271	-0.551589688198241	0.067566626972479	0.547288990370553	0.833787486877538	0.0726167180862717	42.9368174405823	-84.3075346487494	-166.358554953215
24557	1652177576148	9.70413773105046	0.664403625336803	0.689182484274366	-0.00588692624624368	-0.0190527587880421	-0.0614671254218972	-0.000418672362758262	0.00385988160515719	0.00138203544833081	0.560791015625	0.38818359375	0.26123046875	0	0	0	-0.587913108917882	-0.343569004569092	-0.655859219409799	0.32583308576184	-0.0963819531708547	-0.0234238233632198	0.995068763253083	0.831378709779367	-0.551586278644641	0.0675427134230711	0.547284167529599	0.833788883177274	0.0726370309238273	42.9187114401234	-84.3076160443841	-166.340163018113
24558	1652177576150	9.72977968582332	0.637202749360483	0.67004165256681	-0.0398465525285385	-0.0207240412392375	-0.0391732253988355	0.00175026310378195	0.010445871629425	0.000502881623589908	0.55126953125	0.38232421875	0.263427734375	0	0	0	-0.587953915959916	-0.343534687971458	-0.655822656021249	0.32586922947248	-0.0962388759808244	-0.0234597170547068	0.995081765698508	0.831389977298252	-0.551586326886731	0.0674034838833745	0.547292229433198	0.833787842120115	0.0725882217355067	42.8789608786899	-84.315131869538	-166.300445092383
24559	1652177576151	9.72053816274795	0.657633926033714	0.661170505275868	-0.0271264800849205	-0.0397999190811758	-0.0476389204168086	-0.000274678455421208	0.00767242075694687	-0.000743598941878068	0.555908203125	0.4013671875	0.253662109375	0	0	0	-0.587934988089201	-0.343525496828966	-0.655838056938388	0.325882073579144	-0.0962666478006172	-0.0235104140814473	0.99507788285689	0.831393049627348	-0.551582214296339	0.067399242601731	0.547282677921173	0.833789134794684	0.0726453656179265	42.8546819463993	-84.3128864273834	-166.275769589922
24560	1652177576153	9.74245460489666	0.66326146401564	0.652495504105917	-0.0284959638684402	-0.0498187662767234	-0.0260743652590509	0.00051185900292083	0.00201648378867551	-0.00173496345562161	0.55224609375	0.392822265625	0.2607421875	0	0	0	-0.587973488405351	-0.343565774149567	-0.655780439212966	0.325886101745842	-0.096170851242684	-0.0234043284257678	0.995089646605871	0.83143459531939	-0.551521615043816	0.0673826524080442	0.547236403282293	0.833832204673338	0.072499471530904	42.9050826779785	-84.3196921079724	-166.322270161408
24561	1652177576153	9.7112889005461	0.678165415218137	0.652332563019256	-0.0132276438062675	-0.0577101714601146	-0.0560961161620206	0.00368202396869706	0.00734376835883826	0.00210214841298828	0.558349609375	0.393310546875	0.26171875	0	0	0	-0.587954447458956	-0.343562021710899	-0.655782895167773	0.325919467593649	-0.0961721367134134	-0.0234671868143779	0.995088041965633	0.831462461386032	-0.551483275762785	0.0673525935642517	0.547193837159977	0.833855795504815	0.072549409902308	42.8726623075985	-84.318763296994	-166.287096577294
24562	1652177576155	9.72043016574119	0.657678715000785	0.66271190729657	-0.0248353389964675	-0.0377986102081305	-0.0476248728527757	9.31363869828495E-05	0.00587688968322587	-0.000353376756080361	0.5546875	0.400634765625	0.25634765625	0	0	0	-0.587974085134868	-0.343569510504658	-0.655756453919199	0.325929347872698	-0.0961130708101852	-0.0234406095399737	0.995094375144303	0.831480484016816	-0.551460103293736	0.0673198274984709	0.547176829113402	0.833871868034686	0.0724929333228094	42.881008984367	-84.3224299999392	-166.293940856217
24563	1652177576155	9.74235245621732	0.663162106464406	0.654119666960748	-0.0271550920859792	-0.0488651401360944	-0.0260657448911523	0.00492941339965646	0.00576876813496732	0.00114831456940337	0.5634765625	0.39697265625	0.261962890625	0	0	0	-0.587956765810575	-0.343575267019879	-0.655753411432572	0.325960643060372	-0.0961130014264755	-0.0234848017401629	0.99509333986517	0.831514412978213	-0.551411390135775	0.0672997759136622	0.547125279955415	0.833902837814908	0.0725257548595759	42.8595666293477	-84.3218304458787	-166.269068696319
24564	1652177576156	9.70383894420566	0.664369884935682	0.69340911317128	-0.000469144847717837	-0.0141274711021287	-0.0614569801337374	0.00216922343510319	0.00658678830713683	-0.000879513129549474	0.55517578125	0.392333984375	0.26171875	0	0	0	-0.587944122261077	-0.343722210902911	-0.65565873839649	0.326018971219454	-0.0960666790073224	-0.0233354675442397	0.995101326066344	0.831693281908034	-0.551133344274048	0.0673670665707473	0.546861479730972	0.834090818067071	0.0723535016613342	42.9560598384822	-84.3264570748261	-166.346771458651
24565	1652177576158	9.73137827398946	0.638891927199124	0.614445166419267	-0.0677167566351814	-0.0668960977633269	-0.0414853790147625	0.00097300588535717	0.00609783352194372	-0.00169813049667609	0.5546875	0.400390625	0.2626953125	0	0	0	-0.587927519045262	-0.34372380278595	-0.655667392212946	0.326029830746089	-0.0960915636259186	-0.0233648926003387	0.995098232936679	0.831703623035326	-0.551116993724084	0.0673731597777718	0.546841379953857	0.834100797878951	0.0723903594952958	42.9440916677821	-84.3246646925435	-166.333608111883
24566	1652177576267	9.72571163565917	0.669992607247473	0.685377054422012	-0.0028446837627788	-0.0241900038589531	-0.0398932192881833	0.000777219164578368	0.00434987104783486	0.00219984298302073	0.546142578125	0.395751953125	0.262451171875	0	0	0	-0.587913077018059	-0.343775641507244	-0.655644274990097	0.326047706402223	-0.0961022140420149	-0.0233222337477775	0.995098205138185	0.831763014557301	-0.551022402912265	0.0674136418193216	0.546749167416626	0.834164483121769	0.0723530443548814	42.9759898798213	-84.3246485866505	-166.359081937269
24567	1652177576160	9.7164881069409	0.690387148262937	0.676321199749653	0.00989781810770366	-0.04322806190196	-0.0483533243371337	0.00143404574511187	0.0101794927136165	-0.00166138260709451	0.55712890625	0.392578125	0.260986328125	0	0	0	-0.587882261380934	-0.343772360390759	-0.655664066711574	0.326066929645196	-0.0961496082907869	-0.0233853929690906	0.995092144588234	0.831776083476214	-0.551001843246242	0.0674204397509717	0.546720952390247	0.834176295596396	0.0724300219700102	42.9484855239202	-84.3211383118644	-166.330014786471
24568	1652177576161	9.71473584087652	0.645656552597395	0.645840957798559	-0.0445239232711179	-0.0437553598415796	-0.0553220173387583	0.00290461022812701	0.00299511911162151	-9.79296137419997E-05	0.55712890625	0.3916015625	0.254150390625	0	0	0	-0.587865280094367	-0.34381139990132	-0.655661563489856	0.326061417403998	-0.0961967290801354	-0.0233423076523964	0.995088602079103	0.831801447262899	-0.550955346756781	0.067487467069536	0.546674072593195	0.834208212950205	0.0724162675149333	42.9823074909566	-84.3190874892553	-166.360692423041
24569	1652177576268	9.73101899120468	0.682280396586092	0.707574192693947	0.0180881308599674	-0.0130514514751726	-0.0321760852438366	0.00128940115954907	0.00636697546276106	0.000464430513579176	0.553466796875	0.39892578125	0.263916015625	0	0	0	-0.58785063552171	-0.343807864051185	-0.655667064536842	0.326080486099559	-0.0962062938035946	-0.0233851274875868	0.995086672026596	0.83181581300699	-0.550935338403274	0.0674737440045368	0.54665053028795	0.834220227943951	0.0724555658665673	42.9609928861437	-84.3179704574305	-166.337916595373
24570	1652177576164	9.70548156350983	0.666160375348576	0.637197480893562	-0.0310074525925331	-0.0612246400896896	-0.0637667710499361	0.00632167979748061	0.00800740142857795	-0.00193114975005779	0.56103515625	0.39306640625	0.265869140625	0	0	0	-0.587836600010688	-0.343907180657778	-0.655606232453135	0.326123367375751	-0.0961833618787508	-0.0232945688060319	0.995091012903766	0.831939479994551	-0.550742800687038	0.067520879124855	0.546466341620504	0.834349884973647	0.0723519655597855	43.0218399609933	-84.3204830790232	-166.385726746128
24571	1652177576165	9.71629214645553	0.690707272461261	0.678805027876423	0.0108059053958751	-0.0406887799884258	-0.0483433754952056	0.00663774133329895	0.00827653272140516	0.000231565534400812	0.56201171875	0.391845703125	0.265625	0	0	0	-0.587806777956419	-0.343919328539275	-0.655608037083596	0.326160679661085	-0.0962048056630236	-0.0233509011616985	0.995087619650791	0.831983350704124	-0.550677413000227	0.0675136353821684	0.546395771870975	0.834391468212801	0.0724053744911742	42.9976852552347	-84.3185188744225	-166.356961391489
24572	1652177576166	9.72189645638641	0.659677679123712	0.609172203949941	-0.0521492613707491	-0.0829040298316742	-0.0499037711094452	0.0222221848154669	0.00992354695792237	-0.000502637114477615	0.54931640625	0.400390625	0.265625	0	0	0	-0.587820641741943	-0.343885708737013	-0.65557152839339	0.326244515093338	-0.0960628190272068	-0.0234669947880519	0.995098605644769	0.832039466770748	-0.55061427139591	0.0673368388848263	0.546335300467026	0.834429879792646	0.0724190249370651	42.9173714059382	-84.3248806365781	-166.272189721814
24573	1652177576167	9.73449012905884	0.650265605029664	0.700042953336689	-0.0120407398552971	-0.00268731133088451	-0.0314271533507089	0.029647152969968	0.0125462095347507	-0.00126232174215957	0.544189453125	0.39794921875	0.260009765625	0	0	0	-0.587737232847833	-0.343969770625994	-0.655548576206628	0.326352273246774	-0.0961182777420722	-0.023551853795388	0.995091245497969	0.832207218479489	-0.550357981284329	0.0673590227606641	0.546069979210112	0.834596550807299	0.0724994840397487	42.8950567698446	-84.3206177423535	-166.232082171423
24574	1652177576168	9.72718070415335	0.672398859464406	0.63134372237194	-0.0339773454079191	-0.0714516613041977	-0.0421960878173913	0.015678086735346	0.00752781208095295	-0.00109061747757034	0.544677734375	0.3984375	0.263427734375	0	0	0	-0.587580517719529	-0.344143372923097	-0.65558812454608	0.326372004044033	-0.0964609003454636	-0.0235073376073497	0.99505914386189	0.832355102534944	-0.550093307698792	0.067692954648524	0.545784094664353	0.834772279069937	0.0726289481391287	42.9853819791427	-84.3020620908645	-166.30409020688
24575	1652177576270	9.73433647645625	0.650656241282482	0.701814376205224	-0.0147207399128444	-0.00141362442910922	-0.0314305525788896	0.0103710505926704	0.0135627202250173	0.000555676246414911	0.55859375	0.388671875	0.26611328125	0	0	0	-0.587527245936031	-0.344158229382311	-0.655599119845617	0.326430149479038	-0.0965101855878303	-0.0236099640286421	0.995051935165381	0.832419310729481	-0.549996941319051	0.067686451113525	0.545677446118545	0.834832877969151	0.0727336968625108	42.9414532668194	-84.297903535837	-166.253320614974
24576	1652177576169	9.70134260427176	0.699568664393867	0.653002976381411	0.00158682215791357	-0.0694017758220297	-0.064506076853398	0.00939728047322685	0.00746423307264853	0.00225710499270134	0.55322265625	0.392822265625	0.2578125	0	0	0	-0.58748992216763	-0.344134933335185	-0.655639752851907	0.326440275533137	-0.0965846757226444	-0.0237028327424085	0.995042499662973	0.83240605354341	-0.550015788336475	0.0676963411484922	0.54568448982891	0.834817829409861	0.0728534780197208	42.8986121877536	-84.2924649437058	-166.211547371971
24577	1652177576170	9.71963197167551	0.65881457793498	0.67320774541259	-0.0232862737624588	-0.0309214365700965	-0.0475968575468215	0.00876653553481769	0.00692489356936536	-0.00206874138982929	0.556884765625	0.39501953125	0.255859375	0	0	0	-0.587456187952962	-0.344162778413519	-0.655638787471878	0.326473566392239	-0.0966204753658135	-0.023736358737843	0.995038224900909	0.832458574106265	-0.549933984803639	0.0677150999035981	0.545598026148416	0.83487076702437	0.0728944183809232	42.8904771827734	-84.2900026845061	-166.197710556516
24578	1652177576171	9.72499820221562	0.671191461822098	0.694269852443385	-0.000959234451041423	-0.0188590253986529	-0.0398811109089099	0.00336575256374023	0.00708017348002648	-6.54772356446546E-05	0.54931640625	0.394287109375	0.2578125	0	0	0	-0.587482429604622	-0.344247605898927	-0.655548112317916	0.326518993590151	-0.096499483461451	-0.0236189799697862	0.995052759142378	0.83257665956609	-0.549757865315464	0.067693393101211	0.545439231846632	0.834990079766802	0.0727159614774153	42.9513521369675	-84.2983787189116	-166.246803217311
24579	1652177576172	9.75066555192933	0.644070545446259	0.675194200708635	-0.0366128991609427	-0.0208919273604911	-0.0175653226160719	-0.00235036548162606	0.00696522668536695	-0.000225106422647388	0.557861328125	0.395263671875	0.2607421875	0	0	0	-0.587470352096545	-0.34423411752974	-0.655562593688306	0.32652586956127	-0.0965188838296348	-0.0236616154541521	0.995049864588897	0.832570968369511	-0.549767457671556	0.0676854867280224	0.545444486352678	0.834982556967183	0.0727629154721649	42.9295698864576	-84.2967096197556	-166.22558568724
24580	1652177576173	9.71032618443042	0.679322807544958	0.665330073677191	-0.00847053323460179	-0.04675987342041	-0.0560322006694882	-0.00977548028863005	0.00434341830476399	0.000532932110419082	0.556396484375	0.396728515625	0.2578125	0	0	0	-0.587495308479647	-0.34426048507962	-0.655533506041034	0.326511566999852	-0.0964789182594106	-0.0235757047983213	0.995055779579595	0.832581384315139	-0.549749830056092	0.0677005379977584	0.545435657821692	0.834996593104763	0.072667961854298	42.9732368673664	-84.3001209263502	-166.268232097091
24581	1652177576174	9.71947580804962	0.658702161687091	0.675568239144613	-0.0208030405838226	-0.0274291404156857	-0.0475808176910473	-0.0127325453185326	0.00341307737639046	0.00240231454583927	0.560302734375	0.39697265625	0.26806640625	0	0	0	-0.587516453882573	-0.344211493322838	-0.655550813602655	0.326490421094717	-0.0964568427012824	-0.0236022904789138	0.995057289496565	0.832521954249548	-0.549844905595713	0.0676592601419502	0.545530267894106	0.834933237854735	0.0726857285634179	42.9488232211445	-84.3009920550941	-166.250307555878
24582	1652177576273	9.74140097829111	0.664063412332487	0.667244149458237	-0.0226209832116124	-0.0377679994671289	-0.0260050974762471	-0.00552877784531393	0.0116451630655392	-0.000876013254129515	0.55126953125	0.402587890625	0.266845703125	0	0	0	-0.587507717832878	-0.34421862118313	-0.655546172780764	0.326507944267947	-0.0964544876334449	-0.0236198733609752	0.995057100571511	0.832544259628497	-0.549812206321408	0.067650525050612	0.545496643046507	0.834954273815277	0.0726964446351772	42.9409215437654	-84.3008830497539	-166.240130495051
24583	1652177576175	9.71395668717355	0.646349155574973	0.656775189455153	-0.0407016314389831	-0.0366592619743144	-0.0552760835837667	-0.00198282743924342	0.00516953262917375	0.000167407933176242	0.55419921875	0.4013671875	0.257080078125	0	0	0	-0.587501825844565	-0.344208660349633	-0.655553612968444	0.326514108873774	-0.0964602826713373	-0.0236485746609068	0.995055857117315	0.83254144036859	-0.549817869693354	0.0676391915597531	0.545499921114532	0.834949732069165	0.0727240055392288	42.9253034790802	-84.3001656575885	-166.224843118689
24584	1652177576274	9.71017807465668	0.678807281035799	0.668012462890678	-0.00917983343904777	-0.0437469488725535	-0.0560188676862143	0.00280000827635038	0.00713012907062869	0.00344278189634708	0.56005859375	0.398681640625	0.263427734375	0	0	0	-0.587396407430287	-0.344381166911836	-0.655536004267906	0.326557222432614	-0.0966516820301788	-0.0235635130552787	0.995039302346009	0.832716553977927	-0.549523984707078	0.0678714296503463	0.545198673046683	0.835145586759668	0.0727341448288708	43.0192673144876	-84.2906231921764	-166.298672355986
24585	1652177576277	9.73210990692729	0.684228620811621	0.659577969187422	-0.0115125523155748	-0.0547190205939969	-0.0344437367777601	0.00424689388386773	0.00730130160617662	-0.0014082056343762	0.552490234375	0.398193359375	0.255859375	0	0	0	-0.587369966255505	-0.344393908300483	-0.655541804508084	0.326579701158553	-0.0966844430643935	-0.0236000166322642	0.995035254493168	0.83274656982049	-0.549477069433417	0.0678829921193164	0.545147015878777	0.835175424316245	0.0727787173330495	43.0066273227233	-84.2882923552291	-166.282722480917
24586	1652177576177	9.7084299880125	0.63391219122222	0.638274581054177	-0.0627586462507509	-0.0429503741457546	-0.0629659031305554	0.0082011846130011	0.00697546143100126	0.0014406788821952	0.55419921875	0.388916015625	0.264892578125	0	0	0	-0.587339034471189	-0.344533525843195	-0.655462182005872	0.32664787786944	-0.0966680449396859	-0.023494684728389	0.995039340366527	0.832926638375175	-0.549195626906895	0.0679512948469149	0.544874760080304	0.835363491646514	0.0726590163130163	43.0824176346339	-84.2906450896688	-166.339417489856
24587	1652177576178	9.71004573501433	0.678791108634917	0.669949741976142	-0.00844566825042928	-0.0414884499771027	-0.0560083392987174	0.00788653876255528	0.00670592099810712	-0.00072239177459572	0.552978515625	0.40087890625	0.266357421875	0	0	0	-0.587309833479964	-0.344557905509098	-0.655458438469993	0.326682176874402	-0.0966918296206772	-0.0235286868426399	0.995036225963692	0.832977671277654	-0.549117210127571	0.0679594636130155	0.544792519439706	0.835414083216924	0.0726940184978401	43.0720873583035	-84.288851661477	-166.323628411831
24588	1652177576278	9.73572164416526	0.651735583833087	0.650874144226487	-0.0446655897417027	-0.0440360125066444	-0.0336926219148932	0.0123544317172196	0.00839782574141078	0.000390043239308785	0.560791015625	0.39599609375	0.26708984375	0	0	0	-0.587259889703488	-0.344550872329233	-0.655493666995024	0.326708694178819	-0.0967745021868355	-0.0236291454102484	0.995025808315379	0.832992774535472	-0.549092251050271	0.0679760061215975	0.544754746007952	0.835427652956094	0.0728210366452238	43.029146778448	-84.2828567357255	-166.278729655322
24589	1652177576180	9.72448322262975	0.670893207040627	0.701731475696957	-0.000392572970253635	-0.0122731829262313	-0.0398705818080067	0.0113055489086701	0.0117220661071292	-0.00255863277109322	0.553466796875	0.3994140625	0.26171875	0	0	0	-0.58720522568753	-0.344583303897039	-0.655502223812182	0.326755572527756	-0.0968416374946312	-0.0236957754039027	0.995017692041386	0.833060242335965	-0.548986284994919	0.0680050845644785	0.544639633047855	0.835495403407754	0.072904739201316	43.0085386063853	-84.2781904942742	-166.250682442359
24590	1652177576181	9.70444193259517	0.667083106962375	0.651896878284544	-0.0293465419250859	-0.0513746914135457	-0.0637047469329417	0.00669115364002556	0.00621684313692121	-0.00154204427364084	0.551513671875	0.400634765625	0.260498046875	0	0	0	-0.587170896860784	-0.344634966308503	-0.655489108159013	0.32678908635715	-0.0968784618351229	-0.0236941290307946	0.995014146573773	0.833132618058594	-0.548871266070792	0.0680468515706562	0.54452236350704	0.835571015253233	0.0729141557544787	43.0223947110751	-84.2761533093827	-166.256629180649
24591	1652177576182	9.72974121958142	0.683506633346711	0.723776851007716	0.020656484886797	-0.00136342816149521	-0.0321725592754518	0.00382718188713008	0.011167249184974	-3.31569838666792E-05	0.56201171875	0.39306640625	0.2646484375	0	0	0	-0.58713452033669	-0.344636402526557	-0.655504888521831	0.326821275633243	-0.0969218176449291	-0.0237700299250785	0.995008114008004	0.833161745477048	-0.548827207694026	0.0680455874279718	0.544470079194479	0.835597799046969	0.0729976101651161	42.9891727621927	-84.2726887263418	-166.220212826661
24592	1652177576280	9.73546855444004	0.652315954254535	0.654070514181653	-0.0437203307060936	-0.0423577254037896	-0.0336809366161717	0.00290501694133487	0.00299856489206081	-9.90779513837359E-05	0.557373046875	0.388427734375	0.26123046875	0	0	0	-0.587136766747156	-0.344683601875546	-0.655466124191032	0.326845210718749	-0.0968852507278261	-0.023719095848495	0.995012890712244	0.833224758072382	-0.548730845656634	0.0680511686907397	0.544380152767004	0.835662529683535	0.0729272634635928	43.0190705795892	-84.2754318790996	-166.243624928662
24593	1652177576184	9.71885061023608	0.658989984315287	0.684226603318022	-0.0202473343618044	-0.0208092426614667	-0.0475632989469279	0.000869214424942579	0.0102366557160274	0.00183531402009905	0.5556640625	0.395751953125	0.26416015625	0	0	0	-0.587111552135953	-0.344671507738747	-0.655481092000996	0.326873240157088	-0.0969078204354378	-0.0237972090370738	0.995008827689734	0.833239704579214	-0.54871087324461	0.0680292017877751	0.544353257592161	0.835673423309119	0.0730031542032222	42.9801201824728	-84.2730984943362	-166.203141926665
24594	1652177576185	9.74078717078203	0.664395631625151	0.675819226290887	-0.0211532976673279	-0.0320075383122814	-0.0259812801306811	0.00046115336872959	0.00408470873425221	3.27272408751917E-05	0.557373046875	0.39794921875	0.264404296875	0	0	0	-0.587171187742679	-0.344601878456199	-0.655464446325284	0.326872912999533	-0.096768190064103	-0.0238265573329737	0.995021714616006	0.833187734418912	-0.548807288223318	0.0678878457962	0.544457635271651	0.83560927206358	0.0729590832986217	42.9379383983807	-84.280502695083	-166.167611400477
24595	1652177576186	9.72619710388526	0.672595313042651	0.646115325876672	-0.0292191712096327	-0.0612191152550352	-0.0421112275674051	-0.00354528340650311	0.00647706904782999	-0.00104778645925032	0.5498046875	0.3974609375	0.252685546875	0	0	0	-0.587160918154476	-0.344589431744697	-0.655480497102187	0.326872295614861	-0.0967931171029269	-0.0238579353780323	0.995018538219764	0.833175723896215	-0.548825251778675	0.0678900296073826	0.544471583823726	0.835596578457315	0.0730003594437179	42.9226970076249	-84.2786768054966	-166.153525439051
24596	1652177576188	9.69674581896773	0.65342649744603	0.695154996791492	-0.015875928678883	-0.00757303248504759	-0.0691368432492503	-0.00650348588190298	0.00554605335756862	0.000820679475063237	0.55419921875	0.39306640625	0.264892578125	0	0	0	-0.587152186608553	-0.344688186870748	-0.65543240619261	0.326880290787189	-0.0968031705113553	-0.0237270258165808	0.99502069045063	0.833264716293769	-0.548678658653278	0.0679826604238486	0.544333591429754	0.8356965704036	0.0728847271851032	43.0069592531788	-84.2799139100867	-166.227976765044
24597	1652177576189	9.71868699049008	0.658765153458695	0.686762445905204	-0.018196447938363	-0.0185165978442786	-0.0475546455012772	-0.0113912602691554	0.007718783738263	0.00108352431350514	0.56201171875	0.393310546875	0.262939453125	0	0	0	-0.587154318477082	-0.344642567941667	-0.655461798845391	0.326865625159104	-0.0968173387661237	-0.0237791170990576	0.995018068431039	0.83321260549098	-0.548760726903844	0.0679589483357215	0.544410834724272	0.835641201831237	0.0729426133125746	42.9743021878422	-84.2784068058847	-166.200838394923
24598	1652177576190	9.74602926810267	0.676430623137122	0.698606222801827	0.00163059749183955	-0.0195882869906482	-0.0182854315112682	-0.0129944656577195	0.00107633794212563	-0.00153892042119087	0.55419921875	0.39404296875	0.26513671875	0	0	0	-0.587236027060429	-0.344541135533802	-0.655463152764406	0.326823055819974	-0.0966810774135534	-0.0237870059481985	0.995031128969428	0.833094876307233	-0.548956192219145	0.0678234922050871	0.544615181886064	0.835512583610969	0.0728905088947225	42.9377085177459	-84.2859177688522	-166.17772650211
24599	1652177576282	9.71863431597782	0.658638777591777	0.687628506542447	-0.0164720590619234	-0.018491092985435	-0.0475515361808103	-0.00858024958664504	0.00483610671893456	0.00134494839930531	0.553955078125	0.400390625	0.254638671875	0	0	0	-0.587243797744464	-0.344508139030677	-0.655478668605253	0.326812758557195	-0.09667628570979	-0.0238170478880557	0.995030875908511	0.833058119561066	-0.549015125971713	0.0677979416180585	0.544672254860425	0.835473003563947	0.0729177283045572	42.9162744919464	-84.2857721429953	-166.160280709864
24600	1652177576283	9.74060370580841	0.663894433510402	0.678948832524879	-0.0188778683046625	-0.0280518467487445	-0.0259644887706152	-0.0102899968655046	0.00232836190623124	0.00226197165217693	0.552734375	0.397216796875	0.268798828125	0	0	0	-0.58725615641566	-0.344567077829307	-0.655440433412397	0.326805100750046	-0.0966572657513158	-0.0237042782471552	0.995035416540668	0.833100829260813	-0.548943909999849	0.0678497749371587	0.544610302200046	0.835523004391177	0.0728074712561559	42.9813515421889	-84.288385647297	-166.220699533244
24601	1652177576284	9.72604309011749	0.672012697245065	0.64903335224297	-0.0269317563549198	-0.0572544498908117	-0.0420806179308322	-0.0145565325566316	0.00238530148140639	-0.00275231867986143	0.552734375	0.388916015625	0.26513671875	0	0	0	-0.587274627562092	-0.344531136532587	-0.655465515452631	0.326759492339224	-0.0966734919760378	-0.0236903683689007	0.995034171471364	0.833027947931778	-0.549053060251553	0.0678614396618335	0.544718894397588	0.835451676325418	0.0728136155627407	42.9838525198721	-84.2876688897298	-166.230700925601
24602	1652177576284	9.73516347780301	0.651697231712812	0.659207937010414	-0.0398209130188259	-0.0390938544607464	-0.0336506876978539	-0.0178818605822238	0.00325248335273614	-0.00127793324829169	0.55517578125	0.402099609375	0.260986328125	0	0	0	-0.587297321846903	-0.344382619560186	-0.655569365920841	0.326666915316605	-0.096741164377977	-0.0237956647662117	0.995025081821121	0.832815625399484	-0.549378675564796	0.0678321820755949	0.545031449739609	0.835234600081321	0.0729649341926383	42.9122096455455	-84.2824389020072	-166.181146926065
24603	1652177576285	9.70938915745051	0.678794194995822	0.679395923010169	-0.00379772008275246	-0.0367197807859924	-0.0559863105259861	-0.016686511230355	0.00374370689542268	-0.000458924242334813	0.5546875	0.40087890625	0.259033203125	0	0	0	-0.587318505277863	-0.344330086222365	-0.655598930482871	0.326624872644431	-0.096746331856372	-0.0238069712249516	0.995024308945983	0.83273269747422	-0.549505968584216	0.0678192085447156	0.54515722670588	0.835150536497114	0.0729875301605508	42.897897922085	-84.281994426337	-166.175542892424
24604	1652177576287	9.70936076766557	0.67873679919603	0.679858829873633	-0.00452138511356087	-0.0343305827119396	-0.055977919724894	-0.0109705622805563	0.00385809624643344	-0.000294680425077699	0.5498046875	0.39697265625	0.26611328125	0	0	0	-0.587277549279197	-0.344486022762888	-0.655551781754236	0.326628721444508	-0.096837516880292	-0.0236262662118569	0.995019745969569	0.832861895048364	-0.549286116897066	0.0680134219150264	0.544943629287385	0.83530028213154	0.0728689204672539	43.026086897177	-84.2793709885374	-166.288929082438
24605	1652177576288	9.74047483237503	0.663765906046392	0.680920512176058	-0.0193952755918818	-0.0260911831312278	-0.0259600770054629	-0.0106034973394494	0.00206092276295041	9.75050249126824E-05	0.556884765625	0.399658203125	0.256103515625	0	0	0	-0.587295010579121	-0.344455658784058	-0.655564819977479	0.326603178931875	-0.0968298681209277	-0.0236249288618505	0.99502052208784	0.832813287940337	-0.549361325286469	0.06800118903005	0.545019269448053	0.83525085873393	0.0728697393610211	43.0206249150675	-84.2798171253616	-166.288633772336
24606	1652177576289	9.72588826200711	0.671947271238607	0.651416941214246	-0.0281230871620183	-0.053996246189747	-0.0420654249814341	-0.00552750260517568	0.0116527696531236	-0.000879593483812016	0.556884765625	0.389404296875	0.26220703125	0	0	0	-0.587240142753787	-0.344535703471859	-0.655567776391021	0.326611473052303	-0.0969479208182335	-0.0235815228842064	0.995010056445402	0.83288230564657	-0.549240189407512	0.0681342739042079	0.544892801925181	0.835331746145244	0.0728883275433262	43.0692166241254	-84.2738040660131	-166.328918181566
24607	1652177576290	9.73498118417136	0.651546257616135	0.662043163459205	-0.0405123955509422	-0.0346195500767726	-0.033636664489741	-0.00198267164739757	0.0051725976712505	0.000166216608659298	0.551513671875	0.3955078125	0.25537109375	0	0	0	-0.587233232773391	-0.344528948365014	-0.655574945661875	0.326616632591543	-0.0969574112821467	-0.0236056660621228	0.995008559223099	0.832881058591738	-0.549242758106118	0.068128811138093	0.544893019441954	0.835329375275255	0.0729138681300194	43.0569111599481	-84.2729443479195	-166.3167366139
24608	1652177576290	9.69840618352371	0.654470124701748	0.641502571214075	-0.0446780596841979	-0.0518080109776824	-0.0713189296027767	-0.000899494620251136	0.00714310767431255	-0.00507594636088654	0.55712890625	0.390380859375	0.25830078125	0	0	0	-0.587273665366091	-0.344540724469025	-0.655538045104376	0.326605576453571	-0.0968768787938136	-0.0235253739634981	0.995018304924611	0.832884150470749	-0.54924097322358	0.0681053979287518	0.544902617216864	0.835332813980327	0.0728026622996717	43.0907139259343	-84.27854272321	-166.350624144336
24609	1652177576291	9.73486347734659	0.651915162587859	0.663409426400846	-0.0387563813402462	-0.0333049119755832	-0.0336249817070691	0.00123542490829741	0.00844011021191893	0.00223351538533782	0.556640625	0.393310546875	0.259521484375	0	0	0	-0.587254744339808	-0.34453324172817	-0.655545391109143	0.326632746047034	-0.0968858289203213	-0.0235876209376301	0.995015959818195	0.832902744088196	-0.549215789108104	0.0680810978518669	0.54487260441756	0.835347616943309	0.0728574211893313	43.059022642244	-84.2771950884624	-166.317081284663
24610	1652177576291	9.73105327468276	0.684451238077553	0.67476203043831	-0.00302339795650655	-0.0412414092065647	-0.034371294828393	9.41733563489621E-05	0.00588358283191968	-0.000357355147636139	0.54931640625	0.39453125	0.265869140625	0	0	0	-0.587334648878633	-0.344513385375369	-0.655475942120547	0.326649394343532	-0.0966763668032332	-0.023532342534002	0.995037641979734	0.832910935467729	-0.549221400944413	0.0679354570377656	0.544897287275318	0.835345486370471	0.0726970750476303	43.0607870095568	-84.2896670044086	-166.31947772837
24611	1652177576292	9.72562835636444	0.672306884920088	0.654916862569915	-0.0236189519972315	-0.0512652336857412	-0.0420387878415589	0.00217109520431641	0.00659436400179076	-0.000880584463355098	0.5546875	0.404052734375	0.25927734375	0	0	0	-0.587315499174433	-0.34452107327453	-0.655480678789447	0.326666212261046	-0.096699380393016	-0.0235616488482123	0.995034712226242	0.83293191335358	-0.549188831673574	0.0679415548994802	0.544861136023438	0.83536607296955	0.0727314689985056	43.0498331132185	-84.2879801787791	-166.30621885564
24612	1652177576293	9.73473615356983	0.651895521653104	0.665294360294164	-0.0375124240927577	-0.0308519220303088	-0.0336120842008576	-0.000787749760743937	0.00566303028439233	0.000985618592069267	0.551025390625	0.394287109375	0.2666015625	0	0	0	-0.587242354608869	-0.344627466960512	-0.655484482185361	0.326677852913236	-0.09685599473886	-0.0235048361949543	0.995020823379387	0.833024216838078	-0.549026978864759	0.068117770368251	0.544692179533039	0.835474056541604	0.0727566519396264	43.1139774971065	-84.2799903264213	-166.359264179899
24613	1652177576294	9.73092897857778	0.684485777285697	0.676517231350242	-0.00398449655689189	-0.0395421361051029	-0.0343646199580725	9.42369813264819E-05	0.0058839631739888	-0.000357582803247209	0.55810546875	0.400390625	0.26611328125	0	0	0	-0.587229366304053	-0.344628585018368	-0.655490097561358	0.326688753613251	-0.0968722592255215	-0.0235304347750995	0.995018635017374	0.833034537137494	-0.549011193301716	0.0681187901063043	0.544673503420778	0.835483709158186	0.0727856194767558	43.1030265912568	-84.2787324391397	-166.347171073487
24614	1652177576294	9.74918151061369	0.643627968899619	0.69670344394433	-0.0298338840788741	-0.0012709042850896	-0.0175201317990918	0.00248414301331723	0.0068638629995343	0.00128257144537058	0.556396484375	0.3974609375	0.264892578125	0	0	0	-0.587177490881765	-0.344634513510627	-0.655525841290527	0.326704021553814	-0.096974153004719	-0.02360259933527	0.995007000454588	0.83304911499298	-0.548983068795717	0.0681671635397086	0.544633074333932	0.835500154087512	0.0728992925981766	43.0787112785645	-84.2720494261019	-166.320720712343
24615	1652177576296	9.72547121288902	0.672232731013839	0.657322153238128	-0.0253317633223846	-0.0496330242825929	-0.0420346507708125	0.0021713016161153	0.00659495320787505	-0.000880754634848729	0.55859375	0.398681640625	0.26708984375	0	0	0	-0.587157548564379	-0.344642696824952	-0.655531244590762	0.326720388182892	-0.0969996022189785	-0.0236317234007052	0.995003828544631	0.833069967394127	-0.548950398941689	0.0681754275946168	0.544596645780443	0.835520796360493	0.072934849378186	43.068238180302	-84.2702287959842	-166.307934599851
24616	1652177576296	9.73456813689861	0.652008766888952	0.66763769171002	-0.0379473912466788	-0.0302519250765645	-0.0336118878846996	0.00222539093430873	0.00452785295762758	-0.00265138290062942	0.554931640625	0.391845703125	0.267578125	0	0	0	-0.587125626927185	-0.344676237876182	-0.655533297878187	0.326738250931581	-0.097051227167062	-0.0236391018523455	0.994998619179435	0.833112110852174	-0.548880812843386	0.0682207009918481	0.54452297477407	0.835566302669033	0.0729635784977621	43.0759564052322	-84.2672399466434	-166.310831858404
24617	1652177576298	9.72537144135479	0.672468585635841	0.658555958283782	-0.0252187245703691	-0.049198794069185	-0.0420321622001545	0.000868124054642779	0.0102399845733667	0.00183987619361295	0.552734375	0.3896484375	0.26416015625	0	0	0	-0.587100423488682	-0.344666118956978	-0.65554739025064	0.326765938124096	-0.0970742288425795	-0.0237138671164224	0.994994596267238	0.833128364723791	-0.548858576250028	0.0682011082714598	0.544494005464965	0.835578790888793	0.0730367183650898	43.0391098042709	-84.2649328816079	-166.272302768907
24618	1652177576299	9.71247920889836	0.646499942866329	0.678130397712904	-0.0344459994031614	-0.0199696592149544	-0.0552035640995072	0.00253822346672802	0.00479725651620314	-0.000488170834738626	0.554443359375	0.38720703125	0.2626953125	0	0	0	-0.58713504329293	-0.344541685298649	-0.655593287891707	0.326742878882337	-0.0970230640741837	-0.0238358818952627	0.994996671236609	0.833005871151429	-0.549060236382498	0.0680740438849078	0.544690502638797	0.835442821237858	0.0731269360579514	42.9505389308085	-84.2661227222716	-166.19736480117
24619	1652177576299	9.71991458889212	0.66024145214097	0.639435471534063	-0.0449944749745136	-0.0602967140469611	-0.0497023743190912	0.00663811895031939	0.0082866073896045	0.000236573943302055	0.55517578125	0.392822265625	0.260986328125	0	0	0	-0.58710414899637	-0.344557590914718	-0.655594577585317	0.326779030255958	-0.0970483672324475	-0.0238867382203385	0.994992983972605	0.833051502997238	-0.548991063856044	0.068073527602531	0.544616202266843	0.835486825475664	0.073177569548588	42.9305443468504	-84.2640085203361	-166.172512797156
24620	1652177576300	9.70322644927674	0.667110421144079	0.669718467073099	-0.0198193625654418	-0.039008481073647	-0.0636233998243316	0.00840276679211887	0.00872867615899268	-0.00244966277859721	0.559326171875	0.3828125	0.26416015625	0	0	0	-0.587149441771359	-0.344494090462	-0.655580688880661	0.32679246477099	-0.0969244359929654	-0.0239386325345597	0.995003816866961	0.83301668416774	-0.549061013211322	0.0679353197500423	0.544691525182492	0.835439372811536	0.0731587093286824	42.8798424784526	-84.2702220942371	-166.126595608625
24621	1652177576301	9.71978589173768	0.660620974396151	0.640997865679754	-0.0429099458846522	-0.060167426058276	-0.0496921923007214	0.00752045769040655	0.00850838665125892	-0.00110692559984281	0.557861328125	0.3955078125	0.2587890625	0	0	0	-0.587114484189056	-0.344516000420833	-0.655583048292881	0.326827438720292	-0.0969608155099063	-0.0239843893200986	0.994999170514527	0.833065724847915	-0.548985101507133	0.0679474532769343	0.544610042451727	0.835487945689311	0.0732106158189028	42.8646819424052	-84.2675561991276	-166.106117680142
24622	1652177576301	9.72509960937682	0.672864043201066	0.662156431829878	-0.0190067157339619	-0.0499980567462685	-0.0420221605993678	0.00248379593370788	0.00686583798693124	0.00128130938615772	0.55029296875	0.394287109375	0.256103515625	0	0	0	-0.587222847663382	-0.344404868273979	-0.655531193871992	0.326853893585578	-0.0966717188601122	-0.0240410311737702	0.995025933125732	0.833010661161682	-0.549103637914262	0.0676641206275609	0.54474564446502	0.83540841727231	0.0731092277825832	42.7849059307046	-84.2829285218398	-166.034564938532
24623	1652177576302	9.70307241650661	0.667221443083563	0.671836187773687	-0.0163218554309504	-0.0386839675597564	-0.0636156238800218	0.000406649785581508	0.00615494972376238	0.00180388745977213	0.55908203125	0.395263671875	0.2587890625	0	0	0	-0.587212983398665	-0.344398121417804	-0.655533598902401	0.326873900460091	-0.0966687306520908	-0.0240835520024491	0.995025195177016	0.833023745421026	-0.549086774323789	0.0676398834078202	0.544726166141154	0.835418276545135	0.0731416921838539	42.761993455644	-84.2825040951717	-166.010418335791
24624	1652177576303	9.73039718484393	0.684928485516816	0.683680266814659	0.00328446290819035	-0.0376471381563125	-0.0343568802885699	-0.00192812984147241	0.0031065206267455	-0.00160681125680038	0.5556640625	0.389892578125	0.263916015625	0	0	0	-0.587248265118358	-0.344485879941948	-0.655447540342484	0.326890617019038	-0.0965639992407818	-0.0239218310649711	0.995039265581578	0.833116772479692	-0.548944006051068	0.0676529499255327	0.544602458187299	0.835516740837132	0.0729379072722002	42.8472053770143	-84.2906020181928	-166.086214881827
24625	1652177576206	9.7287886881637	0.639985185172086	0.653099159166857	-0.0506405447517536	-0.0387573919243919	-0.0412298330988872	-0.00291985653511776	0.00702175185119594	0.0032760709793278	0.55322265625	0.39404296875	0.26171875	0	0	0	-0.587243836233214	-0.344463016310372	-0.655455236910207	0.326907233947864	-0.0965526743973097	-0.0239785506727811	0.995038999323323	0.833113683227048	-0.548953781573835	0.0676116596131738	0.544609191885877	0.835508692236903	0.0729798144009174	42.8133576424606	-84.2904486726391	-166.05293903677
24626	1652177576305	9.73033407583064	0.684679125336523	0.684827275902606	0.00454489718105053	-0.0374421678889077	-0.0343565978946927	9.45869055439213E-05	0.00588576350645051	-0.000359387295597492	0.5546875	0.39404296875	0.261962890625	0	0	0	-0.587278203496701	-0.34440405926591	-0.655459689456344	0.326898686379501	-0.096483121082087	-0.0240158285106802	0.995044846892443	0.8330598173213	-0.549046185609041	0.0675250089431046	0.544703908661268	0.835446901992645	0.0729803113177019	42.7765334371162	-84.2938173961942	-166.022430180444
24627	1652177576305	9.72492374666579	0.672632558086867	0.664968524534675	-0.016032586604121	-0.0474804254232596	-0.0420042689838809	0.00185984138345954	0.00632747128961675	-0.00304516380250427	0.554931640625	0.396728515625	0.2587890625	0	0	0	-0.587257526520426	-0.344416246756926	-0.655467395145865	0.326907541081081	-0.096520114258865	-0.0240324024840701	0.995040859047657	0.833076535139753	-0.549017817108387	0.0675494122630546	0.544671785704931	0.835465068167655	0.0730120930299673	42.7744182504093	-84.2915198255527	-166.018312838428
24628	1652177576307	9.73022065934247	0.685005863101339	0.686110809130881	0.00542957117405096	-0.035994934152854	-0.0343516146068303	0.000922439388994301	0.00817494941018529	6.75182743016824E-05	0.56005859375	0.394775390625	0.262451171875	0	0	0	-0.587253083482278	-0.344469284762584	-0.655429593874476	0.326935429816424	-0.0964940813426134	-0.0239850126919875	0.99504452736147	0.833147611259038	-0.548908273171807	0.0675630483097455	0.544567672671822	0.835538405346942	0.0729494555914209	42.8046981059782	-84.2936332665388	-166.04118723438
24629	1652177576308	9.71947107195179	0.660566881758425	0.645809223667214	-0.0359433709701887	-0.0562789530696404	-0.0496408692442429	0.000461228910058389	0.00408756565727319	3.37133721685546E-05	0.55224609375	0.392333984375	0.25537109375	0	0	0	-0.587247443549192	-0.344471804366658	-0.655427844668589	0.326946412236632	-0.0964929671410658	-0.0239991916105726	0.995044293533887	0.833159937566962	-0.548890439043946	0.0675559350431922	0.544549011316456	0.835549714097362	0.0729592320826349	42.7978629248655	-84.2934985271962	-166.033103358497
24630	1652177576309	9.72477827348898	0.672767976591596	0.666956072529609	-0.0134690576683555	-0.0447330997639606	-0.0419874345099718	0.00175036819632498	0.0104643677085741	0.000494395822053037	0.553955078125	0.39208984375	0.269775390625	0	0	0	-0.587274593615272	-0.344499869678535	-0.655367114980477	0.326989810372826	-0.0963724312127217	-0.0239646953721516	0.99505680635724	0.833228779236056	-0.548795007407632	0.0674821553986718	0.54446501811865	0.835613387410816	0.0728567829709789	42.8067879162703	-84.3007132991343	-166.035632532059
24631	1652177576310	9.72472323073813	0.672814334767081	0.667711401729817	-0.0132347676368483	-0.0445145935641315	-0.0419861164051838	0.00461589243672432	0.00551021810334355	-0.00101084483946067	0.552734375	0.399658203125	0.263916015625	0	0	0	-0.587256075429468	-0.344516928561225	-0.655363588466335	0.327012162951851	-0.0963866943054632	-0.0239844103967683	0.995054949848894	0.833263047940284	-0.548742262432584	0.067487942312957	0.544410045919556	0.83564746004418	0.0728767756118395	42.8014001763289	-84.2996422795227	-166.026581576927
24632	1652177576312	9.71931806111395	0.660686060298187	0.647986492841421	-0.0348921820391108	-0.0551618416396796	-0.0496306801485016	0.00627164534941732	0.010088842456384	-0.000156980581998039	0.556884765625	0.3974609375	0.265869140625	0	0	0	-0.587191141205888	-0.344497710210948	-0.655429475502324	0.327016962849773	-0.0965329393956756	-0.0241011056788158	0.995037953204142	0.833245120085142	-0.548762467335849	0.0675449798117436	0.544411573596602	0.835630834249509	0.0730557826974825	42.755458754476	-84.2898462231737	-165.981706003711
24633	1652177576214	9.71926362994414	0.660778119329344	0.648708606069447	-0.0346674205281471	-0.0549506905478683	-0.0496286887281858	0.00461598906118845	0.00551068248054716	-0.00101103256235908	0.560302734375	0.396728515625	0.26318359375	0	0	0	-0.587172280155817	-0.344514537900205	-0.655426444334489	0.327039176031061	-0.0965481815150863	-0.0241214750768554	0.995035980799813	0.833279022139621	-0.548710221032666	0.0675511998140671	0.544356978377394	0.835664554575818	0.0730768931840523	42.749837057287	-84.2887105077427	-165.972453404628
24634	1652177576313	9.73370137013769	0.652724806392929	0.679470600467789	-0.0258261376688069	-0.0250428967732509	-0.0335576371292348	0.00461600823593917	0.00551087138036527	-0.00101112760735876	0.56201171875	0.39306640625	0.261474609375	0	0	0	-0.587161650358975	-0.344548926822766	-0.655399642206568	0.32707574408462	-0.0965253079584346	-0.024118818289676	0.995038264353607	0.833342484300352	-0.548614989313545	0.0675418193463656	0.544263877897154	0.835727154102826	0.0730544667460106	42.7546368414466	-84.2900254043872	-165.970744934611
24635	1652177576217	9.73365605286191	0.652768301446232	0.680077746433626	-0.025599925094095	-0.0248314721854735	-0.0335565031894376	0.00456084077834406	0.00757972121127316	0.000758281151712983	0.555908203125	0.3974609375	0.26025390625	0	0	0	-0.587139199850242	-0.344556949620512	-0.655399847232045	0.327107182305185	-0.0965369025671604	-0.0241662112165897	0.995035989639658	0.833377778028701	-0.548562799505141	0.0675302457201798	0.544207777903517	0.835760042855913	0.0730961369348504	42.7334572358196	-84.2887155972456	-165.945890807977
