// Start Time : 10/06/2022 05:27:33																																
// Update Rate : 100Hz																																
// Filter Profile : 46.1 human																																
// Firmware Version : 4.4.0																																
PacketCounter	Time_Of_Arrival	Acc_X	Acc_Y	Acc_Z	FreeAcc_X	FreeAcc_Y	FreeAcc_Z	Gyr_X	Gyr_Y	Gyr_Z	Mag_X	Mag_Y	Mag_Z	VelInc_X	VelInc_Y	VelInc_Z	OriInc_q0	OriInc_q1	OriInc_q2	OriInc_q3	Mat[1][1]	Mat[2][1]	Mat[3][1]	Mat[1][2]	Mat[2][2]	Mat[3][2]	Mat[1][3]	Mat[2][3]	Mat[3][3]	Euler_X	Euler_Y	Euler_Z
42473	1654838884549	9.54909947920209	-0.669655795936952	2.36200202329847	-1.51788304147971E-16	-2.08166817117217E-15	0.0469673705415587	-0.206022735369928	0.0296591103103531	-0.00435448740297925	0.671142578125	0.390625	0.08984375	0	0	0	-0.422333324594878	-0.449322043884233	-0.497861261341789	0.609818356784621	0.100487730669717	-0.22768252738155	0.968536464316136	0.986737217811125	0.1475374547836	-0.0676931490059197	-0.127482857558226	0.962493307073419	0.239488527632666	-15.7833251336381	-75.5892454305308	-66.1857244550415
42474	1654838884552	9.601524356594	-0.659073710908885	2.38675499513576	-1.30104260698261E-16	0	0.102969234759867	-0.190033625009545	0.0337467461632884	-0.00437989975475684	0.66162109375	0.386474609375	0.088134765625	0	0	0	-0.421078189409357	-0.449878312317529	-0.497693187754533	0.610413100590739	0.0998219899381252	-0.228728993349862	0.968358723782644	0.986464774170672	0.149989298532937	-0.0662605436591194	-0.130087738258444	0.961866029094882	0.240605325020138	-15.397077305982	-75.5483823250238	-66.4225636225817
42475	1654838884549	9.64318233502784	-0.599373661799719	2.37937958088197	0.0678156521816153	-0.00102940217301187	0.137541761086544	-0.178810015993552	0.0370324584607176	-0.00287882785993753	0.669189453125	0.392333984375	0.09716796875	0	0	0	-0.422354664928246	-0.448899378946543	-0.498643048454114	0.609476000202752	0.0996889156195921	-0.228632447838511	0.96839523124495	0.987011434964371	0.145943294483475	-0.0671489541607564	-0.125978360650405	0.962511173229008	0.240211769189513	-15.617838131132	-75.556766270957	-66.4417100041581
42476	1654838884550	9.64823011973663	-0.576158882440653	2.40261446567653	0.0925978930891497	0.0213111798159658	0.146420490021617	-0.172130415042889	0.0407812815146463	-0.00303385271079529	0.673583984375	0.391357421875	0.0927734375	0	0	0	-0.422770560420119	-0.448352175952379	-0.499124565596324	0.609196230765675	0.0997099886740944	-0.229029406701736	0.96829925592477	0.987229809473606	0.144279442520678	-0.0675332936604612	-0.124238566658343	0.962667633886054	0.24049075912165	-15.6855122823061	-75.5347357027	-66.4736709688733
42477	1654838884552	9.6477141778434	-0.583976717743882	2.38099429954839	0.0919057713552182	-0.00260468966020582	0.141211178813727	-0.168794434152382	0.0315029612178176	0.00238669212794439	0.673095703125	0.40087890625	0.092529296875	0	0	0	-0.423210147059601	-0.4478268547939	-0.499565271754863	0.608916101616376	0.0997712947637872	-0.229336937410664	0.968220149490938	0.987436413708922	0.142655421364562	-0.0679614569955705	-0.122535780989959	0.96283643465253	0.240688559102389	-15.7676972181866	-75.5166019442306	-66.4889163619627
42478	1654838884553	9.63665450208974	-0.542613040067136	2.32667837621705	0.142604798248706	-0.0482546058455761	0.114563254522622	-0.157554720601014	0.0345480673473965	0.000825325408436209	0.66552734375	0.387451171875	0.09228515625	0	0	0	-0.423605250350227	-0.447326234061961	-0.499988488114047	0.608661929110977	0.0998215041467467	-0.22966843268147	0.968136394491767	0.987627398153635	0.141140207258304	-0.0683488427946335	-0.120945399772639	0.962980712644194	0.240915664391331	-15.8388745998117	-75.4974267678296	-66.5086387881904
42479	1654838884553	9.56870421575797	-0.592994365941108	2.40917281231669	0.0801596023504232	0.0378586583403707	0.0720481330437739	-0.15794335251904	0.031532205821399	0.00106200159236664	0.668701171875	0.3857421875	0.096923828125	0	0	0	-0.424008169465726	-0.446835160327125	-0.500406164348686	0.608398785669065	0.0998640203545386	-0.229969488695654	0.968060541344232	0.987816522228567	0.139621485816321	-0.0687339734825694	-0.119355334404827	0.963130248184275	0.241110823443514	-15.9113735833595	-75.4800820542344	-66.5271522403368
42480	1654838884554	9.54520416819255	-0.597935893296804	2.36128390206143	0.0826788506307273	-0.00478860418027457	0.0380614205617213	-0.149828318284596	0.0228167540897458	0.00186718196928544	0.668701171875	0.390625	0.099853515625	0	0	0	-0.424410907888682	-0.446386790065904	-0.500783455921207	0.608136617213086	0.0999095278605421	-0.230186667997633	0.968004227324876	0.987992359363173	0.138182623081433	-0.0691133888499604	-0.11785238259227	0.963285866477071	0.241228429839526	-15.9873246676337	-75.4672182934005	-66.5373731986164
42481	1654838884554	9.54430747584126	-0.598150267141198	2.38655374908155	0.0832460581756949	0.0190502705719749	0.0432719275194486	-0.144174801954017	0.0192474592123162	0.00532925852700341	0.66796875	0.39404296875	0.10498046875	0	0	0	-0.424809616326116	-0.44595962134555	-0.501132512833355	0.60788404370202	0.0999724414213226	-0.230365045381903	0.967955296913268	0.988156787944874	0.136805988916371	-0.0695002434174323	-0.116411654892149	0.963439706085859	0.241313612012385	-16.0668221820151	-75.456050202456	-66.5404098146894
42482	1654838884554	9.5269459484216	-0.576109868843303	2.35865890531814	0.110547923651137	-0.00125658161190464	0.0181645735976108	-0.141332896874053	0.0173490500550367	0.00553068957833336	0.67236328125	0.3984375	0.093017578125	0	0	0	-0.425207939969493	-0.445540897136941	-0.501467569569609	0.607636234465375	0.100047171296718	-0.230524677272045	0.967909570509634	0.988314785447078	0.135456968913699	-0.0698948813534332	-0.114997601636827	0.963592124677933	0.241383033530621	-16.1489040614393	-75.445620987638	-66.5392691417833
42483	1654838884555	9.54970765544071	-0.582538951136839	2.38492130176329	0.107099656485528	0.0175356353103062	0.0469444005209176	-0.139796768729017	0.0170430815420938	0.00404968697999525	0.6728515625	0.3916015625	0.096435546875	0	0	0	-0.425592427503051	-0.445136820348409	-0.501808201823545	0.607381943594629	0.100083479505458	-0.230684761984484	0.967867675727546	0.988472201756759	0.134119228469361	-0.0702476968229483	-0.113604592707452	0.96374092636089	0.241448593644337	-16.2219671369153	-75.4360720980939	-66.5462018413316
42484	1654838884555	9.52580684609664	-0.580080277986562	2.38400927202046	0.111004424940508	0.022571902053236	0.023376727075874	-0.137952853494367	0.00759689607889831	0.00476854035214543	0.6669921875	0.39306640625	0.1025390625	0	0	0	-0.426002828452652	-0.444757366358815	-0.502116805719945	0.607117112782624	0.100139196966339	-0.230751618648638	0.967845975205751	0.98862320282467	0.132800607127879	-0.0706269182618042	-0.112233257404521	0.963907510727819	0.241424950439822	-16.3064104608125	-75.4311284029338	-66.5406202689113
42485	1654838884556	9.51929421815477	-0.607093640843	2.38716865962175	0.0865213070588498	0.024030334827687	0.0197098458124749	-0.136417274107061	0.00729278698321623	0.00328623900229468	0.66845703125	0.396728515625	0.09716796875	0	0	0	-0.426394460523304	-0.444396678815338	-0.502435105985071	0.606842912265365	0.100141112263336	-0.230821801637047	0.967829041475658	0.988774930124303	0.131493456617623	-0.0709479275555658	-0.110886857617765	0.964069897235557	0.241398711785877	-16.378247122219	-75.4272717921705	-66.5465825537741
42486	1654838884557	9.54315216365885	-0.620258698059489	2.36381836844555	0.0819236608932411	-0.00484774948426858	0.0380677011067743	-0.131142796779511	0.000472941993736667	0.00386663764259675	0.671630859375	0.390625	0.099365234375	0	0	0	-0.426799687510843	-0.444057451033282	-0.502715671160367	0.606573953357918	0.100179868303213	-0.230821301465713	0.967825149898692	0.988915626817178	0.130237961420858	-0.0713018684308357	-0.1095895844665	0.964240426550668	0.241310013844943	-16.4612656440251	-75.4263856372467	-66.5384413896578
42487	1654838884558	9.526610826358	-0.601030543811886	2.31033891991335	0.108001302396322	-0.0490551540824759	0.00775792934826569	-0.130949750445324	0.00209204834992776	0.00531180594145518	0.67431640625	0.392333984375	0.098876953125	0	0	0	-0.427187789416383	-0.443725494933076	-0.503007607261682	0.606301595542035	0.100182064366548	-0.230840403128777	0.967820366732691	0.989056856281381	0.128987879220841	-0.0716146776638723	-0.108305535509721	0.964403875613041	0.241236555439882	-16.5343086061786	-75.425296529893	-66.5397142786522
42488	1654838884559	9.57866419628339	-0.696490920482365	2.29905131953079	0.0233201996632822	-0.0835022133903858	0.0622317289857754	-0.124068348644852	0.0072414642443444	0.00354473440109883	0.663818359375	0.391845703125	0.096435546875	0	0	0	-0.427553472703198	-0.443383848935783	-0.50328749311902	0.606061457075353	0.100224923545726	-0.230905694109022	0.967800353961645	0.989186911521038	0.127799454498817	-0.0719482696475487	-0.10707109215715	0.964546452928959	0.241217580964654	-16.6083294755863	-75.4207405669224	-66.5366817084204
42489	1654838884559	9.59777992472939	-0.632772227319228	2.26550437459227	0.0942382702135523	-0.111769014462485	0.0680472449722007	-0.112850982419934	0.0103998742735803	0.00353163897909421	0.6748046875	0.39404296875	0.1064453125	0	0	0	-0.427862674241833	-0.443082939467989	-0.503561617089856	0.605835570544419	0.10020641309251	-0.230993776404394	0.967781251129391	0.989308381971219	0.126718459568952	-0.0721897317210691	-0.10596037059496	0.964667977734779	0.241222081486065	-16.6606895948388	-75.4163930529732	-66.5485259809749
42490	1654838884560	9.59668807666785	-0.62889572819593	2.31435643767885	0.0956208541862947	-0.0640855650072866	0.0784665975157299	-0.107686987033745	0.0142369415394408	0.00182684514432019	0.67626953125	0.388671875	0.1025390625	0	0	0	-0.428157015137582	-0.442764704956383	-0.503825037836146	0.605641245031058	0.100239494588588	-0.231128817421013	0.967745583034192	0.9894200753506	0.125683803275766	-0.0724672069790946	-0.104880685628179	0.964770983887732	0.241281972866728	-16.7172408086624	-75.4082789292654	-66.5538463575682
42491	1654838884561	9.60938777309104	-0.587902928382956	2.28473865517734	0.14224841564456	-0.0906500613967687	0.080620548819784	-0.0968581109452853	0.0142705309077334	0.000474570827016133	0.671142578125	0.39208984375	0.10302734375	0	0	0	-0.42840204245282	-0.442509855591855	-0.504080875059971	0.605441317656056	0.100174998205699	-0.231238526520946	0.967726052964841	0.98952703028516	0.124748322842052	-0.0726230836795549	-0.103928947216455	0.96486610459717	0.241313435452655	-16.7491254631512	-75.4038379095838	-66.5772242139014
42492	1654838884562	9.63232949884249	-0.59306088140878	2.31057248484272	0.139028631306693	-0.0718438452825536	0.10939644588119	-0.0902725842423854	0.00574105141617619	0.00115951032969177	0.67041015625	0.39208984375	0.1044921875	0	0	0	-0.428663367685125	-0.442262424386742	-0.504289343779	0.605263515281859	0.100192411453013	-0.231292481393301	0.967711356106851	0.989619282346137	0.123879949911585	-0.0728521380511187	-0.103029882538738	0.964965049139518	0.241303330360816	-16.7996447180591	-75.4004968043969	-66.5784674606826
42493	1654838884563	9.62622527047794	-0.621871095120171	2.28964788488954	0.113060497051307	-0.093707572952021	0.100529062021824	-0.0896711019806219	0.0102715574509624	0.000876447651086499	0.672119140625	0.385498046875	0.10595703125	0	0	0	-0.428895060204787	-0.442051708953247	-0.50452203526238	0.605059360623528	0.10009560509244	-0.231343971502409	0.967709066140579	0.989719148802936	0.123013086533277	-0.0729642860195854	-0.102161031386579	0.965063597588806	0.241278627886892	-16.8256710094087	-75.3999762830489	-66.6033108043481
42494	1654838884564	9.63233366165961	-0.600403391037718	2.28699848735082	0.137148936891416	-0.0952086434385837	0.104208488798996	-0.0684448819558171	0.00752491860359663	0.00142342348790014	0.672119140625	0.391845703125	0.10009765625	0	0	0	-0.429086263680037	-0.44185320686951	-0.504685117774755	0.604932767997335	0.100117350951623	-0.231414847263727	0.967689870001922	0.989787413786448	0.122355820435575	-0.0731432068990147	-0.101476063918365	0.965130157891382	0.241301443800472	-16.863086810648	-75.3956136137453	-66.6051710712715
42495	1654838884565	9.6144464257168	-0.569307960796545	2.30744624157235	0.164359135621092	-0.0671159630802026	0.0895588989720579	-0.0710759665534274	0.0109378813729485	0.00115943636781316	0.676025390625	0.38818359375	0.10205078125	0	0	0	-0.429260328789621	-0.441701761530544	-0.504878236476891	0.60475870421204	0.0999950403855991	-0.231448929390138	0.967694365480362	0.98986910291636	0.121667072918823	-0.0731866275963369	-0.100797574325186	0.965209053237445	0.241270247976483	-16.874586385664	-75.3966351781057	-66.6337565134685
42496	1654838884566	9.60829489818886	-0.597696057758993	2.28679302459608	0.139581739485547	-0.0894576052564121	0.0806693857645246	-0.068255120829996	0.0091368287114356	0.00286989108670531	0.673095703125	0.388671875	0.10546875	0	0	0	-0.429449966427055	-0.441495647141755	-0.505039879825564	0.604639594863307	0.100032626681324	-0.23153363496965	0.967670217314233	0.989934798340519	0.121014892243162	-0.0733790902770665	-0.100112779572584	0.965270724580993	0.241308639781369	-16.9138934025148	-75.3911485057567	-66.6335500301338
42497	1654838884568	9.60132364464201	-0.619653581310333	2.31449195603245	0.114319832391707	-0.0631989965924597	0.0822202123864084	-0.0665250155025875	0.0103503326478866	0.00128204371253279	0.6728515625	0.385009765625	0.113525390625	0	0	0	-0.429608145236455	-0.441373872743178	-0.505225095188805	0.60446137113768	0.0998734153023025	-0.231542485891925	0.967684544747327	0.990013729192036	0.120368889475912	-0.0733767433020385	-0.0994892804634311	0.965349370784134	0.241251892012364	-16.9171345120601	-75.394403579307	-66.6675562327816
42498	1654838884569	9.60735515121351	-0.597969419748655	2.31229174825798	0.138407093904621	-0.0646993893998221	0.0859080275397712	-0.0721874959479681	0.0141564313918079	0.000944584548736419	0.67333984375	0.387939453125	0.1064453125	0	0	0	-0.429792614837408	-0.441146676228383	-0.505411919792533	0.604339895766861	0.0998968027685529	-0.231678006847441	0.967649693814771	0.990084340859553	0.119674199125698	-0.0735600710190474	-0.0987604515042608	0.965403225189776	0.241335836567748	-16.9514186612287	-75.3864869731934	-66.6748687895585
42499	1654838884570	9.62469377481946	-0.632549047901606	2.29315840337963	0.107574119548932	-0.0910317402226898	0.100615048690061	-0.0706832283239387	0.0140600496397049	0.00252220808262145	0.668701171875	0.390625	0.10498046875	0	0	0	-0.429953249608213	-0.441011917456017	-0.505613308564662	0.60415550482918	0.0997273417281268	-0.231709113316144	0.967659725377722	0.990167141420797	0.118990770707268	-0.0735542557372278	-0.0980993851275764	0.965480234542757	0.241297383626211	-16.9527016649174	-75.3887652750522	-66.7130103955675
42500	1654838884571	9.60027076903834	-0.625043667351557	2.31740827959244	0.112188158637675	-0.0621604289033635	0.0822511896554836	-0.063633324635042	0.0209245460704432	0.00375371442099035	0.66943359375	0.3955078125	0.10986328125	0	0	0	-0.430100826946691	-0.440779722263474	-0.505787251016883	0.60407430984101	0.0997849863002392	-0.231906723075104	0.96760644287935	0.990225615262516	0.118385070737115	-0.0737441923444847	-0.0974483831935301	0.965507248454995	0.241453030202215	-16.9836343647659	-75.376668084224	-66.7187235133686
42501	1654838884572	9.61240052599923	-0.58003746518186	2.3132904480368	0.157954255511272	-0.0639513947021282	0.0896840793860996	-0.0604007220645014	0.0220421297363494	0.0037417732365722	0.66796875	0.38330078125	0.102783203125	0	0	0	-0.430210832033747	-0.44065690039547	-0.505981523157849	0.603922871199255	0.0996083887134406	-0.231996884957427	0.967603025144074	0.990298371999615	0.117802676447389	-0.0736998225014487	-0.0968880968583111	0.965556821109914	0.241480272269377	-16.9721986142966	-75.3758924600273	-66.7636236014977
42502	1654838884572	9.61911517324606	-0.564421916658521	2.26358608568405	0.180666495629313	-0.113139739526054	0.0829848966331195	-0.0577403840681262	0.0184328159340825	0.000932248380676614	0.67041015625	0.394775390625	0.107421875	0	0	0	-0.430340549774477	-0.440453156355415	-0.506145600171392	0.603841584940534	0.0996352969673893	-0.232173815924556	0.967557815738807	0.990353229748127	0.117247285293886	-0.0738481849382113	-0.0962979123640501	0.965581893621792	0.241616056552708	-16.995390055999	-75.3656363772556	-66.7738464062141
42503	1654838884573	9.59454986891031	-0.556325531233601	2.28860683200768	0.182543215896705	-0.0827993665665771	0.0646821289621577	-0.0576285648736796	0.0305164233792849	-0.00290134934195939	0.66845703125	0.38134765625	0.113037109375	0	0	0	-0.43040664339911	-0.440341940453824	-0.506375209951298	0.603683065475628	0.0993662444482796	-0.232328084971367	0.967548453772617	0.990432471125691	0.11666853612938	-0.0737019186811661	-0.0957594361099861	0.965614888871834	0.241698193590546	-16.9582291598382	-75.3635134256481	-66.8437038876179
42504	1654838884574	9.58248092291448	-0.501252466606793	2.30857629374819	0.235334045158057	-0.0569305929194713	0.0537251164992973	-0.057427398746947	0.0320270744277274	-0.00298879682536864	0.671630859375	0.387451171875	0.1083984375	0	0	0	-0.430492255485086	-0.440106342666838	-0.506579588634732	0.603622353372081	0.0993670550461718	-0.232640782708037	0.967473231977218	0.990490271139794	0.11610707669206	-0.0738117166813192	-0.0951588732009285	0.965607276776132	0.241965650223567	-16.9643474206257	-75.3464667927005	-66.8713854571841
42505	1654838884575	9.57413052893109	-0.516559371255394	2.38655384305849	0.210157466662069	0.0176756092895053	0.0656712613602899	-0.0582254442482631	0.0259862105619757	-0.00262692819296039	0.66845703125	0.3974609375	0.108154296875	0	0	0	-0.430564324154397	-0.440021868527267	-0.506805889120598	0.603442547999327	0.0990570919409047	-0.2327410372728	0.967480905292395	0.990571911015191	0.115524307036294	-0.0736303170677378	-0.0946307647856801	0.965653014313612	0.241990235966479	-16.9234206153065	-75.3482048175806	-66.9448738464252
42506	1654838884576	9.55091077315644	-0.517715206489908	2.33887888497288	0.212737560518433	-0.0249980921904147	0.0317220889252514	-0.0649003785910027	0.0223381077311946	-0.000975686113407117	0.671630859375	0.3837890625	0.10986328125	0	0	0	-0.430701364915306	-0.439792074829559	-0.506999690702141	0.603349466565719	0.099068489090089	-0.232957892052192	0.96742754509059	0.990634079684293	0.114895295776052	-0.0737779857178741	-0.0939657099023908	0.965675769365232	0.242158530354408	-16.9443076375254	-75.3361227709963	-66.9617214214283
42507	1654838884577	9.6201790487989	-0.531837776442277	2.39281932001305	0.198344535778595	0.00915311316000283	0.112878405442499	-0.0649135991456349	0.0224343231014909	0.000563324224987283	0.669189453125	0.3955078125	0.10986328125	0	0	0	-0.430786810741558	-0.439716936283213	-0.507239914965196	0.603141283865499	0.0987133692236113	-0.233026153858882	0.967447405471874	0.990723180300858	0.114260784714437	-0.0735666574678672	-0.0933983444771711	0.965734582944081	0.242143479273644	-16.8995328462096	-75.3406185061048	-67.0417566254307
42508	1654838884578	9.62007656064097	-0.536645553980605	2.37050697274389	0.197662140279769	-0.0146934108264517	0.107689540350837	-0.0692883576062662	0.0247255689374195	0.003433521707562	0.668701171875	0.390380859375	0.10791015625	0	0	0	-0.430940542473351	-0.43945925755033	-0.507435152185794	0.603055035740741	0.0987702545589852	-0.233261025987675	0.967384996043215	0.990784269362376	0.113599630357907	-0.0737675780177866	-0.0926874770312398	0.965755878955818	0.242331619612173	-16.930645582539	-75.3264956053856	-67.0506310711648
42509	1654838884579	9.63716044562577	-0.571023623197821	2.35248067551233	0.164540034565205	-0.0406617123966259	0.122420451943366	-0.0625952261606246	0.0282811863881533	0.000257750909048402	0.663818359375	0.387939453125	0.10888671875	0	0	0	-0.430986937059163	-0.4393847679552	-0.507696420685718	0.602856226803893	0.0983707402237305	-0.233397706409943	0.967392737263627	0.990874087735793	0.112989209014542	-0.0734981693651475	-0.0921506360346753	0.965794465343867	0.242382571546633	-16.86898639192	-75.3282466774332	-67.1459095601226
42510	1654838884580	9.61915877019396	-0.54298581841766	2.35121079708863	0.192581737988653	-0.0371475235608536	0.102592386743209	-0.0540628119120102	0.0351333960476398	0.00462824213998212	0.65966796875	0.384521484375	0.107666015625	0	0	0	-0.431070752417151	-0.439131783691778	-0.507877010002388	0.60282852095204	0.0984484385254257	-0.233731756717968	0.967304177006095	0.990919230343168	0.112477898243093	-0.073673613613838	-0.0915804776576872	0.965773362807419	0.242682565924379	-16.8872494911818	-75.3082264455365	-67.1590444933199
42511	1654838884581	9.6051584455792	-0.588165399565121	2.38404046274093	0.141403355287239	-0.00908910689526171	0.100363518651497	-0.050753354596362	0.0357814246326359	-0.00305759120841394	0.671142578125	0.381591796875	0.116455078125	0	0	0	-0.431073671529251	-0.439040209138212	-0.508135290885528	0.602675460451848	0.098084441833111	-0.233963991008179	0.967285011349712	0.990998690616897	0.111948031741943	-0.073411398193344	-0.0911100294472778	0.965778695716897	0.242838368948333	-16.8203607743218	-75.3038973032104	-67.2551656751728
42512	1654838884582	9.6038852402785	-0.585821385604675	2.41121828078934	0.142074490913716	0.0147599944697159	0.105546770152424	-0.0420129087146215	0.0312999406909615	-0.00725482312556966	0.6708984375	0.3916015625	0.104248046875	0	0	0	-0.43110467510479	-0.43885499965119	-0.508316912999304	0.602635017521224	0.0980404104800238	-0.234274259457862	0.967214376065813	0.991044027628818	0.111525350123303	-0.0734427095165057	-0.0906631855504739	0.965752384224521	0.243110096767895	-16.8093829694698	-75.2879529479037	-67.2913906322786
42513	1654838884583	9.58648524411241	-0.559398137630592	2.38561863900408	0.164736272067502	-0.00405957961953224	0.0806258773176012	-0.0378660967615444	0.0276890555977211	-0.00696283983709909	0.667724609375	0.39013671875	0.111572265625	0	0	0	-0.431060145011434	-0.438871086702125	-0.508552155613202	0.602456658740513	0.0975337485561235	-0.234401596381742	0.967234748913769	0.991120933482317	0.111123712807775	-0.0730124350022312	-0.0903684851357526	0.965767783716927	0.243158641279234	-16.7132605889795	-75.2925499337185	-67.4079627811682
42514	1654838884585	9.61580056292669	-0.542263816191307	2.38652342234009	0.184822926288677	-0.0105586075187986	0.107942310779999	-0.0350022998692161	0.0255996701754212	-0.00986877263732961	0.668701171875	0.392822265625	0.10693359375	0	0	0	-0.431078760602481	-0.438726452647483	-0.508713840840043	0.602412176207085	0.0974586557702546	-0.23465951295263	0.967179778219277	0.99116213475583	0.110762660590402	-0.0730017509735305	-0.0899968501766639	0.965746626191244	0.24338040380957	-16.6965725059619	-75.2801494106363	-67.4459385628849
42515	1654838884586	9.5779685623565	-0.576910837935872	2.44136431241999	0.136891714668699	0.0464690613184757	0.0872958933419561	-0.0274417121663268	0.024709541939861	-0.0081326336145587	0.668701171875	0.392822265625	0.109130859375	0	0	0	-0.430991023681848	-0.438788485368583	-0.508935334551521	0.602242665259237	0.0968989807057534	-0.234777347672192	0.967207415479326	0.991232941627445	0.110463125501208	-0.0724924364130968	-0.0898211721744303	0.965752294806756	0.243422805227236	-16.5837746990798	-75.2863826638139	-67.5727322087443
42516	1654838884586	9.56656981663123	-0.523736543625756	2.43663661993694	0.189032415346492	0.0484812217528156	0.0712729841931203	-0.0267254269328052	0.0184706652292178	-0.00775203396178192	0.664306640625	0.388427734375	0.1103515625	0	0	0	-0.431007358014195	-0.438681963464638	-0.509057100565997	0.602205663068502	0.0968380065883006	-0.234963829409405	0.967168237355463	0.991264445734897	0.110187051401928	-0.0724818068568682	-0.0895388133821959	0.965738480424498	0.243581584536868	-16.5712608050756	-75.2775472708053	-67.6014789691803
42517	1654838884587	9.60692655032187	-0.559497125526995	2.44369871508285	0.151982049537277	0.0409775616650294	0.114696991713624	-0.0261256707837031	0.0230026945708725	-0.00800543016720663	0.67138671875	0.390625	0.11572265625	0	0	0	-0.430915048456176	-0.438737940101558	-0.50927735923824	0.602044692939633	0.0962911825655305	-0.235097901290536	0.967190252726379	0.991333024164239	0.109897584762672	-0.0719816369966366	-0.0893691409912608	0.965738835126825	0.243642481858906	-16.4592271627184	-75.2825115065246	-67.7270200942966
42518	1654838884588	9.53562284665242	-0.540614928670208	2.44221421811296	0.164001622544079	0.0559800548501958	0.0440233958109388	-0.0192651580236156	0.0282597586813163	-0.00818207762487529	0.668701171875	0.394287109375	0.11328125	0	0	0	-0.430882931795048	-0.438622015920817	-0.509405135971544	0.602044046298172	0.0962342691907431	-0.235379178191126	0.967127503438607	0.991358138870389	0.109692613067033	-0.0719483921569074	-0.0891515896031108	0.965693622797933	0.243901252474525	-16.4355238560119	-75.2683665124116	-67.7629074753027
42519	1654838884588	9.57753438719691	-0.584946075459929	2.37695025548434	0.124161317742895	-0.023400948886209	0.0719095153458795	-0.0157348748770498	0.0202091626968968	-0.00610302981916945	0.668212890625	0.392822265625	0.1171875	0	0	0	-0.430731181883768	-0.438732554090667	-0.509602907161597	0.601904703376324	0.0956372459870573	-0.235513190240913	0.967154100649198	0.991416356458342	0.109551051930922	-0.071359478471293	-0.0891466506767224	0.965677018595439	0.243968789868185	-16.3038967363771	-75.274360454333	-67.8989022508061
42520	1654838884588	9.55240731147809	-0.572568124483783	2.4260295767264	0.129504198425184	0.029301023286675	0.0587010394720711	-0.00945659338282244	0.0208428985741954	-0.00756120765534094	0.664306640625	0.39453125	0.106689453125	0	0	0	-0.430689661650009	-0.438662584086176	-0.509691431111365	0.601910456565001	0.0955795647489743	-0.235722324177834	0.967108852553112	0.991432083852208	0.109442120798899	-0.0713081012473802	-0.0890335325080613	0.96563834227895	0.244163105341279	-16.2805016613327	-75.2641647747867	-67.9286643389519
42521	1654838884589	9.57665436919598	-0.584082488824871	2.38070537952234	0.118829971616021	-0.0228140505104543	0.0719764168957368	-0.0081408307808919	0.0191359634487124	-0.00743629300545558	0.669677734375	0.388671875	0.114501953125	0	0	0	-0.430527924551223	-0.43877891044675	-0.509873772426566	0.60178693083207	0.0950036078773308	-0.235857597937732	0.967132621715003	0.991483892543677	0.109348884746238	-0.0707284400449568	-0.0890730336113544	0.965615873367768	0.244237547857559	-16.1504203183745	-75.2695197808084	-68.0603890317266
42522	1654838884589	9.57629084772979	-0.583480448446543	2.38231472469664	0.118809537841107	-0.02280978224658	0.0719766723726529	0.00055160584077165	0.0149372156968576	-0.00702416854113154	0.6728515625	0.3935546875	0.112548828125	0	0	0	-0.43047232212744	-0.438751273560951	-0.509926129350479	0.601802494541599	0.0949453251085637	-0.236009074217813	0.967101391854484	0.991490192482429	0.109337844975697	-0.0706571572257581	-0.0890650517946525	0.965580111923874	0.244381799661706	-16.1259618541035	-75.2624843301576	-68.0853121542656
42523	1654838884590	9.58812416511003	-0.533040499392953	2.40237273210796	0.161980565829468	-0.00109071366929461	0.0848584415643518	0.00126863411540144	0.00869813213223634	-0.00664768303423906	0.66162109375	0.3896484375	0.111572265625	0	0	0	-0.430310969805027	-0.438937658789515	-0.510062971197587	0.601665992370291	0.0943389942189387	-0.236015708198541	0.967159107723905	0.991534466749199	0.109336469357094	-0.0700352605257424	-0.0892163405332368	0.965578646176513	0.244332401923673	-15.9943816164511	-75.2754891145292	-68.2126740230679
42524	1654838884591	9.61322802732533	-0.54710968870615	2.33184188862145	0.155929822367293	-0.0776330960438436	0.09289831208301	0.0105776857064781	0.00894060097246551	-0.00802241466865486	0.66748046875	0.385986328125	0.11767578125	0	0	0	-0.430238305506524	-0.438955787319359	-0.510083377402898	0.601687431604624	0.0942655297521885	-0.236110326250397	0.967143176442077	0.991532702764651	0.109419897144255	-0.0699298609834784	-0.0893135445986062	0.965546063089106	0.244425634507433	-15.9657578799749	-75.2718982885878	-68.2359624988994
42525	1654838884592	9.60266207375755	-0.495907077893443	2.30203025112026	0.203444420215887	-0.0990715747498385	0.0719057503261435	0.0185351923089055	0.0110735127451395	-0.00644928650057623	0.6689453125	0.394287109375	0.104736328125	0	0	0	-0.43004816995797	-0.439116909608268	-0.510162956591921	0.601638320698803	0.0938201948349497	-0.236184322224129	0.967168411899738	0.991550015722668	0.109584658474383	-0.0694245557956912	-0.0895898284489272	0.965509279376735	0.244469822423771	-15.853489426387	-75.2775866222751	-68.3353934934335
42526	1654838884592	9.61898758135009	-0.521783452949405	2.33191584515026	0.175958131489482	-0.078716448664147	0.0967956497171016	0.0183620776358221	0.022120194411645	-0.00247016174383758	0.654541015625	0.390625	0.109619140625	0	0	0	-0.42993062482186	-0.439103194309727	-0.510177969395398	0.601719604243428	0.0938136485811651	-0.236400350294919	0.96711626690917	0.991535993058341	0.109756194767747	-0.0693538187839397	-0.0897517342991256	0.965436922895817	0.24469608517456	-15.8242357247547	-75.2658349669037	-68.3547302679305
42527	1654838884593	9.59433843019974	-0.511781158575055	2.35707217804809	0.176167119360144	-0.0486950008578533	0.0785022796386876	0.0108586619675789	0.0227323941040131	-0.00882012522468337	0.670166015625	0.38818359375	0.1103515625	0	0	0	-0.42975334272425	-0.439236979752446	-0.510318855239729	0.601629126640404	0.0932910832095234	-0.236518253778583	0.967137988822238	0.991572494965452	0.109773460808293	-0.0688024311355205	-0.0898930532442944	0.965406081880418	0.244765880070565	-15.7004002855715	-75.2707292115059	-68.4739872271141
42528	1654838884594	9.60481402364481	-0.563779050184087	2.36587384956268	0.123939409226765	-0.0506853652562617	0.0943670877761864	0.0151869865901425	0.0207260171678054	-0.00707509471435348	0.6689453125	0.39599609375	0.11376953125	0	0	0	-0.429638597089987	-0.439229843415687	-0.51035162613231	0.601688489376095	0.0932367247142771	-0.236725210506025	0.967092595295524	0.991565585406706	0.10990378718931	-0.0686938672554064	-0.0900255685992081	0.965340526587548	0.244975641087159	-15.6640813028354	-75.2605032375708	-68.5024756834835
42529	1654838884595	9.60377661249845	-0.559829848755363	2.39216543564097	0.118826501092164	-0.0255737578915893	0.0996088376430357	0.0212298987002578	0.0200348469860018	-0.00537202535734334	0.672119140625	0.397216796875	0.1171875	0	0	0	-0.429402956112496	-0.439441568844457	-0.510463187138101	0.601607466235405	0.0926368842966691	-0.23680191184016	0.967131460669464	0.99159194664225	0.110080871717324	-0.0680265612550457	-0.0903538544946371	0.96530153642828	0.245008417706745	-15.5173084536073	-75.2692581621204	-68.63456766813
42530	1654838884596	9.58547753930173	-0.526183299349704	2.4144158219525	0.147594063347519	0.00178164441880513	0.0850833286770047	0.0272914644114349	0.0192517567054161	-0.00520406469568492	0.6748046875	0.394775390625	0.1201171875	0	0	0	-0.429259642901689	-0.439465884349096	-0.510460455110097	0.601694290514689	0.0925997205241199	-0.236992345580213	0.967088372329666	0.991572219912885	0.110332565489415	-0.0679062419042391	-0.090608081625692	0.965226063225042	0.245211790938363	-15.478950290549	-75.2595522665444	-68.657983928261
42531	1654838884596	9.60415724456505	-0.56349967743203	2.34749869620976	0.110486689844357	-0.0726324443367218	0.089364714052806	0.0312209767245131	0.014224869085002	-0.00328763817634355	0.66845703125	0.395751953125	0.106689453125	0	0	0	-0.42893923103765	-0.43975921957675	-0.510541560037098	0.601639659887015	0.0919182885442676	-0.237064138103875	0.967135782946821	0.991584064051748	0.110716903103431	-0.0671029901405577	-0.0911705662465199	0.965164422154201	0.245245929748154	-15.302455215682	-75.2702321250102	-68.8068974853693
42532	1654838884597	9.61063198253718	-0.541974997133414	2.32263590426651	0.133863100146995	-0.0979737601312411	0.0880753713740194	0.0341129317965827	0.0246972784315177	-0.00230172360320656	0.65869140625	0.388671875	0.114990234375	0	0	0	-0.428767702797883	-0.439778107871155	-0.510527018920594	0.601760447210303	0.091914757578636	-0.237304636331769	0.967077135969364	0.991555232542629	0.111040839978955	-0.0669936763739766	-0.0914871474940255	0.965068101965978	0.245506945749385	-15.2632069507888	-75.2570222391144	-68.8272135357372
42533	1654838884597	9.54497289002581	-0.495939978612927	2.34298689351982	0.166645703442368	-0.0595568070668739	0.0265571593379139	0.0303838368279515	0.0312344702609378	-0.0043035667598631	0.660400390625	0.387451171875	0.1142578125	0	0	0	-0.428518123792615	-0.439922255064233	-0.510617058182139	0.601756468161227	0.0914772587852351	-0.237504916319637	0.967069452443381	0.991563553738603	0.111284874949349	-0.0664634900135368	-0.0918347974485211	0.964990720852543	0.245681254160913	-15.1377314351538	-75.2552924275961	-68.9353392429186
42534	1654838884598	9.56732988774929	-0.498062322123168	2.37125529750029	0.163140274225894	-0.040679532211086	0.0552632270378339	0.0322192098816534	0.0217789493350526	-0.00370631020876003	0.67578125	0.391357421875	0.109375	0	0	0	-0.428356477790853	-0.439948427830206	-0.510604626372186	0.601862961405389	0.0914565927540999	-0.237718507161371	0.967018925872074	0.991537542981253	0.111587286923868	-0.0663443912902227	-0.0921357286860565	0.964903201751316	0.245912217568688	-15.0983022116176	-75.2439221927887	-68.9569466186672
42535	1654838884599	9.54204927101785	-0.484735609695308	2.42044906514403	0.16405775914304	0.0134354059502136	0.0421160680521826	0.0273140367437798	0.0191574627094558	-0.00673549502548188	0.665283203125	0.392333984375	0.10693359375	0	0	0	-0.42814643750574	-0.440141022623284	-0.510682514132648	0.601805515108021	0.0909584999265745	-0.237773485275931	0.967052387924689	0.9915527286211	0.111787995620602	-0.0657771267172649	-0.0924647914352174	0.964866422741959	0.245933016510547	-14.9738200766592	-75.2514513591779	-69.0660155544702
42536	1654838884600	9.55949957955873	-0.516008312776659	2.40231376605115	0.135197290038671	-0.0138945262103375	0.0566052335487086	0.0350709324020889	0.0197843291283171	-0.00506839715228605	0.67529296875	0.400146484375	0.10693359375	0	0	0	-0.42797841936561	-0.440183452913521	-0.510663338774299	0.601910254747607	0.0909229644260303	-0.237968963846153	0.967007645670897	0.991525037481454	0.112114853978399	-0.0656380953776284	-0.0927960914445385	0.964780302329701	0.246146000676887	-14.9312350360561	-75.2413849250148	-69.0891888941857
42537	1654838884601	9.54176539917929	-0.485098244988087	2.40035736279721	0.157152543316501	-0.00838289598859149	0.0370616178498597	0.0382816326145756	0.0209982209141228	-0.00353032517009103	0.6689453125	0.39501953125	0.110107421875	0	0	0	-0.427718248261758	-0.440454122997528	-0.510745149091504	0.601827764661841	0.0902791164279502	-0.237980690922894	0.967065081514605	0.991541754635581	0.11239298556678	-0.0649058210762235	-0.0932449996041707	0.964745047949585	0.246114531276742	-14.773787183125	-75.2543084779589	-69.2255188359859
42538	1654838884602	9.55229504134688	-0.536788902514138	2.40916475372201	0.104862265306144	-0.0103464297998027	0.0527803969109559	0.0346936774522756	0.016668649719122	-0.00643027161239039	0.669189453125	0.39111328125	0.106689453125	0	0	0	-0.427556237278582	-0.440508666647424	-0.510723849030499	0.601921031867272	0.0902265292799616	-0.23814639641457	0.967029196709617	0.991515308416081	0.112713627991308	-0.0647536195250935	-0.0935765279899595	0.964666746570955	0.246295557145379	-14.7302904878784	-75.2462327944102	-69.2498041743786
42539	1654838884602	9.52266056791666	-0.555684005553762	2.38813533569758	0.079199878658515	-0.0260483314687282	0.0202210483397565	0.0378838814541106	0.0179777959690538	-0.00335614422975456	0.673095703125	0.3876953125	0.107177734375	0	0	0	-0.427323343083581	-0.440744362488972	-0.510782267641777	0.601864305680928	0.0896917639938267	-0.238162520888638	0.96707497181741	0.991523938584755	0.112992471037191	-0.0641325245276118	-0.0939982270314228	0.964630144217398	0.246278334780123	-14.5960398906557	-75.2565349980687	-69.3636768775647
42540	1654838884603	9.50511660026603	-0.524747550359639	2.38540561864848	0.107348306839751	-0.0225414621857649	0.000606148963187891	0.0365305642608375	0.00721345090059397	-0.00582185226111211	0.6708984375	0.388916015625	0.10693359375	0	0	0	-0.427181326442748	-0.440831231870133	-0.510734487516956	0.601942042564953	0.0896362165373079	-0.238235380513294	0.967062175951765	0.99149486198399	0.113332795198813	-0.0639813737877871	-0.0943572326015631	0.964572226950429	0.246367878692951	-14.5580353006405	-75.2536544356754	-69.3811581290115
42541	1654838884604	9.5342789452511	-0.502988371446249	2.40890172568669	0.123618728791071	-0.00296358404096932	0.0332757315118304	0.0450263999079607	0.00150982463422124	-0.00529596597820638	0.6708984375	0.390380859375	0.115478515625	0	0	0	-0.427014164857657	-0.441114888978686	-0.510733617418198	0.601853578348722	0.0891376535204867	-0.238049098605235	0.967154127002567	0.991498322299283	0.113620150099678	-0.0634156003601218	-0.0947921705763181	0.964584412140566	0.246153115464478	-14.4467697184875	-75.274366394506	-69.471551749858
42542	1654838884604	9.53420797919232	-0.501468720071325	2.4094993619611	0.123576180239543	-0.00291705951090473	0.0332762795221715	0.0440885192741367	0.00633274162783858	-0.00406410605721836	0.672119140625	0.396484375	0.11572265625	0	0	0	-0.426855986970127	-0.44122022595003	-0.51066109846597	0.601950098524697	0.0890999094522679	-0.238110007030475	0.967142611349301	0.991459987106806	0.114038417802576	-0.0632639963269589	-0.0952276225775374	0.964520017323141	0.246237357200726	-14.4089472445199	-75.2717709354121	-69.4843313833254
42543	1654838884605	9.55836997624144	-0.509035528597287	2.3872834712693	0.113662726256096	-0.0311967265479197	0.0517327122307325	0.0435531539816349	0.00151365105547601	-0.00840802502990973	0.670166015625	0.388916015625	0.10986328125	0	0	0	-0.42657014174768	-0.441530000912011	-0.510670128863153	0.601917927919492	0.0885345555630607	-0.238075981481598	0.96720290503742	0.991450041781157	0.114507867312511	-0.0625680667408053	-0.0958563880155768	0.964472796591544	0.246178344928008	-14.2602169377938	-75.2853652113165	-69.6010800055934
42544	1654838884605	9.53418782362916	-0.498004994693291	2.41029737625153	0.11843442348322	-0.00233520759761185	0.0333396258705392	0.0476818591064945	-0.0019966420474317	-0.00656231846450125	0.66455078125	0.390380859375	0.108154296875	0	0	0	-0.426416867586435	-0.441674577632448	-0.510579493526571	0.601997344928632	0.0884642965266983	-0.238060019182822	0.967213262681354	0.991409978729182	0.114954471655847	-0.0623836799373607	-0.0963344295474804	0.96442360854191	0.246184445021943	-14.2195612151185	-75.2877017612325	-69.6146815361238
42545	1654838884606	9.58844043157376	-0.488277336391568	2.38588226196766	0.130146821723408	-0.0363665327697896	0.0792678473609101	0.0438553446081146	-0.00764890619274904	-0.00629804318879646	0.66796875	0.38671875	0.11376953125	0	0	0	-0.42625801406695	-0.441942457808485	-0.510550095565665	0.601938177346965	0.0880509278081731	-0.237876159143606	0.967296214725978	0.991402216732853	0.11528541072318	-0.061894415996701	-0.0967919354559304	0.964429472271287	0.245981938859791	-14.1236658295735	-75.3064277726331	-69.6877410456386
42546	1654838884607	9.55880863642973	-0.503945734991318	2.38660684815319	0.110246605344645	-0.0298628719430503	0.0517756110595471	0.0449532622614762	-0.0107681108536328	-0.00453984484870234	0.66650390625	0.388916015625	0.104736328125	0	0	0	-0.426139986092479	-0.442102300797801	-0.510440248441281	0.601997525454711	0.0879926168009881	-0.237772596281423	0.967326982899839	0.991362469535135	0.115710930048609	-0.0617368177385724	-0.0972509814126016	0.964404050761338	0.245900535764785	-14.093615756563	-75.3133794714712	-69.6919748577348
42547	1654838884607	9.58894536875245	-0.485200426682027	2.38448025117835	0.127339525106544	-0.0351461863106389	0.0793087952397702	0.043637184167375	-0.00906235460220661	-0.00467173859399656	0.67138671875	0.39208984375	0.1171875	0	0	0	-0.426001019264257	-0.442351339725527	-0.51039142152206	0.601954334368926	0.0876517781594448	-0.237580413627874	0.967405144107626	0.991348900011811	0.11604745684501	-0.0613216617940009	-0.0976960809391029	0.964410978172799	0.24569684765769	-14.0137336016523	-75.3310535447479	-69.7492069111593
42548	1654838884608	9.56376965172109	-0.468031937494167	2.45473967192059	0.133414783962122	0.0414406118231146	0.0711870503911633	0.0398920803500959	-0.0151047105986326	-0.0105458395140879	0.669921875	0.389404296875	0.112548828125	0	0	0	-0.425896291368542	-0.442524054547544	-0.510301103865291	0.601978067324042	0.0875304890813345	-0.237441437169968	0.967450245436861	0.991318851862646	0.116410264784775	-0.0611194256719117	-0.0981088549668588	0.964401479762137	0.245569620290648	-13.9762833635602	-75.3412614906939	-69.7640793424398
42549	1654838884608	9.58962422077168	-0.481441089395001	2.38251144591889	0.12350659119056	-0.0348047774156875	0.0793586009600595	0.0314351056515962	-0.00959970472471444	-0.0141512515994158	0.672607421875	0.39501953125	0.110107421875	0	0	0	-0.425691472466858	-0.442799029779566	-0.510310645233532	0.601912647197756	0.0870241291752229	-0.2373333207439	0.967522452352382	0.991316404718939	0.116739631260671	-0.0605280449728892	-0.098582892412485	0.964388279355258	0.245431578990547	-13.8537669794681	-75.3576188335864	-69.8632897824144
42550	1654838884609	9.56640960856405	-0.473283852332087	2.38002698817823	0.127685067588763	-0.0298020425659733	0.0558245198837888	0.0366635719459345	-0.0162244684605073	-0.0105426798106981	0.6630859375	0.389404296875	0.099609375	0	0	0	-0.425599445800308	-0.442966248900541	-0.510225107762112	0.601927199483954	0.0869024834882508	-0.23718436036267	0.967569913527144	0.991289120523917	0.117070902287224	-0.060334760864491	-0.0989638211393153	0.964384769185519	0.245292028138909	-13.8187805526326	-75.3683801595233	-69.877563331854
42551	1654838884610	9.54194577697638	-0.459167648776671	2.42583640489901	0.129407767991085	0.024520340480947	0.042610628721679	0.0279466175007453	-0.0119375192993644	-0.00945309362719789	0.6689453125	0.390380859375	0.11328125	0	0	0	-0.425499277325586	-0.443231879936314	-0.510237200667067	0.601792210533636	0.0864069993271123	-0.236923856570732	0.967678105908642	0.991303234972983	0.117216728101678	-0.0598175140342455	-0.0992558653147728	0.964431088694671	0.244991731207049	-13.7209622306215	-75.392940640959	-69.9629018525185
42552	1654838884611	9.58257033104809	-0.490193413372749	2.45455179178365	0.0975672090808932	0.0400348695142785	0.0908294735193351	0.02906574553139	-0.0151530307530327	-0.00922766220780352	0.66796875	0.39404296875	0.113525390625	0	0	0	-0.425430417228939	-0.443374317633373	-0.510166247064885	0.601796124044749	0.0862992296377443	-0.236782298325482	0.96772237039537	0.991281982082931	0.117478720904283	-0.0596555289342883	-0.0995614130156261	0.964433975622176	0.244856349119103	-13.6924868204447	-75.4030006636691	-69.9748931988352
42553	1654838884611	9.5289453487662	-0.496442198495963	2.47740255921803	0.07908790274444	0.0752827750931023	0.0449419102590269	0.034950811941183	-0.0175397560447632	-0.0104941851969792	0.66357421875	0.390380859375	0.09814453125	0	0	0	-0.425242891734495	-0.443656665215696	-0.510140818232346	0.601742130826989	0.085850217965841	-0.236622759462699	0.967801327638827	0.991270132477122	0.117849657205035	-0.0591183791679529	-0.10006630069113	0.96442787599743	0.244674492877944	-13.5834932832254	-75.4209621950045	-70.0584836304526
42554	1654838884612	9.57665454936484	-0.506915611959534	2.47849759844839	0.0706407194949628	0.0654322333828339	0.0920061742071105	0.0328405243448908	-0.0218769696937181	-0.01026544742062	0.67236328125	0.39306640625	0.10498046875	0	0	0	-0.425177481781793	-0.443830686059932	-0.510050522410037	0.601736566685548	0.0857255734016357	-0.236418473509477	0.967862299838365	0.991245727255267	0.118145147149882	-0.058937529665819	-0.100414313039215	0.964441822811714	0.244476862194526	-13.5540173132161	-75.4348472392106	-70.0693050690237
42555	1654838884613	9.60078168032571	-0.511189257636437	2.47818784638333	0.0631140259693301	0.0623566413822843	0.115548436937352	0.0319393511659213	-0.0172501716088191	-0.012116925940601	0.663818359375	0.386474609375	0.110595703125	0	0	0	-0.425099567675867	-0.444111926821665	-0.510046846949638	0.601587207255334	0.0852336207429619	-0.236091740268471	0.967985495796321	0.991258892634814	0.118285142957048	-0.0584331475109122	-0.100702719265402	0.964504699383386	0.244109908033078	-13.4617220315912	-75.4629419357444	-70.1494509341889
42556	1654838884614	9.57260444793977	-0.532743778713483	2.42993243670768	0.0420123859262581	0.0211522827773085	0.0777590661344511	0.0308395405572467	-0.0141343015148051	-0.0138779993030665	0.667724609375	0.390380859375	0.10009765625	0	0	0	-0.425012659543736	-0.444266101124787	-0.509987429564267	0.601585149671576	0.0850809061556252	-0.23596429392174	0.968030005424291	0.991239162658428	0.118554121827984	-0.0582223548975291	-0.101025550332359	0.964502862718204	0.243983741237881	-13.4216044656863	-75.4731053781896	-70.1723761148016
42557	1654838884615	9.55454696427841	-0.494659500314603	2.47262013775577	0.069686742379874	0.0731846867862519	0.0684913688676083	0.0302846092024505	-0.018865233756424	-0.0166732630215457	0.673583984375	0.385009765625	0.10302734375	0	0	0	-0.424929089578258	-0.444497674756973	-0.509974055674431	0.601484454084068	0.0846965593492328	-0.23572294844048	0.968122504858207	0.991242917457013	0.118723462738329	-0.0578119190715017	-0.101311260113134	0.964541046806173	0.243714171931674	-13.3445957452251	-75.4942492220818	-70.2363563825165
42558	1654838884616	9.57301220266275	-0.52521966989257	2.45108981280427	0.0407743179971024	0.0459608677639167	0.0828916557495045	0.0272147408255976	-0.0182774940118377	-0.0136898658646971	0.670166015625	0.388427734375	0.103515625	0	0	0	-0.424864373898259	-0.444654783033601	-0.509912733734602	0.60146603536084	0.0845422558012924	-0.235554428689842	0.968177007632711	0.991226332667591	0.118958535534692	-0.0576127090996424	-0.101601990189107	0.964553253038962	0.243544775434763	-13.3091712372006	-75.5067217886946	-70.2565559054032
42559	1654838884618	9.61088249344331	-0.488887547638006	2.39649065989735	0.0814441685212764	-0.00807408172487714	0.104194295898774	0.0283356830382326	-0.0214921854998527	-0.0134610595959453	0.662841796875	0.39208984375	0.108154296875	0	0	0	-0.424827549002962	-0.444899127932846	-0.50987737204818	0.601341321585313	0.0841796628756704	-0.235209853361266	0.968292367645181	0.99123147765433	0.119093238162756	-0.0572447231727283	-0.101852550607983	0.964620715880434	0.243172639145458	-13.246688721009	-75.5331558016182	-70.3081311461154
42560	1654838884619	9.58668305265283	-0.474431134834422	2.44155517635153	0.0869546314633238	0.0446901126040587	0.0909084268224767	0.0343814356382949	-0.0221661414658057	-0.0117493165756566	0.665771484375	0.395263671875	0.101318359375	0	0	0	-0.424756312949702	-0.445082115064091	-0.509784744099181	0.601334765453639	0.0840428510676159	-0.234999702740493	0.9683552751425	0.991205455358405	0.119403178586215	-0.0570493313829832	-0.102218121936198	0.964633619907262	0.242967970918901	-13.2137922428524	-75.5475905901987	-70.3214459335153
42561	1654838884620	9.55802307413289	-0.493003926377057	2.41694514968933	0.0636715614500677	0.0275476350560862	0.0582633646543886	0.035879345166857	-0.0222588445310677	-0.0101691454709854	0.6630859375	0.38916015625	0.1015625	0	0	0	-0.424623201940715	-0.445351042992489	-0.509750776417349	0.601258455924761	0.0836331888948245	-0.234771157744071	0.968446174656492	0.991196701196502	0.11969856463105	-0.0565805016100091	-0.102638147160092	0.964652661384799	0.242715169758234	-13.1221479482302	-75.5684734025816	-70.3924327979835
42562	1654838884622	9.57226742927562	-0.450708737425879	2.36077887369381	0.110470849904319	-0.0230730652355841	0.0560502586934337	0.0375934879959523	-0.0209415457574557	-0.01021707489286	0.67529296875	0.396240234375	0.099853515625	0	0	0	-0.424542405877629	-0.445535712736405	-0.509648929575199	0.601265035463523	0.0835117945186347	-0.234570556650921	0.968505257667068	0.991165770208993	0.120043428388976	-0.0563914112843	-0.103034926807814	0.964658607618829	0.242523348576195	-13.0897935471583	-75.5820627202487	-70.4032567509683
42563	1654838884622	9.58956478355472	-0.475058573039071	2.38752908545962	0.0798608454311251	-0.00122631264314401	0.0807118832530964	0.0408422021303253	-0.0199186707488489	-0.0117568745222695	0.6650390625	0.3935546875	0.10546875	0	0	0	-0.424425732765774	-0.445838632446526	-0.509601180881174	0.601163328579647	0.08306910052545	-0.234256307750476	0.968619381809494	0.991157860836105	0.120338867621499	-0.0558985853342627	-0.103467963354311	0.964698159643051	0.242181422368895	-12.9969898322946	-75.6083472678289	-70.4750994517297
42564	1654838884623	9.59631507938914	-0.449540417337329	2.38294383595726	0.103891903290854	-0.00260406663869991	0.0847350360212076	0.0334774761156609	-0.017543295871102	-0.0136018373198226	0.673583984375	0.389892578125	0.10009765625	0	0	0	-0.424341354905973	-0.446010466474956	-0.509525063023226	0.601159952477319	0.0829177478919386	-0.234090754053635	0.968672372864597	0.991133496638547	0.120637249335481	-0.0556870354195305	-0.103822150457289	0.964701079578212	0.24201815662271	-12.9579042794466	-75.6205679123182	-70.4952449753207
42565	1654838884624	9.58996277417898	-0.467620176706512	2.40865060497557	0.0780632896866801	0.0236676777730135	0.0858477715866517	0.0336751002217973	-0.01603262659296	-0.0136945896134814	0.6650390625	0.386962890625	0.10107421875	0	0	0	-0.424223464272891	-0.446263705947062	-0.509498343420227	0.601077861151736	0.0825202856128777	-0.233865278414522	0.96876077233467	0.991127419679008	0.120891780824702	-0.0552414272938604	-0.104196163186558	0.964723902928257	0.241766314229402	-12.8706221552071	-75.6409770022113	-70.5644097678407
42566	1654838884626	9.58525671961741	-0.495532142801222	2.36208540132845	0.0527675426463001	-0.0224236405349597	0.0715859216222405	0.0387611171152132	-0.011773944236749	-0.00924035244515128	0.668212890625	0.396240234375	0.10546875	0	0	0	-0.424118529948268	-0.44642262092854	-0.50940893036663	0.601109688609773	0.0824187703720373	-0.233749075567715	0.968797458688657	0.991093498463176	0.121252028434492	-0.0550601753043259	-0.104598391930198	0.964706854579027	0.241660632155626	-12.8352171067769	-75.6494552499959	-70.5776012056546
42567	1654838884625	9.60858623953049	-0.496593613032371	2.38680859942221	0.0471595405762051	-0.00301104839538352	0.100241398726196	0.0313951326742101	-0.00940102308143178	-0.0110857223324299	0.66796875	0.388427734375	0.10693359375	0	0	0	-0.423992228689172	-0.44662223582956	-0.509390534084905	0.601066096414105	0.0820997244946013	-0.233626045442387	0.968854223363279	0.991083474048451	0.121503747591769	-0.0546844291294064	-0.104943712083974	0.964704986103061	0.241518336947588	-12.7577650642305	-75.6625832874298	-70.6377537567259
42568	1654838884626	9.60892766558289	-0.49473589624117	2.38581970258357	0.0471658385007269	-0.00287083897168167	0.100241410359587	0.0368703439706836	-0.0147036186609119	-0.0106274266054283	0.668701171875	0.3896484375	0.1015625	0	0	0	-0.423897490447214	-0.446788187809879	-0.509302930624474	0.60108381918285	0.0819816801817742	-0.233482718173422	0.968898768927345	0.991052284469686	0.121842884899754	-0.0544947781601359	-0.105329832250842	0.964696911840012	0.241382465652238	-12.7218848937684	-75.6728936430141	-70.6525372744104
42569	1654838884627	9.603132573166	-0.516133848844299	2.38750550423636	0.022018980490859	-0.000940436859915572	0.0962099338975548	0.0412410720977403	-0.0168948961944425	-0.0119362410022754	0.666015625	0.389404296875	0.1044921875	0	0	0	-0.42377926801228	-0.447009490356165	-0.509230619152794	0.60106391012251	0.0817333840975691	-0.233293584968815	0.968965302338715	0.991027003439525	0.122190617040478	-0.0541750086381431	-0.105759786202672	0.964698686803121	0.241187295068997	-12.6595496179206	-75.6883067688403	-70.6923145404601
42570	1654838884628	9.58564879157126	-0.481468990632158	2.40589414402271	0.0509649397391754	0.0264947164105828	0.08183142244315	0.0457200745964114	-0.0170600080633825	-0.00566515094467078	0.658935546875	0.39111328125	0.10205078125	0	0	0	-0.423675458679706	-0.447194164094333	-0.509102762650487	0.601108028871811	0.0816635133232254	-0.233121131116946	0.969012697965545	0.990981901483164	0.122626965548366	-0.0540138709334362	-0.106235312041343	0.964685008459837	0.241032970625022	-12.6309264156742	-75.6992963567077	-70.6943837529452
42571	1654838884628	9.62271580933791	-0.442239742959958	2.37550998926634	0.0930619967044029	-0.00531372524325419	0.108330425423757	0.0455594938221626	-0.0187771690208403	-0.00863775175939543	0.670166015625	0.389404296875	0.105712890625	0	0	0	-0.423544093595681	-0.447412440256949	-0.50901667126779	0.601111085786141	0.0814482733495605	-0.232953334953934	0.969071164828577	0.99094892084218	0.123024858303342	-0.0537133179124311	-0.106707146199749	0.964674882005996	0.240865018167069	-12.5713619082097	-75.7128644262778	-70.7286667949544
42572	1654838884629	9.58615344141587	-0.474455706135277	2.42661744077499	0.0505514697545533	0.0504919483321826	0.0869496272183667	0.0491273060938541	-0.0269064952950673	-0.00802625928702345	0.663330078125	0.39404296875	0.097900390625	0	0	0	-0.423449829730618	-0.447640284633253	-0.508867304754156	0.601134330600751	0.0813444834514037	-0.232688808598964	0.969143432813131	0.990901617833027	0.123488615706704	-0.0535214495948207	-0.107224338598629	0.964679470157646	0.240616834549143	-12.5403893523368	-75.7296526990228	-70.7311467656608
42573	1654838884630	9.59306848184534	-0.448994714064866	2.42120003409395	0.0729592368655708	0.0494343357521742	0.0909988738762397	0.0506621406114717	-0.0272027630317668	-0.00951588953927381	0.666748046875	0.397705078125	0.103515625	0	0	0	-0.423319563291201	-0.447929867780637	-0.508752022703453	0.601107943950264	0.0810604258903334	-0.232394812667652	0.969237771859746	0.99086471672359	0.123943853460186	-0.0531510521224162	-0.107779035562384	0.964691957173173	0.240318761769937	-12.4712876442258	-75.751597354158	-70.7709831656785
42574	1654838884631	9.62408883068814	-0.4328379122095	2.39306768808236	0.0921193988287885	0.0192914986049432	0.113457333010908	0.0510558786785294	-0.0241816313388878	-0.00970745648247115	0.66796875	0.390380859375	0.10107421875	0	0	0	-0.423208952179228	-0.448157990593866	-0.508608728309642	0.601137055711488	0.080943153908233	-0.232158159670488	0.969304283872614	0.990816054110402	0.124422688565216	-0.0529390355720281	-0.10831321596408	0.964687298283032	0.240097196524456	-12.4341956804748	-75.7670889452105	-70.7786242337425
42575	1654838884631	9.62471829127311	-0.430534336061226	2.39095076501283	0.0899724339027697	0.0193650830785638	0.11347688238701	0.0510907656509614	-0.0243912532914301	-0.0127748633745313	0.667724609375	0.397216796875	0.09765625	0	0	0	-0.42303398481186	-0.448457058744158	-0.508522381494556	0.601110224231665	0.0805825079632872	-0.231930852378932	0.969388745099266	0.990781158689122	0.124894470426609	-0.0524792039144965	-0.108899747460631	0.964681009956991	0.239857028313476	-12.3414761074901	-75.7867849942799	-70.8406282787063
42576	1654838884632	9.57136989822879	-0.436047699926706	2.41354285375919	0.0751440274341215	0.0547356932839478	0.0674849572814988	0.0514673641576379	-0.0212648295089876	-0.0114334292866233	0.6591796875	0.39208984375	0.0947265625	0	0	0	-0.422910804446351	-0.448681086998796	-0.508389386670914	0.601142217093834	0.0804510273799013	-0.231724487215609	0.969449015791022	0.990732804985704	0.125373366005823	-0.0522496719753194	-0.109435557835088	0.964668482495947	0.239663467304239	-12.2987642984867	-75.800856258625	-70.8538184568016
42577	1654838884633	9.60278547744023	-0.423107620520099	2.36162278519413	0.0912379253926006	0.00156137861237819	0.0848599926051499	0.0499517761992377	-0.0210725283507295	-0.0114741664705711	0.6630859375	0.39208984375	0.094482421875	0	0	0	-0.422757306822931	-0.448994113708853	-0.508297075460167	0.601094525396186	0.0800767378668863	-0.23143809408619	0.969548412746032	0.990700263249803	0.125820685212928	-0.0517894156109192	-0.110003201995984	0.964678995199077	0.239361090765249	-12.2086246010648	-75.8240921282528	-70.9145662353096
42578	1654838884634	9.62638635856412	-0.423258391614893	2.38552835345395	0.0876032713744934	0.0206693181902029	0.113495443992559	0.0536231921620332	-0.0172433851700818	-0.0162862805492828	0.6708984375	0.405517578125	0.091552734375	0	0	0	-0.42260636612051	-0.449222714386975	-0.508181868791835	0.601127274730114	0.0799002822200731	-0.231275205896443	0.969601837889508	0.990652721519927	0.126310095091311	-0.0515067492974106	-0.110558266295719	0.964654103301065	0.239205624386432	-12.1516311904895	-75.8365966675752	-70.9411421489024
42579	1654838884635	9.62678619015944	-0.420489549930646	2.3844042242031	0.0838971660897419	0.022342460177429	0.113523835221601	0.0513575286789152	-0.0107117467145568	-0.0152308608150106	0.670654296875	0.394775390625	0.099609375	0	0	0	-0.422394885102668	-0.449579461234043	-0.508122545527972	0.601059354641276	0.0793795735253647	-0.231023488842504	0.969704610131337	0.990623748332395	0.126788079530557	-0.0508858735684986	-0.111191153185887	0.964651714605842	0.238921738151225	-12.0232842993483	-75.8606817119934	-71.0373002571695
42580	1654838884637	9.62807909936394	-0.424561521924932	2.33546394846334	0.0826386159198407	-0.0251994246810883	0.103314186394812	0.0519454526693171	-0.0061805177289665	-0.015527079701694	0.659423828125	0.40576171875	0.098876953125	0	0	0	-0.422222336643493	-0.449770465355157	-0.508031537920472	0.601114617532858	0.0792209699447314	-0.230964093552417	0.96973172857782	0.99057664089436	0.127264509834939	-0.0506128743593924	-0.111722676460345	0.96460319926174	0.238869653867028	-11.9631755032164	-75.8670437219037	-71.0679683065877
42581	1654838884638	9.62675119924968	-0.411420226248243	2.40763749087211	0.0809219836986458	0.0461984647516962	0.118658972798899	0.0582418516531776	-0.00565043336475791	-0.018522751932621	0.6689453125	0.39599609375	0.093017578125	0	0	0	-0.42191286500288	-0.450086530905087	-0.508014388193362	0.60110983225315	0.0786869921726969	-0.230950291831453	0.969778490154211	0.990539482844942	0.127821831467172	-0.0499310757510131	-0.112427266212825	0.964532810278295	0.238823298085773	-11.8088015197512	-75.8780206212222	-71.185528158719
42582	1654838884639	9.62793858478747	-0.415238814311782	2.35916483286454	0.0796464836110147	-0.00134465933494394	0.108448527545352	0.0555677039639431	-0.00203133832452373	-0.0157375921625796	0.66259765625	0.392578125	0.092529296875	0	0	0	-0.421717759600508	-0.450275274549521	-0.507925037410264	0.601180891860897	0.0785286670022717	-0.230931494004508	0.969795799916505	0.99048781395062	0.128332575218621	-0.0496451463194616	-0.112991764629861	0.964469489001391	0.238812616733763	-11.7435723284724	-75.8820860673304	-71.2193071522745
42583	1654838884639	9.61471797969262	-0.452431942243541	2.41369712482528	0.0309856977380179	0.0510059587504628	0.110511112315097	0.0564838398883054	-0.00664482428563852	-0.0138561937746469	0.66064453125	0.39111328125	0.095947265625	0	0	0	-0.421534337401352	-0.450567740440081	-0.507825535156106	0.601174466781265	0.0782038742362695	-0.230723942789097	0.969871443170842	0.990443038472432	0.128844056470037	-0.0492117532083801	-0.113607841260778	0.964450968860626	0.238595027332646	-11.6541927336535	-75.8998654452422	-71.2759120468108
42584	1654838884640	9.592329916771	-0.45061663587186	2.36368978723716	0.0340074753159475	0.00839765906901282	0.0767843326435766	0.0596980237293278	-0.00540767439989421	-0.0123346424605867	0.652099609375	0.39404296875	0.095703125	0	0	0	-0.42134323107136	-0.450770844487617	-0.507708563698063	0.601254972318663	0.0780753202151402	-0.230666108646098	0.969895556591208	0.990383085002811	0.129403791955991	-0.0489489894453915	-0.114217289906642	0.964389861492476	0.238551054780533	-11.5957339832939	-75.9055377419083	-71.3001894415804
42585	1654838884641	9.60943021529343	-0.474007140104302	2.39224246680975	0.00520737065001235	0.0288713929392378	0.101332741323217	0.0659464450643629	-0.0045516646703968	-0.0107270195599786	0.66845703125	0.394775390625	0.08740234375	0	0	0	-0.421107003139145	-0.451006833320373	-0.507608410978556	0.601328054650142	0.07785307480431	-0.230634084645933	0.969921036859727	0.990322628545205	0.130005186021988	-0.048577185989976	-0.114891209998115	0.964316633998875	0.238523456410996	-11.5113113064353	-75.911533999101	-71.3473230885027
42586	1654838884641	9.61000376699509	-0.474929869675662	2.36833297980585	0.004540843964941	0.00521701265507046	0.0962320293405252	0.0653897210834022	0.00330030347915467	-0.00974309905235973	0.6708984375	0.40087890625	0.0986328125	0	0	0	-0.420882195659119	-0.45119311253438	-0.507489153258837	0.601446349979219	0.0777590690523333	-0.23065670202366	0.969923199532666	0.990253293502629	0.130625873403575	-0.0483248994282502	-0.115550603145599	0.964227341973418	0.238565905157394	-11.4511268762841	-75.9120430548262	-71.3699912662429
42587	1654838884642	9.60995069110537	-0.472537748910255	2.36902672378711	0.00207423168109627	0.00664094291513498	0.0962320006756965	0.0701053176633261	0.00445894991837437	-0.00664425480188567	0.66064453125	0.393310546875	0.087158203125	0	0	0	-0.420614851593109	-0.451493447559885	-0.507365671987679	0.60151216805505	0.0774674833979602	-0.230563551826707	0.969968678661863	0.990182949589357	0.131326443015596	-0.0478653497573384	-0.11634653135572	0.964154455434359	0.238473626859591	-11.3493446320952	-75.9227522311359	-71.4280690542566
42588	1654838884643	9.6396131143638	-0.45278210772211	2.36810938811914	0.0217394612923269	0.000466831160782916	0.123842276178511	0.0707078945716067	0.00887935901428666	-0.00848423415834474	0.673828125	0.389892578125	0.09814453125	0	0	0	-0.420362813719078	-0.451674549528775	-0.507241511787826	0.601657090766293	0.0773923000543579	-0.230636535545894	0.969957329145815	0.990105273646745	0.132002307122761	-0.0476123724589845	-0.117055452624818	0.964044697815229	0.238570412300317	-11.2864430723491	-75.9200789619436	-71.4503286308793
42589	1654838884644	9.62149513324093	-0.417590535078632	2.38864272112649	0.0503899056880425	0.0292331392156606	0.109498404437472	0.0687540733566472	0.00638358741993776	-0.00371523963646459	0.674072265625	0.396484375	0.089111328125	0	0	0	-0.420166658358669	-0.451887116104294	-0.507078761739016	0.601771670067544	0.0773383273843428	-0.230555467557185	0.969980906769242	0.990027065672693	0.132662217193872	-0.0474040648544312	-0.117750551391105	0.963973501974351	0.238516027005308	-11.2408207769024	-75.9256330008109	-71.4563081189362
42590	1654838884644	9.63832065443743	-0.441351979375591	2.41828821854206	0.0226379089040799	0.0499385376527633	0.134027056242624	0.0731290719341711	0.00419076649759024	-0.00501059130972598	0.66357421875	0.4013671875	0.09423828125	0	0	0	-0.419927613725999	-0.452081347805474	-0.506927592287853	0.601919986687612	0.0772937422872528	-0.230576816015004	0.969979386028185	0.989942582390947	0.133370430815257	-0.0471806290048747	-0.118487809382968	0.96387066564998	0.23856650839355	-11.1868698733351	-75.9252747042053	-71.4678667639797
42591	1654838884645	9.65309359058856	-0.410104393805012	2.29193518133469	0.0650628438113258	-0.0710611089377297	0.116768058752202	0.0739101483596327	0.0102316729630705	-0.00542526246160537	0.672119140625	0.39111328125	0.090087890625	0	0	0	-0.419627092504506	-0.452375286471911	-0.506801040423389	0.602015289549561	0.0770186112304539	-0.230546097822809	0.970008572283157	0.989861802555213	0.13413161732397	-0.0467153195022952	-0.119338783998655	0.963772382885468	0.238539406851343	-11.0805120481438	-75.9321527389373	-71.5270554087778
42592	1654838884646	9.65796164670549	-0.377415134626032	2.3383381063812	0.0902657206093276	-0.0245421048336442	0.131041297562913	0.072767911821889	0.0135555320755058	-0.00414207889704615	0.66943359375	0.397216796875	0.09619140625	0	0	0	-0.419367297777945	-0.452539438043495	-0.50666699852038	0.602185751392418	0.0769932192512537	-0.230654811878972	0.969984743151357	0.989775776959973	0.134839244329547	-0.0465004250724454	-0.120066462980341	0.963647620214834	0.238678253139404	-11.0245340546958	-75.9265369174099	-71.5408465978113
42593	1654838884647	9.64018350419577	-0.345987792351026	2.3352445821142	0.117985755182097	-0.0199070450274001	0.111620941740917	0.0714307285738852	0.0153697908219635	-0.00275470381142321	0.66796875	0.402099609375	0.094970703125	0	0	0	-0.419123393179158	-0.452734832118672	-0.506522882734181	0.602329911546092	0.0769314821062664	-0.230684248210752	0.969982641436626	0.989691284402649	0.135540301113289	-0.0462600081231492	-0.120800284098872	0.96354221723885	0.238733506152934	-10.9664437727113	-75.9260417107795	-71.5568404931151
42594	1654838884648	9.63316952843737	-0.363925951283571	2.36434357255374	0.0945434530171543	0.00573611197370317	0.112610919856616	0.0695090832646011	0.0126545051940888	-0.00105002487943168	0.6689453125	0.3955078125	0.088134765625	0	0	0	-0.418883187417737	-0.452886947880073	-0.506383943830904	0.60249945159219	0.0769374277402645	-0.230778640370629	0.969959716360115	0.98960555344221	0.136224353458034	-0.0460844238466454	-0.121496834563902	0.963423138954854	0.238860575477259	-10.9201506137911	-75.9206412059784	-71.5625454444579
42595	1654838884649	9.62619541846566	-0.38193718614237	2.3932598711882	0.0688527877502606	0.0322228181086383	0.113612433768026	0.0693161479953205	0.0111450479635459	-0.000940282584398778	0.6640625	0.40625	0.09619140625	0	0	0	-0.41860456962114	-0.453143634293768	-0.50625461715885	0.602608764951757	0.0767342186087637	-0.230770947174234	0.969977643884028	0.989522931214643	0.136952953795292	-0.0456974512103909	-0.122295659346046	0.963321679599838	0.238862121982671	-10.8305628801312	-75.9248642545543	-71.6073901853549
42596	1654838884651	9.60286086997607	-0.377828068468947	2.36898287654142	0.0725226586342032	0.0135457087789434	0.0850056728108299	0.0615525450526724	0.0104715944171487	-0.00259003837300595	0.675537109375	0.39599609375	0.08642578125	0	0	0	-0.418390306686627	-0.453286069847031	-0.506133194664876	0.602752419664682	0.0767218562819187	-0.23084501995359	0.969960995881424	0.98944701107389	0.137557481057993	-0.0455252861816985	-0.122916105720944	0.963217792696754	0.238962580306606	-10.7862886494492	-75.9209425718176	-71.6156580288642
42597	1654838884652	9.61897855028961	-0.398299430803598	2.42340457036183	0.0425609342880367	0.0589155962365077	0.114598151048021	0.0647499641082453	0.0118325085075505	0.000463398816042175	0.66552734375	0.398193359375	0.0830078125	0	0	0	-0.41810608488622	-0.453544302338647	-0.506019933826658	0.602850474137105	0.0764827847724295	-0.230849448913927	0.969978822227367	0.989367979206981	0.138262256702364	-0.0451059873128125	-0.123698768600776	0.963115818740252	0.238969735194534	-10.6889310710241	-75.9251418712912	-71.6694380022343
42598	1654838884654	9.59554858973902	-0.3944503166406	2.39948088812889	0.0462278144318247	0.0402469788517525	0.0859941156960833	0.0547300393332784	0.0175775272333812	-0.00171081403797508	0.660400390625	0.39697265625	0.089599609375	0	0	0	-0.417896208852806	-0.453646993978402	-0.505925779845381	0.602997735293139	0.0764870202844058	-0.230989481064268	0.969945150699602	0.989298916828452	0.138803727828589	-0.0449575166455903	-0.124247289266464	0.963004353457733	0.239134326961623	-10.6473886140618	-75.917210999231	-71.6788614187313
42599	1654838884654	9.59616855177575	-0.400605024686355	2.35330858534336	0.0427919333112145	-0.00557826539685294	0.0758481093515364	0.0505166755705874	0.0215169596474812	0.00253830283714585	0.66796875	0.3955078125	0.104736328125	0	0	0	-0.417673027175978	-0.453844643304285	-0.505819614580757	0.603092695710234	0.0763431144987634	-0.230994897728235	0.969955197981923	0.989229561874245	0.13939151975006	-0.0446640586586001	-0.124886359474199	0.962918148881457	0.239148564227324	-10.5788466363849	-75.919577042271	-71.7114357425812
42600	1654838884655	9.54782969740929	-0.383983290517274	2.37692766869501	0.0519837654121298	0.0284073748476193	0.0338739830038133	0.0508901984125719	0.0246536854489072	0.00385664953215248	0.666259765625	0.392333984375	0.0908203125	0	0	0	-0.417469348142671	-0.453906057466129	-0.505731373640671	0.603261479022495	0.07641013742215	-0.23119278104431	0.96990277290671	0.989160244757888	0.139910242153707	-0.0445772849218753	-0.125393385350437	0.962795420706543	0.239377268713778	-10.5488951151949	-75.907235699638	-71.7110731088726
42601	1654838884655	9.57599764866397	-0.358572107105791	2.42532174717403	0.0730621976511544	0.0689056438650956	0.0716641167934728	0.0481693294874413	0.0160196268357821	0.00753353534508072	0.667236328125	0.390380859375	0.09130859375	0	0	0	-0.417291273858066	-0.453923374355874	-0.50566552903185	0.603426827149928	0.0765118859246329	-0.231427765327728	0.969838708625136	0.989100817803387	0.140340731021704	-0.044542692295878	-0.125799457601881	0.96267630523022	0.239643125950578	-10.5294602701904	-75.8921687421943	-71.7056975666939
42602	1654838884656	9.56997603822197	-0.385125840523887	2.40636003989259	0.0483866871210365	0.0468330799788988	0.0624732460782979	0.0497055609287511	0.0157122446284637	0.00604815667543614	0.673095703125	0.4033203125	0.09130859375	0	0	0	-0.417118959504714	-0.454003148703729	-0.505554751073523	0.603578750666218	0.0765910692681748	-0.231537568094328	0.969806250067158	0.989030852090983	0.140852334577385	-0.0444813832550768	-0.126300363105346	0.962575178573116	0.239785829177608	-10.5091723819054	-75.8845409904987	-71.6961322547952
42603	1654838884657	9.57516295632349	-0.35747351735069	2.42877697410172	0.071960239887444	0.0702116844727214	0.071663009776973	0.0498839329852204	0.0173401796143497	0.00747390530275121	0.669189453125	0.398193359375	0.0908203125	0	0	0	-0.416933780961429	-0.454128984756812	-0.505438854932041	0.603709078465731	0.0765968582574694	-0.231592621345928	0.969792647447487	0.988959479981258	0.14139557243639	-0.0443445492770476	-0.126854516120964	0.962482285464781	0.23986617499391	-10.4741290745518	-75.8813455793239	-71.6989024329378
42604	1654838884658	9.57592880200145	-0.364619045818975	2.38203503317076	0.0707126692001551	0.0227963329745777	0.0615179374859682	0.0458561738956133	0.0102906468917169	0.00946519189167088	0.662353515625	0.401123046875	0.092529296875	0	0	0	-0.416794824786895	-0.454208485943396	-0.505314498777953	0.60384930458903	0.0767038172435877	-0.231644124740646	0.969771892711581	0.98889111000264	0.141878662711295	-0.044326263377386	-0.127322020789843	0.962398797038106	0.23995345065574	-10.4661815536534	-75.8764714188822	-71.6788555583741
42605	1654838884658	9.59928523580777	-0.370154207559101	2.38463401918715	0.0641137269634369	0.0181850423105825	0.0850562782361663	0.0534992030161394	0.00898367131763526	0.00510191040656519	0.65576171875	0.393310546875	0.093017578125	0	0	0	-0.416557030036917	-0.454396593694141	-0.50521735452432	0.603953144750014	0.0765583206532171	-0.231691029038245	0.96977218489806	0.988819411150738	0.14247133082854	-0.0440237665750114	-0.127964822003024	0.962299946459078	0.240007952731968	-10.3940101550989	-75.8765400261834	-71.7147494278411
42606	1654838884659	9.61593750164365	-0.395084458840397	2.41470876662695	0.0362916304576336	0.0389836331664867	0.109526468422217	0.0440035543233652	0.00710637575987464	0.00504093096689417	0.6650390625	0.400390625	0.0888671875	0	0	0	-0.416421352929767	-0.454490744554725	-0.505103955528187	0.604070702855231	0.0766163144477406	-0.231717701378667	0.96976123207119	0.988756304344811	0.142926501867842	-0.0439657330453357	-0.128416941946291	0.962226024347507	0.240062839876467	-10.3782846974693	-75.8739684538498	-71.7037865772183
42607	1654838884661	9.59829723082959	-0.365121287005764	2.41061635342215	0.0629321013514569	0.0425031196164487	0.0901368519095804	0.0441996374566411	0.00861620972018384	0.00493120921017558	0.661376953125	0.39501953125	0.088623046875	0	0	0	-0.416225116568785	-0.454631865565788	-0.505025320391152	0.604165494639744	0.0765185851519712	-0.231779342517422	0.969754217577079	0.98869614748144	0.143412156202231	-0.0437364997317523	-0.128937326177097	0.962138914001309	0.240133038298945	-10.3223866591948	-75.8723217884824	-71.7301100746307
42608	1654838884660	9.62789655008424	-0.34720377716567	2.40946029736919	0.0825316244710146	0.036482335640687	0.117785882716502	0.037756817136483	0.00623880601220167	0.00343101159763974	0.6728515625	0.393310546875	0.09521484375	0	0	0	-0.416106492140686	-0.45471667176395	-0.50492930809927	0.60426362577991	0.0765582844846178	-0.231799710538041	0.969746215909736	0.988641947360381	0.143803562041533	-0.0436764863930321	-0.129328763220894	0.962075584212928	0.240176271236579	-10.3067108039428	-75.8704436119338	-71.7227606996295
42609	1654838884660	9.59903358922936	-0.371508036311315	2.36422813553871	0.0615794480256145	-0.00451550785739857	0.0799981260604952	0.0338084528877254	0.0112186397986923	0.00142037994743071	0.667724609375	0.400634765625	0.089599609375	0	0	0	-0.415987773546668	-0.45477910509216	-0.504861977813332	0.604354631975028	0.0765806978599703	-0.231866254833454	0.96972853757368	0.988596444364789	0.144137111236195	-0.0436069186458056	-0.12966289717794	0.962009632505825	0.24026027566252	-10.287124182813	-75.8662949640686	-71.722663718948
42610	1654838884661	9.58072273198264	-0.337646194021659	2.38462410129361	0.0904680967902985	0.0231156692862167	0.0656711090267308	0.0341997995431324	0.0142378766640173	0.00119756609051546	0.666259765625	0.394775390625	0.090576171875	0	0	0	-0.415854963391625	-0.454835206569488	-0.504796957272868	0.604458117834061	0.0766099335858912	-0.231966281008683	0.969702306149143	0.988548193717391	0.144489362701209	-0.0435349602536007	-0.130013025401494	0.961932673601016	0.240379168574882	-10.2655385663861	-75.8601413251119	-71.7235102043476
42611	1654838884662	9.57363894431195	-0.35683252003391	2.41360357763046	0.0655786264486399	0.0491530470311661	0.0666171486964337	0.02293454896456	0.0114033414851026	0.00579836145371844	0.663818359375	0.3955078125	0.09130859375	0	0	0	-0.415737872116188	-0.454923710522128	-0.504744583336121	0.604515793743992	0.0765546463952503	-0.231994114091491	0.969700013995154	0.988510175642172	0.144789854562299	-0.0433996620690851	-0.13033425784183	0.961880776937939	0.240412878586166	-10.2329058698662	-75.8596037325487	-71.7378698054473
42612	1654838884662	9.54411135768251	-0.377713643351048	2.39281227901489	0.0452492876438077	0.0319806554120637	0.0338962765714328	0.0264166049009647	0.0136795649778706	0.00107048297571242	0.66845703125	0.396728515625	0.084228515625	0	0	0	-0.415629720531974	-0.454962519402226	-0.504696180390664	0.604601361930956	0.0765817428765067	-0.232088106467753	0.969675382534902	0.988471885634434	0.145067401819175	-0.0433448986587944	-0.130608452897596	0.961816281711662	0.240522082699384	-10.2157233524204	-75.8538280321558	-71.7387424299534
42613	1654838884663	9.54385353586346	-0.377240193406234	2.39391503667399	0.0441267136196797	0.0333139880276001	0.0338969504954925	0.0301696684958964	0.00719150405808592	0.00319902762839964	0.665771484375	0.4052734375	0.09033203125	0	0	0	-0.415516890479104	-0.455100398118206	-0.504594460917642	0.604660046117206	0.0765361152877702	-0.232012415454138	0.969697098135183	0.988420024581655	0.145460287475622	-0.0432106442154254	-0.13102701272127	0.961775204422867	0.240458682718454	-10.1873740890058	-75.8589198874302	-71.7433418138726
42614	1654838884663	9.56786480528882	-0.3868749614136	2.37212283253861	0.0391233324443695	0.00492261439506078	0.0523580501965259	0.0193312900866267	0.00713587921143808	0.00450631843483783	0.667236328125	0.391845703125	0.092041015625	0	0	0	-0.415454669400848	-0.455134615298955	-0.50453753409072	0.604724545825089	0.0765887173006559	-0.232036860045624	0.969687095903833	0.988388064573261	0.145678588733375	-0.0432062795641541	-0.131237198199916	0.961736265493207	0.24049979925941	-10.1846615884072	-75.8565743497506	-71.7334240733134
42615	1654838884664	9.59866648318197	-0.377044882748945	2.3226256946854	0.0560010542561663	-0.0490407499628545	0.0699038999121253	0.0208864764132998	0.00670292162722274	0.00148833646312361	0.667236328125	0.394775390625	0.085205078125	0	0	0	-0.415328739515511	-0.455227912835967	-0.504514925628705	0.60475968394506	0.0764644743857432	-0.232082103476683	0.969686073635561	0.98835904439844	0.145933455900638	-0.043009601308304	-0.131527881123033	0.961686707662498	0.240539171014932	-10.1376390403426	-75.8563346478286	-71.7644134948952
42616	1654838884665	9.60526280608919	-0.357285008784498	2.29575786017491	0.0793597080946007	-0.0740134887930143	0.068985283585322	0.0195458304827647	0.00852429880444275	0.00286054924122856	0.6630859375	0.3916015625	0.09375	0	0	0	-0.415258485937441	-0.455262126289884	-0.504465407563607	0.604823477383807	0.076502097875394	-0.232122121509326	0.969673527392943	0.988327966580516	0.146150084857255	-0.0429881747814341	-0.131739361982233	0.961644151129838	0.240593572445915	-10.1304496605554	-75.8533931233041	-71.7589720480146
42617	1654838884666	9.57410787599128	-0.366643794484028	2.34674442418445	0.0609041813667343	-0.0190750577516559	0.0514449093757072	0.0146386481999808	0.00583347342803374	-0.000126236037392871	0.6669921875	0.390380859375	0.090087890625	0	0	0	-0.415218205791818	-0.455309422245115	-0.504412803685352	0.604859401077743	0.0765221069862043	-0.232092129896682	0.969679127537771	0.988303175435586	0.146323130114613	-0.0429694661055952	-0.131913610239163	0.96162507498166	0.240574343187686	-10.1269247273348	-75.8547060290826	-71.752315615766
42618	1654838884667	9.59762827976943	-0.372409463291489	2.34868929945987	0.0564871787104747	-0.0235750552742074	0.074969197698417	0.0140329675995271	0.00142691521394712	0.00174653488731927	0.66943359375	0.39697265625	0.099365234375	0	0	0	-0.415180351337985	-0.455353564867412	-0.504363884501577	0.60489294824447	0.0765404059460388	-0.232064608079072	0.969684270231668	0.988280020257696	0.146484695746696	-0.0429515479516792	-0.132076371153446	0.961607119144354	0.240556813650814	-10.123511572083	-75.8559117945785	-71.7462201695618
42619	1654838884669	9.6206272826709	-0.374552317531669	2.37440352680627	0.0533442306626904	-0.00515224791553109	0.103545728594943	0.00906941624991993	-0.000898833376256931	0.00335983930827534	0.669921875	0.398193359375	0.095458984375	0	0	0	-0.415181103466132	-0.455319825165024	-0.504357063175555	0.604923516621123	0.0766156192732422	-0.232114521693675	0.969666383712612	0.988275271461759	0.14649720829915	-0.0430180866350641	-0.132068295591955	0.961593165938419	0.240617016272674	-10.1363852252623	-75.851718522128	-71.733141807486
42620	1654838884670	9.59700326070327	-0.368540739851947	2.37291902984304	0.0576466307544395	9.40606324044344E-05	0.0800228551764981	0.0170500409782605	0.00116782773828688	0.00337773341503541	0.67041015625	0.39599609375	0.089111328125	0	0	0	-0.415138848825376	-0.455368093742612	-0.504295727549277	0.604967316945888	0.07665143675353	-0.232082894029295	0.969671123393188	0.988246838941749	0.146691110742973	-0.0430105027944688	-0.132260132183738	0.9615712393411	0.240599270794324	-10.1353672708774	-75.8528295628579	-71.7228446033919
42621	1654838884671	9.62117132571258	-0.378260129715986	2.35053030266183	0.0521188126115534	-0.0285292847752083	0.098492225320566	0.0185867649924977	0.000855368158079742	0.00189347478765716	0.667724609375	0.396484375	0.0888671875	0	0	0	-0.41507264934697	-0.455430724472726	-0.504257230623096	0.60499768291677	0.0766150011411469	-0.232075237440191	0.9696758354044	0.98822258704381	0.146878682256825	-0.0429275104675095	-0.132462296736021	0.961544453920658	0.240595101940669	-10.1163862029422	-75.853934202275	-71.7303926757244
42622	1654838884671	9.62176175229454	-0.381791705710553	2.3264993717422	0.0514965217903404	-0.052036990284067	0.0934371929832984	0.0199277668065741	-0.000966630879185886	0.000522812328742136	0.6630859375	0.391845703125	0.08349609375	0	0	0	-0.415020746966506	-0.455498403156539	-0.504193381189509	0.605035551578497	0.0766204781730657	-0.232027265940289	0.96968688254756	0.9881924160206	0.147093627904107	-0.042886053086964	-0.132684027840206	0.961523173142635	0.240557968618412	-10.1083457268048	-75.8565243215475	-71.7256468922021
42623	1654838884673	9.64481858171374	-0.383508142381056	2.35204411548902	0.0471588593052812	-0.0312557494006036	0.122025245395973	0.0227678947945206	-0.00285688440946761	0.000734711153952795	0.671630859375	0.400390625	0.08447265625	0	0	0	-0.414968629525763	-0.455654981063646	-0.50406161852617	0.605063186345175	0.0766008459213321	-0.231813211982364	0.969739627505526	0.988143304096639	0.147445842476576	-0.0428081079393915	-0.133060591360155	0.961520856917203	0.240359149482797	-10.0985264892399	-75.8688973445317	-71.7142698889611
42624	1654838884674	9.62004487243117	-0.369046976415786	2.39871293853453	0.0526287775981715	0.0217610800993764	0.108604861115229	0.020375853215135	0.00168466911186778	-0.00430446555390838	0.6630859375	0.392822265625	0.086669921875	0	0	0	-0.414897992058516	-0.455726409431215	-0.50401603319342	0.605095805816495	0.0765625560618042	-0.231796031097115	0.969746758167775	0.988115919901308	0.147654988939563	-0.0427192354665842	-0.133285797618783	0.96149290387859	0.240346191865488	-10.07852365699	-75.870570884722	-71.721537859554
42625	1654838884674	9.5964011918689	-0.362241781812815	2.39742268506776	0.055752632832514	0.0285046999416887	0.0850825666050259	0.0158035875021125	0.00237861936333898	-0.00291806053874842	0.664794921875	0.3984375	0.083984375	0	0	0	-0.414824019305011	-0.45588670587619	-0.503923354701076	0.605102963965478	0.0764571279843397	-0.23162551972353	0.969795816753811	0.98807654244066	0.1479645711889	-0.0425585708335641	-0.133637771078752	0.961486403588574	0.240176688825984	-10.0483339766718	-75.8820900223718	-71.7324911587401
42626	1654838884676	9.59022589927235	-0.38501571271899	2.40105352046323	0.0316932902060093	0.0303620619542463	0.0809369266517663	0.008949220849629	-0.00289724323479045	-0.00265791889703448	0.672119140625	0.393798828125	0.082275390625	0	0	0	-0.414803433025209	-0.455940601935659	-0.503888591102825	0.605105418264835	0.0764289105259187	-0.231559979479324	0.969813692179769	0.988062887233289	0.148068799413823	-0.0425130746049505	-0.13375482237302	0.961486144748682	0.240112558914101	-10.0404369937441	-75.8862895279574	-71.7339600586235
42627	1654838884676	9.59023875832728	-0.384701707206368	2.40105248678976	0.030642113663572	0.0329911383540798	0.0809318205898872	0.00646300452397029	0.00225725976218134	-3.19766900964962E-05	0.66796875	0.392333984375	0.084228515625	0	0	0	-0.414778506985046	-0.456098602622364	-0.503767910677718	0.60510391421688	0.0763839137146671	-0.231304074348554	0.969878303147044	0.988023664083234	0.148353364629325	-0.0424325160071798	-0.134069895715523	0.96150387643156	0.239865709658366	-10.0319014630961	-75.9014789174157	-71.7251445254801
42628	1654838884677	9.5906684234203	-0.388677476507528	2.37760491925377	0.030030767229499	0.0095403994316498	0.0758920692720757	0.00131356823314843	0.010934174906801	0.00380040705645438	0.66845703125	0.392333984375	0.08740234375	0	0	0	-0.414761262312516	-0.456079097980993	-0.503758596545392	0.605138189239771	0.0764382655829225	-0.231359245068993	0.969860861812549	0.988015014640794	0.148400743383091	-0.0424682258600095	-0.134102656196756	0.961483291110382	0.239929903339544	-10.0375406570414	-75.8973770555012	-71.7170765537967
42629	1654838884678	9.59099371399605	-0.392841250602103	2.35456401663008	0.03003249533317	-0.0124756708121163	0.0708544467275178	-0.000185423854204476	0.0110016664287527	0.00221800057828432	0.662841796875	0.394775390625	0.091552734375	0	0	0	-0.414786890835263	-0.456093298759421	-0.503686883093047	0.605169614090113	0.0765568532535215	-0.231268950680904	0.96987304358399	0.98799503597378	0.148502717982453	-0.0425764212093108	-0.134182178813311	0.961489269416345	0.23986147603593	-10.065403060319	-75.9002418475829	-71.6839312874714
42630	1654838884679	9.61482654739984	-0.40328654970598	2.3334720202441	0.0250859471961636	-0.0407655008976361	0.0893492850243369	0.00221673366565518	0.0189725966408436	0.0093630264511113	0.665771484375	0.38916015625	0.090576171875	0	0	0	-0.414759982857624	-0.456040478204269	-0.503674277432453	0.605238350662003	0.0766786089842356	-0.231391296043417	0.969834243074347	0.987980659732959	0.148572757745679	-0.0426655792117266	-0.134218504379504	0.961449012569669	0.24000247771833	-10.0802443977169	-75.8911190993779	-71.6658001250351
42631	1654838884681	9.59015399553673	-0.394125241909287	2.3577676314544	0.0306078655390535	-0.0121044296847429	0.0708531432719823	-0.00249446560368114	0.0177888680584292	0.0062625625980312	0.672119140625	0.396728515625	0.09130859375	0	0	0	-0.414765076850758	-0.45593307937305	-0.503706224999088	0.605289184651074	0.0768101320611541	-0.231565623056805	0.969782225982237	0.987986097876667	0.148499939844307	-0.0427929698510544	-0.13410322149443	0.961418290903887	0.240189916316787	-10.1019951616654	-75.8788979370207	-71.6493584634484
42632	1654838884682	9.62513263736402	-0.457473418883274	2.34571023846082	-0.0267113066801159	-0.0423691907075988	0.104585841689197	0.0050566245084466	0.0170821127127583	0.00957720795759405	0.669677734375	0.39990234375	0.093017578125	0	0	0	-0.414735081770804	-0.455892196270688	-0.50368243009054	0.605360328189864	0.0769326299951526	-0.231669747768165	0.969747646767479	0.987967696964147	0.148597643133304	-0.0428785518713813	-0.134168551447009	0.961378108979116	0.240314234656105	-10.1166529357073	-75.87077944941	-71.6297629795749
42633	1654838884682	9.62903406295577	-0.423042076566706	2.41616075892563	-0.00180662564921731	0.0276802449608128	0.123827349540022	0.011558903062255	0.0190925318182986	0.00648144111469059	0.67626953125	0.397705078125	0.0791015625	0	0	0	-0.414644656407978	-0.455867442660312	-0.503700743635263	0.605425672148068	0.07694087116726	-0.231860724294784	0.969701349320254	0.987952720812659	0.148710739547185	-0.0428314998826	-0.134274062211906	0.961314579351019	0.240509367269313	-10.0977502079495	-75.8599169118841	-71.6420447784494
42634	1654838884684	9.64779700540041	-0.464478780288886	2.35095419668941	-0.0318827970814902	-0.0469405319467833	0.128112051228298	0.0145753798616614	0.0188343634326828	0.00811484771315742	0.66455078125	0.404541015625	0.093994140625	0	0	0	-0.414578103207687	-0.455847998444994	-0.503663412943309	0.605516940404402	0.0770515375519827	-0.23198426050545	0.96966301540206	0.987922654690834	0.14889632560603	-0.0428802118655947	-0.134431725829473	0.961256046586321	0.240655197308819	-10.1029980617037	-75.8509289997259	-71.6265454027034
42635	1654838884685	9.62994038121359	-0.435326713169968	2.34759749351814	-0.00586548180391962	-0.0420653909131582	0.108737480289097	0.0222040687995625	0.0176346428795243	0.00529884165285342	0.662841796875	0.39599609375	0.084716796875	0	0	0	-0.414414256317376	-0.455994035290266	-0.503583957109294	0.605585222807459	0.0769452758436882	-0.231985147696638	0.969671241077875	0.987866863776538	0.149328044606122	-0.0426637380736767	-0.134901756762638	0.961188860912506	0.240660527881231	-10.0528194949933	-75.8528571507162	-71.6502511835551
42636	1654838884686	9.62951106733549	-0.435471465112267	2.34933102448502	-0.00589382800526427	-0.041610939547123	0.108739379889604	0.0219687267006232	0.016372109370488	0.00848033774064642	0.663330078125	0.395263671875	0.087890625	0	0	0	-0.414332184753173	-0.456000805865604	-0.503523277685364	0.60568672971807	0.0770551477578155	-0.232083114509337	0.969639073141995	0.987826355083349	0.1495862990133	-0.0426969712069528	-0.135135474272173	0.961125052793417	0.240784211455165	-10.0554280023892	-75.845318245267	-71.6330433647721
42637	1654838884687	9.5987090415948	-0.449032545763288	2.37689174539437	-0.0262974516817023	-0.010207385761575	0.0860834701504647	0.0214197098408275	0.0115973572697659	0.00575770145228785	0.6689453125	0.39794921875	0.08349609375	0	0	0	-0.414219860545756	-0.456112539859532	-0.503431643213201	0.605755593225517	0.077035863189087	-0.232051322058647	0.969648214412602	0.987774812673791	0.149956975482221	-0.0425890238381095	-0.135522674228229	0.961074965564633	0.240766516224683	-10.0312447732607	-75.8474602012871	-71.6349846653885
42638	1654838884688	9.57470933029733	-0.442844848846891	2.37692606499092	-0.0219750798996674	-0.00489780372917512	0.0625564611065084	0.0226381177966214	0.0204056761864087	0.00200383123542058	0.662353515625	0.40283203125	0.08984375	0	0	0	-0.414110755479891	-0.456122837842993	-0.503397127831662	0.605851112638049	0.0770865769777767	-0.232196674049634	0.969609387439157	0.987738165932809	0.150207227773416	-0.0425570709085711	-0.135760727788051	0.961000776942929	0.240928477987857	-10.0172694736099	-75.8383645661489	-71.6344378691727
42639	1654838884688	9.6041079670802	-0.425190660034301	2.37664497731936	-0.0049224563115592	-0.0101399282983403	0.0902410457359135	0.0264063673423634	0.0137963109064124	0.00261553951858038	0.6650390625	0.397705078125	0.081787109375	0	0	0	-0.413920236558516	-0.45629140444919	-0.5033260491007	0.605913426398366	0.0769220850449316	-0.232207529873862	0.969619851231512	0.987680514150767	0.150665852128044	-0.042272957897545	-0.136272501992212	0.960926357257626	0.240936383986256	-9.95141496581982	-75.8408152583942	-71.6718050166598
42640	1654838884689	9.60378182612143	-0.424895825720741	2.37801522754678	-0.0049809079630089	-0.00966882701778151	0.090241487679016	0.0261900895360136	0.0124112254855589	0.0042642919185583	0.661376953125	0.388427734375	0.08544921875	0	0	0	-0.413825254776251	-0.456331053554211	-0.503260072783424	0.6060032402665	0.0769825374082528	-0.232271840608246	0.969599649852786	0.987637098605793	0.150955915302787	-0.0422524921469785	-0.136552738499525	0.960865289047094	0.241021256142949	-9.94326072330034	-75.8360843294664	-71.6631034046732
42641	1654838884689	9.60974703487392	-0.401317289228386	2.37543153459445	0.0185845573726986	-0.0089226463230653	0.0944082544919187	0.0316724448696588	0.00712026735757692	0.00481417447616886	0.6748046875	0.3955078125	0.091552734375	0	0	0	-0.413729391144994	-0.456492200462535	-0.503083091694042	0.606094270449102	0.0770445475368737	-0.232103078551552	0.969635136853926	0.987560039190765	0.151470787508713	-0.0422110118929359	-0.137074091966256	0.96082504206457	0.240885723639331	-9.93917142184019	-75.8443960034529	-71.6368741383629
42642	1654838884690	9.627544350607	-0.43417299289112	2.35761713305767	-0.0103947528809118	-0.0357439335392139	0.10875855694289	0.0383544817045658	0.0107600193967202	0.00314025121096767	0.665771484375	0.389404296875	0.08642578125	0	0	0	-0.413599352530964	-0.456570524007199	-0.502988526446174	0.60620250284642	0.0770917977425947	-0.232151261041206	0.969619846495415	0.987500353497609	0.151876235698946	-0.0421504551815811	-0.137476931020849	0.960749395538137	0.240957864387517	-9.9222837857413	-75.8408141490735	-71.6299258385276
42643	1654838884690	9.60361770617235	-0.42742419346374	2.35745758378553	-0.00475511909154812	-0.0299712077412348	0.0852341142056758	0.0467311657189655	0.0158425411341397	0.00293549692912265	0.6650390625	0.385986328125	0.084228515625	0	0	0	-0.413489838163138	-0.456614895080955	-0.502861906103206	0.606348822639478	0.0772654819609183	-0.232208211292041	0.969592384410015	0.98743068757165	0.152312114252145	-0.0422096800961653	-0.137879231717928	0.960666626078263	0.241057982652062	-9.93190328503212	-75.8343832253278	-71.5955366651239
42644	1654838884691	9.60330058710819	-0.426390756624718	2.35893608429992	-0.00479676095388962	-0.0294759926508105	0.0852355812505792	0.0477216453976605	0.0107490525552164	-0.00126332333762235	0.6611328125	0.398681640625	0.08447265625	0	0	0	-0.413321890533587	-0.4567255129713	-0.502758589918816	0.606465679877839	0.077271212127895	-0.232262355146636	0.969578959217878	0.987360965051516	0.152797630137172	-0.0420857329388942	-0.138374435748897	0.960576432464487	0.24113364121369	-9.90027106326134	-75.831240426425	-71.5982653279638
42645	1654838884692	9.54900313939073	-0.432391234881877	2.38457635177037	-0.0196710302019965	0.00724858984994942	0.0390225293910298	0.050561906285492	0.0088585156243096	-0.00104219385550007	0.6640625	0.396728515625	0.09326171875	0	0	0	-0.413157420588781	-0.456910917203776	-0.502575964627727	0.606589448746794	0.0772996270370275	-0.23216228269231	0.969600661177081	0.987266826655375	0.153436691181869	-0.041968974075937	-0.13902870439504	0.960498753926446	0.241066719104859	-9.87603285611688	-75.8363211330972	-71.5845550051027
42646	1654838884692	9.54323532473886	-0.458604446888093	2.36519660488154	-0.0442619435631621	-0.0147266844872651	0.0298548576912019	0.0518223550826935	0.00753661367624797	0.00372728417574274	0.661376953125	0.388427734375	0.08837890625	0	0	0	-0.412996689771524	-0.457031709070088	-0.502440794184472	0.606719869034726	0.0773505304875027	-0.232176459757475	0.969593206952167	0.98718679162375	0.153973965154081	-0.0418838453145856	-0.139567667734716	0.960409344805232	0.241111502284475	-9.85459904076198	-75.8345758022875	-71.5742960562178
42647	1654838884692	9.51880955924826	-0.447658428637825	2.38849315417284	-0.0389619966325169	0.0134994941762771	0.0113307895372792	0.0561808736173989	0.00545540883255216	0.00400203912324532	0.670166015625	0.39404296875	0.093505859375	0	0	0	-0.412845272822555	-0.45709638294979	-0.502353010366852	0.606846875560591	0.0774086993391628	-0.232282547688945	0.969563154882523	0.98712287138938	0.154400467366865	-0.0418202397994024	-0.139986892409986	0.960315215809906	0.24124335480458	-9.83465341751362	-75.8275415517852	-71.5692285118268
42648	1654838884694	9.52482968061499	-0.423661545410442	2.38571367788707	-0.0149830309497102	0.0125852351562282	0.0154923426221032	0.0564926929369721	0.00898079605406547	0.00990162955159684	0.672119140625	0.401611328125	0.0888671875	0	0	0	-0.41268083403539	-0.457211199282303	-0.502191556859518	0.60700583909029	0.077523118939705	-0.232301816610858	0.969549396384298	0.987031012811425	0.154996338877737	-0.0417841439178924	-0.14057007426303	0.960214559842639	0.241304896941387	-9.82387321029716	-75.8243222582346	-71.5452573254672
42649	1654838884693	9.50656776546645	-0.389882153593473	2.40539448241798	0.0137398394281979	0.0395584050635521	0.00112981880240426	0.0638668917644347	0.00664499381406105	0.0118163071617982	0.66552734375	0.396240234375	0.08447265625	0	0	0	-0.412497942809126	-0.457309566107567	-0.502056632070526	0.607167642516257	0.0776141978810185	-0.232386572915215	0.969521798112868	0.986943593900436	0.15556917074448	-0.0417202058092475	-0.141132486501787	0.960101408103642	0.241426815849496	-9.80427556113101	-75.8178668119221	-71.5313277133709
42650	1654838884693	9.529366918747	-0.391569228409225	2.43172137248518	0.00988116465199437	0.0591086320065347	0.0296618335784746	0.0630600773643361	0.000737374143033247	0.0138249485027104	0.669921875	0.39208984375	0.08447265625	0	0	0	-0.412343176079068	-0.457457294267716	-0.501851341244866	0.607331178479268	0.0777561104239794	-0.232321145721519	0.969526107199994	0.986838720277065	0.156236672863512	-0.0417066207509683	-0.141786203326202	0.96000884751297	0.241411858124575	-9.80174048371827	-75.8188745506632	-71.4950003985955
42651	1654838884694	9.52941463997195	-0.391321822959382	2.4315741904742	0.0098966560058865	0.0606735687217898	0.029652295304821	0.0694703109569391	-0.00927057542584826	0.014803075280882	0.66064453125	0.394775390625	0.0869140625	0	0	0	-0.412203436192529	-0.457700174927583	-0.501544411412463	0.607496568256363	0.0779275065043722	-0.232041847820316	0.96957923069244	0.986704187224599	0.157083061143996	-0.0417104161460121	-0.142625911542934	0.959938275495755	0.241197754124664	-9.811147617501	-75.8313039710754	-71.4362060373247
42652	1654838884696	9.53581359741063	-0.367817180453227	2.42718956863007	0.033882007829891	0.0597710058544879	0.0338124754112616	0.0694516922855394	-0.00914126573800211	0.0163393309556026	0.667724609375	0.39208984375	0.080078125	0	0	0	-0.412059961292387	-0.457888940388375	-0.501295752458337	0.607656872862438	0.0780805736744818	-0.23187622053082	0.969606539977432	0.986587016741404	0.157818313733893	-0.0417065731928162	-0.143350906561351	0.959857696850181	0.241088613139455	-9.81461600358567	-75.8376977429012	-71.3898784297537
42653	1654838884697	9.50496518129511	-0.376643302406714	2.47635015403279	0.0149499218264763	0.115120054533376	0.0160997966169578	0.0758820403166863	-0.0192784817140192	0.0157923504702488	0.66455078125	0.39599609375	0.08349609375	0	0	0	-0.411911644773987	-0.458181252259285	-0.50096290483878	0.607811570269269	0.0782122161072102	-0.231521713227972	0.969680641013104	0.98644248611888	0.158729929750162	-0.0416657050955856	-0.14427082460152	0.95979294939351	0.240797473955405	-9.8168100289325	-75.8550608708448	-71.3341028108871
42654	1654838884697	9.53026411622606	-0.390902279876844	2.42831025293193	0.00949966703223753	0.0630258212841198	0.0296379048093875	0.077103249311539	-0.0203286542095633	0.0236341049452539	0.662353515625	0.3896484375	0.078125	0	0	0	-0.411789648049493	-0.458408385043263	-0.500650914568222	0.607980016138117	0.0784208285280614	-0.231235847157698	0.969732002484313	0.986307157317305	0.159555895002555	-0.0417145992979787	-0.145080546861493	0.959724908168584	0.240582076562604	-9.83673288090044	-75.8671079949045	-71.2662572135388
42655	1654838884698	9.55380592059086	-0.392994781419081	2.45169931581722	0.00519105379191632	0.0838998495040564	0.0581492315308196	0.0814626408988061	-0.0350624968054223	0.02034020358804	0.665771484375	0.397705078125	0.086669921875	0	0	0	-0.411667473094484	-0.458784914953811	-0.500226856028455	0.608127771043811	0.078578988637422	-0.230670032679869	0.969853947029236	0.986137339211482	0.160605968207779	-0.041699774447118	-0.146145443848307	0.959685916849627	0.240092586813653	-9.85296045221793	-75.8957511567765	-71.1883138076769
42656	1654838884699	9.60754598386692	-0.377723183185752	2.47157179475991	0.0209681022362607	0.0972915492456532	0.114365313961502	0.0904736688698455	-0.0482086822758374	0.0247536824874201	0.660400390625	0.389404296875	0.07373046875	0	0	0	-0.411577092911116	-0.459128336387881	-0.499822570878963	0.608262167947732	0.0787571367312818	-0.230112909176813	0.969971835902504	0.985979733031377	0.161563388461556	-0.0417281387099378	-0.147109753127607	0.959658960537026	0.239610934633063	-9.87895994735486	-75.923495977194	-71.1062675696568
42657	1654838884699	9.57893710419567	-0.395238804825685	2.46894111854531	0.000474710379697173	0.104946672520507	0.0866511702867889	0.087358478420649	-0.0599517861402552	0.0272208982167378	0.671142578125	0.404541015625	0.09033203125	0	0	0	-0.411498361062396	-0.45957894844398	-0.49933400361296	0.608376398149978	0.0789054859659561	-0.229334077056767	0.970144218858721	0.985798013310675	0.162669303357629	-0.0417249888899855	-0.148243722420891	0.959658574101052	0.238912577980175	-9.90653238842845	-75.964162560751	-71.0135295384551
42658	1654838884701	9.6511895431438	-0.414030892359418	2.46802611869974	-0.0126564881086563	0.0910430574664195	0.157246513759944	0.0922119805743314	-0.0695032446247312	0.0312426733897687	0.671630859375	0.39404296875	0.07861328125	0	0	0	-0.41147051002729	-0.459978381871106	-0.498861445150809	0.608481031858156	0.0791142935065695	-0.228560375019168	0.970309787405061	0.985630532579294	0.163658555839856	-0.0418130404045127	-0.149242694328443	0.959674961677916	0.238223815178241	-9.95515058670896	-76.0033305678078	-70.9071257119984
42659	1654838884701	9.70112149817402	-0.435359583342478	2.41682998435842	-0.0235806657731854	0.0334087369425369	0.194344542824123	0.0859645635084766	-0.0703748456310693	0.0296356131518562	0.666015625	0.4033203125	0.077880859375	0	0	0	-0.411411715841651	-0.460380485139583	-0.498451387592213	0.608552728346746	0.0791920462200782	-0.227856053072351	0.970469081884512	0.9854797543975	0.164573228551252	-0.041776861022102	-0.150194119352655	0.959686027574909	0.237580417941742	-9.97310566284741	-76.0411159971742	-70.8349531288975
42660	1654838884702	9.69792489591689	-0.47182539904193	2.34301465488216	-0.0491799631790277	-0.0363498450719035	0.175222435449326	0.0882038675399157	-0.0541845236892925	0.0236727325606838	0.673828125	0.3984375	0.077880859375	0	0	0	-0.411340003091242	-0.460738530673996	-0.498042531943597	0.60866496907944	0.0793472854551566	-0.227241707348	0.970600440311287	0.985322461874782	0.165506076464217	-0.0418017317636354	-0.151141173794291	0.959671269287034	0.237038816418529	-10.0012642445621	-76.0723504429632	-70.7520386195396
42661	1654838884703	9.73672668659847	-0.44441104079745	2.26027139035358	-0.00955316051998194	-0.114467930757593	0.192160415824672	0.0835222792105417	-0.0428569892954216	0.0225955979291356	0.669189453125	0.394287109375	0.07568359375	0	0	0	-0.411149650745857	-0.461196389196932	-0.497630819239334	0.608783560082285	0.079322916669803	-0.226657454799233	0.97073903448606	0.985140392173509	0.166639064869499	-0.0415912222427183	-0.152336084363553	0.959613370187886	0.236507710566543	-9.97380813013478	-76.1053800198259	-70.7115735421999
42662	1654838884704	9.68929036000478	-0.423687223219066	2.30158577770188	0.00013344890919267	-0.0565056883893147	0.155058711846607	0.0813513060960449	-0.0369792609681254	0.0158636319014238	0.66796875	0.3984375	0.068115234375	0	0	0	-0.411037408134841	-0.461501645839709	-0.497296642301132	0.608901083557134	0.0794245608865196	-0.226220047981133	0.970832750281632	0.984997809404802	0.167488597339626	-0.0415558086065739	-0.153202658579168	0.959568684176708	0.236128960002064	-9.9811494956264	-76.1277579303127	-70.6541184017622
42663	1654838884704	9.68898803574722	-0.414864879845014	2.34649882442485	-0.00040785712719562	-0.00594274470381434	0.165018910266026	0.0769804086693271	-0.0347568746532176	0.0171214918497167	0.669921875	0.39306640625	0.078125	0	0	0	-0.410874535595502	-0.461970492203393	-0.496830143630684	0.609036278650499	0.0794861454265365	-0.225551340710661	0.970983287903997	0.98479898648224	0.168683848758188	-0.0414332643135739	-0.154443869767581	0.959516728291773	0.23553076066507	-9.97707485808066	-76.1637783044529	-70.5871236445328
42664	1654838884705	9.63671539883241	-0.429996232355796	2.32062380296191	-0.0162467389536726	-0.0182969832737807	0.108798215576437	0.0764744092630875	-0.0271602312450713	0.0149048262388973	0.6611328125	0.388427734375	0.069580078125	0	0	0	-0.410750370404173	-0.462236625754699	-0.496529332941259	0.609163407102441	0.0795918466796388	-0.225207269875364	0.971054490508854	0.984662730847834	0.169485509483488	-0.0414001033139934	-0.155256060820219	0.959456277101988	0.235242870047492	-9.98120517831332	-76.1808476035668	-70.535778227231
42665	1654838884705	9.60690659628986	-0.442176950769014	2.34484230528126	-0.0351089717608358	0.0135075206828567	0.0860521860994758	0.08280032161403	-0.0268334652719736	0.0103869851405073	0.66650390625	0.40185546875	0.068359375	0	0	0	-0.410611577667879	-0.462571760750183	-0.496153173253019	0.60930905713975	0.0797187896548712	-0.224746603450901	0.971150801273029	0.984495885315866	0.17046032191211	-0.0413658125720824	-0.156245852335642	0.95939160038584	0.234850996883142	-9.98941026212418	-76.2039689941466	-70.470139276049
42666	1654838884706	9.59695201006907	-0.393335161249529	2.30887604871738	0.0167308693868017	-0.00773109127264679	0.0659142051429793	0.0812203290610842	-0.0260895648985433	0.0164709985473331	0.669189453125	0.3994140625	0.063232421875	0	0	0	-0.41047401455201	-0.462843369095884	-0.495837965997838	0.60945205761951	0.0798414543181961	-0.22440858560338	0.971218888242936	0.98434928888964	0.171311589705366	-0.0413378361199467	-0.157104486361194	0.959319094952305	0.234574198123056	-9.99433256634794	-76.2203376326284	-70.4151485530197
42667	1654838884707	9.63841707798999	-0.428570276959769	2.31381051951927	-0.0196496828239356	-0.0124515745846071	0.108801117579869	0.0730327359666213	-0.0296473187055679	0.0166105512009837	0.667236328125	0.3955078125	0.079833984375	0	0	0	-0.410212959282175	-0.463431340493256	-0.495328525469454	0.609595253050613	0.0797620890097606	-0.22368875243779	0.971391451058544	0.984110918869165	0.172749959786435	-0.0410262203508024	-0.158630730059741	0.95922927052223	0.233913441371169	-9.94795914509455	-76.2619087383079	-70.3749745897442
42668	1654838884707	9.64529115791485	-0.405192486004708	2.3072718215644	0.00426220776841208	-0.0131855265402263	0.112993130232974	0.0779902719599318	-0.0272103342856075	0.0165066308927073	0.668212890625	0.403564453125	0.07373046875	0	0	0	-0.410087589867081	-0.463699977640051	-0.495017478056853	0.609727968680999	0.0798800543096977	-0.223336790210736	0.971462739924618	0.983967215218049	0.173571730110483	-0.0410045592890894	-0.159460641850955	0.959162933314679	0.233620998747249	-9.95500906019799	-76.279118579684	-70.3195794616563
42669	1654838884708	9.66300935591353	-0.434373338999985	2.31126402051466	-0.0261589044496499	-0.0170278829805186	0.132331342185108	0.0672345922772446	-0.0151120245974022	0.0151905557518136	0.667724609375	0.39208984375	0.077392578125	0	0	0	-0.409871739538453	-0.463952533358485	-0.494808517411838	0.609850584171783	0.0798251557738856	-0.223196462971737	0.971499502533368	0.983840590615396	0.174339376448844	-0.0407857092249047	-0.160267391453237	0.959056369947218	0.233506407835932	-9.90769512213887	-76.2880017183623	-70.3206510136545
42670	1654838884709	9.68587367933096	-0.431303978595761	2.35991001164285	-0.0297307856154403	0.0265785275794059	0.16577729449774	0.0663610453265589	-0.0108154376719908	0.0101522923127541	0.673828125	0.40234375	0.071533203125	0	0	0	-0.409725945401175	-0.464155469511778	-0.494577835713378	0.609981240866048	0.0799049290867422	-0.223013326748903	0.971535001119378	0.983719480984262	0.175034828172367	-0.0407282660903228	-0.160969515870853	0.958972296272972	0.233368699574828	-9.89973980956366	-76.2965847847525	-70.2875678644591
42671	1654838884709	9.70387798038266	-0.464407284162915	2.34083487232633	-0.0594245988572723	-0.000329871720306657	0.180154995113165	0.0676982208234837	-0.0126559711969532	0.00880555347432013	0.67919921875	0.392333984375	0.071533203125	0	0	0	-0.409540786535186	-0.464401286538001	-0.494343523447636	0.610108408441785	0.0799118517744528	-0.222823744314832	0.971577930438674	0.983588816941733	0.175801649979036	-0.0405810183683371	-0.161762588793394	0.958876091491579	0.233215578451982	-9.87100237275529	-76.3069715490432	-70.2705129574914
42672	1654838884710	9.70503118746655	-0.472383980958084	2.29219320132827	-0.0604643110936828	-0.0475338483965464	0.170248635558783	0.0715657539121405	-0.00729421934487125	0.00531643221401507	0.669921875	0.3896484375	0.077392578125	0	0	0	-0.409358987644191	-0.464616251786717	-0.494122622803033	0.610245681217685	0.0799491444198276	-0.222682716166113	0.971607195438269	0.98346207006391	0.176536105738349	-0.0404643066954894	-0.162513048867301	0.958773910414557	0.233113915621169	-9.84737794275517	-76.3140566583846	-70.2504832210126
42673	1654838884711	9.73447262257148	-0.449482386511988	2.31370304321101	-0.038277736430157	-0.0289005688623119	0.202946056687704	0.0790547169903805	0.0023431695828873	0.00306098901690753	0.66552734375	0.391845703125	0.07275390625	0	0	0	-0.409220018534329	-0.464734678467183	-0.493901030880211	0.610428068453796	0.0801669006509375	-0.222624637103319	0.971602562262286	0.983339572046864	0.177201496252457	-0.0405328974116237	-0.163145806218589	0.958664644534525	0.233121310121534	-9.86343583485292	-76.3129347184048	-70.1961042544808
42674	1654838884712	9.75736806182734	-0.449563697023219	2.34048865884978	-0.0422954365085863	-0.00918067040974537	0.231432933666333	0.0806370758823564	0.0145441704869554	0.00352971718797654	0.67529296875	0.400146484375	0.074951171875	0	0	0	-0.408952877972864	-0.464908430092243	-0.493708466946886	0.610630530592627	0.0802242025882427	-0.222695645299562	0.971581559563423	0.983198207219837	0.178018986525336	-0.0403797691448535	-0.163967565813425	0.958496682310953	0.233235390453756	-9.82218789596607	-76.30784997138	-70.188877621624
42675	1654838884713	9.72287214472318	-0.393909498916193	2.3067784128396	0.0136367608993691	-0.0259417275246566	0.187801352869915	0.079719044028117	0.0192598533523824	0.00308081565553571	0.671142578125	0.399169921875	0.05859375	0	0	0	-0.408659856359738	-0.465063200044847	-0.493547381728647	0.610839032604239	0.0802544039056869	-0.222850689341909	0.971543514678359	0.983061331456018	0.178816207577671	-0.0401893332049776	-0.164771506182545	0.958312232086899	0.23342668352817	-9.76890364852678	-76.2986440294584	-70.1947154837354
42676	1654838884715	9.7238484024779	-0.405856947799701	2.23714018053113	0.0121562548384841	-0.0970455335186589	0.172961211144338	0.083174929863464	0.0217451948010059	0.00138728230146338	0.67041015625	0.3935546875	0.070556640625	0	0	0	-0.408362018977304	-0.465225395121716	-0.493370078884118	0.611057901063805	0.0803025939914451	-0.22299460643839	0.971506509961531	0.982916132964062	0.17965285343732	-0.0400090966007059	-0.165612103897091	0.95812225616109	0.233611586381246	-9.71838056779711	-76.2896955999295	-70.1955429754287
42677	1654838884716	9.72325376883142	-0.404137573805344	2.24003419955862	0.0109070302999952	-0.0939953257921941	0.172991831318116	0.085879179307167	0.0307395009112023	0.00216531867559134	0.666015625	0.394775390625	0.071044921875	0	0	0	-0.407978802081294	-0.465552349931575	-0.493034997991967	0.611335257678274	0.0803550004564988	-0.222948375021223	0.971512787346123	0.982690335146084	0.180939575614747	-0.0397564483679437	-0.166921475886459	0.957890856022622	0.233628613051002	-9.65748011371209	-76.2912131848908	-70.1798352048643
42678	1654838884717	9.75180752392502	-0.380594763029393	2.26530827629774	0.0308776978856759	-0.0755608197308515	0.205673728225483	0.0814333600721429	0.0432806763544304	-0.00218775563028143	0.65966796875	0.389892578125	0.07080078125	0	0	0	-0.40762478848359	-0.465652561975842	-0.492915579282325	0.611591330088821	0.0804038464522093	-0.223302735345069	0.971427356966593	0.982548843674047	0.181752527028956	-0.0395447684704648	-0.167728921985696	0.957654377792948	0.234019446678086	-9.59127424057881	-76.2705741370497	-70.1977479442466
42679	1654838884718	9.73812094439819	-0.425121089984731	2.27886372667929	-0.0175557431974944	-0.0724237616005388	0.197277233707693	0.0793484775961227	0.0516387290711522	0.00162681187454159	0.667724609375	0.3974609375	0.0693359375	0	0	0	-0.407259127170483	-0.465716132635236	-0.492821202525945	0.611862524984573	0.0804714922883217	-0.223743359314438	0.97132036326414	0.982411942059395	0.182534531354436	-0.0393436267050312	-0.168496632096843	0.957402764789149	0.234496974279231	-9.52431074211572	-76.2447684667037	-70.2183811065809
42680	1654838884719	9.73044454570342	-0.446571388751943	2.28934960566992	-0.041686336603515	-0.0704835390656175	0.193080398472345	0.0876111252627259	0.067590008080096	0.00187457984058363	0.669677734375	0.3984375	0.067626953125	0	0	0	-0.406835500525899	-0.465748828094636	-0.492724286996141	0.61219742048171	0.0806016122652358	-0.224322759820991	0.971175926146514	0.982255390209918	0.183415305031971	-0.0391557694802456	-0.169344998461147	0.957098806449117	0.23512580928063	-9.45476690268953	-76.2100069914805	-70.2360840794673
42681	1654838884720	9.69837251867689	-0.457317786167559	2.32322248589543	-0.062490167303198	-0.039081143945377	0.170272828955023	0.0868629129173222	0.0741053107711002	0.0043433700377187	0.665771484375	0.398681640625	0.06787109375	0	0	0	-0.406333105596641	-0.465871411300925	-0.49257063173675	0.612561350543056	0.0806760017658872	-0.224861508103831	0.971045150810374	0.98205741755421	0.184535160093297	-0.0388587611240891	-0.170454132733202	0.956757062614441	0.235714470857348	-9.36130952045395	-76.1786074331407	-70.2629858891798
42682	1654838884722	9.70290119376104	-0.43262792519337	2.32661385771136	-0.0386070777782754	-0.0397558784822408	0.174480097196282	0.0842125020677581	0.0776540175592556	0.00549877698611175	0.66357421875	0.398193359375	0.070556640625	0	0	0	-0.405903124883137	-0.465857849684722	-0.492490523360992	0.612921040181235	0.0808590965734856	-0.225529293838906	0.970875040425823	0.981901921592375	0.185391475219441	-0.0387119786262617	-0.17126127079559	0.956434283438483	0.236438234194463	-9.29852096292304	-76.1378677719241	-70.2757024107817
42683	1654838884723	9.70033944248745	-0.426626541908318	2.35905750970228	-0.0404589502853035	-0.0149515704093335	0.179403509745839	0.0903245604028818	0.0895745642568832	0.00916376320995984	0.6689453125	0.391845703125	0.067138671875	0	0	0	-0.4053364611473	-0.465933960568669	-0.492378288149982	0.613328231057295	0.0809383314945742	-0.226258963553596	0.970698649379161	0.981699054374595	0.186531949246152	-0.0383770576055098	-0.172383157921243	0.95604012118848	0.237215795306755	-9.18975739151055	-76.0957475549111	-70.3166352601562
42684	1654838884724	9.71141348133926	-0.383727172970852	2.33552719305788	0.00698956459322928	-0.0408188717886282	0.182899807617554	0.098312343298193	0.0917730592637726	0.0107104513249484	0.66650390625	0.395751953125	0.07177734375	0	0	0	-0.404839946253497	-0.465901529111014	-0.492277751861181	0.613761352735724	0.0811967603890407	-0.227051017798588	0.970492102708182	0.981513217817489	0.187534465879934	-0.0382443114290952	-0.173317308287091	0.955656140786922	0.238080766178968	-9.12579676368534	-76.046584942711	-70.322207883913
42685	1654838884725	9.68620785426237	-0.381114625532548	2.31934720826905	0.0108555321754086	-0.0585261533224718	0.154443148892126	0.100623655005973	0.0977584454053089	0.0117545126340191	0.66552734375	0.406982421875	0.077392578125	0	0	0	-0.404327004822341	-0.465891987266644	-0.492130846802893	0.61422435558776	0.0815037716516091	-0.227812080920231	0.970287993841704	0.981302928049233	0.188653805592924	-0.0381353515430305	-0.174360828767719	0.955254624391896	0.238928658744264	-9.06847591957928	-75.9981687996634	-70.3144385025299
42686	1654838884726	9.68381327155115	-0.379937782670258	2.32951741026059	0.0107051837828686	-0.0578846447375249	0.154447057746836	0.0953578922658416	0.104560583444622	0.0109761408633554	0.66650390625	0.39013671875	0.076171875	0	0	0	-0.403808463637674	-0.465812289424714	-0.492061435641828	0.61468136401683	0.0817889091500181	-0.228724099008514	0.970049411562522	0.98111987875308	0.189628536497368	-0.0380105467128284	-0.175255122195021	0.954843602208556	0.239915271430974	-9.00272592547672	-75.9417824607964	-70.3235781331578
42687	1654838884727	9.67625215996131	-0.411477799492577	2.29688521656514	-0.0154954031274578	-0.105545292922422	0.140375514891495	0.0916129204459812	0.111169523740643	0.010251281127588	0.66455078125	0.400390625	0.06591796875	0	0	0	-0.403233377551433	-0.465666657186392	-0.492127790595403	0.61511596088624	0.0819296042170768	-0.229886639601118	0.969762688953199	0.980975995562535	0.190426161904302	-0.0377355666777349	-0.175993284198364	0.954405579298079	0.241114815226629	-8.89489589091341	-75.8743104831601	-70.3843736224514
42688	1654838884728	9.66343890710446	-0.362735716875862	2.27354904034374	0.0363378216140704	-0.126645154860577	0.120352583181747	0.098485368231424	0.116577050977015	0.011474236295177	0.6689453125	0.392578125	0.0625	0	0	0	-0.402675941980523	-0.465556025068811	-0.492074054597104	0.615607665696743	0.0822414246289887	-0.230912698322328	0.969492482605459	0.980785542079493	0.191430421084929	-0.0376047115542913	-0.176906948769202	0.953956875145176	0.242219346544454	-8.82475683758451	-75.8110128418582	-70.3962320630532
42689	1654838884731	9.64645064477503	-0.398322620088823	2.34236507061139	-0.0125995898471515	-0.0730255544167925	0.121789967199597	0.0873471453333829	0.125659525089044	0.0102945128264387	0.66943359375	0.3916015625	0.072265625	0	0	0	-0.402050025783267	-0.465609816777237	-0.491884126565692	0.616127650183831	0.082515009106749	-0.231729944446831	0.969274216163198	0.980523699807752	0.192811565600762	-0.0373761191926196	-0.178226113090734	0.953480431376152	0.243126550576685	-8.73972411215066	-75.7600837051366	-70.4000685564245
42690	1654838884729	9.69757500880828	-0.391182783786336	2.33092149553154	0.00204627715964835	-0.107095753969724	0.168178835699491	0.0887482009004882	0.136361227673598	0.0108505922784479	0.664306640625	0.399658203125	0.071044921875	0	0	0	-0.401472038676327	-0.465416119548319	-0.491893436239385	0.616643239815592	0.082857366098391	-0.232942407637581	0.968954328958412	0.980348641029135	0.193722099091368	-0.0372597685978359	-0.179028486324293	0.953000305901127	0.244416075651319	-8.66766678614868	-75.6857635572594	-70.419581495253
42691	1654838884729	9.62210362044087	-0.362142187395978	2.38626063012355	0.0152972046543961	-0.0438086685459013	0.107398099051702	0.0872415553374359	0.136558508830178	0.010804575597015	0.669189453125	0.39697265625	0.068603515625	0	0	0	-0.400873794537762	-0.465271768133128	-0.4918703926564	0.617159541333688	0.0831713972126235	-0.234094493489249	0.96864972348301	0.980155530220531	0.194727435361871	-0.0370993597720818	-0.179937920583211	0.952512988906399	0.245644765262339	-8.58838873564093	-75.6153433335592	-70.4403905771315
42692	1654838884731	9.66581080917647	-0.373389333740003	2.40414920075133	0.00632859447182686	-0.0526794994755372	0.154479667481613	0.0834796873942776	0.143322686075613	0.0115899445146536	0.67041015625	0.3955078125	0.075439453125	0	0	0	-0.400296124581027	-0.465041841494547	-0.491902862597763	0.617681691547433	0.0835353188549737	-0.235369890656238	0.968309281725766	0.979987678329405	0.195589172827074	-0.0370003485843755	-0.180682043452974	0.952022000819988	0.246998196609543	-8.5195625327574	-75.5370355299166	-70.4596760079298
42693	1654838884734	9.62160019458545	-0.337178956177842	2.40969322897467	0.0385980200218441	-0.0428517773478167	0.111634142190477	0.0806567414519676	0.145220272986073	0.0113337457197363	0.662109375	0.388427734375	0.076171875	0	0	0	-0.399702504761051	-0.464867282535411	-0.491879117641165	0.61821618463482	0.0839066865133827	-0.236558028397592	0.967987586262855	0.979792497241059	0.196585682632582	-0.0368880974571872	-0.181566324819538	0.951522132472243	0.248272634631769	-8.45112281043908	-75.4634191226188	-70.4705000696563
42694	1654838884736	9.592803473101	-0.320296926575093	2.46930071236706	0.0435965367255269	0.010386136569393	0.0979074511855238	0.0768743646842511	0.13927521995919	0.00872738255539033	0.660888671875	0.394775390625	0.07177734375	0	0	0	-0.39914811860253	-0.464639058136421	-0.491926761802633	0.618707835809873	0.0842372133529516	-0.237798272574923	0.967654935112157	0.979637496112539	0.197377680876874	-0.0367753627041582	-0.182248369257134	0.951048911808457	0.249582650140321	-8.38207148531652	-75.3876772984482	-70.4939138180871
42695	1654838884737	9.59914719978591	-0.366581194768314	2.51787214594431	-0.00861109074336732	0.03299749002066	0.117897209769595	0.0765091003962404	0.136110540982018	0.00749959840436958	0.6689453125	0.39501953125	0.073486328125	0	0	0	-0.398615304553805	-0.464422354787265	-0.491975588025385	0.61917504482691	0.0845437943218568	-0.238986296748485	0.967335462395599	0.979489730328968	0.198131719525107	-0.0366563759543915	-0.182899466980495	0.950594220308786	0.250835430698659	-8.31418936442176	-75.3152958772769	-70.5182570953714
42696	1654838884738	9.54772732552654	-0.348284830925428	2.55041391793743	0.000377249804333089	0.0670722937767584	0.0757147940547806	0.0711479630634687	0.130670109847951	0.00788116073746806	0.6640625	0.39111328125	0.076904296875	0	0	0	-0.398097403730834	-0.464207982723543	-0.492021343951894	0.619632474144375	0.084851891743021	-0.240144819942764	0.967021520919926	0.979344790796246	0.198866908477082	-0.0365476873827073	-0.183531842490307	0.950148629514049	0.252058811837015	-8.25020014503899	-75.2445059600506	-70.5398344165761
42697	1654838884739	9.54733378154711	-0.362129384040297	2.49143478127931	-0.000666036327965627	-0.00349557295237501	0.0610120652918233	0.0649074592512161	0.129784658923095	0.00622634461631746	0.67041015625	0.399169921875	0.07861328125	0	0	0	-0.397617329474451	-0.463990418175579	-0.492059581680376	0.62007315634479	0.0851805198355697	-0.241244613891081	0.966718839843874	0.979207137797911	0.199555654756278	-0.0364818028668626	-0.184113172603607	0.949725527151575	0.253226702285714	-8.19806659075993	-75.1765681351416	-70.5524973108487
