// Start Time : 24/05/2022 11:48:00																																
// Update Rate : 100Hz																																
// Filter Profile : 46.1 human																																
// Firmware Version : 4.4.0																																
PacketCounter	Time_Of_Arrival	Acc_X	Acc_Y	Acc_Z	FreeAcc_X	FreeAcc_Y	FreeAcc_Z	Gyr_X	Gyr_Y	Gyr_Z	Mag_X	Mag_Y	Mag_Z	VelInc_X	VelInc_Y	VelInc_Z	OriInc_q0	OriInc_q1	OriInc_q2	OriInc_q3	Mat[1][1]	Mat[2][1]	Mat[3][1]	Mat[1][2]	Mat[2][2]	Mat[3][2]	Mat[1][3]	Mat[2][3]	Mat[3][3]	Euler_X	Euler_Y	Euler_Z
5490	1653392917528	8.65922597936689	0.837246214418474	4.34479103834658	3.87060175577325E-15	-8.21079857750428E-15	-0.0884709538570867	-0.00717788973400036	0.00334198319890416	0.013908666201568	0.37109375	-0.2509765625	0.203857421875	0	0	0	0.402975709816202	-0.33796300096704	0.596001371084759	0.606773395050052	0.0611267512848778	0.450893790362557	0.890482066124772	-0.995657311187785	-0.0352141140735709	0.0861770552312115	0.0702142361324713	-0.891882703040315	0.44678317455096	10.9173325853807	-62.9338857249316	82.2795953926897
5491	1653392917528	8.67220235530009	0.803839711922297	4.34552213914743	-4.18068357710411E-14	9.74087889342442E-16	-0.0794035121920125	-0.00222753848384453	-0.00283913692611072	0.0131710968059128	0.377197265625	-0.253662109375	0.20703125	0	0	0	0.402233550751695	-0.339075647741024	0.596815597442794	0.60584405452863	0.0576776955160119	0.450379159192731	0.890972444245506	-0.995929566249944	-0.0359613734026313	0.0826503399399858	0.0692645833681319	-0.892112881079432	0.446471751517377	10.4878026014916	-62.9956992644629	82.702153486442
5492	1653392917528	8.6949639573743	0.811709396579396	4.34294672808797	0.0113141603110478	0.0152295379046577	-0.0596316047681959	-0.00120239036020115	-0.00176722754584907	0.0115360469786546	0.370361328125	-0.24853515625	0.203857421875	0	0	0	0.402615288413993	-0.338530948062079	0.596421822413785	0.606282719932363	0.0593556139060755	0.450605018857939	0.890748016039768	-0.995795960022245	-0.0356361214316691	0.0843828943186728	0.0697661601503327	-0.89201187426528	0.446595453479471	10.6997283916364	-62.9673932388999	82.4959582496482
5493	1653392917529	8.67257509672153	0.801662064285447	4.34518051586305	0.0191180087346371	0.00325231990084097	-0.0794228312694827	0.00234566841249979	-0.00171684881272202	0.0128312123476723	0.37841796875	-0.250732421875	0.201416015625	0	0	0	0.402605799252103	-0.338554986980602	0.596461232093794	0.606236826503265	0.0592290387998913	0.450585126705317	0.890766503947981	-0.99580193120176	-0.0357148619640861	0.0842790748089137	0.0697885003320832	-0.892018773472708	0.446578182398737	10.6872712792251	-62.9697239917745	82.5114518998396
5494	1653392917529	8.68066645897589	0.785746961699248	4.36241753646991	0.0358701679207796	-0.00833448419297937	-0.0658571573840962	0.00761894323759537	-0.00371012792601908	0.0114746222861203	0.3857421875	-0.25	0.203857421875	0	0	0	0.402623054970477	-0.33856747684892	0.596498358716874	0.606181859902185	0.059123543336464	0.450542825346075	0.890794908580263	-0.995803112716308	-0.0358312326913676	0.0842156960924192	0.0698610573055899	-0.892035473113594	0.446533478452794	10.680463822384	-62.9733052986933	82.5239451811642
5495	1653392917529	8.73101741650115	0.786297866045246	4.34041186923469	0.0362675058743963	0.03349644235529	-0.0307822669826905	0.0100436533423384	-0.00344562443526568	0.00903776035474342	0.37255859375	-0.247802734375	0.20751953125	0	0	0	0.402648472487336	-0.338566158342569	0.596535815725524	0.606128851470917	0.0590359539636764	0.450508844708875	0.890817903377943	-0.995801430679039	-0.035961543679403	0.0841800334626539	0.0699590365655348	-0.892047391238419	0.446494328057538	10.6769595721572	-62.976204845427	82.5343389542119
5496	1653392917530	8.76157298804494	0.779861131917785	4.35536669311323	0.0451492382516538	0.033933740908757	0.00257492072644538	0.0171399471668017	0.00207793130537111	0.0128588069678031	0.373291015625	-0.257568359375	0.2021484375	0	0	0	0.402672107822837	-0.338535366908138	0.596608235029864	0.606059067111809	0.0589048384938444	0.450522161175889	0.890819848393277	-0.9957971602378	-0.0361724250478729	0.0841401885456045	0.0701301337824758	-0.892032139530612	0.446497957867771	10.6719371892747	-62.9764501168308	82.5509510468207
5497	1653392917530	8.74862706961721	0.811735586364519	4.35490153183851	0.0124413126976871	0.0275905288561584	-0.00648312282410046	0.0188159473593085	0.00610053287214704	0.00875429336293098	0.374755859375	-0.250244140625	0.19970703125	0	0	0	0.402696107021993	-0.338478375314543	0.596678891517883	0.606005392097091	0.0588133797228343	0.450573403120114	0.890799974610651	-0.995789099321296	-0.036379708387357	0.0841462208927583	0.0703210924151475	-0.891997828034581	0.446536469667518	10.6717853980582	-62.9739440789924	82.5632236258657
5498	1653392917531	8.71777359501794	0.817999637291684	4.34057496201197	0.00350105160231416	0.0271152089413968	-0.039840120519548	0.021567290846349	0.0159751504456087	0.00692787157108277	0.380859375	-0.252685546875	0.205078125	0	0	0	0.40270180208188	-0.338381803762701	0.596768837228271	0.605966969723206	0.058729419591037	0.450710483507	0.890736164827379	-0.995778332174827	-0.0366035729735528	0.0841765502779185	0.0705433798851534	-0.891919412560606	0.446658026964615	10.6727049251321	-62.9658992656398	82.575954997873
5499	1653392917532	8.7053467103557	0.796326653038395	4.39596991300277	0.0287063325488411	-0.0258054864103588	-0.0279922295393309	0.0279178833417053	0.0144037753839515	0.0066220050438504	0.37841796875	-0.255126953125	0.192626953125	0	0	0	0.402732201018596	-0.338268189210793	0.596865129766837	0.605915359847549	0.0586532980729358	0.450836515015378	0.89067739802577	-0.99576248451713	-0.0368824177377324	0.0842422797061703	0.0708298316632235	-0.891844226303343	0.446762812861535	10.6783995444823	-62.9584922034293	82.5875201378842
5500	1653392917533	8.67616133828338	0.858967378460711	4.36133435609815	-0.0374663053469314	-0.00911325572150724	-0.0641822997175314	0.0272711284083101	0.0168719006310476	0.0103221767756799	0.375732421875	-0.2529296875	0.195556640625	0	0	0	0.402746194598426	-0.338159253529915	0.596977154018655	0.605856500805565	0.0585331936637546	0.45098027413438	0.890612518203737	-0.995749684244051	-0.0371724393674528	0.0842661027895959	0.0711085899691107	-0.891759497899043	0.446887643977154	10.6784347974049	-62.9503168245094	82.6048623805575
5501	1653392917534	8.65985854406179	0.889169601762396	4.32741775037138	-0.0708723740336059	0.0139537985041785	-0.0913140408642334	0.0262981847389636	0.0151528528865372	0.0146433146373444	0.378173828125	-0.244384765625	0.19873046875	0	0	0	0.402755865116404	-0.338064337107076	0.597096482916268	0.605785446490516	0.0583765881307539	0.451109929889568	0.890557131863668	-0.995739508115824	-0.0374729935932789	0.0842532297803209	0.0713793102759462	-0.891681336524539	0.447000434181381	10.6742088588108	-62.9433395077416	82.6265264446828
5502	1653392917535	8.64467591892952	0.864833324541525	4.34833081318955	-0.0463424589547287	-0.00959105465845117	-0.0975394177935662	0.02317501294482	0.0125787080628877	0.0168672075951719	0.379638671875	-0.2548828125	0.20361328125	0	0	0	0.402761766482626	-0.337991350989143	0.597210996787861	0.605709362179567	0.0582017439443657	0.451212596741524	0.890516563317946	-0.995732571062471	-0.0377560304491129	0.0842088421132098	0.0716184607985701	-0.891617448632819	0.447089612232657	10.6666352336501	-62.9382299239552	82.6500233076871
5503	1653392917535	8.64941657671597	0.847191841593654	4.33213425498321	-0.0303376704477631	0.00828564131086685	-0.102046845389703	0.0197232942528903	0.00581971652177537	0.0197130543176532	0.3759765625	-0.24853515625	0.201171875	0	0	0	0.402770803128093	-0.337954525789056	0.597315743933982	0.60562060788487	0.0580012810945764	0.451257016335338	0.890507134502311	-0.995729879426667	-0.0380208356077102	0.0841214792823337	0.0718182331190663	-0.891583715232519	0.44712483729249	10.6550023688351	-62.9370424980658	82.675776450521
5504	1653392917535	8.6668418238316	0.872149149555968	4.34708983915931	-0.0540560504893458	0.00235343328277501	-0.0777475241731569	0.015152950842518	0.0101231787897665	0.0212789185744584	0.378173828125	-0.24560546875	0.21044921875	0	0	0	0.402754273719492	-0.337919652145874	0.597423733833378	0.605544536716237	0.0577903818923929	0.451336188103725	0.890480722457669	-0.995730524405944	-0.0382522454934602	0.0840088595385787	0.0719791256337278	-0.891533740821237	0.447198607388593	10.6393484097874	-62.9337165312423	82.7033869002601
5505	1653392917536	8.66381692792926	0.868959182143553	4.31331569240286	-0.0547544953355881	0.0317637648473802	-0.0958206376617969	0.0112764907100511	0.00588866705121194	0.0206048138708678	0.376220703125	-0.250732421875	0.21142578125	0	0	0	0.402736008880383	-0.337909629592458	0.597517026268075	0.605470224453312	0.0575809710968883	0.451380784849785	0.890471683343121	-0.995734287187044	-0.0384457790582872	0.0838758093416087	0.072094806245997	-0.891502837427337	0.447241578759577	10.6218845593826	-62.93257835722	82.7302543280372
5506	1653392917536	8.67446159236998	0.854693209437444	4.36555304828274	-0.0371538665081055	-0.00924657341841829	-0.0641812294740234	0.0140775957563632	0.00426664781480878	0.0190054501672926	0.374755859375	-0.259521484375	0.203857421875	0	0	0	0.402741927811946	-0.337888778054415	0.597601675311115	0.605394376346989	0.0574068226604851	0.451405431338461	0.890470433686692	-0.995733342777092	-0.0386576455046697	0.0837895967647066	0.0722465694270977	-0.891481196101282	0.447260226494423	10.6107824457907	-62.9324210082884	82.7523983826972
5507	1653392917537	8.65179594147131	0.84465948025978	4.36831468007422	-0.0293505556455956	-0.0212232991136081	-0.0839729664814346	0.00768062363360682	0.00648260991162927	0.016622958690133	0.371337890625	-0.25732421875	0.19970703125	0	0	0	0.402717721404697	-0.337879677612727	0.597678019803488	0.605340189452765	0.0572366162002022	0.451456783724893	0.890455356654518	-0.995737319233496	-0.0388011569792196	0.0836759302473795	0.0723267644212093	-0.891448956837041	0.447311520645857	10.595526755821	-62.930522669217	82.7744727260669
5508	1653392917537	8.68422135363392	0.818450885845166	4.33276421416614	-0.00487633841040223	0.0264771079804278	-0.0731964533152585	0.00450391929324059	0.00455799823743149	0.0161614000488949	0.3623046875	-0.248046875	0.202880859375	0	0	0	0.402699581043212	-0.337877548371227	0.597737652847893	0.605294563086571	0.0570969213490818	0.451488408495915	0.890448290787445	-0.995740997187917	-0.0389145084089734	0.0835794684985569	0.0723865187149519	-0.891427999352227	0.447343619468543	10.5828460639278	-62.9296330529566	82.7924216258854
5509	1653392917537	8.69678870547252	0.860152227296361	4.36436437433171	-0.0446881780733904	0.00270025405815861	-0.0443882498322115	0.00310547746224087	0.00536656160968613	0.0169615473400257	0.3759765625	-0.24462890625	0.201904296875	0	0	0	0.402664284113586	-0.337886176862126	0.597805036004885	0.605246680876473	0.0569241408253887	0.451529636670265	0.890438447844493	-0.995748418742523	-0.0390187735470162	0.0834423266852657	0.0724204996051204	-0.891402559183731	0.447388811569578	10.564829207432	-62.9283938386154	82.8146533544979
5510	1653392917538	8.6840377346711	0.816021390295616	4.33359040310676	-0.00455481581283813	0.0264121821005373	-0.0731961213567995	-0.000169753410531804	0.00472917985316448	0.0111295379559497	0.370849609375	-0.251953125	0.20361328125	0	0	0	0.402642723762915	-0.337886772904971	0.597840186516903	0.605225971916342	0.0568392801625984	0.451561514738841	0.890427703206364	-0.995752117002517	-0.0390681032275686	0.0833750849787017	0.0724363010900152	-0.891384250319111	0.447422731393291	10.5557247011212	-62.9270411618302	82.8257545513222
5511	1653392917538	8.67895689927318	0.832059748097179	4.35079425068534	-0.0205591612388875	0.00853539808268804	-0.0686876046126077	-0.0047958522096478	0.00425979458446115	0.00878213872757624	0.377197265625	-0.25	0.19873046875	0	0	0	0.402600641161435	-0.337905896528774	0.597867234535217	0.60521657173007	0.0567487499205955	0.451596054880855	0.890415960435625	-0.995760577259711	-0.0390650127887728	0.0832754318585014	0.0723909673775439	-0.891366887421706	0.447464657654974	10.5424254093373	-62.9255628983963	82.8376046475961
5512	1653392917538	8.71428030201265	0.808032321285127	4.34944747564103	0.00469249569033838	0.0267440753744224	-0.0398395972925769	-0.00409983528954781	0.00114350837608558	0.00776958559765672	0.3701171875	-0.25244140625	0.209228515625	0	0	0	0.402585651648257	-0.337923068272249	0.597877051782803	0.605207257035076	0.0567020617619446	0.451593103812654	0.890420431470886	-0.995765018402101	-0.039064351923097	0.0832226203354183	0.0723664585191882	-0.891368411487463	0.447465586032835	10.535868000986	-62.9261257352931	82.8433898673014
5513	1653392917539	8.73182002827355	0.833147375139185	4.36418609692188	-0.0191131271006705	0.0208434954840541	-0.0155379806946705	-0.00731884371378633	0.00528618974631803	0.0058479107787412	0.37255859375	-0.2509765625	0.20361328125	0	0	0	0.402537822191022	-0.337940724016665	0.597893019283052	0.605213438589558	0.0566400090873762	0.451637934067326	0.890401643013971	-0.995773626368629	-0.0390255216033897	0.0831377994191121	0.0722965725276871	-0.891347398703211	0.447518737513602	10.5241477082221	-62.9237606205481	82.851842991797
5514	1653392917539	8.69436253320525	0.79955821948925	4.38680782116489	0.0135449002130702	-0.0148125103157717	-0.0415608570915555	-0.00382508133522327	0.000550280139202621	0.00323553530884975	0.37890625	-0.258544921875	0.207275390625	0	0	0	0.402535194682211	-0.337951209253295	0.597887492849243	0.605214790880755	0.0566390521173648	0.45162619629022	0.890407657536521	-0.995775219529675	-0.0390080741267988	0.0831269049318332	0.0722753757919964	-0.891354109755122	0.44750879441278	10.5230279962844	-62.9245177154784	82.8517786593671
5515	1653392917539	8.69908355918867	0.782133334155191	4.37057319133283	0.0295489162234318	0.00306459499206897	-0.0460700002060665	-0.00955886241567824	0.0111417230076216	-0.000394416172557463	0.3701171875	-0.2626953125	0.2060546875	0	0	0	0.402473622294408	-0.337945267270632	0.597892578278421	0.605254033052388	0.0566349223379262	0.451725676958884	0.890357455378353	-0.995781900381537	-0.0389211036063991	0.083087631850931	0.0721865115122831	-0.891307500512645	0.447615959373198	10.5157053840002	-62.918198977633	82.8538522919092
5516	1653392917540	8.73394287603385	0.758767290212074	4.37001733984852	0.0547247263945436	0.0212344296878826	-0.0172245502169837	-0.00605646258698419	0.0118267206501622	-0.0017805205061044	0.370361328125	-0.2451171875	0.19921875	0	0	0	0.402435620723864	-0.337920372334172	0.59789261116009	0.605293167526532	0.0566684949634084	0.451818235308517	0.890308353280637	-0.995783014490684	-0.0388600066144631	0.0831028756287713	0.0721447831130519	-0.891263250745043	0.447710786268266	10.5154136407837	-62.9120200179259	82.8511096034989
5517	1653392917540	8.70075550522252	0.783849875172756	4.40728738201101	0.0305163140248135	-0.0264950183374323	-0.0279995498907954	-0.00469650931136191	0.0170801556642951	-0.00403846721535937	0.37158203125	-0.25244140625	0.205810546875	0	0	0	0.402377143125806	-0.337874605551206	0.597906841353649	0.60534353442986	0.0566963199722397	0.451972044176717	0.890228509195435	-0.995784118242528	-0.0387999124951655	0.083117727629667	0.0721076775215887	-0.891187880344593	0.447866771227064	10.5136697040127	-62.9019752974891	82.8500445433645
5518	1653392917542	8.69717374245042	0.781978045976952	4.37440014831459	0.0299396554631627	0.00278345544188052	-0.0460711060342849	-0.00217286656186643	0.0160514502680718	-0.00110333743951637	0.375244140625	-0.25146484375	0.202880859375	0	0	0	0.402332409913135	-0.337830487531456	0.597927211652453	0.605377768994923	0.0567072225195621	0.452103374441714	0.890161125714065	-0.995783991204354	-0.0387766370019764	0.0831301105733837	0.0721008583530245	-0.891122276256874	0.447998387255495	10.5121807498209	-62.8935008502685	82.8507397278063
5519	1653392917542	8.6716056760967	0.791924745517728	4.429562985592	0.0224376399184167	-0.0564806873202203	-0.0432849153225732	-0.00678828596182982	0.0210009521653991	-0.00222501799654222	0.373291015625	-0.247314453125	0.199462890625	0	0	0	0.402252834957508	-0.33778273657731	0.597951251823603	0.605433547205287	0.0567142466258586	0.452291368118956	0.890065173206291	-0.995787621670669	-0.0387060855775329	0.0831195011218042	0.0720451716434502	-0.891029941845025	0.448190959277982	10.5064534629926	-62.881437659183	82.8528045355577
5520	1653392917543	8.64538584048133	0.78086545956383	4.39917913175357	0.029584369892052	-0.03910016959745	-0.0811499715874628	-0.00212345710525986	0.015404914924872	0.00158261381834744	0.378662109375	-0.2529296875	0.2041015625	0	0	0	0.402200673449909	-0.337746160627646	0.597980925936381	0.605459297949906	0.0566926863951067	0.452422756690632	0.889999768841406	-0.995789689728873	-0.0386931390145822	0.0831007510367678	0.0720335556458429	-0.890963798491077	0.448324298515449	10.5010815690309	-62.8732178354631	82.8575469105268
5521	1653392917543	8.64967298709303	0.763501666323946	4.38381430792809	0.0455891140578731	-0.0212238814761746	-0.0856592243355703	-0.000295835246315291	0.0174904822884129	0.00553167158454717	0.37158203125	-0.253173828125	0.203369140625	0	0	0	0.402138180647081	-0.337705226401629	0.598032295996796	0.605472903333982	0.0566251060116514	0.452576370409012	0.889925966761604	-0.995793031769658	-0.0387154867786862	0.0830502797254992	0.0720405111597879	-0.890884807385834	0.448480127453761	10.491279908531	-62.8639453753968	82.8683697761019
5522	1653392917544	8.59885137696893	0.762222080244826	4.40666234754904	0.0451024684748083	-0.0630007533483859	-0.12073724488258	-0.0017506733368869	0.0135239280286642	0.00241876036708576	0.37255859375	-0.247802734375	0.205078125	0	0	0	0.402084075269441	-0.337675590672913	0.598066134379202	0.605491941141363	0.0565841887448346	0.452700494038788	0.889865434928859	-0.99579640450591	-0.0387094093531278	0.0830126640979221	0.0720260394384655	-0.890822004849773	0.448607183756835	10.4837293610559	-62.8563423681785	82.8754039868301
5523	1653392917545	8.62871765422448	0.755633407335905	4.42296833245306	0.0540092269412231	-0.0625610749108255	-0.0873818114914773	-0.00380667272171884	0.0113840846370659	0.00568895458869497	0.364501953125	-0.248779296875	0.20458984375	0	0	0	0.402028952724665	-0.337663962324029	0.598099754362837	0.605501819609042	0.0565194647575025	0.452799600856857	0.889819122949938	-0.995802357440817	-0.0387011899955528	0.0829450589742364	0.0719945485355443	-0.890771990666972	0.448711539437492	10.472998208413	-62.8505267521889	82.8850115407427
5524	1653392917545	8.62053860788562	0.770120142786827	4.40626773112137	0.0370700066867395	-0.0507351784483977	-0.100940972726656	0.000437599398275759	0.00831240976989035	0.00597645609701518	0.37353515625	-0.251708984375	0.205078125	0	0	0	0.401979503328051	-0.337647228771737	0.598146013759532	0.605498285737029	0.0564313902526952	0.452898241260156	0.889774511467711	-0.99580730254718	-0.0387323497445711	0.0828711124395801	0.0719952386471309	-0.89072048822665	0.448813655613798	10.461539500401	-62.8449257639316	82.8975169238086
5525	1653392917545	8.65061934514062	0.763589968271449	4.42214565014659	0.0459765511655799	-0.0502935325838814	-0.0675853348956359	0.000761721491375264	0.00707735936075016	0.00412729637353916	0.375	-0.2548828125	0.2001953125	0	0	0	0.401953725066853	-0.337631774990846	0.59817398336544	0.605496385659018	0.0563853402825065	0.452959670529055	0.889746160584824	-0.995809069163071	-0.0387578229407948	0.0828379679462802	0.072006882822442	-0.890688142974352	0.448875974842823	10.4560278797298	-62.8413668546629	82.9042063066582
5526	1653392917546	8.58975203479314	0.775600905280118	4.39195434271813	0.027793413582726	-0.0507925631686479	-0.134293519387876	0.00252072374671469	-0.00102744831193192	0.00293602671892116	0.3740234375	-0.24951171875	0.21240234375	0	0	0	0.40193558342391	-0.337633482933022	0.598198884144147	0.605482875884113	0.056323452422429	0.452984539552269	0.88973741948613	-0.995812183336792	-0.0387882364272417	0.082786280462864	0.0720122505219074	-0.890674171423806	0.448902835960397	10.4490360002842	-62.8402696643767	82.9123004814174
5527	1653392917546	8.67539015597889	0.753097408274907	4.36876165332126	0.0531044228514835	0.00935652906968803	-0.0703713739559646	0.00256740255303853	-0.00167148465126341	0.00562106291954972	0.378662109375	-0.25732421875	0.2099609375	0	0	0	0.401938921796959	-0.337642163473797	0.598216813955018	0.605458104323445	0.0562688258924824	0.452967382023531	0.889749610876807	-0.995813490582933	-0.0388365067075888	0.0827479167096439	0.0720368739307602	-0.89068079387034	0.448885745178864	10.4446893243661	-62.8417999495773	82.9188393400875
5528	1653392917547	8.63247924869591	0.79101150127083	4.35234636055104	0.0110355478049019	0.00309781594584113	-0.112780940493101	0.00503105378885044	-0.0074726399526446	0.00464437316314901	0.37451171875	-0.254638671875	0.210205078125	0	0	0	0.401939065147929	-0.337655820560209	0.598244690421179	0.605422848208332	0.0561836744493606	0.45294787908515	0.889764920390568	-0.995816138516059	-0.0389034434182449	0.0826845835762044	0.0720667259998343	-0.89068779093601	0.448867069499642	10.4372956555732	-62.8437217400231	82.9291453356818
5529	1653392917547	8.66103217125698	0.803609854266077	4.41805589562951	0.00463563786646314	-0.0437422119054812	-0.0568403947458176	0.002557105198853	-0.00708924151817079	0.00439351186370927	0.369140625	-0.24853515625	0.208740234375	0	0	0	0.401960644639868	-0.337678342414928	0.598248053182444	0.605392636301454	0.0561452078546456	0.452883123760611	0.889800310096479	-0.995816740552717	-0.038946185951763	0.0826572067927122	0.0720883823505642	-0.890718850599134	0.448801954449218	10.4353963513216	-62.8481646612348	82.9329373749543
5530	1653392917547	8.6733444907334	0.825431244354721	4.36323107751656	-0.0210243024763716	0.00974530627766648	-0.0686897320840423	-0.00243815547561776	-0.00567767650876915	0.00120671125879102	0.363037109375	-0.24951171875	0.2041015625	0	0	0	0.401937522985254	-0.337700736373051	0.598257032762412	0.605386622762588	0.0560934708068273	0.452884414239846	0.889802916308704	-0.995822804192167	-0.0389304992664153	0.0825915181947607	0.0720448831194239	-0.890718880211652	0.448808880539155	10.4271278160155	-62.8484918788566	82.939403734389
5531	1653392917548	8.68151131262479	0.810251727024247	4.38006038201498	-0.00431774420426772	-0.0017834038330914	-0.055123446912873	2.55213940121595E-05	-0.0114796098064194	0.000230068276412068	0.365966796875	-0.24755859375	0.20654296875	0	0	0	0.40197157443794	-0.337735632664267	0.598234773229971	0.60536654340262	0.0560995970547047	0.452782385615258	0.889854452417279	-0.995822881638654	-0.0389319811152621	0.082589885890032	0.072039042297822	-0.890770684364386	0.448706991545503	10.4292419787522	-62.8549631377016	82.9370652790857
5532	1653392917548	8.71739511969854	0.786942895999851	4.37747355081884	0.0202251899038378	0.0170132176881408	-0.0262767401938166	-0.00702618368210613	-0.012207428321513	0.000314090997498543	0.3759765625	-0.259033203125	0.207763671875	0	0	0	0.401960747505937	-0.337790619112055	0.598215419920985	0.605362177934105	0.0560716180173083	0.452716839436716	0.889889564464801	-0.995831118471815	-0.0388682623335438	0.0825205529934543	0.0719469049792676	-0.890806781223404	0.448650110208726	10.4219708927647	-62.8593728853125	82.9395405062804
5533	1653392917549	8.73759011543321	0.793737159756052	4.33997586714133	0.0117248165210053	0.0584061033594179	-0.0245648936424985	-0.00566370134252896	-0.00695500217569968	-0.00194263358826335	0.37060546875	-0.254638671875	0.202880859375	0	0	0	0.401967653704902	-0.337824388738062	0.598186165448314	0.605367656234601	0.0560959876799947	0.452656160128155	0.889918895666476	-0.995834067749481	-0.0388093663175618	0.0825126814226319	0.0718870619494866	-0.8908401841992	0.448593375497462	10.4222876197393	-62.8630571198913	82.9355655962753
5534	1653392917550	8.71794003610563	0.786633913903547	4.37644375933499	0.0196984159362844	0.0172861176279136	-0.0262761439369381	-0.0106488404120982	-0.000125221207714576	-0.00390063691145027	0.3740234375	-0.251953125	0.197509765625	0	0	0	0.401918259396938	-0.33785661098365	0.598172333574138	0.605396136859535	0.0560855395222266	0.452680957819478	0.889906940462957	-0.995843921868667	-0.0386968557803873	0.0824465683333506	0.0717585920551309	-0.890832477955509	0.448629246355956	10.4133051090363	-62.8615553944808	82.9372510992922
5535	1653392917551	8.73569908225506	0.737386405402347	4.36040429179792	0.0684099519337057	0.0415125277416258	-0.0217272691289025	-0.00920227212440999	-0.0015792977261961	-0.00201503241240016	0.368408203125	-0.255126953125	0.202880859375	0	0	0	0.401898418244347	-0.337884651683011	0.598147725425097	0.605417973088449	0.0561065214516664	0.452668152947767	0.889912131368851	-0.995849381189545	-0.0386060800370497	0.0824231798014035	0.0716663675303504	-0.890842923242381	0.448623247139485	10.410551817509	-62.8622074287604	82.9344377410084
5536	1653392917551	8.71022656453322	0.726443207877396	4.32853633077058	0.0749580626541968	0.0589672152214699	-0.0595905485683748	-0.0135403512371846	0.0027805995854369	-0.00767101520183772	0.375244140625	-0.254638671875	0.201904296875	0	0	0	0.401842856708945	-0.337919363957841	0.598117103467617	0.605465731907125	0.0561328680036717	0.452697854534204	0.889895361056462	-0.995859784734558	-0.0384435018969965	0.0823734563456959	0.071500980959166	-0.890834861050029	0.448665643948645	10.4034469386929	-62.8601009471531	82.9316125424443
5537	1653392917552	8.75099690642799	0.707480234663373	4.39605157637014	0.101249310083516	0.0184813504863762	0.00541589532794084	-0.00900988684889352	0.0045365540113344	-0.0106905854432162	0.375732421875	-0.249267578125	0.201416015625	0	0	0	0.401819947335266	-0.337911067637304	0.598078778781813	0.605523422059425	0.0562357694781447	0.452742602774121	0.889866098839885	-0.995860232382221	-0.0383149914113232	0.0824279017856221	0.07141383472991	-0.890817656463131	0.448713680583403	10.4090828077286	-62.8564257470224	82.919479155215
5538	1653392917552	8.68978251010957	0.72022344246239	4.36643846001973	0.0827600558657364	0.0174897226071888	-0.0612940544702347	-0.008295014981032	0.0122580632718768	-0.00924684730556033	0.375244140625	-0.25048828125	0.209716796875	0	0	0	0.401754160445043	-0.337906177916308	0.598071928797279	0.605576566154762	0.0562587658213884	0.452846264273303	0.889811897089474	-0.995867115545143	-0.0381928749003995	0.082401410683551	0.0712996454693218	-0.890770208999244	0.448826018982181	10.4032629367732	-62.8496194702492	82.9182181427755
5539	1653392917553	8.69426110946226	0.704085403206601	4.35050246402181	0.0987641483963756	0.0353650076669313	-0.0658017586151853	-0.000976259125225736	0.00697950471806194	-0.0150941729155834	0.36865234375	-0.244873046875	0.2119140625	0	0	0	0.401755798338559	-0.337857717774531	0.598038599340461	0.605635430552435	0.0564039924781709	0.452914134938369	0.889768158570282	-0.99585932345577	-0.038115775599505	0.0825311791789299	0.0712937410909183	-0.89073900443591	0.448888882083066	10.4178606167425	-62.8441282421124	82.9011766087884
5540	1653392917553	8.69153071504391	0.724352278017478	4.40253267709019	0.0826790523705265	-0.0117523895677906	-0.0432087623974233	0.00253596344872809	0.013083170240966	-0.0152489253825427	0.373046875	-0.24609375	0.20361328125	0	0	0	0.40172318211069	-0.337796321952453	0.598045121961495	0.605684870149749	0.0564713539469121	0.453052537357824	0.889693421677962	-0.99585499079793	-0.0380789658941549	0.0826004216653163	0.0713009360826269	-0.890670191906112	0.449024259660514	10.4233348675527	-62.8347476430811	82.8949343412773
5541	1653392917553	8.68528501028466	0.722116701706822	4.3348267974372	0.0812944425662232	0.0470653180504045	-0.0793668949886665	0.00780925281000893	0.0110819267022947	-0.0165967686875855	0.37939453125	-0.250244140625	0.2080078125	0	0	0	0.401741747957724	-0.337705782981356	0.598030399195036	0.60573757826921	0.0566288915591507	0.453157948378816	0.889629722110207	-0.995839994580264	-0.0380735808270025	0.0827834985814774	0.0713853895076697	-0.890616795408728	0.449116744177643	10.443825570441	-62.8267547554004	82.8769570971469
5542	1653392917554	8.65985882172753	0.733725280105621	4.3893170268875	0.0728784615377069	-0.0123175504269249	-0.0765614257561697	0.00963547464959444	0.0131668074668556	-0.0126466995966564	0.373291015625	-0.24755859375	0.199951171875	0	0	0	0.401728430098433	-0.33764401739544	0.598050871652621	0.605760630020849	0.0566633448652158	0.453268943512823	0.889570980976479	-0.995833747674416	-0.0381011532676226	0.0828459360041556	0.0714451701755488	-0.890559131650699	0.449221571935432	10.4491438721487	-62.8193859661682	82.8743953339023
5543	1653392917554	8.66125752452105	0.791205344514426	4.36960260316438	0.0156729939716668	0.00485210888428997	-0.0794173403047047	0.0136020493712217	0.0106877311200061	-0.00782519997263196	0.37353515625	-0.259033203125	0.2109375	0	0	0	0.401751078202253	-0.337554838074666	0.598071555066365	0.605774890100451	0.0567342926257712	0.453367420787298	0.889516274055133	-0.995819501382834	-0.0381870276323459	0.0829775366364331	0.0715872943049078	-0.890505324346396	0.449305604911427	10.4634617832863	-62.812524908638	82.8670990251522
5544	1653392917555	8.65083152271286	0.751425994642163	4.37374573053054	0.0549759948166577	-0.000874509883961472	-0.0901282672100887	0.012536930421968	0.0156764121080181	-0.00764643836162273	0.372802734375	-0.24658203125	0.208984375	0	0	0	0.401720692489586	-0.337495010866225	0.59812472542856	0.605775879098123	0.0566878609428331	0.453501603759699	0.889450831586045	-0.99581652166754	-0.0382654038866047	0.082977189873832	0.0716654839911723	-0.890433632705311	0.449435205732189	10.460468362383	-62.8043195550973	82.8749636887316
5545	1653392917555	8.66495855371408	0.776760438576557	4.35494253876208	0.0304729384560293	0.0226399129330313	-0.0839183442685165	0.0157082500652489	0.012179504296873	-0.00840809585927541	0.378662109375	-0.251953125	0.211181640625	0	0	0	0.401746193132698	-0.33739389102743	0.598150202726649	0.605790139882471	0.0567633945508778	0.453613567348014	0.889388918615962	-0.995800412574007	-0.0383673374370933	0.0831233164366337	0.0718293488519693	-0.890372213703795	0.449530717201511	10.4763049892544	-62.7965588443464	82.867310540133
5546	1653392917555	8.67504345459001	0.764894152709332	4.40761228559298	0.0468572700729408	-0.0182574147824856	-0.052259144171547	0.0164960511858221	0.00778027329005065	-0.00405153730168885	0.370361328125	-0.244140625	0.204345703125	0	0	0	0.401749077179625	-0.337340969829031	0.598204943826922	0.605763645526172	0.0567038305116752	0.453688768441365	0.889354359631447	-0.995794461736136	-0.0385029516673035	0.0831318993440201	0.0719587769555753	-0.8903280429724	0.449597498120257	10.4758409689766	-62.7922278095649	82.8758870929072
5547	1653392917556	8.68169088325126	0.805105185865025	4.37064134265275	0.00566292129659405	0.0167904814970162	-0.0596292485830911	0.0225205734386691	0.00744010174190848	-0.00249717514609663	0.372802734375	-0.24365234375	0.203125	0	0	0	0.401799505523151	-0.337245417148174	0.598250290505192	0.60573862010306	0.0567242370460148	0.453756527193569	0.889318489046966	-0.995776694593909	-0.0386925054563899	0.0832566185064904	0.0721881945693031	-0.89028529362825	0.449645371947811	10.4901165193514	-62.7877330745935	82.8744029009465
5548	1653392917556	8.72444501662298	0.768251028571689	4.38729838605462	0.0465435754695594	0.0234318542036638	-0.017187270759214	0.0207067997942834	0.0107653401701559	-0.00521905296160742	0.37841796875	-0.25341796875	0.20703125	0	0	0	0.401821523411826	-0.337167571039285	0.59830116057919	0.605717106917134	0.0567075005781261	0.453840122022239	0.889276898958374	-0.995764870182522	-0.0388496308548125	0.0833248431911516	0.0723642362536014	-0.890235839441035	0.449714984724936	10.4969326312911	-62.7825225200226	82.8777823404111
5549	1653392917556	8.72578531306037	0.825738612026367	4.36762449434854	-0.0106509647779007	0.0406028443832709	-0.020059783014899	0.0252958093893605	0.0172899473477454	-0.00432372926336971	0.378173828125	-0.258056640625	0.206787109375	0	0	0	0.401854178147908	-0.337030046123752	0.598365250672977	0.605708671146415	0.0567395495937733	0.453996177298218	0.889195194830978	-0.995743906083065	-0.0390555074157303	0.0834789844148799	0.072627109334846	-0.890147256547536	0.449847935029782	10.5128793361808	-62.772289017514	82.8762228620873
5550	1653392917557	8.67762106490028	0.828113592630607	4.42461837336431	-0.0116485280348342	-0.0309002898728772	-0.0370525256170122	0.0221641306281508	0.0147245090522584	-0.002104347441042	0.375	-0.253662109375	0.211181640625	0	0	0	0.401848250275808	-0.336964143257255	0.598447450819741	0.605668059679995	0.0566316295325158	0.454104109969634	0.889146959644568	-0.995737915464092	-0.0392427352847486	0.0834626349607741	0.0727932843311536	-0.890083965160623	0.449946299818352	10.5086196289007	-62.7662491919476	82.8913063683194
5551	1653392917557	8.69173802524965	0.853190137641034	4.40584581840051	-0.0361441455613181	-0.00738647459675044	-0.0308491152029262	0.0218404722603435	0.0159571799339672	-0.000255318947912782	0.374267578125	-0.24951171875	0.2080078125	0	0	0	0.401867522814949	-0.336849316201616	0.598515305345245	0.605652096131574	0.0566239348839843	0.454246497970648	0.889074715127844	-0.995721699026058	-0.0394361532518696	0.0835648724366592	0.0730207373758603	-0.890002757803648	0.450070064562161	10.5183762450544	-62.7572053230825	82.8944675731861
5552	1653392917558	8.68819035939166	0.85199257650844	4.37290729316014	-0.0377415937147035	0.0220489619135896	-0.048930382021668	0.0183455753287421	0.0206855605833178	0.00235166779684129	0.36865234375	-0.25244140625	0.19970703125	0	0	0	0.4018295219787	-0.336762404593132	0.598616335000411	0.605625793365588	0.0564991326466551	0.454432833496338	0.88898742839855	-0.99571713772856	-0.039616962525909	0.0835336932851972	0.0731794345688757	-0.889899598899062	0.450248236238043	10.510471171186	-62.7462821047491	82.912846620513
5553	1653392917558	8.64477671761008	0.836468185902674	4.41377402941855	-0.0213984806983507	-0.031312565474542	-0.0704183307251362	0.0102264774388069	0.0249443651948731	0.002603115436269	0.37158203125	-0.2529296875	0.20703125	0	0	0	0.401781878362913	-0.336660705943515	0.598691402035186	0.605639741448599	0.0564563484055144	0.45465427026224	0.888876917945913	-0.995710953482119	-0.0397201453033763	0.083558405757938	0.0732965063317804	-0.889781885963852	0.450461782585567	10.5086382574242	-62.732458424365	82.9215730614348
5554	1653392917558	8.64889792696156	0.819714788380468	4.39875730889688	-0.00628824837828577	-0.0136270519895619	-0.0749151275441093	0.00951463250264481	0.0172248526221107	0.00116581493879183	0.3779296875	-0.25537109375	0.20654296875	0	0	0	0.401734559380149	-0.336617413784275	0.598759371078597	0.605628001402169	0.0563518645654976	0.45478918564168	0.888814527324665	-0.995712579266923	-0.0398068813096007	0.0834977346400093	0.0733548011353167	-0.889709058526314	0.450596121073647	10.4981166485059	-62.724656879447	82.9366154195306
5555	1653392917559	8.65586708556163	0.805014250965427	4.41787181047912	0.0104138693298247	-0.0251554701691611	-0.0613319304893025	0.0102209264425543	0.0195249642187197	0.00137991301888426	0.37158203125	-0.2529296875	0.209716796875	0	0	0	0.401705036383514	-0.336529936983244	0.598819855230534	0.605636397717192	0.0563247649914731	0.454962658846709	0.888727460982155	-0.995705741166693	-0.0399043105483951	0.0835327660702359	0.0734683459480533	-0.889615998650424	0.450761330516347	10.4986594841631	-62.7137732371122	82.9426426829038
5556	1653392917559	8.66270927716773	0.790467001681667	4.43719923496369	0.0262298825745978	-0.0366966628139256	-0.0477463940087279	0.00981044879620312	0.0220374928670843	-0.00214206607081474	0.371826171875	-0.24609375	0.19677734375	0	0	0	0.401646010634236	-0.336456699613487	0.598892459437537	0.605644444749277	0.0562494226281149	0.455158799819316	0.888631796303196	-0.99570476442299	-0.0399833916590788	0.0835065895411529	0.0735392722248567	-0.889512110844185	0.450954742853606	10.4910411663393	-62.7018193874605	82.954994557538
5557	1653392917560	8.62366259164346	0.812202700900778	4.40599068945077	0.000686060218523197	-0.0256087393196402	-0.0946974931155822	0.0115822050780731	0.0193496690801725	-0.00210051936822704	0.369140625	-0.248779296875	0.21630859375	0	0	0	0.401626893474251	-0.336358744797364	0.598944389715569	0.605660178041127	0.0562568256531727	0.455332095892004	0.888542543729912	-0.995694966955458	-0.0400770870670655	0.083578465359135	0.0736661546912677	-0.889419197871743	0.45111726647313	10.496171589342	-62.6906711228935	82.9567313667049
5558	1653392917561	8.62545483393133	0.814936792355863	4.44200880989	0.000986205491879541	-0.0549121260611224	-0.0766194367168111	0.0112149920087942	0.0212222769170399	-0.00293751363996621	0.3681640625	-0.2568359375	0.212646484375	0	0	0	0.401587903614191	-0.336262797125619	0.599007560002935	0.605676836274381	0.0562345486571693	0.455531864171786	0.888441554780899	-0.995688151216272	-0.0401658025398222	0.0836170666422508	0.0737752063016232	-0.889312897146167	0.451308973880028	10.4965500827336	-62.6780619674685	82.9625489839494
5559	1653392917561	8.64447996928788	0.822622286844115	4.40689144469986	-0.00750626076506023	-0.0135200935602213	-0.0749158411707533	0.00980562580291353	0.0166176089173957	-0.00336428780721273	0.37451171875	-0.243896484375	0.2060546875	0	0	0	0.401573773528989	-0.336175745803584	0.599047158057032	0.605695364660227	0.0562567407143952	0.455681448073519	0.888363437454409	-0.995678899318589	-0.0402379863250373	0.0836924961285693	0.0738830736767075	-0.889232996653929	0.451448744694185	10.5026278488848	-62.6683121724082	82.9620874970839
5560	1653392917562	8.63859791980373	0.840322471474198	4.42512470888044	-0.0240550129750134	-0.0310875994863662	-0.0704238074158319	0.00911131778045775	0.0197266026768126	-0.00235415729669733	0.373046875	-0.24658203125	0.203369140625	0	0	0	0.401521844347333	-0.336088846471843	0.599114923973196	0.605710990210458	0.0562111902996349	0.455886960699452	0.888260874489761	-0.99567501469922	-0.0403169672309842	0.0837007004570697	0.0739700425091577	-0.88912407526594	0.451648991578284	10.4990810973781	-62.6555161980507	82.9708673407134
5561	1653392917562	8.61249984715528	0.830040665795258	4.3945208962092	-0.0168941956364482	-0.0136518411741547	-0.108283052256048	0.0122837498415961	0.0162299716546841	-0.0031074593125339	0.36865234375	-0.25048828125	0.212646484375	0	0	0	0.401515877792491	-0.335995885451445	0.599158806895685	0.605723112452847	0.0562309781580787	0.456033308969373	0.888184495589644	-0.995664040496181	-0.0404125520002699	0.0837851066935162	0.0741026015616462	-0.889044682089303	0.45178352968045	10.5063729669615	-62.6459905924359	82.9706516292697
5562	1653392917563	8.66736882441366	0.835553583022596	4.44327526292848	-0.0154896546896801	-0.0303676574186554	-0.0370561881880107	0.00952328588245832	0.0172101473103836	0.00116958697658121	0.373779296875	-0.249755859375	0.20556640625	0	0	0	0.40147473154574	-0.33591761179653	0.599225776984338	0.605727551142186	0.0561756525648657	0.456210258912997	0.888097120658235	-0.995659990982989	-0.0405069837444138	0.0837876281063373	0.0741989111420619	-0.888949595832332	0.451954796030385	10.5027892493454	-62.6350973677859	82.9801953376264
5563	1653392917563	8.63628860572193	0.841962256738459	4.42931858583646	-0.024335134968558	-0.0308073155789521	-0.0704236127483408	0.00737634605348511	0.016356054952954	-0.000933448333729604	0.375	-0.253662109375	0.210205078125	0	0	0	0.401449887070909	-0.335843175727294	0.599268278352348	0.605743245978668	0.0561737837560369	0.456357014343883	0.888021836149127	-0.995653834220914	-0.0405689625372668	0.0838307919552432	0.0742828945297867	-0.888871438813166	0.45209469897632	10.5048999785841	-62.625714690862	82.9826613839672
5564	1653392917564	8.64543154250496	0.883104581929553	4.42735593842085	-0.0652924483510882	-0.0250246554156014	-0.0597415813020188	0.00427670534055259	0.0131630820231051	0.00396736822405492	0.366943359375	-0.25439453125	0.206298828125	0	0	0	0.401398422871187	-0.335807912264838	0.599324531393951	0.605741246941527	0.0560863042595043	0.456485645196892	0.887961250395358	-0.99565671067998	-0.04062117562811	0.0837713230677003	0.0743104363628225	-0.888803001693721	0.452224704353709	10.4946628069566	-62.6181660680943	82.9954355056435
5565	1653392917564	8.63506849557963	0.84180550137394	4.43172652588747	-0.0247530076330485	-0.0306499914054353	-0.0704241692859977	0.00147441088783853	0.0147822377667608	0.00555814875998253	0.373779296875	-0.254638671875	0.208251953125	0	0	0	0.40134952956469	-0.33576900666509	0.599373573950091	0.605746686438841	0.0560209860268666	0.456615646983672	0.887898530269231	-0.995658578453421	-0.0406602520630072	0.0837301561821431	0.0743346774842737	-0.888734434368252	0.452355458562682	10.4866552449636	-62.6103535375218	83.0054843555219
5566	1653392917564	8.62437289337443	0.87526908285557	4.46637870981927	-0.057459084326604	-0.066133862704708	-0.0614429729273365	0.000481510026801713	0.0130796251020061	0.00987714968079434	0.37255859375	-0.251708984375	0.2080078125	0	0	0	0.40126602670173	-0.335760402056376	0.59945053191661	0.605730623306136	0.0558480243916674	0.456752603764211	0.887838981531089	-0.995669573591962	-0.0407107288002006	0.0835747377127719	0.0743175510545781	-0.888661744149691	0.452501056451894	10.4643270524812	-62.6029379429251	83.0289369014319
5567	1653392917565	8.61141362917561	0.831347189212558	4.43635116446493	-0.0176036207093739	-0.0423527739777135	-0.0902035926260946	-0.00199303674580392	0.0134625130733302	0.0096204901268342	0.36669921875	-0.25	0.2109375	0	0	0	0.401203486020106	-0.335744272860453	0.599503592946859	0.605728477199584	0.0557424505704252	0.456869251496962	0.887785597000204	-0.995676342228559	-0.040737590301757	0.0834809574859028	0.0743061284872292	-0.888600549050591	0.452623092093441	10.4500876716257	-62.5962915499074	83.0437446468388
5568	1653392917565	8.59613015205057	0.806694337445377	4.4571928173253	0.00669363406555256	-0.0653051548330787	-0.0963882967167944	-0.000642823096329741	0.00788047572616752	0.00491734422888295	0.37158203125	-0.246826171875	0.205322265625	0	0	0	0.401148111926581	-0.335718363436643	0.599552609680117	0.605730997204966	0.0556596973543675	0.456989625013373	0.88772883287666	-0.995680775540136	-0.0407662789529984	0.0834140498964006	0.0743087566186726	-0.888537333560309	0.452746745498323	10.4391073523739	-62.5892260273732	83.0557824444082
5569	1653392917565	8.60845097504021	0.774141246092509	4.45911160245451	0.0393934435536053	-0.0589434253326311	-0.0872890275020399	-0.00454648156839701	0.0151206680938069	0.00399293744296745	0.369873046875	-0.252197265625	0.212158203125	0	0	0	0.401082170260693	-0.335693439467623	0.599587863961248	0.605753580912039	0.0556086161775699	0.457123684843952	0.887663009571483	-0.995686297819754	-0.0407450278212794	0.0833584971183798	0.0742729973867183	-0.888469346383166	0.45288601479474	10.4291700319846	-62.5810349969497	83.0641081393072
5570	1653392917566	8.61773402855678	0.814927317253567	4.45697079841824	-0.00120986448622172	-0.052773435679925	-0.076607634479668	0.00175391607240771	0.00877101559166304	-0.000195666814999141	0.37451171875	-0.248046875	0.214599609375	0	0	0	0.401043975658002	-0.335645206061413	0.59962141790923	0.605772383342902	0.0555929016650318	0.457251215161812	0.887598307522895	-0.995685166559486	-0.0407642304541037	0.0833626211733609	0.0742999217891288	-0.888402838665282	0.453012050472831	10.4268366168967	-62.57298569463	83.0679641819766
5571	1653392917566	8.58710405313815	0.820976612553047	4.44220416327732	-0.0100596477792115	-0.0532127668766771	-0.109976213579545	1.26213683409662E-05	0.0054080738965001	0.00122324544531276	0.374755859375	-0.246337890625	0.2109375	0	0	0	0.401025607118924	-0.335630329913151	0.599636514020405	0.605777843050358	0.0555766653916919	0.457300314513142	0.887574028805553	-0.995685741796926	-0.0407709730232897	0.0833524525196434	0.0743043595372784	-0.888377256634205	0.453061488154576	10.4244799415511	-62.5699658464972	83.070705866489
5572	1653392917567	8.59967531303309	0.788838590299007	4.44356662832738	0.023039930908863	-0.0460795323960995	-0.100874348377379	-0.0010611308647251	0.00498232677121432	0.000170896149938773	0.3759765625	-0.2490234375	0.213623046875	0	0	0	0.400999217558399	-0.335576833273351	0.59965734095615	0.605804333035991	0.0555985248152603	0.457417935829474	0.887512048380117	-0.99568212612283	-0.0407785980900964	0.0833919040274756	0.0743364497261483	-0.888316350136206	0.453175632975563	10.4267364166927	-62.5622579551245	83.0697721172281
5573	1653392917568	8.62983716940936	0.782781052643514	4.45923996389667	0.0319134372131593	-0.0455993482000491	-0.0675060382215893	-0.000366759240650863	0.00187338840146385	-0.000838152585778876	0.370361328125	-0.254638671875	0.216552734375	0	0	0	0.400994002287119	-0.335569079556669	0.599658446272194	0.605810986025895	0.0556062813198168	0.457436972719361	0.88750175068398	-0.995681725740294	-0.0407728841116466	0.0833994781041738	0.0743360108198692	-0.888306809559944	0.453194405950496	10.4272401758394	-62.5609775261656	83.0691003365085
5574	1653392917568	8.57950760175711	0.781894140326133	4.4806065378191	0.0314079700710772	-0.0863701734327066	-0.102553592803012	-0.0024751798767918	0.000384229657256644	-0.000257618272418581	0.367431640625	-0.25146484375	0.216064453125	0	0	0	0.400955337542345	-0.335536479415983	0.59969118040019	0.605822231704696	0.0555715182627083	0.457542213763322	0.887449676873306	-0.995682783211345	-0.0407893891069373	0.0833787799910357	0.0743478417607946	-0.888251849624216	0.453300176554864	10.4223299466569	-62.5545034444688	83.0749689234802
5575	1653392917568	8.60726048881222	0.773909542998956	4.46144929950831	0.0396037685965641	-0.0564757937801502	-0.0872752390269848	0.00102195176048001	-0.00434431160261956	-0.00285633121016701	0.374267578125	-0.2578125	0.212646484375	0	0	0	0.400976235248182	-0.335538850304672	0.599676375267359	0.605821742469363	0.0556038497648418	0.457507763215026	0.887465412559449	-0.995680183113707	-0.0407873925752066	0.0834108000295527	0.0743584887284764	-0.888269686077882	0.453263477404828	10.4270703466294	-62.556459636695	83.0704624125261
5576	1653392917569	8.63005452015252	0.783268608571357	4.45873368944452	0.0311399855241474	-0.0433127955817548	-0.0674931051167125	0.00489868406001389	-0.00553856714554193	-0.00339354143632562	0.37255859375	-0.253662109375	0.21044921875	0	0	0	0.400966401213915	-0.335506156801326	0.599714121991968	0.605808992776906	0.0555571812636153	0.457571023840604	0.887435720349088	-0.995677808951559	-0.0408621660380697	0.0834025428155523	0.0744251326600404	-0.888233663811578	0.453323127691933	10.4247189323306	-62.552768537537	83.0771698625947
5577	1653392917569	8.61988047070543	0.796624969125228	4.40629253311061	0.0137855827641399	-0.00235218779558177	-0.099182898262514	-0.00252688704054104	-0.00438619626583482	-0.00416604846630253	0.377685546875	-0.26025390625	0.211181640625	0	0	0	0.400978485977584	-0.335516402475975	0.599689838617658	0.605819358316843	0.0556016822566138	0.457537708270038	0.887450110395642	-0.995677144611886	-0.0408232975162973	0.0834295036388096	0.0744007837845598	-0.888252612656388	0.453289994905409	10.4287604277551	-62.554557336362	83.0711790084766
5578	1653392917570	8.63565514108908	0.767145248761868	4.44083174704064	0.0463759545463626	-0.0247818561325466	-0.0719854825676815	0.00876374483022958	-0.0121415357455552	-0.00515414644495068	0.375732421875	-0.252197265625	0.207763671875	0	0	0	0.401009819230372	-0.335518597978822	0.599697123477831	0.605790190894146	0.0555812610054829	0.45748876517278	0.887476621193892	-0.995673774468441	-0.0408910300535207	0.0834365537215603	0.0744611191213853	-0.888274706046417	0.4532367905823	10.4308197920796	-62.5578531239308	83.0729652935277
5579	1653392917571	8.64590370793642	0.808796237121434	4.43665096780046	0.00585222261307698	-0.0191072782363325	-0.0613143991082605	0.00455985395964182	-0.00971240589770589	-0.00276926891172445	0.36962890625	-0.251220703125	0.205078125	0	0	0	0.401056743433259	-0.33552675710279	0.599678454622265	0.605773088603848	0.0556150926598739	0.45740760217469	0.887516336154571	-0.995668676328159	-0.0409215207828786	0.0834824299822901	0.0745040163170094	-0.888315098717576	0.453150567629588	10.4383711668933	-62.5627911188408	83.0675719774826
5580	1653392917571	8.67401204677001	0.801284744868662	4.41669051890172	0.0136614375856299	0.0110484952911927	-0.0460406233408168	0.00736339999039321	-0.0113333117532783	-0.00435893371872779	0.37451171875	-0.252197265625	0.20556640625	0	0	0	0.401097311560085	-0.335536408267821	0.599661906272919	0.605757264546725	0.0556418337837183	0.457333609420016	0.887552790558424	-0.995664614567016	-0.0409469103511982	0.0835184161236657	0.0745383232458304	-0.888352024947065	0.453072530772004	10.4445308651743	-62.5673244311651	83.0631599426064
5581	1653392917572	8.69461132689581	0.830066131546298	4.4645400761869	-0.00950129184412559	-0.0241961041328665	-0.00367527355971653	0.00699657146007701	-0.00946056305896601	-0.00519708219758032	0.375	-0.255126953125	0.21435546875	0	0	0	0.401154948014411	-0.335531893835227	0.59964034367468	0.605742943946204	0.0556996129141163	0.457255255315534	0.887589536107509	-0.995656373030122	-0.0409876681574651	0.0835966381113278	0.0746052274691285	-0.888390478644014	0.452986111805804	10.456047885587	-62.5718946484632	83.054848658831
5582	1653392917572	8.66699126724052	0.817633124856079	4.39740776356865	-0.00344611739379251	0.0231388319019496	-0.0596412085478892	0.0059741074491134	-0.005114887264493	-0.00234138719601893	0.36962890625	-0.251953125	0.209716796875	0	0	0	0.401164347545756	-0.335519590756181	0.599654030199884	0.605729984846407	0.0556832965676818	0.45725985782308	0.887588188805468	-0.995653848681171	-0.0410355793535516	0.0836031987036993	0.0746510823078102	-0.888385897935539	0.452987540953985	10.4568181042984	-62.5717270657468	83.0569324760394
5583	1653392917572	8.66210961867136	0.835081482215576	4.41368001521291	-0.0194537124207201	0.00529968557809522	-0.0551431603650201	0.00457263100575908	-0.00430479430128619	-0.00154637091952267	0.3720703125	-0.252685546875	0.21142578125	0	0	0	0.401192989431866	-0.335514126013587	0.599649839003134	0.605718191124863	0.0557006836577073	0.457225801154566	0.887604642055589	-0.99564946200261	-0.0410714883715251	0.0836378004066426	0.0746966040324306	-0.888401766995943	0.452948912952122	10.4619228844197	-62.5737736502437	83.0542734125606
5584	1653392917573	8.66743284100836	0.818470829950714	4.39638147529374	-0.00386850988782457	0.0239222073669518	-0.0596432569392764	0.00774391986190706	-0.00779967073600918	-0.00229767070824808	0.371826171875	-0.253662109375	0.205078125	0	0	0	0.40121229798077	-0.335494048736742	0.599670945380859	0.605695626925971	0.05567700105651	0.457227461918417	0.887605272416177	-0.99564481492858	-0.0411531015699675	0.0836530019605155	0.0747761596980445	-0.888397135462972	0.452944870422436	10.4638737178786	-62.5738520622474	83.05722271221
5585	1653392917573	8.64002428443063	0.826792008092512	4.41484186359824	-0.0120418446200878	-0.00590520486460996	-0.0749127984106703	-0.000338474556075018	-0.00417357739230879	0.0006252910460159	0.376708984375	-0.24951171875	0.212890625	0	0	0	0.401221821419003	-0.335507164981928	0.599665621009243	0.605687324650769	0.0556721704507764	0.457194139681909	0.887622739725508	-0.995645323014611	-0.041155614006367	0.0836457183296921	0.074772991089236	-0.888414168097446	0.452911984526013	10.4637256909865	-62.5760249433007	83.0573181604616
5586	1653392917574	8.65768781686731	0.852518074254735	4.42905643680503	-0.0360161632818636	-0.0114455504333995	-0.0506456628200258	0.00115456555815646	-0.00084818919847446	0.00642282832940973	0.369140625	-0.254638671875	0.204345703125	0	0	0	0.401202422662525	-0.335512764202231	0.599693626416345	0.605669345057773	0.0555974789859826	0.457215024229547	0.887616663852802	-0.995649159558088	-0.0411916590293326	0.083582284592391	0.0747774792412493	-0.888401749686022	0.452935602214198	10.455432284138	-62.5752691048906	83.0668555667318
5587	1653392917574	8.64028962507696	0.826153779945154	4.41444203328179	-0.0121736114301943	-0.0055218634070985	-0.0749127373250626	-0.00174019045013554	-0.00336311576164144	0.00142033344584479	0.372314453125	-0.25244140625	0.2177734375	0	0	0	0.40120399434144	-0.335529250490669	0.599689910584819	0.605662850216535	0.0555842664158846	0.457188449951309	0.887631179352172	-0.995651152012292	-0.0411852678655075	0.0835616970115088	0.0747607706193882	-0.88841572191287	0.452910953979289	10.4534700513498	-62.5770748645283	83.0680881989127
5588	1653392917575	8.68354145842486	0.787891501297579	4.4305151740169	0.0288341413446714	0.00207329027083103	-0.0324371464995607	-0.00210796238138731	-0.00148933771290008	0.000581751854203709	0.3681640625	-0.248291015625	0.21337890625	0	0	0	0.401167887599418	-0.335526299561872	0.599721656676842	0.605656967906853	0.0555120736302031	0.457246446683369	0.887605822804644	-0.995655954000513	-0.0412034790563893	0.0834954763863289	0.0747504578220443	-0.888385029313914	0.452972856522675	10.4439722986967	-62.573920526504	83.077873515841
5589	1653392917575	8.65061739482108	0.79176238061245	4.3806756086289	0.0193021629177677	0.0310312956511765	-0.0839129144549933	-0.00318207393048262	-0.00191543155666579	-0.000470098606727673	0.375732421875	-0.24951171875	0.2119140625	0	0	0	0.401163610129646	-0.335538866342334	0.599713066280111	0.605661345319609	0.0555158146132183	0.45723407913652	0.887611959813526	-0.995658010979318	-0.0411760079186865	0.0834844988281589	0.0747202750298698	-0.888392668389411	0.452962854162902	10.4428549094111	-62.5746839357216	83.0772261277603
5590	1653392917575	8.68364837270697	0.787675697007314	4.43034399549538	0.0290840912012965	0.00299274791458928	-0.0324381247292553	-0.00247573925140514	0.00038444966281487	-0.000256777695163538	0.3818359375	-0.246826171875	0.211181640625	0	0	0	0.401143718700073	-0.335500570263838	0.599731895725644	0.605677090163927	0.055522041203929	0.457319846199945	0.887567384040337	-0.99565563172647	-0.0411892596063962	0.0835063345168611	0.0747473474573795	-0.888347906602326	0.453046168600233	10.4436475204549	-62.5691394072804	83.0777430745132
5591	1653392917575	8.66094564887752	0.778682601745815	4.43285030412373	0.0369211718055828	-0.00894840298276339	-0.0522035273998007	-0.00321134263770467	0.00413211686223514	-0.00193379527233906	0.37841796875	-0.25439453125	0.20703125	0	0	0	0.401123723249497	-0.33549139766646	0.599731138947888	0.605696162869252	0.0555361661361484	0.457362582127588	0.887544479291311	-0.99565681632818	-0.0411553607545403	0.0835089239566463	0.0747210703224427	-0.888327476075546	0.453090561476532	10.442963475885	-62.56629081705	83.0766398284374
5592	1653392917576	8.68350619070199	0.787941857405158	4.43057534485651	0.0295306588009721	0.00295158609426217	-0.0324394503994796	-9.14461934739981E-05	-0.00413569960398011	-0.00659272008087387	0.373291015625	-0.248779296875	0.206787109375	0	0	0	0.401158852194024	-0.335486287688417	0.599681856568993	0.605724522354332	0.0556612433500204	0.457317424077786	0.887559913258586	-0.995650600461464	-0.0410935075833228	0.0836134285580159	0.0747108277926088	-0.888353587975733	0.453041052158837	10.4568613810716	-62.5682102601129	83.0605205525714
5593	1653392917576	8.66078007339048	0.779511868428674	4.43302805889564	0.0373775650129268	-0.008997207666479	-0.052205309343833	-0.00258573739207918	0.00770620395673124	-0.0070911266944019	0.369384765625	-0.25537109375	0.2041015625	0	0	0	0.401139167807195	-0.335454062520756	0.599673179437447	0.60576399517688	0.0557252996034081	0.457393314998662	0.887516786533441	-0.995648368907138	-0.0410411081713307	0.0836657213715704	0.0746928140898878	-0.888316938279691	0.453115879978543	10.4615670779549	-62.5628471217982	83.0537538938057
5594	1653392917577	8.65549454115751	0.797191801671935	4.45005688582504	0.0208168141718559	-0.0269599043913575	-0.047701617824087	0.00164918212507183	-0.000772665370325274	-0.00801274603081434	0.37744140625	-0.254638671875	0.211669921875	0	0	0	0.401140452415046	-0.335461633899256	0.599650881529788	0.605781024709788	0.0557686249243789	0.45737978778201	0.887521036484504	-0.995648714142963	-0.0409896845664004	0.083686819658846	0.0746558671472588	-0.888326277607294	0.453103659235787	10.4644229389285	-62.5633755927865	83.0482025632343
5595	1653392917577	8.65536966714647	0.797993306300912	4.45015611355538	0.0208192847308608	-0.0269177741633634	-0.0477015068656836	0.00198755742007147	0.00340063225730016	-0.0086376929414229	0.373779296875	-0.24658203125	0.21435546875	0	0	0	0.401150037880066	-0.335426079703126	0.599636458133217	0.605808641603324	0.0558509262648862	0.457417527157282	0.887496411195375	-0.995642265472767	-0.0409704696274545	0.0837729062571043	0.0746803403822585	-0.888307731851875	0.453135984327627	10.4742185839491	-62.5603136288895	83.0386127216442
5596	1653392917578	8.64268189601442	0.755859694916595	4.41931409911766	0.0608832268750378	-0.00245950571063786	-0.076471545671696	0.00302178826329754	0.004463396745251	-0.0102710385855869	0.3701171875	-0.250732421875	0.204833984375	0	0	0	0.401154588858812	-0.335346284408333	0.599639247603569	0.605847041838507	0.0559512845339033	0.45752792696747	0.88743318047268	-0.99563073035609	-0.0409844628581124	0.0839030546215769	0.0747589628713876	-0.888250229298637	0.453235730742086	10.487872830872	-62.5524528215822	83.0278930873716
5597	1653392917578	8.64705209117825	0.814973140822297	4.4332812948911	0.00435639898259956	-0.0146557544740115	-0.0613059096797297	0.00265430044884502	0.00633618794611775	-0.011109354344833	0.375244140625	-0.25341796875	0.207275390625	0	0	0	0.401161653066584	-0.335294406827576	0.599624404459072	0.605885766820886	0.0560564686544948	0.457593267186543	0.887392852206694	-0.995622301214264	-0.0409601966280229	0.0840148535498775	0.0747924170407757	-0.888217689599649	0.453293977718059	10.5002175967017	-62.5474403189001	83.0159029831928
5598	1653392917579	8.65182257344153	0.799042357406293	4.41696193773683	0.0198464147274617	0.00310195456464536	-0.0658082887844795	0.00442479557138938	0.00365178510512903	-0.0110655645063928	0.38037109375	-0.24853515625	0.21435546875	0	0	0	0.401164962781979	-0.335274534062497	0.599604171374477	0.605914595562474	0.0561316489590044	0.457617046034023	0.887375837604472	-0.995618629949731	-0.0409169793870796	0.0840793939967401	0.0747849027689736	-0.88820743071477	0.453315318890618	10.5076206121488	-62.5453257839143	83.0069887262967
5599	1653392917579	8.64639292650365	0.817276287307808	4.43414287109878	0.0038446432382251	-0.0147329418172548	-0.0613058107965543	0.00476304226571285	0.00782412064643449	-0.0116904983260307	0.375	-0.249267578125	0.214111328125	0	0	0	0.40117489452826	-0.335211083628513	0.59959393881827	0.605953250626837	0.0562412758899801	0.457695250327414	0.887328561872091	-0.995608334804904	-0.0409083749347358	0.0842053948818325	0.0748395787887224	-0.888167530755276	0.453384466825675	10.5214467227118	-62.5394512547163	82.9946520475327
5600	1653392917580	8.64862427447631	0.820639902927528	4.46909008504701	0.00521542465486832	-0.0433906296564548	-0.0431936323599711	0.00971547651590481	0.00705604364787452	-0.0111758265957006	0.375	-0.257568359375	0.20361328125	0	0	0	0.401207953966091	-0.335085008625825	0.599601732518794	0.605993380350837	0.0563915987093827	0.45783182007561	0.887248562760884	-0.99558690293752	-0.0409801199303937	0.08442362506887	0.0750113744326721	-0.888093831921349	0.453500429337147	10.5454666510288	-62.5295131251995	82.978189079915
5601	1653392917580	8.6255851566793	0.813086205793028	4.47198384208126	0.0130741535370203	-0.0553425298755337	-0.062957417382913	0.00934834640628655	0.00892766508073215	-0.0120141541251032	0.375	-0.2490234375	0.207763671875	0	0	0	0.401229344622061	-0.335003088955122	0.599600339598925	0.606025887365822	0.0565047262867619	0.457920516084914	0.887195591093522	-0.995572795396233	-0.0410111084659896	0.0845748074152245	0.0751134140762461	-0.888046671031944	0.453575886809356	10.5622084511173	-62.5229343851191	82.9655927413891
5602	1653392917581	8.60197587459629	0.859579090361895	4.41948874571511	-0.0376002106419915	-0.0211796303268461	-0.103779938312941	0.0128903652715247	0.00355997027234812	-0.0119253976370431	0.37255859375	-0.2529296875	0.20556640625	0	0	0	0.401261263017263	-0.334971813545488	0.599582697287678	0.606039497099877	0.0565889464865608	0.457919166711132	0.887190919641384	-0.995564018624914	-0.0410200241699519	0.08467374112739	0.07516632194642	-0.888046955051184	0.453566565863676	10.5744977930666	-62.5223542905295	82.9551926939105
5603	1653392917581	8.56697560035962	0.829988195761089	4.4762443053108	-0.00454516772148609	-0.0860402216550403	-0.111589962410948	0.0115664829837765	0.00309885718733746	-0.00576021132472574	0.3740234375	-0.249267578125	0.214599609375	0	0	0	0.401296374503681	-0.334914100693328	0.599591995610109	0.606038945751234	0.056643967914132	0.457952573044073	0.887170165042342	-0.995551830557645	-0.041098682779024	0.0847788354906514	0.0752862110367136	-0.888026091461361	0.453587529933962	10.5868477060668	-62.5197771491059	82.9489211695722
5604	1653392917582	8.5888147549889	0.893642996753652	4.41877308294531	-0.0704829027959413	-0.0270497807854972	-0.112883615829194	0.00846316377557246	-8.8023960036386E-05	-0.000860248457017106	0.37158203125	-0.2470703125	0.20703125	0	0	0	0.401305562673292	-0.334876405231942	0.599620227772234	0.606025759380555	0.0566267513306117	0.457995079295991	0.887149321351484	-0.995546136206447	-0.0411811443723084	0.0848056839639974	0.0753744102342127	-0.888000349486894	0.453623277172809	10.5893089430669	-62.517189169251	82.9516903672908
5605	1653392917582	8.57920570946767	0.85276174094162	4.42170947514137	-0.0299387773612063	-0.0326460538115164	-0.123542624037954	0.00572776102799195	-0.00514691020839253	0.004878794415324	0.37548828125	-0.250732421875	0.2060546875	0	0	0	0.401329841889478	-0.334882470915601	0.5996355084627	0.605991209237483	0.0565819753282819	0.457951035541858	0.887174914610467	-0.995544351958321	-0.0412567700007085	0.0847898709339424	0.0754315806001417	-0.888019553824829	0.453576177364856	10.5884536294142	-62.5203668931228	82.9565370856094
5606	1653392917584	8.58213614762858	0.854490703610391	4.45559471509957	-0.0291129266867289	-0.0621312889954396	-0.105430716644726	0.0043643402994133	-0.00497152031534452	0.00835851370591607	0.373291015625	-0.251953125	0.21142578125	0	0	0	0.401344143132941	-0.334909164288555	0.599638842544296	0.605963686173161	0.0565382203753588	0.45789106366398	0.887208658351268	-0.995546389939017	-0.041287725429954	0.0847508655307586	0.075437491449407	-0.888049040056624	0.453517460896856	10.5850320531798	-62.5245571194417	82.9610166045693
5607	1653392917585	8.58760228168943	0.836811964311392	4.43828450153695	-0.0130893139614059	-0.0442239005101703	-0.10993469374969	0.00262481125186581	-0.0083338829476409	0.00977932467674738	0.375732421875	-0.255859375	0.203857421875	0	0	0	0.401360592728205	-0.334944207577586	0.599657055007837	0.60591539739011	0.0564475883791015	0.457816074197275	0.887253127338969	-0.995549696934151	-0.0413578180316166	0.0846778118634628	0.0754617167874138	-0.888084440295099	0.453444104830173	10.5777862304479	-62.530080084405	82.9710476939943
5608	1653392917586	8.58034393574255	0.850999722561409	4.41983997533601	-0.030409675489964	-0.0327196925515425	-0.123544338917268	0.00514116243750669	-0.00935378805227034	0.012722526149487	0.37890625	-0.25244140625	0.206298828125	0	0	0	0.401358972156131	-0.335008532007194	0.59969045705625	0.60584784778674	0.0562812783961009	0.457724985351667	0.887310687125382	-0.995559705631434	-0.0414353376291214	0.0845220995871049	0.0754538946983677	-0.888127778295655	0.453360517904318	10.5606757076922	-62.5372304229622	82.9901698186988
5609	1653392917586	8.68477844147067	0.800227939114159	4.46582943347597	0.0288177375893674	-0.0248654181890044	-0.0143239825432246	0.00616770266427512	-0.0137038363808125	0.00986964776350049	0.377197265625	-0.247802734375	0.200927734375	0	0	0	0.401401960499235	-0.335049890249518	0.599704036384403	0.605783051839032	0.0561932795760816	0.457601717099839	0.887379841915378	-0.995560448344678	-0.0415369302967494	0.0844634661452203	0.0755096617806366	-0.888186552436368	0.453236074302313	10.5563468673508	-62.5458234167969	82.9991546062455
5610	1653392917587	8.64486123578702	0.839743484119515	4.48287027387491	-0.0117260241213516	-0.0620282826930628	-0.0386945398730862	0.00972805961323811	-0.00825190339608404	0.0123984466237485	0.379638671875	-0.254150390625	0.212158203125	0	0	0	0.401453604055248	-0.3351147136622	0.599680227140332	0.605736541455998	0.056163507728043	0.457430434391799	0.887470032221828	-0.995562472678329	-0.0415627420640565	0.0844269001369123	0.0755051216427965	-0.888273570564973	0.453066264956309	10.555745439642	-62.5570339574989	83.0002328845619
5611	1653392917587	8.6426374251943	0.837118519035179	4.44775627835118	-0.0123840223028071	-0.0326311198243209	-0.0568036621635777	0.0107631494102528	-0.00719136254510026	0.0107649074329795	0.37939453125	-0.247314453125	0.212158203125	0	0	0	0.401489988156026	-0.335125024386294	0.599716449845947	0.605670857169745	0.0560627956285203	0.4573628683307	0.887511222249404	-0.995560236617265	-0.0417080616107033	0.0843815907840935	0.075609379133089	-0.888301550302032	0.452994014881119	10.5518526227463	-62.5621552309215	83.0116386073409
5612	1653392917588	8.59548322736225	0.837741799106429	4.50269528681174	-0.0113231502096882	-0.103472508492534	-0.0737154859480178	0.00725327228871104	-0.007869607476937	0.0121419431039244	0.3818359375	-0.2509765625	0.20947265625	0	0	0	0.401526532574149	-0.335113615628345	0.599744952699154	0.605624718758547	0.0560097126647754	0.457326720407295	0.887533201006428	-0.995554752813837	-0.0418351292982587	0.0843833876208985	0.0757208441381243	-0.888314185836355	0.452950616518958	10.5530605807913	-62.5648882731445	83.017643779848
5613	1653392917588	8.63349419708997	0.869763511832348	4.4795058500151	-0.043654410275915	-0.0679494505770739	-0.0477930869209189	0.00340581341740625	-0.0127211879658304	0.0141467884205419	0.37841796875	-0.248291015625	0.21142578125	0	0	0	0.401551907940593	-0.335169167766205	0.599767735718694	0.605554586638604	0.0558805843395614	0.45720856896585	0.88760221087944	-0.995559844163371	-0.0419305431597177	0.0842758935861049	0.0757493035167625	-0.888370504921528	0.452835388416359	10.5425405608841	-62.5734712325866	83.031800423529
5614	1653392917589	8.6315797161562	0.866462623699821	4.44390838665003	-0.0433406047726834	-0.0384301340963472	-0.0658985585092289	-0.000809624199985954	-0.0156996894175663	0.0153124942367405	0.368896484375	-0.24072265625	0.203857421875	0	0	0	0.401593746342543	-0.335219746472181	0.599755338132668	0.605511121991212	0.0558425119129912	0.457072747758339	0.887674555859234	-0.995561363093382	-0.0419680054401397	0.0842392950767146	0.0757574166593134	-0.888438624653396	0.452700368947374	10.5411374057192	-62.5824716499351	83.0344524427417
5615	1653392917589	8.62260296883705	0.824231942360208	4.4458289439851	-0.00277246118211864	-0.0440690007885645	-0.0765646636900392	-0.00192382551381327	-0.0154921589152762	0.0115756162721927	0.3759765625	-0.253173828125	0.219970703125	0	0	0	0.401616130235866	-0.335294268379795	0.599755350091914	0.605455000443592	0.055742547255566	0.456930578397975	0.887754028405589	-0.995568924625812	-0.0420039920590137	0.0841319259883477	0.0757316627630972	-0.888510051252093	0.452564475052051	10.5310931177442	-62.5923619483315	83.0446571884133
5616	1653392917589	8.61571657895174	0.8380083158145	4.42673294964827	-0.0186104031208124	-0.031452976560795	-0.090164096210108	-0.0118398932869014	-0.0193637057971414	0.0093311656655678	0.375	-0.247802734375	0.21044921875	0	0	0	0.401624747246959	-0.335333936099206	0.599744848492361	0.605437718023832	0.0557145360141774	0.456859490277185	0.887792372472526	-0.995573119593871	-0.0419926417886177	0.0840879395498638	0.0756971202811153	-0.888547142350525	0.45249742739806	10.5272350137141	-62.5971350162129	83.0470469769033
5617	1653392917590	8.60182142254064	0.813027465417423	4.44504578392714	0.00596046336927413	-0.0549550888954632	-0.0963237672651367	-0.00659924408154056	-0.0207396043376673	0.0053123918188837	0.36865234375	-0.25341796875	0.211181640625	0	0	0	0.401659388034178	-0.335425022805301	0.599707635222314	0.605401141670656	0.0556816126642468	0.456674155281741	0.887889787028107	-0.99558059284705	-0.0419590234798597	0.0840162097153405	0.0756230200231667	-0.888643998599171	0.452319580160147	10.5224988151126	-62.609264627122	83.0483229760861
5618	1653392917590	8.62777325712654	0.801859186425067	4.3898650901081	0.0134246026739975	0.0052716620187885	-0.099183538366109	-0.0157664831804767	-0.0229483262232955	0.00596769041308037	0.37158203125	-0.261962890625	0.2021484375	0	0	0	0.401648259773335	-0.335513900455809	0.599686975913901	0.605379739453858	0.0556119070403393	0.456559541969581	0.887953095851275	-0.995593838960939	-0.0418915873194165	0.0838928050245108	0.0754998252869339	-0.888706070390197	0.452218196043963	10.5096908109821	-62.6171502072541	83.0552145653938
5619	1653392917590	8.63663367332501	0.785878179461028	4.40551472917493	0.0301620741165604	-0.00621876936667649	-0.085577987289879	-0.0126339587335073	-0.0258138590295892	0.00253140963091584	0.37353515625	-0.25390625	0.207275390625	0	0	0	0.401684351713383	-0.335632550465446	0.599621304684006	0.60535507235482	0.0556101640742204	0.456330909669712	0.888070723834342	-0.9956042834602	-0.0417920548847002	0.0838184639814851	0.0753632563477693	-0.888828175199531	0.452000945313318	10.5055196391052	-62.6318072047378	83.0519847129671
5620	1653392917591	8.63275386766328	0.802163167167062	4.42010401373566	0.0123124620820517	-0.0243708877155047	-0.0810647582246631	-0.0172578261652614	-0.026284490995648	0.000175032025678253	0.37158203125	-0.24755859375	0.206298828125	0	0	0	0.401652481412272	-0.33584250046923	0.599556367198459	0.605324096336604	0.0554839548607238	0.456067885000192	0.888213721479502	-0.995635779708866	-0.0415851065456975	0.0835468316401199	0.0750394890476522	-0.888972869768834	0.451770198107879	10.477458932697	-62.6496351419026	83.0636407252202
5621	1653392917591	8.66930877530478	0.778510635810662	4.41650257716655	0.0371943680855972	-0.00599456211101271	-0.0522023035337451	-0.0180464510690689	-0.0273159124888767	-0.00540715680081193	0.37353515625	-0.2490234375	0.19970703125	0	0	0	0.401689422691047	-0.335967126561176	0.599454680005308	0.605331135981038	0.0555603529799217	0.455828282610469	0.88833193342868	-0.995646047056583	-0.0414006113642646	0.0835160964082128	0.0748464839344326	-0.889104361788342	0.451543395136721	10.4788340572964	-62.6643810746716	83.0505676875333
5622	1653392917592	8.66770189499161	0.776221832974601	4.37996032439825	0.0367837029460538	0.022916593830653	-0.0703185420370751	-0.0170114635603532	-0.0262569221153752	-0.00704101289620581	0.37548828125	-0.244384765625	0.203125	0	0	0	0.401734374126751	-0.336110490067378	0.599307376613131	0.605367573833238	0.0557208136075073	0.455548230392	0.888465531530422	-0.995656779850615	-0.0411196780358512	0.0835269346721829	0.0745839638824635	-0.88926091888992	0.451278462223308	10.4861799906673	-62.6810551410039	83.0264522725528
5623	1653392917592	8.67652446467724	0.761091768690052	4.39553456727316	0.0534963301033148	0.0114026801410175	-0.0567112796717506	-0.0163033067824164	-0.0239591799348402	-0.00682815703237814	0.37255859375	-0.251953125	0.212158203125	0	0	0	0.401769194787745	-0.3362172600141	0.599210528360135	0.60538104602852	0.0558093935419569	0.455337917240708	0.88856777609554	-0.995664868559136	-0.0409434863560509	0.0835170667715908	0.0744095498548236	-0.889376754838975	0.451078936376436	10.4895035267728	-62.693822394109	83.0122816186749
5624	1653392917593	8.71290639278087	0.738261463896631	4.39207537759782	0.0790189092230417	0.0300954011525326	-0.0278550312474675	-0.0100350742783654	-0.0242683940418107	-0.0124873331062826	0.3671875	-0.247314453125	0.198486328125	0	0	0	0.40184138111848	-0.336266521271881	0.599096283048133	0.605418842397899	0.0560169406192394	0.45515674967217	0.8886475316972	-0.995659962999367	-0.0407857038825921	0.0836526415536276	0.0743191795148386	-0.889476733583666	0.450896662185	10.5103049706703	-62.7037852829901	82.9837898669602
5625	1653392917593	8.72857467149393	0.762644729661346	4.37031580336254	0.0545399952775394	0.0536122463477672	-0.0216989610450593	-0.0160080302087834	-0.0191501945774786	-0.0101378362848412	0.36474609375	-0.251708984375	0.19970703125	0	0	0	0.401868515000002	-0.336350925154729	0.598999350191407	0.605449857766539	0.0561356672356584	0.454990449129658	0.888725198283923	-0.995665836372889	-0.0405970497560706	0.0836744992872799	0.0741507191056249	-0.889570441703126	0.450739503598502	10.5165737921545	-62.7134904441833	82.9665237591312
5626	1653392917594	8.70193176443796	0.770920709077362	4.3874558296134	0.0452121798081227	0.0231403234132226	-0.0369457720570612	-0.00246704441964473	-0.0273436682804044	-0.00367059167062004	0.37744140625	-0.253662109375	0.2080078125	0	0	0	0.40191151090653	-0.336512697271449	0.598906061089768	0.605423712754848	0.0561414691300672	0.454687208993498	0.888880012949791	-0.995680515391897	-0.0404426652184601	0.0835745302048093	0.0739489466648764	-0.889732506322957	0.45045268395185	10.5108285183188	-62.7328454882998	82.9611598927926
5627	1653392917594	8.74801546677149	0.789055651196623	4.38088808246956	0.0295677409713829	0.0471373436724177	0.00257969757227094	-0.00604812468301841	-0.0159135875341164	-0.00521721273235602	0.3671875	-0.25	0.211669921875	0	0	0	0.401950577694313	-0.336568266772149	0.598847134337904	0.605425176705165	0.0562078229945441	0.454546645726536	0.888947707963167	-0.995681882777092	-0.0403643144270217	0.0835961149234913	0.0738800984276486	-0.889807883185798	0.450315069786399	10.5166238260988	-62.7413127562172	82.9507669484651
5628	1653392917595	8.77349945725488	0.778978163909371	4.32608049978922	0.0366903888182685	0.107369679784862	-0.000287167577385006	-0.00385146775420095	-0.0156994864575624	-0.000431619248068655	0.37060546875	-0.24951171875	0.215576171875	0	0	0	0.401957582318148	-0.336593118341421	0.598855442453242	0.605398491694751	0.056154463458659	0.454500051061883	0.888974903930598	-0.995684675355659	-0.0403954778778378	0.0835477864992136	0.0738830392956814	-0.889830269743487	0.450270349404295	10.5117001431126	-62.744715101944	82.9566769885578
5629	1653392917596	8.75710229620418	0.773864390690943	4.39596199753537	0.0458871127221285	0.0365936065898073	0.0161856032532484	0.00115387640079012	-0.0116886286632272	0.00397952992378593	0.375244140625	-0.255859375	0.2080078125	0	0	0	0.401990059183463	-0.336632523294295	0.598845364058577	0.60536498620563	0.0561255484121329	0.454394175180947	0.889030852320134	-0.995685887029556	-0.040423555473547	0.0835197613325357	0.0738886810384648	-0.889883065197054	0.450165073156383	10.5106553816316	-62.7517157469711	82.9586435107156
5630	1653392917597	8.73992794831836	0.747372283440326	4.38086998070652	0.0693037385255403	0.0437367406949035	-0.00808580476874532	0.00298554372974201	-0.00417755633063691	0.00914696276284294	0.370849609375	-0.248291015625	0.2099609375	0	0	0	0.401963762622352	-0.336604486011127	0.598936948146209	0.605307430716799	0.0559439042849817	0.454476359062295	0.889000291691084	-0.995687581912675	-0.0406006686324253	0.0834135776207313	0.0740035053105093	-0.889833031956041	0.450245107071334	10.4957652369787	-62.7478915863091	82.9824609840294
5631	1653392917597	8.74505027869447	0.729948759140749	4.36396098617106	0.0853314696781631	0.0616188569779109	-0.0125951831307223	0.0067780224396543	0.00132279034435481	0.0044512767833851	0.378173828125	-0.248779296875	0.19970703125	0	0	0	0.401973161493836	-0.336588134594637	0.598964483609853	0.605283035003241	0.0558999500481692	0.454487287828405	0.888997469505393	-0.99568487416568	-0.0406817503747348	0.0834063939043133	0.0740731188913082	-0.889823746811035	0.450252010177507	10.4947240791151	-62.7475384611275	82.9880865787101
5632	1653392917598	8.73198226106751	0.761777393443042	4.36365487464345	0.0530813169203572	0.0548491153005557	-0.0216977950551858	0.00786758382363809	0.0125876393883274	0.0079417618214033	0.37548828125	-0.249755859375	0.206787109375	0	0	0	0.401960914919287	-0.336554748398131	0.598990518996575	0.605283968365374	0.0558825189657693	0.454555007529877	0.888963941452945	-0.995682425876049	-0.0407244379410724	0.083414788592728	0.0741191667224221	-0.889787202247761	0.450316648415841	10.4942837964844	-62.7433435963268	82.9912852489731
5633	1653392917599	8.6763396203459	0.777772234729264	4.40280469057354	0.0367582040368031	-0.00490284850474629	-0.0522000417455573	0.0131470395980921	0.0105780534566261	0.00659993612473689	0.3759765625	-0.251708984375	0.205810546875	0	0	0	0.401958596744089	-0.336495705940036	0.59905346651109	0.605256037267276	0.0558111682899266	0.454646770963318	0.888921496616402	-0.995676138043592	-0.0408715384708617	0.0834178966027349	0.0742572664775185	-0.889733573040635	0.45039985277488	10.4927704583318	-62.7380339623056	83.0015439271646
5634	1653392917601	8.65331353181103	0.76893429238092	4.40601214607889	0.0446931286446267	-0.0172023795392071	-0.0719612814698678	0.01310240249518	0.0112150666687957	0.00391465537810132	0.374267578125	-0.25146484375	0.20556640625	0	0	0	0.40196292490953	-0.336445235151605	0.599089217771094	0.60524583426272	0.0557934257883997	0.454715485228504	0.888887462580163	-0.99566952840216	-0.040964167702812	0.0834513461595291	0.0743591544479629	-0.889694197158677	0.450460821483913	10.4954952774001	-62.7337771664952	83.0047934623284
5635	1653392917602	8.63991185514883	0.80108587095186	4.40629195772073	0.0120283466954457	-0.0235616247748588	-0.0810624099215715	0.00815805958254828	0.0174026051235131	0.00462885402602814	0.380126953125	-0.2490234375	0.204345703125	0	0	0	0.401928576787858	-0.336376640029253	0.599151247714304	0.605245369719017	0.0557370768100467	0.45486826849763	0.888812824267652	-0.995665805264188	-0.0410575969526404	0.0834498529662671	0.074451208830267	-0.889611787268156	0.450608350407834	10.4919518094233	-62.7244439520358	83.0141124664353
5636	1653392917603	8.62228674464524	0.796151779219563	4.47852112236556	0.0215398927407649	-0.0951156218922539	-0.0645938675619337	0.00712067285172479	0.0109182449897942	0.00504538296055774	0.373046875	-0.25146484375	0.20361328125	0	0	0	0.401927619310756	-0.336365669972444	0.599149648224361	0.605253685599519	0.055755670193227	0.454885759727116	0.888802706363335	-0.995664371526683	-0.0410522242643749	0.0834696001866685	0.0744564605234422	-0.889603091541633	0.450624649798354	10.4940082738225	-62.7231789766018	83.0120711295343
5637	1653392917603	8.60353162800289	0.82390823385475	4.40975682289951	-0.0124557096119825	-0.0427128366316641	-0.10992709011656	0.000387606372212588	0.0089591423336034	0.00327757757216532	0.372314453125	-0.25	0.20947265625	0	0	0	0.401897715938432	-0.336343479194332	0.599176998027036	0.605258799987437	0.0557199780775229	0.454962949493862	0.888765435101346	-0.995665653729813	-0.0410696980824378	0.0834457061939173	0.0744660326983017	-0.889562810872432	0.450702579853846	10.4892972393619	-62.718519661536	83.0176734166699
5638	1653392917604	8.59626803135976	0.784781694137738	4.44785765434954	0.0284220803330465	-0.0776618642862423	-0.10247084004089	-0.00177175493595188	0.00268841319735437	-4.20795111523569E-05	0.37744140625	-0.24365234375	0.208251953125	0	0	0	0.401869661113475	-0.336350406083415	0.59918351343553	0.605267128655701	0.0556950431091521	0.454994122013672	0.888751040002811	-0.995670216846159	-0.041040214592809	0.083405755626929	0.074423661953659	-0.889548227877041	0.450738359608125	10.4835729487	-62.7167203135652	83.021240664262
5639	1653392917604	8.60125508822893	0.767819991238723	4.43116198494942	0.0444682691261915	-0.0598059242509963	-0.106978784730039	-0.00182523667568935	-0.00209109061827555	-0.00394726532216277	0.37060546875	-0.2529296875	0.20556640625	0	0	0	0.401878276967633	-0.336353858368742	0.599163073579187	0.605279723533779	0.0557393864392032	0.45497590095003	0.888757588071174	-0.99566913716061	-0.041005076478664	0.0834359215735325	0.0744049064593654	-0.889559167935269	0.450719864923974	10.4877012926516	-62.7175387906287	83.0154622206965
5640	1653392917605	8.59135075697708	0.802018552541753	4.46437067468993	0.012991783374427	-0.095476539328786	-0.097963354558674	-0.00496153763049452	-0.00464692778708629	-0.00172625147936555	0.37255859375	-0.253173828125	0.205810546875	0	0	0	0.401892270230342	-0.336363459271715	0.599124241752949	0.605303534881319	0.0558195324214378	0.454940294193819	0.888770785140406	-0.995667791270782	-0.0409345078538901	0.0834866186446787	0.0743628215320954	-0.88958062860294	0.450684452791734	10.494738512355	-62.7191884297239	83.004976761668
5641	1653392917606	8.60956827476524	0.753061357758002	4.44771749305972	0.0617409732195677	-0.0712694399466069	-0.0933732536574645	-0.000395350922995862	-0.0143774078574949	-0.00449740793130099	0.378173828125	-0.253662109375	0.20263671875	0	0	0	0.401943225469301	-0.336398509800011	0.599079624904843	0.605294382203849	0.0558792912564084	0.454812858751216	0.888832249821769	-0.995665267039546	-0.0409095069535856	0.0835289665438477	0.0743517371669968	-0.889646938822003	0.450555372207334	10.5028847478082	-62.7268727539199	82.9956198460811
5642	1653392917607	8.60228749939592	0.76824257579697	4.42908414350966	0.0442046805298904	-0.0604643917830937	-0.106981660405097	-0.0038936276693067	-0.0096394363147233	-0.00189519501688693	0.3740234375	-0.255126953125	0.20458984375	0	0	0	0.401941571894219	-0.33650566087386	0.599021175471146	0.605293766959662	0.0558751430740264	0.454656339013185	0.888912583880768	-0.995678796144954	-0.0407667917592577	0.0834374232403701	0.0741734675864112	-0.889733489357788	0.450413825966103	10.4948537025991	-62.7369191455341	82.9937474627576
5643	1653392917607	8.60285451244338	0.768236252180664	4.42798381501301	0.0442382913231571	-0.0604892140965933	-0.106981968213054	-0.0024544048147333	-0.0165089326961051	-0.00122583465262503	0.374755859375	-0.24658203125	0.208984375	0	0	0	0.401987137247676	-0.336560611757666	0.59897844250999	0.605275244421107	0.0559035600432247	0.454507572724835	0.888986871843602	-0.995679720047997	-0.0407376662085511	0.0834406234218242	0.074139645667049	-0.889810827585088	0.450266592201448	10.4986028570275	-62.7462124694328	82.9879481100093
5644	1653392917608	8.60358011086234	0.768255646310621	4.42657044585263	0.0441075914974544	-0.06039022950055	-0.106980756967095	0.00109862050307418	-0.0164688971229995	7.7164334476462E-05	0.37744140625	-0.25146484375	0.207763671875	0	0	0	0.402029543927165	-0.336611972571913	0.59894626538106	0.605250358873947	0.055911502214653	0.454368968509175	0.889057222216888	-0.995680799763213	-0.0407287660084067	0.0834320837706938	0.0741191534152169	-0.88988201918869	0.450129251461922	10.5006839928364	-62.7550159047092	82.9848438349598
5645	1653392917608	8.65456337330327	0.769043558205067	4.40353756630192	0.0444918651754166	-0.0185378698192995	-0.0719628101586149	0.000441251394906105	-0.0194124805372772	0.00255212268445849	0.370361328125	-0.250244140625	0.20068359375	0	0	0	0.402086257381101	-0.336674674718006	0.598913912417062	0.605209823567059	0.0559045778336245	0.45419264670685	0.889147748045661	-0.9956816863563	-0.0407424657229082	0.0834148124825057	0.0741124661033362	-0.889971399070916	0.449953610057567	10.5025655706347	-62.7663479025724	82.9830081008848
5646	1653392917609	8.67805379104419	0.777931220274901	4.39939697059866	0.0362808711407694	-0.00694199804094421	-0.0521994930772784	0.0032446258744092	-0.0210385393927392	0.000957955821617684	0.369384765625	-0.254638671875	0.209716796875	0	0	0	0.402145092814592	-0.336771229225654	0.598856231095652	0.605174088976797	0.055912707287506	0.45396275369431	0.889264632953578	-0.995686342631249	-0.0406989223938916	0.0833804822100703	0.0740437455926531	-0.89009067851217	0.449728926981971	10.5034674857679	-62.7809859671367	82.9784793428033
5647	1653392917610	8.69459330431619	0.747966664004596	4.4327782738035	0.0696676186262057	-0.0300170530191931	-0.0249820571411377	0.0043218412382537	-0.0206139626573584	0.00200801637004588	0.369873046875	-0.24853515625	0.2138671875	0	0	0	0.402218124188048	-0.336825230340515	0.598826093890554	0.605125320951362	0.0559121469636816	0.453775239865606	0.88936036762767	-0.995684089172682	-0.0407442202991402	0.0833852689663014	0.0740744651703875	-0.890184217000688	0.449538689561415	10.5084032053876	-62.7929807037975	82.9756765072629
5648	1653392917611	8.71016212602219	0.771800775506614	4.41125314487371	0.0443729414368157	-0.00447441232819279	-0.0188236779995456	0.00863359669654604	-0.0134880880715597	0.00742502183165354	0.371337890625	-0.251220703125	0.207763671875	0	0	0	0.402217694251518	-0.336778933819999	0.598945264968602	0.605033425306197	0.0556890386135133	0.453846918002632	0.889337790717236	-0.99568070293689	-0.0410290079946319	0.0832860030381886	0.0742877431169056	-0.890134594048838	0.449601752332115	10.4947321331474	-62.7901515697607	83.0045216207612
5649	1653392917611	8.70298126972942	0.786650682675681	4.39242846870702	0.0277218093149111	0.00702575779382595	-0.0324362341376982	0.00395830836857074	-0.0133182250103328	0.00238895595989713	0.371826171875	-0.249755859375	0.1962890625	0	0	0	0.402266599614947	-0.336812027486247	0.598931203056547	0.60499640906378	0.0556781442916808	0.453725996238305	0.889400171231034	-0.995678912263539	-0.0410740063210701	0.0832852308541746	0.0743199025963519	-0.890194162159186	0.449478481949664	10.4974511988899	-62.7979691930166	83.0040310517918
5650	1653392917612	8.73392158362751	0.780308321649491	4.40662249152803	0.0357804649772813	0.00685448386051402	0.000938968671745144	0.00761373081579226	-0.00913416498736792	0.0102801713242316	0.375244140625	-0.25244140625	0.20849609375	0	0	0	0.402276886420082	-0.336905407641712	0.598926712773324	0.604942018445136	0.0555630780566225	0.453573352243217	0.889485221064253	-0.995690385860003	-0.0410798012425921	0.0831450866607633	0.0742522717688178	-0.890271679918394	0.449336105907871	10.4834259336408	-62.8086311155917	83.0160199262621
5651	1653392917613	8.69890217595597	0.803001240594567	4.40749801786619	0.0109452853023363	-0.0115258630861896	-0.0279290018223435	0.0032690399031675	-0.00478078821304802	0.00461556577542605	0.372314453125	-0.24072265625	0.20556640625	0	0	0	0.402294369237163	-0.336919827861029	0.598935151892618	0.604914005377239	0.0555234268429218	0.453526624119485	0.88951152341406	-0.995690422650869	-0.0411281513851204	0.0831207399207634	0.07428143316436	-0.890293253023084	0.449288540148335	10.4815091438873	-62.8119291834242	83.0202427233598
5652	1653392917614	8.66878657311254	0.808719614336296	4.39178619452464	0.00318882550939062	-0.0116437679272815	-0.0613013962991538	0.00116429555386394	-0.00627283159207525	0.00520314886836127	0.37548828125	-0.25341796875	0.212646484375	0	0	0	0.402332339453781	-0.336897475160734	0.598928339460095	0.604907946758467	0.0555698708437918	0.453503525481547	0.889520399895479	-0.995682522831508	-0.0411729343575568	0.0831931680143992	0.0743525600251129	-0.890302949479668	0.449257559719941	10.4911469990907	-62.8130422943057	83.0141097032014
5653	1653392917614	8.6690551152525	0.808326236803046	4.39132851503939	0.00322326697265634	-0.0116657940091307	-0.0613014339481701	-0.00276124401470414	-0.00443515787257381	0.00306347722712676	0.372314453125	-0.2451171875	0.201904296875	0	0	0	0.402333553514291	-0.336925282853346	0.598922406998258	0.604897525111626	0.055546608339212	0.453460670815899	0.88954370006493	-0.995686056092676	-0.0411606757760462	0.0831569388101303	0.0743226210828353	-0.89032534435051	0.449218130981512	10.4875796698653	-62.8159643361691	83.0163518209641
5654	1653392917616	8.6771022579318	0.793004871732658	4.40853110054033	0.0202120571950215	-0.0227925388901991	-0.0476897310186803	-0.0059901314393829	-0.0057148294151157	-8.39411093679296E-05	0.381591796875	-0.258056640625	0.19775390625	0	0	0	0.402333389286263	-0.336934787094334	0.598906421844469	0.604908167397811	0.055572094238301	0.453446542441218	0.889549310319599	-0.995687001881655	-0.041122116522234	0.083164690925016	0.0742908919443765	-0.890334321859399	0.449205586222247	10.4888220637037	-62.816667953754	83.012963704535
5655	1653392917616	8.64693840084094	0.798957726598321	4.39287456017298	0.0114081092910573	-0.0233055935444381	-0.081061046550273	-0.00819042692215128	-0.00592932465841851	-0.00486803935555819	0.37109375	-0.24853515625	0.200439453125	0	0	0	0.402336148665262	-0.33696716031903	0.598864309874781	0.604929991570872	0.0556293424494628	0.453393824830437	0.889572602919102	-0.995690102868152	-0.0410256763291879	0.0831751942116274	0.0742064371132965	-0.89036561787131	0.449157512687466	10.4912151814693	-62.8195894061969	83.0050320085136
5656	1653392917618	8.65505110976299	0.783894689002832	4.40990433671145	0.0270036948016264	-0.0368876411704894	-0.067454327138984	-0.013475450053583	-0.00934102506270675	-0.00474149110066442	0.36328125	-0.25146484375	0.206787109375	0	0	0	0.402316798627874	-0.337178565018059	0.598712372572883	0.604975457157008	0.055708220441023	0.453107380917662	0.889713603095531	-0.995717784293686	-0.0406306230600645	0.0830376210583189	0.0737745770341545	-0.890529535629048	0.448903617668363	10.4800397837698	-62.8372804181627	82.9908279373594
5657	1653392917618	8.64850269454384	0.74508171663911	4.44669486473424	0.068214433757137	-0.0719853045997075	-0.0599951364976636	-0.0103966895576338	-0.0115677855907734	-0.0108701073888706	0.375732421875	-0.254638671875	0.20849609375	0	0	0	0.402340033666727	-0.337223855441625	0.598636293522139	0.605010046782877	0.0558293187983232	0.4530046291963	0.889758334093723	-0.995719258602728	-0.0404858292257355	0.0830906473650217	0.0736630518655656	-0.890588403000302	0.448805137260286	10.4888337234984	-62.842894952293	82.9741661298765
5658	1653392917620	8.64603969923421	0.743499888374664	4.41153153257463	0.0660253434818974	-0.0414319375629247	-0.0780929168660869	-0.0132450947028344	-0.00930542907051138	-0.011959191784119	0.37158203125	-0.254150390625	0.204833984375	0	0	0	0.402279813618109	-0.337260845748586	0.598640141657784	0.6050256641468	0.0557702054417944	0.453038838246016	0.889744623600323	-0.995731758919724	-0.0403981352973451	0.0829834618651806	0.0735387548413252	-0.89057498376341	0.448852146960656	10.4745301584727	-62.8411739280682	82.9820556918122
5659	1653392917620	8.63169957267694	0.720173035439643	4.43060600928543	0.0905522045640473	-0.0649947482496915	-0.0842377363639439	-0.00974484597391317	-0.0140499228804662	-0.0145638806407454	0.37353515625	-0.258544921875	0.206787109375	0	0	0	0.402318073982206	-0.337304248810874	0.598549642557645	0.60506556378255	0.0559283382564943	0.452916362396759	0.889797049699062	-0.995730745307182	-0.0402430145172738	0.0830709493900594	0.0734323078070577	-0.890644299625754	0.44873202216276	10.4880730541546	-62.8477553138655	82.9604720295541
5660	1653392917620	8.64201652585261	0.762143866991436	4.42613953108349	0.0478029932296871	-0.0590486059510204	-0.0735779609069791	-0.00694167602087906	-0.0156768978384675	-0.0161600823143633	0.369384765625	-0.256591796875	0.197265625	0	0	0	0.402293018593666	-0.337401641687579	0.598507401969673	0.605069706037937	0.055898043948078	0.452808745716728	0.889853723083306	-0.995746045368547	-0.0401015660433823	0.0829558770296966	0.0732476744728229	-0.890705396976638	0.448640918754645	10.4759461833228	-62.8548715471347	82.9625914690486
5661	1653392917620	8.68487972228904	0.779089003069463	4.38570093654346	0.0314695334583979	-0.00567961248404163	-0.0521819784247679	-0.00478799393070428	-0.0148247187696846	-0.0140620729593412	0.373046875	-0.252685546875	0.21142578125	0	0	0	0.4023471197674	-0.337434155289645	0.598425635444672	0.605096475697456	0.0560498993732089	0.452679164965295	0.889910097923704	-0.995741806933032	-0.0399928918849628	0.0830591507566677	0.0731892253408543	-0.890776145956436	0.448509972117683	10.4916929732608	-62.8619520041926	82.9416662410507
5662	1653392917621	8.69539087878752	0.746061755533752	4.35090750813374	0.0614914404073458	0.0301983097324088	-0.0611678178353063	-0.00230975164237717	-0.0152114633032601	-0.0138115810710727	0.37939453125	-0.25732421875	0.206298828125	0	0	0	0.402337661847087	-0.337522717604262	0.598386866367884	0.605091711328851	0.0560231465189156	0.452561663972155	0.889971543003974	-0.995754068056849	-0.0398848719643133	0.0829640460478312	0.0730427477738648	-0.890840691308578	0.448405641920905	10.4823303574481	-62.8696712081182	82.9431879947505
5663	1653392917621	8.713539204057	0.772928062398344	4.36400276939613	0.0376029064849987	0.0243107807229228	-0.0369163818432252	-0.000432733704393477	-0.0137570623299152	-0.00718141658811827	0.372802734375	-0.2509765625	0.20703125	0	0	0	0.402389596526318	-0.337553392062922	0.598335737146702	0.605090626077876	0.0561041063198566	0.452438745113152	0.890028938391604	-0.995750638066308	-0.0398460834789999	0.0830238304459908	0.0730273650393487	-0.890904861111343	0.448280640228406	10.4925764593684	-62.8768834923243	82.9311926189801
5664	1653392917622	8.7061809836984	0.788523703218696	4.34533239867619	0.0200452426502933	0.0359687064438731	-0.0505372439488649	0.00134592407015098	-0.0110238189656985	-0.0059225573799988	0.37255859375	-0.245849609375	0.211181640625	0	0	0	0.40240380720473	-0.337595725088596	0.598316842924843	0.605076241329547	0.0560921637487063	0.452355002738865	0.890072255866404	-0.995754223025635	-0.0398237371608264	0.0829915494804105	0.0729876461642813	-0.890948383160139	0.448200604698087	10.4904187130945	-62.8823279247649	82.9313869937114
5665	1653392917622	8.72428383131691	0.814763842051876	4.35861939310498	-0.00385167221472341	0.030081067476151	-0.0262880414897086	0.0061231455202608	-0.0124700986269063	0.00448032141477116	0.379638671875	-0.2451171875	0.190673828125	0	0	0	0.402451863047297	-0.337626574648174	0.598314739381771	0.605029145297666	0.0560555374597295	0.452238822811427	0.89013359888403	-0.995752598737167	-0.039896058863433	0.0829763014079545	0.0730379273273763	-0.891004125483884	0.448081588042201	10.4912581323168	-62.8900396577397	82.934159505316
5666	1653392917623	8.71008063944876	0.790850674400436	4.37757701792162	0.0221814115668083	0.00522256122303946	-0.0324209702358598	0.00817715803038284	-0.0103377320540964	0.00120610832047618	0.37109375	-0.2548828125	0.205078125	0	0	0	0.40256514431169	-0.337663520641292	0.598205084220668	0.60504159247607	0.0562680480813414	0.4520147857368	0.890233980614327	-0.99574104139982	-0.0398160364042972	0.0831532423724645	0.0730320836147922	-0.89112138158635	0.447849302826872	10.5184628847981	-62.9026635150656	82.904165242907
5667	1653392917624	8.73312283381655	0.799872808876207	4.3742123034665	0.014330102951076	0.0171819848197271	-0.0126637112030554	0.00790255349843003	-0.00973717738994635	0.00573899213604133	0.3681640625	-0.249755859375	0.20751953125	0	0	0	0.402609065201403	-0.337683444447792	0.598214372230459	0.604992063435914	0.056218912405585	0.451921063059219	0.890284666076732	-0.995738726671682	-0.03990898905086	0.0831363987624921	0.0731014506982655	-0.891164757694313	0.447751663927054	10.5186218669826	-62.9090397092797	82.9088432002594
5668	1653392917625	8.73062727606024	0.797526254306412	4.33914783307179	0.0121932425014631	0.0475875867039436	-0.0307810356243792	0.00687936075791196	-0.00537819572149504	0.00859489421853039	0.375244140625	-0.258056640625	0.196533203125	0	0	0	0.40256687995419	-0.33769583340387	0.598313612051003	0.604915079081434	0.0559646914722967	0.45196753584481	0.890277091612932	-0.995748167952513	-0.0400785424031367	0.0829415243292237	0.0731678845370417	-0.891133579762995	0.44780286253123	10.4933410459158	-62.9080867591005	82.9413035729364
5669	1653392917625	8.72874305156658	0.816158159498599	4.38993320822877	-0.00321519444535927	0.000300965789511524	-0.00816939687812912	0.00472996784032878	-0.00080760762624119	0.00771682424898662	0.3759765625	-0.25	0.204833984375	0	0	0	0.402570623302569	-0.337702213694094	0.598342065280294	0.604880881691596	0.0558879755644429	0.451953370684852	0.890289101873043	-0.995749333314806	-0.0401526676602124	0.0828916671498844	0.0732106507990943	-0.891137427115689	0.447788216239779	10.4875087531666	-62.9095977952339	82.9506634499935
5670	1653392917626	8.733758539312	0.798650792642178	4.373166225158	0.0114362860284206	0.0167059489117908	-0.0126590839150236	0.00543229981697462	0.00149881502126364	0.00792644551729361	0.369140625	-0.25341796875	0.202392578125	0	0	0	0.402540042543844	-0.337823346984688	0.598323907134501	0.604851554128918	0.0557677767667357	0.451819441270538	0.890364614955286	-0.995769139140619	-0.04005996739979	0.0826983708852643	0.0730327091763991	-0.891209510441796	0.447673800761725	10.4662087132802	-62.9191000406208	82.9636082401732
5671	1653392917627	8.73362365002462	0.798056412054548	4.37354411405396	0.0114041885098973	0.0166502448753513	-0.012658951711467	0.000481456375059353	0.00769541286123707	0.00864586868762572	0.37548828125	-0.247802734375	0.19677734375	0	0	0	0.402503868285229	-0.337819607713639	0.598364732509944	0.604837329823427	0.0556751190650119	0.451879256368971	0.890340057944447	-0.995774051918324	-0.0400994341925397	0.0826200514621045	0.0730364199783873	-0.891177408286848	0.44773709731926	10.4550697889191	-62.9160095525979	82.9761028262702
5672	1653392917628	8.7402058422085	0.83658794788384	4.33661612608858	-0.0306019115574665	0.0504672515585142	-0.0201476753685785	-0.0028475641692826	0.00769073490725272	0.000129862548248524	0.376220703125	-0.25244140625	0.2001953125	0	0	0	0.402455377515634	-0.337905465368853	0.598318580545194	0.604867292682446	0.0556695452964866	0.451822936692715	0.890368988456389	-0.995790423211186	-0.0399109094337344	0.0825139524508361	0.0728171323753485	-0.891214426042657	0.447699131165215	10.4428051278311	-62.9196504778374	82.9759322857532
5673	1653392917628	8.72790549215886	0.814255377183052	4.39195139446114	-0.00551466924427813	-0.00253073242202145	-0.00817074259087036	-0.00667143339706816	0.0136751679639782	0.00458314122504637	0.374267578125	-0.2529296875	0.2041015625	0	0	0	0.402386591036059	-0.337897624236149	0.598346681821974	0.604889638895047	0.0556128877764008	0.451936470331551	0.89031490692756	-0.99579836287382	-0.0398674405859732	0.0824391149815657	0.0727518192967664	-0.891158804010477	0.447820453779892	10.4307773468289	-62.9128446470673	82.9847549200686
5674	1653392917629	8.67150669123777	0.808771389708836	4.34599530110416	-0.00788338724889757	0.0133954737035549	-0.0794159225289572	-0.00602209802269507	0.0111941895558757	0.000889129813421486	0.371826171875	-0.2509765625	0.206787109375	0	0	0	0.40231711922867	-0.337965888571686	0.598319817805541	0.604924283988202	0.0555849075661889	0.4519374493885	0.890316157267223	-0.995815300139374	-0.0396913376066239	0.0823194128217999	0.0725410646405686	-0.891166168320597	0.44783998747499	10.4155191381279	-62.9130019768427	82.9882643577543
5675	1653392917629	8.71420105405575	0.770303365220974	4.36314521196873	0.0335697614222953	0.0201051210763331	-0.036892146042609	-0.0077959906760961	0.0138848479527619	0.000849557526378686	0.3740234375	-0.25439453125	0.204833984375	0	0	0	0.402250631273396	-0.337953881998256	0.598334847175002	0.604960340798082	0.0555651685967533	0.452053381366529	0.890258531233429	-0.9958220308669	-0.0396203194075554	0.0822721892875443	0.0724637487226312	-0.891110526638044	0.447963206564928	10.4068740351928	-62.9057517918446	82.9925092469211
5676	1653392917630	8.6781458713215	0.793142520604941	4.36609259733119	0.00783339134327689	0.00216220394362826	-0.0657909773532221	-0.00929417507903036	0.0159743702958216	-0.00372274341742612	0.375244140625	-0.255859375	0.204345703125	0	0	0	0.402144482677763	-0.337938448906494	0.598370579521873	0.605004189543481	0.0555005086266609	0.452233249595732	0.890171209095344	-0.995833580445444	-0.0395350707710166	0.0821733426138818	0.0723544995103251	-0.891023044673489	0.448154839605014	10.3902953456765	-62.8947688254702	83.0033390784098
5677	1653392917631	8.64983150854741	0.801007038267823	4.38680144477455	-0.000404132338072809	-0.0277748067664354	-0.0810660974835997	-0.01209435191688	0.0175970455761216	-0.00212500295500252	0.376708984375	-0.263427734375	0.20458984375	0	0	0	0.402058659207406	-0.33792216004621	0.598377031623269	0.605063944002426	0.0555070835508567	0.45238367233958	0.890094363916677	-0.995841794678179	-0.039412474835864	0.0821326780243716	0.07223630422316	-0.89095211421707	0.448314896612092	10.3816383726125	-62.8851070030564	83.0048221153549
5678	1653392917632	8.63435825693942	0.776520543953257	4.40831855841474	0.0213158474294273	-0.0518880171092852	-0.087192402679447	-0.0105950227340949	0.0155043356946027	0.0024479677762477	0.376220703125	-0.254150390625	0.202392578125	0	0	0	0.401890775297032	-0.338036901438003	0.598414965947884	0.60507386865319	0.0552611635915743	0.452462692216255	0.890069500629543	-0.995878341807957	-0.0392333334785129	0.081774530643709	0.0719203178270255	-0.890919894096311	0.448429715994689	10.3347565387004	-62.8819815979268	83.0367130515446
5679	1653392917633	8.66137216296668	0.767820473196989	4.390344185346	0.0294296478040261	-0.0221094395983798	-0.071913109301164	-0.0105991075636693	0.0100796048992381	0.00122832502391723	0.375	-0.251953125	0.20654296875	0	0	0	0.401825686569715	-0.338046616605974	0.598419188422031	0.605107492551818	0.0552379198591433	0.452544241581368	0.890029483568482	-0.995887496822428	-0.0391388149178093	0.0817083033699051	0.0718113214082143	-0.890882631202547	0.448521205228061	10.3245057121334	-62.8769520075561	83.0408551598762
5680	1653392917634	8.633357256589	0.775480511016761	4.41046159613737	0.0207330997040058	-0.0524110119654798	-0.0871939472758871	-0.00354195387303806	0.0108033401410563	0.00114146349616463	0.37548828125	-0.251953125	0.20361328125	0	0	0	0.401767776545577	-0.338069577458649	0.598421218731262	0.605131109346351	0.0552020115382438	0.45259566698796	0.890005561862315	-0.995897516801016	-0.0390506025963707	0.0816283435237489	0.0716998880870983	-0.890860377758818	0.448583229053109	10.313223572252	-62.8739457919814	83.0461172221922
5681	1653392917635	8.66319308966173	0.768941961834091	4.42686070064423	0.029449684790421	-0.0520322383051977	-0.0538089931177676	-0.0095165949298949	0.0159274628651497	0.00349783867724075	0.375244140625	-0.2509765625	0.202392578125	0	0	0	0.401684631443546	-0.338063212571259	0.598445740575368	0.605165611015085	0.0551519197863971	0.452727970616721	0.889941374678771	-0.995907158401951	-0.0389756951014764	0.0815464716288145	0.0716044522891357	-0.890796430062797	0.448725442336124	10.2999058120574	-62.8658809773203	83.054376173249
5682	1653392917635	8.65995273402356	0.766276097591683	4.39341297816569	0.0287543384975966	-0.0234523237203703	-0.0719142330302365	-0.00452648735101214	0.00367313602552446	0.00424303404775207	0.379150390625	-0.253662109375	0.206298828125	0	0	0	0.401657969507105	-0.338122881779617	0.598414501844565	0.605180862495335	0.055146001598336	0.452678508433036	0.889966901918581	-0.995917508991004	-0.0388580809728997	0.081476161104073	0.0714649130193945	-0.890826704553666	0.448687584696953	10.2920646977432	-62.86908808839	83.0543627832778
5683	1653392917636	8.619577702111	0.730690476929557	4.38192415947155	0.0604270790080853	-0.0297038986738488	-0.11589645746842	-0.000595763501729309	0.00725897955481327	0.00760166790913171	0.375732421875	-0.25439453125	0.199462890625	0	0	0	0.401620996638705	-0.33812462299454	0.598448765100493	0.605170546154907	0.0550616297489899	0.452731235892884	0.88994530448578	-0.995923028193497	-0.0388806987827436	0.0813978696039416	0.0714530534216689	-0.890798921928551	0.448744628767468	10.2811067867377	-62.8663746752409	83.0656856835068
5684	1653392917636	8.66735489027224	0.749898721200961	4.41206006478943	0.0447306124828261	-0.036282790554836	-0.0582860190168972	0.000852891574952238	0.00580698846230132	0.00948880634800212	0.381591796875	-0.2568359375	0.2080078125	0	0	0	0.40158429715432	-0.338208140202022	0.598437487771221	0.605159383476973	0.0549756542623174	0.452661965748483	0.889985855057904	-0.995938278848079	-0.0387947489817195	0.0812521518273329	0.0713065366117071	-0.890837870892433	0.44869061236032	10.2643024273708	-62.8714694899389	83.0753588091175
5685	1653392917636	8.68187972627854	0.773053146688468	4.39270318785594	0.0201602970326091	-0.0128370633443537	-0.0521588566083277	-0.000919485057593483	0.00849615773934149	0.00944951468866045	0.372314453125	-0.248779296875	0.2080078125	0	0	0	0.401539624924368	-0.338211424469858	0.598478891515099	0.605146245451895	0.0548720975378553	0.452723931311624	0.889960726621992	-0.995945085418675	-0.0388221079470886	0.0811555960173608	0.0712912318745059	-0.890805189675214	0.448757923947335	10.2508585218603	-62.8683122237759	83.0892132242747
5686	1653392917637	8.63646597622248	0.754317438889262	4.39809513570573	0.0360514468905355	-0.0364336947560685	-0.0916713149664687	0.000853592440606977	0.00580567493742271	0.00948915743314908	0.373291015625	-0.255126953125	0.205078125	0	0	0	0.401507644361252	-0.338184900450206	0.598534266339377	0.605127520977642	0.0547754102501356	0.452811468143624	0.889922147577835	-0.995946759096851	-0.0389033129258756	0.0810961484157551	0.071342185811819	-0.890757153527833	0.448845169253925	10.2415597088576	-62.8634656145474	83.1025937142428
5687	1653392917637	8.67359174995063	0.786671914751668	4.37630079792377	0.00363300964358623	-0.00098173139283795	-0.0657883162711137	0.00183454715732619	0.00751219197628745	0.00516748995025859	0.37646484375	-0.257568359375	0.209228515625	0	0	0	0.401481552570181	-0.338174080010362	0.598565421893767	0.605120062688487	0.0547154546445636	0.452866581875929	0.889897790784453	-0.99594920060214	-0.0389360026820529	0.0810504627692004	0.0713541088024865	-0.890727706268956	0.448901709109965	10.2346501460616	-62.8604061305183	83.1109012518755
5688	1653392917638	8.68097394208878	0.77112268167088	4.39483211876888	0.0187907278342873	-0.0121255232689719	-0.052155213978148	-0.00203404003467384	0.014129009389281	0.00693611534691346	0.37353515625	-0.248046875	0.2001953125	0	0	0	0.401364267460795	-0.338183663485488	0.598651433134636	0.605107425308134	0.0544965427147601	0.453027177998128	0.889829479634829	-0.995966531446371	-0.038953627176989	0.080828727371156	0.0712796960629242	-0.890645266604392	0.449077069114387	10.2033378846319	-62.8518271905555	83.14060993985
5689	1653392917639	8.665726434153	0.746692715094096	4.41580097449111	0.0432001920427681	-0.0357766976216977	-0.0582772517017442	0.00393953885848668	0.00900403342225886	0.00458127724467975	0.3701171875	-0.25732421875	0.208251953125	0	0	0	0.401340682200028	-0.338161063361024	0.598687682182305	0.605099835763436	0.0544403088594415	0.453096052598609	0.889797853386289	-0.995967220049811	-0.0390025679712078	0.0807966353130135	0.0713130377809094	-0.890608088224675	0.449145504075516	10.1978503997156	-62.84785621737	83.1486523881806
5690	1653392917640	8.65247447621262	0.778540671471589	4.4159049803824	0.00956711624063324	-0.0420705068144142	-0.0674426065259919	-0.0039073558920766	0.012677342583464	0.000303906455088403	0.377685546875	-0.2529296875	0.20751953125	0	0	0	0.401255673612201	-0.33817048602058	0.598717892302568	0.605121055835438	0.0543552156427519	0.453207953947489	0.8897460654654	-0.995979258603301	-0.03893846033842	0.0806790724939966	0.0712097392527751	-0.890553955010702	0.449269213557247	10.1805773980202	-62.8413549149699	83.1609329092308
5691	1653392917641	8.67459078528277	0.78721492589733	4.41450724391439	0.00161976652344314	-0.030166741638504	-0.0476889439657562	-0.00208802888919192	0.0093469341276959	0.00302941782253896	0.37255859375	-0.245361328125	0.202392578125	0	0	0	0.401215264236326	-0.338162000365291	0.59874003495186	0.605130683240046	0.0543136641095803	0.453280420204687	0.889711687317894	-0.995983445529666	-0.0389266354207597	0.0806330781111169	0.0711828780104171	-0.890517589783538	0.44934554650544	10.173202468601	-62.8370399780144	83.1671937416935
5692	1653392917642	8.64662653653837	0.795192814254224	4.43440928442983	-0.00554838139575851	-0.0602827783879916	-0.0629795241127233	-0.00396163424763287	0.00789677329396718	-0.00360301341931323	0.366943359375	-0.25	0.204833984375	0	0	0	0.401221026938143	-0.338124385855783	0.598703904315092	0.60518362683587	0.0544510692950304	0.453326373776633	0.889679874950061	-0.995976827080178	-0.0388493549988659	0.0807520125784759	0.0711705063346472	-0.890497572402475	0.449387174464703	10.1869699878009	-62.8330476462847	83.1507596143871
5693	1653392917642	8.61583522238218	0.80128959023699	4.41996556329484	-0.0144130975767276	-0.0608410491381362	-0.0963677026142431	-0.00783754070452882	0.0090925151003797	-0.0030564943785118	0.376953125	-0.252197265625	0.191162109375	0	0	0	0.401174650641877	-0.338121474236579	0.598697068452106	0.605222759460766	0.0544713777738733	0.453398655096558	0.889641797893989	-0.995981712302062	-0.0387585601815553	0.0807353873620828	0.0710865512123692	-0.89046472898666	0.449465536684901	10.1831780711593	-62.8282698324617	83.1493112861528
5694	1653392917643	8.63800369146094	0.810180809003242	4.41843120480656	-0.0231204539757835	-0.0506972141463738	-0.0766239790405567	-0.0089126445782769	0.00866548854165231	-0.00410605389134628	0.37353515625	-0.256103515625	0.203369140625	0	0	0	0.401121073837684	-0.33824538203606	0.598600036371769	0.605285008991879	0.0545361159739918	0.453292555069767	0.889691896991758	-0.996001958521536	-0.0384402388419607	0.0806377495906119	0.0707524605631248	-0.890532541548087	0.449383891309166	10.1729295700327	-62.8345563032846	83.139656789334
5695	1653392917644	8.6128400414897	0.819955272046237	4.47270252006376	-0.030824238395197	-0.110065498351057	-0.0738299634816268	-0.0112949906629575	0.00776853412271961	0.00101328024881393	0.370361328125	-0.24658203125	0.205322265625	0	0	0	0.401061446616151	-0.338265898331125	0.598596464097576	0.60531658760873	0.0545169103922328	0.453349916953208	0.889663846224969	-0.996011559055578	-0.0383360215839205	0.0805687512426153	0.0706320090961774	-0.890507833905821	0.449451796128796	10.1629029148128	-62.8310363073157	83.1429091995519
5696	1653392917645	8.62272435567597	0.785382743034347	4.43948290965749	0.000901278041211998	-0.0742826352498182	-0.082749482755597	-0.014862367604371	-0.00311167278292935	-0.00273343821850735	0.37841796875	-0.2529296875	0.202392578125	0	0	0	0.401012712987352	-0.338327079284347	0.598560545190073	0.605350200451944	0.054520122329372	0.453330572145066	0.88967350675392	-0.996024411908678	-0.0381718444714285	0.0804877703233367	0.0704480457015199	-0.890524734439351	0.449447182890894	10.1530026641021	-62.8322485268909	83.1422192112667
5697	1653392917645	8.6051450486153	0.758742068665388	4.42516919469375	0.0247203923436358	-0.0685587443773168	-0.106966277855971	-0.0208332562089757	0.00200735862193736	-0.000377951147855283	0.3662109375	-0.25634765625	0.204345703125	0	0	0	0.400943758475063	-0.338390839811286	0.598525086975894	0.605395294276559	0.0545187195846212	0.453337152028409	0.889670239923548	-0.996039932618288	-0.0379763543992228	0.0803881156409285	0.0702293517313672	-0.890529742960511	0.449471484143406	10.1401560250234	-62.831838593877	83.1424925601317
5698	1653392917646	8.59049928428756	0.73401400729555	4.44495555613792	0.0476657316272756	-0.0923786583617732	-0.113085385688832	-0.0137472349636688	-0.00874733030743226	-0.000221728822004084	0.37109375	-0.25341796875	0.202392578125	0	0	0	0.400876018956979	-0.338529873411974	0.598487471093792	0.605399611146748	0.0544205435028605	0.453231148649961	0.889730257065753	-0.996065180455569	-0.0377776712620773	0.0801685963331552	0.0699468421650845	-0.890592147645291	0.449391884465754	10.1147924723252	-62.8393706616873	83.1531383249283
5699	1653392917646	8.65880342864762	0.685236007188484	4.40694172681372	0.0966515344013907	-0.0265237432111454	-0.0733077356791796	-0.0176681088934063	-0.00691315726868813	-0.00235974934210916	0.371826171875	-0.246826171875	0.198486328125	0	0	0	0.400846401790609	-0.338607673204941	0.598433564301532	0.605429000738833	0.0544442255282006	0.453158734841526	0.889765692383934	-0.996077404533091	-0.0376011374222284	0.0800996794199282	0.069754071460059	-0.890636466523453	0.449334011636514	10.1075514235261	-62.8438186510322	83.1491029164112
5700	1653392917647	8.6618658257408	0.686961281130838	4.44082974811012	0.0969493273608614	-0.0568379026299273	-0.0552197347278973	-0.00818417802598052	-0.00593039703226414	-0.00487632498383196	0.37353515625	-0.256591796875	0.201904296875	0	0	0	0.400845701407712	-0.338702356710159	0.598343867327688	0.60546515478043	0.0545306599806611	0.453017956999102	0.889832084023965	-0.996087491974817	-0.0373853198113889	0.0800752533178637	0.0695421847039147	-0.890717165265698	0.449206874443888	10.1073335757804	-62.8521542200436	83.1362182346276
5701	1653392917647	8.68190558313483	0.694130401263117	4.4035800067134	0.0884251056479355	-0.0155650383252796	-0.0535502520997593	-0.000758277046855867	-0.00708204296061565	-0.00412262476665634	0.370849609375	-0.249267578125	0.197998046875	0	0	0	0.400870889068116	-0.338726932547083	0.598312590490126	0.605465638600555	0.0545722184564778	0.452943896164783	0.889867237232501	-0.996086962570642	-0.0373508512825331	0.0800979207299589	0.0695171631291953	-0.890756274654036	0.449133190929965	10.1117601255706	-62.856568715315	83.1299248124868
5702	1653392917648	8.65953719924103	0.685661029111048	4.4054335803914	0.0950714188587772	-0.0287140099767484	-0.0732983942774172	0.00237424696700834	-0.0045200618791373	-0.00634364642783235	0.368896484375	-0.251708984375	0.20263671875	0	0	0	0.400871349230497	-0.338828163638533	0.59824112323537	0.605479310432275	0.0546060679908431	0.452792239307422	0.889942338222848	-0.996098251767704	-0.0371805603275931	0.080036733810485	0.0693285667232755	-0.890840498606062	0.448995273782921	10.1072346642305	-62.866002025679	83.1234238596876
5703	1653392917648	8.66947883016033	0.727555892038663	4.40182183328343	0.0544230899777412	-0.0231296288565953	-0.0627263753500955	0.00620311577773627	-0.0050729995099569	-0.00957622740457701	0.37548828125	-0.253662109375	0.201904296875	0	0	0	0.400920777353939	-0.338815608721263	0.598208910035118	0.605485436263623	0.0547001664828725	0.452737131282446	0.889964595781701	-0.996090000195152	-0.0371827395189809	0.0801383515745376	0.0693729291436264	-0.890868415558664	0.448933027145507	10.1211762955456	-62.8687983428227	83.1108573342938
5704	1653392917649	8.66453929103011	0.745713433402344	4.41829529253329	0.0374131076219681	-0.0413464788479867	-0.0582753573408219	0.0111613535956644	-0.000421397404931355	-0.00784978916309529	0.375244140625	-0.248291015625	0.2021484375	0	0	0	0.400937479535025	-0.338825667921454	0.598190747748955	0.605486691488119	0.0547299921302534	0.45269725487024	0.889983046689302	-0.996088892063036	-0.0371660663767051	0.0801598566535479	0.0693653160452499	-0.890889375255442	0.448892608523365	10.1247288358338	-62.8711166151833	83.1065357856936
5705	1653392917650	8.65439231263996	0.780898372838052	4.45194161268742	0.00517181168214319	-0.077169337871059	-0.0493830687411023	0.0100935162863827	0.00457068443425359	-0.00767533733254213	0.376953125	-0.247802734375	0.193115234375	0	0	0	0.400966515948624	-0.33877644423255	0.59819016363183	0.605495583844586	0.0547980979345491	0.452726983697909	0.889963733359146	-0.996079025815465	-0.0372112375557074	0.0802614361327263	0.0694531697856229	-0.890872382573041	0.448912747842344	10.1368477322587	-62.8686899878415	83.0984891321421
5706	1653392917651	8.66117096024126	0.82113956863353	4.41455914767823	-0.034828869915859	-0.0443851340878447	-0.0569043678771948	0.00864055324532595	0.000601208083075002	-0.0107854433398894	0.37158203125	-0.248291015625	0.200439453125	0	0	0	0.401073166445706	-0.338817771643427	0.5980299161247	0.605560114435951	0.0551254740769337	0.452504695846976	0.890056561317442	-0.996067561931406	-0.0369989308458021	0.0805014980251494	0.0693584470401326	-0.890994152255055	0.448685665551595	10.1715734835486	-62.880355211289	83.054282108724
5707	1653392917651	8.66885089095188	0.807362894807102	4.43216732367964	-0.0183119371224719	-0.0561262311794936	-0.0432742680621327	0.0118666689523939	0.00188100981855037	-0.00763637522211246	0.3740234375	-0.251220703125	0.198486328125	0	0	0	0.40111623737905	-0.338772024614942	0.598026071569725	0.605560977253364	0.0551966661223506	0.452508584959848	0.890050171949095	-0.996056424331162	-0.0370588363324875	0.0806116753225072	0.0694616987813944	-0.890989687475291	0.448678558898333	10.1853613810296	-62.8795521428519	83.0454590066928
5708	1653392917652	8.63337933715937	0.831486270574867	4.43367001964002	-0.0432428224631486	-0.0756050837380957	-0.0722329627869911	0.00303352647773341	-0.00157839555091582	-0.00881483225734488	0.367919921875	-0.25634765625	0.2099609375	0	0	0	0.401152949742798	-0.338824127368358	0.597930912891555	0.605601473771651	0.0553536682434858	0.452375087845815	0.890108280665044	-0.9960562803972	-0.0368901313573516	0.0806907955700735	0.0693387171303607	-0.89106447471826	0.448549043251446	10.1980307259096	-62.8868565340107	83.0238341530885
5709	1653392917653	8.66879714119242	0.809167087924308	4.43194341830945	-0.0185050032491102	-0.0575330163572006	-0.0432828152655489	-0.000470589706288374	-0.00226240439194407	-0.00743047407054785	0.376953125	-0.250244140625	0.200439453125	0	0	0	0.401170928024066	-0.338828673035029	0.597898036959954	0.605619479737124	0.0554261354575088	0.45234096975382	0.890121110068973	-0.996053822564321	-0.0368403521845137	0.0807438604844071	0.069316131334995	-0.891083854377968	0.448514033675263	10.2053761998617	-62.8884694629121	83.0142696970759
5710	1653392917654	8.65605230067724	0.841766146530653	4.43087759710541	-0.0522003954726616	-0.0631775393906193	-0.0524736527841938	-0.00257409379316501	-0.00375696522300402	-0.00684440827616717	0.37646484375	-0.261474609375	0.20751953125	0	0	0	0.401138895262201	-0.33884325108743	0.597902115937879	0.605628514567577	0.0553966218990161	0.45236672584801	0.890109858179163	-0.996059555481066	-0.0367987070703438	0.080692112952962	0.0692573188698494	-0.891072500138739	0.448545675800645	10.1982686837633	-62.8870548563009	83.0183463729296
5711	1653392917654	8.60043987822973	0.83693284489303	4.38331668798356	-0.0537637704882068	-0.0463435401652691	-0.123701368529639	-0.00953584650683954	-0.00576512865391001	-0.00139047237796625	0.36572265625	-0.251220703125	0.208251953125	0	0	0	0.401129400780185	-0.338897641032831	0.597865406983289	0.605640609491155	0.0554106880701763	0.452299523611438	0.890143132641294	-0.996066754304709	-0.0366956820751292	0.0806501573831258	0.0691424371603398	-0.891110861710207	0.448487185464224	10.1943788078813	-62.8912383753803	83.0155637711005
5712	1653392917655	8.67443959772461	0.792196849258222	4.41391308541513	-0.00569585227286175	-0.0376191824744768	-0.0477163372333269	-0.0133234348842675	-0.0112729469388655	0.00330404765971054	0.369873046875	-0.25341796875	0.19873046875	0	0	0	0.401017181823254	-0.338973762391901	0.597935104439904	0.605603516478278	0.0551407985766399	0.452354597936373	0.890131905988181	-0.996091809562075	-0.0366823384780468	0.0803462069243652	0.0689970959945512	-0.89108345499712	0.448564016584829	10.155056555028	-62.8898268082583	83.0500873332655
5713	1653392917656	8.68766646775117	0.75919921049439	4.41408889765288	0.0268670806559255	-0.0315226525271547	-0.0385174601753881	-0.0214933270299193	-0.00637007125454959	0.000877835914359824	0.379638671875	-0.247314453125	0.20361328125	0	0	0	0.400968769782121	-0.339070220658233	0.597884527647446	0.605631507372247	0.0551309541251348	0.452282276933165	0.890169264729694	-0.996108553921501	-0.0364837254815958	0.0802289634695574	0.0687628293605513	-0.891128318339808	0.448510862244379	10.141722586706	-62.8945243191504	83.0502157446618
5714	1653392917657	8.71362121994762	0.694412646144453	4.41518671865176	0.0925506958032267	-0.0199799574171868	-0.0201232151992432	-0.0137873193511676	-0.00811717534702745	-0.00290276627488756	0.369140625	-0.251953125	0.195556640625	0	0	0	0.400974584928193	-0.339174925426297	0.597774867393233	0.605677273898181	0.0552511557501366	0.45211625429344	0.890246147080651	-0.99611835405688	-0.0362308196906684	0.0802218948638958	0.068523970253378	-0.891222879143154	0.448359504407459	10.1441998709352	-62.9041939211588	83.0326794254722
