// Start Time : 24/05/2022 11:48:00																																
// Update Rate : 100Hz																																
// Filter Profile : 46.1 human																																
// Firmware Version : 4.4.0																																
PacketCounter	Time_Of_Arrival	Acc_X	Acc_Y	Acc_Z	FreeAcc_X	FreeAcc_Y	FreeAcc_Z	Gyr_X	Gyr_Y	Gyr_Z	Mag_X	Mag_Y	Mag_Z	VelInc_X	VelInc_Y	VelInc_Z	OriInc_q0	OriInc_q1	OriInc_q2	OriInc_q3	Mat[1][1]	Mat[2][1]	Mat[3][1]	Mat[1][2]	Mat[2][2]	Mat[3][2]	Mat[1][3]	Mat[2][3]	Mat[3][3]	Euler_X	Euler_Y	Euler_Z
5490	1653392917528	5.86345346409316	-1.13236206805622	7.81076558897035	-5.20417042793042E-16	6.93889390390723E-16	0.0194227460829701	0.0219957495749694	-0.00421419143450397	-0.00190183261224533	0.654541015625	-0.388916015625	0.228271484375	0	0	0	0.0524451477296309	-0.316295079027961	0.329458942027291	0.888067415785858	0.582828457001908	0.551987218215884	0.596339752687229	-0.618339786798991	0.777412623995751	-0.115262830580459	-0.527225661145352	-0.301562137839502	0.794413858924626	-8.25553110673378	-36.6081990721526	43.4432379710045
5491	1653392917528	5.89119523861314	-1.17736163807944	7.75587794154692	1.38777878078145E-15	4.33680868994202E-16	-0.00218257852111847	0.0191794401677237	-0.00335277197589906	-0.00675026923008047	0.66162109375	-0.391845703125	0.2333984375	0	0	0	0.0509960127641889	-0.319555604670966	0.329474840445907	0.886977988294339	0.578661090073035	0.55188173895528	0.600481381096186	-0.617065985733955	0.777691472390597	-0.120106382099898	-0.533273768420751	-0.301035745350349	0.790567244411056	-8.63856367571373	-36.9043818123809	43.643079332973
5492	1653392917528	5.88072526609845	-1.16841472513198	7.78785858366824	0.00744295385991869	-0.00932361375217336	0.0157774864084477	0.0214428697594469	-0.00555885776952338	-0.00503596953810692	0.6533203125	-0.3857421875	0.231689453125	0	0	0	0.051763142971775	-0.317924081826511	0.329416865691173	0.88754120119725	0.580817613585948	0.551828581936842	0.59844474757984	-0.617655580743866	0.777610211255775	-0.117575264944238	-0.530238138315496	-0.301342953307895	0.792489710448908	-8.4389516978917	-36.7585919117142	43.5338875963567
5493	1653392917529	5.89469139914798	-1.16065334496141	7.73523165521516	0.0395384481050621	0.018536920712022	-0.0184847684399845	0.0200459427854106	-0.00470778110007335	-0.00454530277757025	0.662841796875	-0.385498046875	0.22607421875	0	0	0	0.0518670801030952	-0.317910778053887	0.329427340134767	0.887536010971095	0.58082072953781	0.551779047154141	0.598487396075166	-0.617735462317974	0.777574867146623	-0.117389201278093	-0.530141659119488	-0.301524806779771	0.792485086397503	-8.42583731280978	-36.7616420077302	43.5311657947818
5494	1653392917529	5.88154358896566	-1.16465871619948	7.78780321996734	0.00744104763165353	-0.00940714502541059	0.0157774082562714	0.0201594554485175	-0.00311261502949286	-0.0054244789350398	0.668212890625	-0.385009765625	0.230224609375	0	0	0	0.0519729485777581	-0.317891635800327	0.32943014237521	0.88753563410095	0.580841378365682	0.551718449328397	0.598523220810123	-0.617805511891396	0.777549187821565	-0.117190485939067	-0.530037397411602	-0.301701861427293	0.792487441008652	-8.41175374013008	-36.7642041820459	43.527006477513
5495	1653392917529	5.88722177962091	-1.13678958226717	7.74665189765485	0.0163683658827695	0.0259429508105764	-0.0167011922757041	0.0233789510673111	-0.00591827735784913	-0.00821456721595912	0.657470703125	-0.385498046875	0.22998046875	0	0	0	0.0520995014276965	-0.3178772533022	0.32942930800141	0.887533675312518	0.580860765725522	0.551636716147801	0.598579739248189	-0.617881701796802	0.777523945961395	-0.116956043201319	-0.529927328438011	-0.301916291137612	0.792479387568069	-8.39524995416164	-36.7682465378765	43.5218128831425
5496	1653392917530	5.87411236902138	-1.14053636111718	7.79923145762889	-0.015734189624143	-0.00192180161189062	0.017560808118052	0.0221158584327012	-0.00262514970545152	-0.00277622668431814	0.65771484375	-0.392333984375	0.228515625	0	0	0	0.0522064524560043	-0.31785212898318	0.32945140376703	0.887528187146049	0.580863593313586	0.551606950156546	0.598604425728563	-0.617982678395747	0.777472517755784	-0.116764263956488	-0.529806469539254	-0.302103056378904	0.792489020845637	-8.38157908044556	-36.7700122504601	43.5201298082782
5497	1653392917530	5.88783118890951	-1.13289462412538	7.74675931690188	0.0163615243542033	0.0259388199147318	-0.0167011699073267	0.0197414552377226	-0.00201885175298559	-0.00360932400729298	0.65869140625	-0.38623046875	0.226318359375	0	0	0	0.0523031194131953	-0.31782762490921	0.329466232526947	0.887525766481582	0.58087520493814	0.551572788669678	0.59862463621808	-0.618066293543433	0.777432770648297	-0.116586208050503	-0.52969618940819	-0.302267672636798	0.792499969088439	-8.36886503816197	-36.7714578458812	43.5177860272466
5498	1653392917531	5.8683298878702	-1.18243226836831	7.77004554930679	0.0243228898782314	-0.0319993629230609	-0.00414854805318043	0.0205857856114333	-0.00421797362016648	-0.00723248715272573	0.66357421875	-0.389892578125	0.232421875	0	0	0	0.0524134293914293	-0.317811080486044	0.329465538894315	0.887525440886514	0.580897151602743	0.551502958074442	0.598667676173485	-0.618133232581918	0.777410582201016	-0.116379093739834	-0.529594001134499	-0.302452101855843	0.792497899079445	-8.35422934803015	-36.7745364550468	43.5130828640203
5499	1653392917532	5.89153285157019	-1.17467067676257	7.77655957125471	0.0305957221824037	-0.0169147458255474	0.013994008094965	0.0225412738386934	-0.00372839786678513	-0.00458512720904415	0.662841796875	-0.391357421875	0.221923828125	0	0	0	0.052526886721636	-0.31778928910279	0.329480031810466	0.887521156108997	0.580905752739436	0.551456033514405	0.598702555143027	-0.618225961474611	0.777367669619013	-0.11617300370524	-0.529476313911229	-0.30264789662521	0.792501787805752	-8.33960315535394	-36.7770314069547	43.510224943558
5500	1653392917533	5.88626664502739	-1.13984153284903	7.76740660526104	0.01185216955766	0.00826490683815632	-0.000461825885572864	0.0205882939514828	-0.00422162931815345	-0.00723021317819876	0.65966796875	-0.39013671875	0.223876953125	0	0	0	0.0526353572027243	-0.317773709168665	0.329479897893289	0.887520357973584	0.580925733290833	0.551387968463249	0.598745856465394	-0.618292499230158	0.777345032112738	-0.115970196366868	-0.529376687998472	-0.302830000633385	0.792498777866661	-8.32527982001177	-36.7801289370538	43.5057095659365
5501	1653392917534	5.88671505967662	-1.13791474662121	7.76734928318636	0.0118521691562181	0.00826490671903485	-0.000461825884991995	0.0181012876012671	-0.00521127661957486	-0.00718249026064314	0.6611328125	-0.380859375	0.22607421875	0	0	0	0.0527356803255601	-0.317765122828635	0.329475412261487	0.887519142018597	0.580942558857652	0.55131635054087	0.598795478384915	-0.618346590285283	0.777329801471447	-0.115783738179957	-0.5292950383203	-0.302999441205189	0.792488549468606	-8.31218729138659	-36.7836787606272	43.5011648275114
5502	1653392917535	5.867341850053	-1.18739441869357	7.79060463817174	0.0197645651284672	-0.0496568920927489	0.0120909929747821	0.0225451637220568	-0.00373264950752592	-0.00458218145118106	0.6611328125	-0.39306640625	0.228515625	0	0	0	0.0528481108515465	-0.317745812433407	0.329490101514075	0.887513914744271	0.580947743370557	0.551269567892297	0.598833518591351	-0.618438631564679	0.777286700367334	-0.115581332491321	-0.529181800954138	-0.303195067486102	0.792489351720913	-8.29785068172529	-36.7864001697972	43.4984817926673
5503	1653392917535	5.8848789225525	-1.14698786212239	7.78790618612383	0.00733266891756266	-0.00940770518496501	0.0157774891751714	0.0176815212540231	-0.00411433918627187	-0.00536913953751076	0.6630859375	-0.380859375	0.228515625	0	0	0	0.052941881867749	-0.317733520537441	0.329493278068825	0.887511547405804	0.580959179268687	0.551215357137914	0.59887232535723	-0.618500999176783	0.777262673703522	-0.115409055470418	-0.529096348542282	-0.303355181466502	0.79248513414237	-8.28569783978062	-36.7891765184838	43.4951052059746
5504	1653392917536	5.89878253359268	-1.13940688213783	7.73527169929042	0.0393503723490956	0.0185078472265216	-0.0184839560157837	0.0224358626995319	-0.00533139628561736	-0.0036983895745592	0.65966796875	-0.382080078125	0.234375	0	0	0	0.0530522924529567	-0.317721861794387	0.32951219735424	0.887502103996478	0.580949060665378	0.551173790627554	0.5989203965781	-0.618597283150009	0.777214332120533	-0.115218415307026	-0.528994886734686	-0.303554500002368	0.792476545606789	-8.27228895801185	-36.7926158126778	43.4934460812034
5505	1653392917536	5.88584768386198	-1.14322250473488	7.78772773597637	0.00725402936572576	-0.00935256933917517	0.0157776001515586	0.0203706438599187	-0.0074215110767026	-0.00546125763525344	0.6611328125	-0.385986328125	0.23681640625	0	0	0	0.0531635902322406	-0.317719782337273	0.329518353266953	0.887493902765202	0.580943589543583	0.551108810113591	0.598985496638608	-0.618673307381013	0.777182575067708	-0.115024274591784	-0.52891198181026	-0.303753723312669	0.792455545170349	-8.25875857100817	-36.7972736950643	43.4903425451603
5506	1653392917536	5.87434834995756	-1.15425810774904	7.74918604239674	0.0284899879631328	-0.0142077087632944	-0.0203867723047164	0.0177961030946864	-0.00252313424512373	-0.00624890186379501	0.65673828125	-0.39599609375	0.228759765625	0	0	0	0.0532525577256305	-0.317704867203519	0.329519274374267	0.887493566324133	0.580961330342101	0.55105527841298	0.59901753962662	-0.618729665534856	0.777162425823069	-0.11485714986855	-0.528826562905326	-0.303902359355756	0.792455564901745	-8.24692395738851	-36.799566461617	43.4866899670579
5507	1653392917537	5.88659240284613	-1.13967002942985	7.78768553259329	0.007129672404225	-0.00930825215617057	0.0157777332195579	0.0196404891316766	-0.00362660409779502	-0.00271989699590348	0.6533203125	-0.39208984375	0.226806640625	0	0	0	0.0533500073015729	-0.317687874553895	0.329537437038937	0.887487052678606	0.580958983902474	0.551023116635753	0.599049400263473	-0.618817718344039	0.777117708621462	-0.114685214436766	-0.528726101574797	-0.304074977398586	0.792456382164701	-8.23473977584529	-36.8018462484803	43.4851357926099
5508	1653392917537	5.90037532988172	-1.13216734432576	7.73511989055587	0.0390649152982869	0.0186220606513498	-0.0184830297810929	0.0201752077403376	-0.00313392161574715	-0.00541197499297687	0.650634765625	-0.385009765625	0.229248046875	0	0	0	0.0534474029886978	-0.317673234032971	0.329546214246813	0.887483174019874	0.580966018109254	0.550975821695825	0.599086078713977	-0.618891059128157	0.777085335578714	-0.114508681591157	-0.52863252144898	-0.304243364981273	0.792454182985594	-8.2222601382651	-36.8044708578858	43.4823338709625
5509	1653392917537	5.87270650876339	-1.16174076697327	7.7698601126114	0.0238640205488876	-0.0318124188436553	-0.00414681279333351	0.0200648354955217	-0.00473068216691932	-0.00452839312208965	0.658447265625	-0.37744140625	0.227783203125	0	0	0	0.0535514251884448	-0.317659953560216	0.329556725215933	0.887477753878573	0.580969037538143	0.55092623806354	0.599128748797084	-0.618970811017319	0.777049219450472	-0.114322550968625	-0.528535819534084	-0.304425345141575	0.792448797528816	-8.20913241471376	-36.8075243253054	43.479610605592
5510	1653392917538	5.89851389655625	-1.14122591234135	7.75571670984607	0.0343670450520191	0.00103000251127499	-0.00224282813859489	0.022555036297336	-0.00374496433390865	-0.00457456124642774	0.65234375	-0.391357421875	0.22900390625	0	0	0	0.0536572756802138	-0.317647347808241	0.329573181371083	0.887469761354104	0.580963361102667	0.550884282619344	0.599172830007555	-0.619060647861086	0.777004829775042	-0.114137674656836	-0.528436833809022	-0.304614513228159	0.792442118393935	-8.19610569018317	-36.8106789007584	43.4777114507948
5511	1653392917538	5.89360018335532	-1.16481746206917	7.79702785842815	0.0254374063300956	-0.0343193030832612	0.0302360361808489	0.0226678130204153	-0.00215164739431843	-0.00545633715880064	0.662841796875	-0.38330078125	0.22705078125	0	0	0	0.0537700735731553	-0.317618075790013	0.32958438963687	0.887469248609257	0.580985776078284	0.55083532664196	0.599196103890837	-0.619148715855532	0.776965818591259	-0.113925345710511	-0.528308996373486	-0.304802492877042	0.792455074238774	-8.18093321495481	-36.8123444977634	43.4740653396894
5512	1653392917538	5.87364424452841	-1.15578256906766	7.77003986289252	0.0233206490173403	-0.0316024158731606	-0.00414482696752572	0.0201799083205205	-0.00314038989103257	-0.00540795243246114	0.655029296875	-0.388427734375	0.234130859375	0	0	0	0.0538624201973254	-0.317609186983011	0.329594547440736	0.887463057446232	0.580983677282654	0.550791570603106	0.599238360323911	-0.619220368554346	0.776932547975646	-0.113762696273827	-0.52822732028791	-0.304966328712916	0.792446488068955	-8.16949851280263	-36.8153686748382	43.4718961567031
5513	1653392917539	5.8911602175383	-1.115376837496	7.76724821582979	0.0108883362321954	0.00864693341977359	-0.000461038231220456	0.0200697448454529	-0.00473676777094441	-0.0045236915374522	0.661376953125	-0.38671875	0.228515625	0	0	0	0.0539664635987139	-0.31759591415514	0.329605069621343	0.887457578816317	0.580986666783742	0.550741977422773	0.599281042019495	-0.619300090784188	0.776896237773118	-0.113576552547931	-0.528130562052808	-0.305148341038305	0.792440912237219	-8.1563678278318	-36.8184234080787	43.4691730650748
5514	1653392917539	5.87446594511121	-1.152200112559	7.76995072238914	0.0229793881789862	-0.0314457783506999	-0.00414351810331048	0.017581418429824	-0.00572501120239101	-0.00447541448278937	0.6630859375	-0.393798828125	0.2294921875	0	0	0	0.0540482197300706	-0.317603924353809	0.329615113560056	0.887446006296643	0.580963248295703	0.550699378906557	0.59934288867195	-0.619363085668987	0.776865333713603	-0.113444353692211	-0.528082448335766	-0.305303860679789	0.79241307435814	-8.14728400920434	-36.8228499955486	43.4681134186073
5515	1653392917540	5.88581963630958	-1.15746713408087	7.73787950734109	0.0506140203780595	-0.021261098130433	-0.0221629629001345	0.0220059438630284	-0.00510344435136212	-0.00770164399221896	0.653564453125	-0.399169921875	0.23095703125	0	0	0	0.0541665045183329	-0.317588211640829	0.32961450884544	0.887444642315015	0.580984006770719	0.550623973206737	0.599392045331491	-0.619434546409985	0.776840530693691	-0.113223816334734	-0.527975782200753	-0.30550291324564	0.792407435230091	-8.13171470373584	-36.8263684972055	43.4631739657767
5516	1653392917540	5.88360540755293	-1.16825044798725	7.75852081720956	0.0456826777803423	-0.0386835571400839	-0.00592013994196705	0.0211623036580169	-0.00289854589071091	-0.00408189324206345	0.656494140625	-0.383544921875	0.22412109375	0	0	0	0.0542526196069947	-0.317581899827846	0.329635193686291	0.887433957684128	0.580964751970274	0.550599629039146	0.599433070050421	-0.619518229060853	0.77679458469836	-0.113081108256891	-0.52789877896186	-0.305663575987159	0.792396780335029	-8.1217100080316	-36.8293050602606	43.4628572702671
5517	1653392917541	5.89585778452738	-1.15340792243382	7.79701720866572	0.0243162168327912	-0.0337806018363805	0.0302407333992303	0.0201854483203419	-0.00314787300644343	-0.00540366369265048	0.656982421875	-0.3857421875	0.227783203125	0	0	0	0.0543559129273867	-0.317561137413031	0.329642466432697	0.887432365343377	0.58098153665822	0.550548136339297	0.599464097036328	-0.619593438476675	0.776762558107997	-0.11288888040091	-0.527792028225989	-0.305837665919107	0.792400717469544	-8.10804780781126	-36.8315260571135	43.4593553645556
5518	1653392917542	5.85053533306467	-1.1630888152628	7.78414668170864	0.01128019290605	-0.0636755631376373	-0.00604182375208317	0.0192084891815451	-0.00339724357272044	-0.00672547050156841	0.6611328125	-0.38623046875	0.22900390625	0	0	0	0.0544362439641456	-0.317560636725488	0.329647135303383	0.887425886219155	0.580976016377553	0.550501185784024	0.599512562707783	-0.619648418960816	0.776738923058699	-0.112749644278702	-0.527733555189957	-0.305982172447998	0.792383874691158	-8.09834999934973	-36.8349954919994	43.4571875246606
5519	1653392917542	5.87636501361802	-1.14258423233758	7.76993468862107	0.0220154282142287	-0.0309158579234834	-0.00413962252550526	0.0214776235255445	-0.00560108814573738	-0.00500357257262219	0.6591796875	-0.382568359375	0.22412109375	0	0	0	0.0545487108156383	-0.317548767434433	0.329657500284865	0.887419377157812	0.580977425613613	0.550445155387106	0.599562642130281	-0.619732658925679	0.776700741308572	-0.1125494998284	-0.5276330755253	-0.306179831735501	0.792374436898448	-8.0842596489429	-36.8385806132313	43.4542064213282
5520	1653392917543	5.89692614325688	-1.1476891650058	7.79705314956896	0.0232752367891506	-0.0330985985150913	0.0302455669998558	0.017920584254995	-0.000949916092084455	-0.0071222176053922	0.6640625	-0.38916015625	0.228515625	0	0	0	0.0546135662765226	-0.317539220937163	0.329661170621265	0.88741744074015	0.580984711502474	0.550410246112156	0.599587629938397	-0.619778043264344	0.776681741926354	-0.112430640155011	-0.527571741176315	-0.306290765014228	0.79237240309036	-8.07585527977148	-36.8403695210162	43.4520334203678
5521	1653392917544	5.87704479334383	-1.13864180931186	7.76999929339029	0.0214750550160271	-0.03051507257468	-0.00413716947619314	0.0234149275372924	-0.00597060439037437	-0.00817994689616929	0.65576171875	-0.387939453125	0.229248046875	0	0	0	0.0547403264654971	-0.317524960569645	0.329660328215922	0.887415046116679	0.581003934831632	0.550328230728091	0.599644283032741	-0.619853910738197	0.776655129318042	-0.112195986766631	-0.527461427075691	-0.306505544105916	0.792362792147393	-8.05931834472799	-36.8444255404188	43.4468241136314
5522	1653392917544	5.8748786112119	-1.14949253012961	7.7906093857759	0.0163977971766815	-0.0476426233224617	0.0121071631816214	0.0172782258582642	-0.00303614635875893	-0.00354295947199606	0.657958984375	-0.380615234375	0.22900390625	0	0	0	0.0547928799100592	-0.31752731689988	0.329681979790998	0.887402916117934	0.580972390446902	0.550325028230014	0.599677784182512	-0.619917972802248	0.776615065024499	-0.11211934611718	-0.527420883673717	-0.306612791775925	0.79234828666705	-8.05403082024598	-36.8468241216454	43.4482107842847
5523	1653392917545	5.90643714183497	-1.16194262958681	7.78563249188171	0.0458321932610509	-0.0400458048385234	0.028475124597291	0.020393814862321	-0.00744944306552772	-0.0054365867784082	0.64990234375	-0.38427734375	0.230712890625	0	0	0	0.0549043121710815	-0.3175253401247	0.329688107537816	0.887394459432696	0.580966820253654	0.550259779146947	0.59974305266298	-0.619993820732688	0.776582536506308	-0.111925092122865	-0.527337857561583	-0.306812221801189	0.792326349767428	-8.04047901665269	-36.8514973640052	43.4450932138766
5524	1653392917545	5.87846732499248	-1.13312320116342	7.76972993358416	0.0203599566208797	-0.029361469771589	-0.00413127034409477	0.01910431607022	-0.00500042184899692	-0.00583518275522164	0.661376953125	-0.388916015625	0.22998046875	0	0	0	0.0549697695207495	-0.317527085758134	0.329700477606184	0.887385186553752	0.580948289752402	0.55023385821341	0.599784782992487	-0.62005142109629	0.77655183901018	-0.111818945292739	-0.527290545932915	-0.306936382016687	0.792309748497566	-8.03311933354239	-36.8544854175703	43.4446580827142
5525	1653392917546	5.88460340609195	-1.16404645960355	7.77899623981198	0.03905970705721	-0.0545242427426476	0.0103389059562886	0.0200838343191514	-0.00475303415742454	-0.00451165067512856	0.661376953125	-0.389404296875	0.22314453125	0	0	0	0.0550739587937547	-0.317513813568983	0.329710929318337	0.887379592025704	0.580951362561841	0.55018401451995	0.599827528964995	-0.620130985259734	0.776515124301646	-0.111632534915192	-0.527193584424481	-0.307118563257762	0.792303674511331	-8.01996259605967	-36.8575463162282	43.441915383959
5526	1653392917546	5.88498760940205	-1.16212034490232	7.77899357921477	0.0382268741001886	-0.0537879927245136	0.0103462413557569	0.0225754963752932	-0.00376876269554787	-0.00455862602934725	0.656982421875	-0.385498046875	0.2333984375	0	0	0	0.0551407087037446	-0.317517374260261	0.329740852230017	0.887363054029826	0.580907374826982	0.550183433261525	0.599870662423313	-0.620215965431376	0.776460945228542	-0.111537243819384	-0.527142085301154	-0.307256554526279	0.792284438573036	-8.01339762926935	-36.860635085735	43.4440511661774
5527	1653392917547	5.88791033325973	-1.14750688802863	7.75835077621797	0.0426971864138776	-0.0361207069663807	-0.00589691266977255	0.0186845938817491	-0.00389908877877838	-0.0040244518592105	0.666015625	-0.390625	0.23291015625	0	0	0	0.0552364720058735	-0.317502861404897	0.329751468526394	0.887358345971194	0.580911804008779	0.550139959554753	0.599906243395049	-0.620290911217859	0.776425802330062	-0.111364980746362	-0.527049012354434	-0.307423158492026	0.792281730320094	-8.0012087750174	-36.863183118702	43.4415726519631
5528	1653392917547	5.88566165085883	-1.15837346668588	7.77904247498835	0.0374338506498565	-0.0528600660718498	0.0103543326565827	0.0207311892384489	-0.00267664940842445	-0.00808738413144147	0.661865234375	-0.39208984375	0.234619140625	0	0	0	0.0552911486968346	-0.31749822106195	0.329767021395012	0.887350821320713	0.580897182445518	0.550128391855264	0.599931009284901	-0.620347757262131	0.776393200952093	-0.111275592899825	-0.526998219623846	-0.307526177731432	0.792275536996563	-7.99493131148541	-36.8649567096187	43.4416911728544
5529	1653392917547	5.87774516770952	-1.13642231702766	7.79036472331228	0.0142658156563219	-0.0453714663431464	0.0121212410158211	0.0200886295855616	-0.00475873188382994	-0.00450726646249247	0.653564453125	-0.38232421875	0.232421875	0	0	0	0.0553953534694024	-0.317484934194324	0.329777503194229	0.887345180727661	0.580900229893212	0.550078576041791	0.599973735333347	-0.620427336645409	0.776356306401961	-0.111089177929217	-0.526901169910541	-0.307708377672336	0.792269342747252	-7.98177211569993	-36.8680166008151	43.4389506781489
5530	1653392917548	5.88641138112328	-1.15458880448481	7.77903783544162	0.0367148502624523	-0.0518091804857515	0.0103626451672696	0.0220471757156213	-0.00426146195895407	-0.00186123976723287	0.64697265625	-0.383544921875	0.228515625	0	0	0	0.0554437826360062	-0.317481605023605	0.329822915656738	0.887326468525726	0.580844549558649	0.550116443777385	0.599992922903041	-0.620525968176821	0.7762856625494	-0.111031945576302	-0.526846402726858	-0.307818888968763	0.792262834877294	-7.97777760703275	-36.8693907877918	43.4436618496384
5531	1653392917548	5.88683373309417	-1.15276073949517	7.77898934242627	0.0367196634812387	-0.0518090690524121	0.0103626277638273	0.0181334001497787	-0.00526102867322951	-0.00715018544782224	0.6484375	-0.38525390625	0.23095703125	0	0	0	0.0555443367157115	-0.31747283899828	0.329818509081705	0.887324954131408	0.580861495130987	0.5500447503504	0.60004224525125	-0.620580023420053	0.776269155451866	-0.110845084807642	-0.526764043957217	-0.307988588921754	0.792251646314368	-7.96463490450987	-36.8729232990134	43.4390990953265
5532	1653392917549	5.8871804082482	-1.15097019172169	7.77899211534471	0.0361467241211994	-0.0507696144918326	0.0103701800945668	0.0197788331924499	-0.00206256211279296	-0.00358390023209787	0.661865234375	-0.395263671875	0.2333984375	0	0	0	0.0555822079714191	-0.317457016154714	0.329845618088378	0.88731816688213	0.580845822244083	0.550066094604772	0.600037850762642	-0.620645942180361	0.776224972769835	-0.110785405643166	-0.526703659790444	-0.30806181719701	0.792263322102336	-7.96028590704386	-36.8726085551327	43.4409809414674
5533	1653392917549	5.91025876190441	-1.14332627249117	7.78548842720685	0.0424135251333219	-0.0356693992530087	0.0285072875777015	0.0202032571278753	-0.0031714406430835	-0.00538970019895706	0.654052734375	-0.38818359375	0.228271484375	0	0	0	0.055685611152232	-0.317435902165349	0.329853074839428	0.887316465386532	0.580862794070891	0.550014904499325	0.600068345518037	-0.620721353354276	0.776192123459154	-0.110592897466361	-0.526596065266531	-0.308235936108311	0.792267121454147	-7.94659281461121	-36.8747926898425	43.4374829378281
5534	1653392917550	5.87325882762468	-1.1731216842799	7.76136083843761	0.0519429103186171	-0.0720494797063418	-0.00951357372539263	0.0200943665175341	-0.00476599634055132	-0.00450203458816482	0.65869140625	-0.38720703125	0.224853515625	0	0	0	0.0557141263884132	-0.317451038881688	0.329894688685336	0.887293789232698	0.580788664580285	0.550054002137931	0.60010425913094	-0.620800031347481	0.776130860995963	-0.110581226655492	-0.526585081609816	-0.308320419923351	0.792241548067427	-7.94601813761916	-36.8773650210478	43.4431671235061
5535	1653392917551	5.85711546773726	-1.13118970370887	7.78389922464903	0.00560786800249055	-0.0570599092325401	-0.00599621505825354	0.0206289694769808	-0.00428250157921832	-0.00719429667087901	0.654052734375	-0.385986328125	0.225830078125	0	0	0	0.0558239502994435	-0.317433646486132	0.329894721512202	0.887293096654014	0.580810705593808	0.549985817831125	0.600145419421203	-0.620867418250377	0.776106318582704	-0.110374957354985	-0.52648131327022	-0.308503780269597	0.792239133302965	-7.93140894159194	-36.8803132548012	43.4385354283257
5536	1653392917551	5.87408560694505	-1.16954136526067	7.76127547149298	0.0508936806194481	-0.0710108070990944	-0.00950049164397626	0.0166483673806364	-0.00512992705050997	4.79301761442305E-05	0.6611328125	-0.386962890625	0.225341796875	0	0	0	0.0558408928369151	-0.317459695391133	0.329937249853573	0.887266897640392	0.580721505922461	0.550030334526413	0.600190939335069	-0.620939265847917	0.776046411692475	-0.110392006175648	-0.526494976887149	-0.308575109171165	0.792202272978691	-7.93298285166711	-36.8835738926991	43.4452442235274
5537	1653392917552	5.86354006354664	-1.16063269911998	7.79325317147492	0.0232440199526779	-0.081172937898317	0.00850582840900138	0.0203173147488283	-0.00158460463332443	-0.00627365277505182	0.658203125	-0.384521484375	0.227294921875	0	0	0	0.0559433432892506	-0.317431361674289	0.329941605022597	0.887268961613298	0.580751735801439	0.549977547289011	0.600210062262855	-0.621010233836687	0.776017759233468	-0.110194041691788	-0.526377916362113	-0.308741210129506	0.792215345934455	-7.91880835941424	-36.8849437290715	43.4410097234981
5538	1653392917553	5.8892667794042	-1.13995756705887	7.77903449151051	0.032860400653531	-0.0472701853051927	0.0103991864516271	0.0253959499859691	-0.00550396665569123	-0.00551361428602535	0.664794921875	-0.38623046875	0.235107421875	0	0	0	0.0560031500565392	-0.317443992175161	0.329976352879489	0.887247747563212	0.580689836744496	0.549985824626235	0.600262364480609	-0.621097278739564	0.775958507448192	-0.110120684074711	-0.526343503658931	-0.308875359051147	0.792185918031283	-7.91389376298048	-36.8886904294561	43.4444893129601
5539	1653392917553	5.88346562945353	-1.18382280623143	7.75003891274074	0.0729412517465529	-0.0773513293081528	-0.0112383113042505	0.0167391000438636	-0.0044156936100617	-0.00665807305385172	0.652099609375	-0.377685546875	0.23583984375	0	0	0	0.0560950243277755	-0.317434258380399	0.329972383393017	0.887246902530566	0.580707435608836	0.549920985279529	0.600304742758044	-0.621146915064801	0.775943148887197	-0.109948804452359	-0.526265507262343	-0.309029350781141	0.792177679704304	-7.9017788056795	-36.8917263573505	43.4402497959984
5540	1653392917553	5.8673524804808	-1.14187210404503	7.77251563871095	0.0260001066827284	-0.0609133890614216	-0.00772384693328298	0.0220376753931604	-0.00514983747974188	-0.00767252417364451	0.656005859375	-0.38037109375	0.22705078125	0	0	0	0.0561362994253429	-0.317421070870008	0.329992933626917	0.887241367053446	0.580697055048078	0.549929074541701	0.600307373961205	-0.621204451654788	0.77590675928626	-0.109880526655857	-0.526209045439894	-0.309106314829708	0.792185159309131	-7.8968601369419	-36.8919148575036	43.4411819230781
5541	1653392917553	5.87607384030826	-1.15996038330951	7.76120827558964	0.0491756418175998	-0.0684029206017819	-0.00947317922924995	0.0177203669110232	-0.00416767357765773	-0.00533400499331073	0.6640625	-0.382080078125	0.231689453125	0	0	0	0.0562302656165858	-0.317408539303178	0.329996322108928	0.887238639713517	0.580708493144007	0.549875042928798	0.600345802978974	-0.621266908824758	0.775881169246537	-0.109707972399253	-0.526122679600249	-0.30926662990481	0.792179952812223	-7.88466631853906	-36.894667976465	43.4378078081518
5542	1653392917554	5.89671250410305	-1.16512161871683	7.78827937949138	0.050044490729205	-0.0697894809551581	0.0249265339418585	0.0187005945260781	-0.00391805391199387	-0.00401093884505875	0.6552734375	-0.38623046875	0.226806640625	0	0	0	0.0562558902575426	-0.317415572693175	0.330020507533105	0.887225503257648	0.580667637638911	0.549892230515883	0.600369577358076	-0.621318213009732	0.775843478837847	-0.109683975708315	-0.526107187539992	-0.309330617888136	0.79216525804639	-7.88310776197996	-36.8963712623806	43.4407145109902
5543	1653392917554	5.87675128457705	-1.1563873813129	7.76122853977748	0.0482830964051701	-0.067246661224828	-0.00946074288482634	0.0217270196889674	-0.00245280270561098	-0.00675219547386403	0.657470703125	-0.396484375	0.234375	0	0	0	0.0563672735105502	-0.317388464304599	0.330024113391112	0.887226790501597	0.580697294613557	0.549831825071162	0.600396215983588	-0.621393114577365	0.775813630114794	-0.109470582733202	-0.525985978125214	-0.309512803397566	0.79217458640671	-7.86787174911965	-36.8982797988389	43.4361111035086
5544	1653392917555	5.86875309431859	-1.13438293554509	7.77255484088432	0.0236852358483102	-0.0578045259462401	-0.00769916085019773	0.0202155701089304	-0.00318753982275394	-0.00538000559765059	0.657470703125	-0.3837890625	0.233642578125	0	0	0	0.0563622496457035	-0.31739887265275	0.330078884207476	0.887203010958589	0.580611771678223	0.549915330850009	0.600402447933717	-0.621472588840886	0.775742454030447	-0.109523816287725	-0.525986494035809	-0.309542846647996	0.792162504907278	-7.8717683489849	-36.8987262966335	43.4446684435512
5545	1653392917555	5.9003045000906	-1.14665636381013	7.76764697133204	0.0531077729280092	-0.0501810345064403	0.00868802952334668	0.0223808806370946	-0.00698143127295808	-0.00276247406675599	0.66259765625	-0.38818359375	0.234375	0	0	0	0.0564773447585788	-0.317391901710231	0.330100386558034	0.887190185389818	0.580592231046	0.549872742582406	0.60046034691221	-0.621574550008284	0.775688088646514	-0.109330086956497	-0.525887573565897	-0.30975467082325	0.792145380515567	-7.8581863535549	-36.9028746842145	43.4434157358971
5546	1653392917555	5.89574567510356	-1.17014944574548	7.80893186207049	0.0431150254409023	-0.0837085023298414	0.0412264440868917	0.0181494746256471	-0.00528554166352226	-0.00713407581596234	0.65576171875	-0.380615234375	0.228515625	0	0	0	0.056483042782681	-0.317399077600459	0.330133388927655	0.887174975374942	0.580539542107039	0.549916831026096	0.600470914370018	-0.621627493743257	0.775643222786304	-0.109347382081849	-0.52588316104685	-0.309788750441156	0.792134982832775	-7.85951579497149	-36.9036318533568	43.4483053328229
5547	1653392917556	5.87587145792796	-1.16146641901461	7.78180603863863	0.041363888629658	-0.0811697927340809	0.00683783249796299	0.0202188854521037	-0.00319210223159279	-0.00537763584177439	0.65673828125	-0.38037109375	0.22802734375	0	0	0	0.0565865108096076	-0.317377856191587	0.330140950962352	0.887173159924995	0.580556497793813	0.549865770391594	0.600501280116072	-0.621702992352056	0.775609838584136	-0.109154787306787	-0.52577518215477	-0.309962921723145	0.792138526387253	-7.84581063333876	-36.9058076318858	43.4448136476708
5548	1653392917556	5.87874405691747	-1.14683748969376	7.76113638267793	0.0450229216298902	-0.0623637023909636	-0.00941294873763354	0.022603413558723	-0.00380176081480289	-0.00453672399294338	0.661865234375	-0.38916015625	0.2314453125	0	0	0	0.0566274551182036	-0.317375210089939	0.330158098849395	0.887165112654548	0.580537211569041	0.549865192989073	0.600520453875413	-0.621753794849067	0.775577922181978	-0.10909218677188	-0.525736402177391	-0.310043797169006	0.792132614694407	-7.84142482474401	-36.9071815096854	43.4457339137443
5549	1653392917556	5.87914638868246	-1.14491380043208	7.76111563761728	0.0450314347124918	-0.0623636746774778	-0.00941298766256082	0.0191324732583428	-0.00503876847433069	-0.00580861557650672	0.66259765625	-0.39208984375	0.231201171875	0	0	0	0.0567299959397401	-0.317363946215155	0.330161227908628	0.887161426567504	0.580547378457222	0.549804501136984	0.600566192768091	-0.621820722657806	0.775550542293088	-0.10890521209851	-0.525646012293227	-0.310219868606784	0.792123666406843	-7.82823939538612	-36.9104589871901	43.4420754039293
5550	1653392917557	5.86879306526368	-1.13565116927296	7.79297951585236	0.0156830613760811	-0.0704801442057705	0.00860336806726813	0.0215172545553784	-0.005648364058446	-0.00496752579948351	0.660888671875	-0.38916015625	0.234130859375	0	0	0	0.0567301693928326	-0.317392955781033	0.330232401769977	0.887124546116537	0.580416544883623	0.549903026775229	0.600602443858496	-0.621926051357429	0.775456497403786	-0.108973424637423	-0.525665883492845	-0.310280327732347	0.792086799002479	-7.83344180891205	-36.9130567044031	43.4536485596473
5551	1653392917558	5.90295787064186	-1.13518685538806	7.76731566749327	0.049591333921991	-0.0452048873073749	0.00873057894688145	0.0205387984537172	-0.00590196392147448	-0.00628848951245281	0.661376953125	-0.38232421875	0.232177734375	0	0	0	0.0568409237741605	-0.317383174852573	0.330235614182435	0.887119760139831	0.580424718892103	0.54983637198831	0.600655566641778	-0.621997783384295	0.7754270970201	-0.108773042027901	-0.525571977148751	-0.31047186868654	0.792074059410003	-7.81934006275795	-36.9168635902339	43.4497780982396
5552	1653392917558	5.87802516103358	-1.15198672410468	7.7815886255562	0.0377572898001692	-0.0761636124317547	0.00689246827398548	0.019158230603948	-0.00415841198525342	1.35624638570446E-05	0.652587890625	-0.387451171875	0.222900390625	0	0	0	0.0568358511923312	-0.317388747862712	0.330305823838505	0.887091952104036	0.580324890937013	0.549945156833171	0.600652433138069	-0.622101395407753	0.77533549751522	-0.10883345131233	-0.525559582531487	-0.310507956047128	0.792068137498766	-7.82368669438033	-36.9166390317622	43.4603577143223
5553	1653392917560	5.8808240648404	-1.13771543526989	7.76090314846132	0.0422573247542616	-0.0585195704322633	-0.00937693669193962	0.0198012581123049	-0.00208919469549636	-0.00356888423749893	0.657470703125	-0.3876953125	0.23046875	0	0	0	0.0569327880414639	-0.317363873025154	0.33032098826892	0.887088989027225	0.580336433615036	0.549911402845982	0.600672184172819	-0.622185043305818	0.775293404709739	-0.108654997584635	-0.525447804929774	-0.310672795129449	0.792077659488599	-7.81092397373191	-36.918054475055	43.4580329036096
5554	1653392917560	5.85339458025682	-1.1671587637283	7.79588947697837	0.0255403338180669	-0.107308590760866	0.00506251739339802	0.0179402346498913	-0.00848173488397475	-0.00534568423228709	0.661865234375	-0.390625	0.229248046875	0	0	0	0.0569358545966376	-0.317411094051142	0.330352511503279	0.887060158037821	0.580234831033466	0.549940958328068	0.600743275625097	-0.62222924592109	0.775251053209653	-0.108704047844573	-0.525507665382758	-0.31072616055062	0.792017011669215	-7.81499749954694	-36.9231494088677	43.4645790924209
5555	1653392917559	5.88761540759169	-1.16690728552958	7.77015370978734	0.0594407095678401	-0.0820277240208321	0.00518992576528632	0.0201188568610458	-0.00479585047782421	-0.00448102444766295	0.657958984375	-0.38916015625	0.235107421875	0	0	0	0.057039758710066	-0.31739783830979	0.330363660793273	0.887054073768808	0.580236927727079	0.549892270039125	0.600785817952669	-0.622309454488272	0.775212635107129	-0.108518722922679	-0.52541036395978	-0.310908124244895	0.79201015632514	-7.80190496019648	-36.9261984662719	43.4619429550335
5556	1653392917560	5.86774447025321	-1.15822154603704	7.74301941356812	0.0562132437255214	-0.0772890364213304	-0.0291747984932815	0.0206531200509366	-0.00431927768202012	-0.00717354413061914	0.657958984375	-0.385009765625	0.2197265625	0	0	0	0.0570317420901353	-0.317409288761206	0.330427002375524	0.887026899199452	0.580138679018462	0.549990469270577	0.600790809532107	-0.622400088045147	0.77513075299058	-0.108583820938714	-0.525411499215718	-0.310938578307336	0.791997447604539	-7.80665118479424	-36.9265562264877	43.4718953619732
5557	1653392917560	5.86821843242409	-1.1562317465338	7.74295760832042	0.0562074971870594	-0.0772730875945261	-0.0291746394954391	0.0205457872550305	-0.00591204453735649	-0.00628200372112167	0.65673828125	-0.384765625	0.23779296875	0	0	0	0.0571419796364299	-0.317399733332358	0.330430881691741	0.887021778688774	0.580145683409933	0.549925078626444	0.600843901457377	-0.622472475021187	0.775100453175298	-0.108384986637662	-0.525318002605868	-0.311129708297277	0.791984406887555	-7.79265848568093	-36.9303615745775	43.4681485604721
5558	1653392917561	5.89157179371727	-1.14838599812881	7.74921279162234	0.0612125117607652	-0.060576160465467	-0.0110400155115542	0.0205470656543135	-0.00591367831221005	-0.00628091981390142	0.65283203125	-0.390625	0.234130859375	0	0	0	0.0571591820172173	-0.317419941906798	0.330457249828119	0.887003615791415	0.580085173031842	0.549946622453366	0.600882604574931	-0.622520479394747	0.775061667894318	-0.108386639836341	-0.525327940207593	-0.311188244336146	0.791954816782015	-7.79306347357482	-36.9331357288384	43.4722531761567
5559	1653392917561	5.88117706961199	-1.13914160465117	7.78109808939094	0.0335303730845974	-0.0706988293189678	0.00694867715792391	0.0196991610987778	-0.0036874128279767	-0.00267438564108621	0.657958984375	-0.37841796875	0.2294921875	0	0	0	0.0572561750990115	-0.31740316132465	0.330476432213135	0.886996218337951	0.580081121865591	0.54991610928217	0.600914440504735	-0.622609273209306	0.775014116329417	-0.108216507076844	-0.525227174629167	-0.311360550234119	0.791953927188299	-7.78098942416519	-36.9354177338889	43.4708656833642
5560	1653392917562	5.86944782196166	-1.1505714095369	7.74286895567401	0.0541210518642646	-0.0738467705642399	-0.0291364130634513	0.0227269091752881	-0.00222950961055062	-0.00541680120122774	0.65673828125	-0.3828125	0.224853515625	0	0	0	0.0572680167153706	-0.317381502453752	0.330512064445159	0.886989927461347	0.580061514312796	0.549970125759282	0.600883932540609	-0.622673362509965	0.774964299035374	-0.108204523200948	-0.5251728508155	-0.311389139169836	0.791978712323374	-7.77989781319948	-36.9332309162863	43.4746425162647
5561	1653392917562	5.89018526077614	-1.15520799815039	7.76995422520936	0.0558428937618262	-0.0763170103937074	0.00525710047382333	0.0209755681663353	-0.00703343075423601	-0.0080794977916748	0.6533203125	-0.38330078125	0.2353515625	0	0	0	0.0573846981179985	-0.31737568690838	0.330508534444074	0.886985782547257	0.580073564038129	0.549887726158388	0.600947708976795	-0.622737758091307	0.774942210163073	-0.107991923563677	-0.525083179078814	-0.311589569029401	0.79195933956268	-7.76498619215828	-36.9378024968331	43.4697618546565
5562	1653392917563	5.87979183704494	-1.14584089421028	7.80185442938809	0.0272549758138531	-0.0848662591443461	0.023261527888863	0.0198110058703434	-0.00210038627379409	-0.00356287159353397	0.65771484375	-0.384033203125	0.228271484375	0	0	0	0.0573885384116603	-0.31736678363122	0.330534395367272	0.886979083059877	0.580050676253533	0.549927758139218	0.600933169167582	-0.622780621551239	0.774907138276331	-0.10799640951736	-0.525057625787944	-0.311606142231444	0.791969760613097	-7.76520387983466	-36.9367602396601	43.4729731493946
5563	1653392917563	5.8909189959799	-1.15139220284925	7.76996434459604	0.0549225724057287	-0.0747142686181166	0.00527461960213138	0.0206616455440629	-0.0043316256092661	-0.0071661811373105	0.66064453125	-0.390869140625	0.231201171875	0	0	0	0.0574978750446334	-0.317349741601662	0.33053524050914	0.88697778475691	0.580071192573846	0.549860959245661	0.600974489511325	-0.622848702397898	0.774880898293834	-0.107791870661001	-0.524954193684755	-0.311789222002275	0.79196627174142	-7.75070969619189	-36.9397222432522	43.4684862682885
5564	1653392917564	5.88049086626237	-1.14208216489398	7.80187871147461	0.0256135067574222	-0.0829257117339776	0.0232824912863858	0.0187245299793332	-0.0039467957401507	-0.00399140354388373	0.653076171875	-0.39111328125	0.225830078125	0	0	0	0.0574850633616883	-0.317375979938799	0.330597531238811	0.886946011427411	0.579955519393382	0.549955566807505	0.600999559120129	-0.622933080072544	0.774801479658213	-0.107875135553927	-0.524981878998206	-0.311819726215133	0.79193590969638	-7.75691771247525	-36.9415193868251	43.479113126813
5565	1653392917564	5.89169359025946	-1.14777461383233	7.76991226134374	0.0532761115959682	-0.0727727116576384	0.00529827515851267	0.0201309740487883	-0.00480993126215519	-0.00447058197186925	0.658203125	-0.388427734375	0.2265625	0	0	0	0.0575883128535088	-0.317362978434972	0.330609551473933	0.886939485317783	0.579956128786176	0.549908533870398	0.601042006069344	-0.623014127831336	0.774761821393782	-0.107691766784414	-0.524885020938788	-0.312001161034856	0.79192865228314	-7.74396254341797	-36.9445623415624	43.4766364141747
5566	1653392917565	5.89213607144194	-1.14594619915535	7.76984660738459	0.0511521725524705	-0.0707629762089339	0.00532426151729659	0.0191515127369116	-0.00506507044509547	-0.00579136677077271	0.659423828125	-0.387939453125	0.228515625	0	0	0	0.0575693365166308	-0.317414016227151	0.330667942845695	0.886900685178324	0.579814107753492	0.549992621522155	0.60110208510802	-0.623085878783259	0.774688966134463	-0.107800711548721	-0.524956748800237	-0.312033847556167	0.791868227591169	-7.75228571947947	-36.9488695207047	43.4880169210016
5567	1653392917565	5.84951466976579	-1.14310398337074	7.73630919931539	0.0431837174714606	-0.0834059693512904	-0.0471783243506802	0.0234775963288331	-0.00606263559070742	-0.00812179322343908	0.653076171875	-0.388427734375	0.23193359375	0	0	0	0.0576946350068048	-0.317400669554331	0.330669290846221	0.886896817081418	0.579829270115439	0.549914451554462	0.601158975221158	-0.623163714677872	0.774658298365377	-0.107570932330874	-0.524847599047831	-0.312247684931712	0.791856288115788	-7.73607710815712	-36.9529483042895	43.4832025232487
5568	1653392917565	5.86771851677566	-1.16052224395755	7.78415374125392	0.0388933911359536	-0.101296518170836	0.00353431883669764	0.0149366759833044	-0.00248135109541941	-0.00435040822247232	0.65625	-0.3818359375	0.226318359375	0	0	0	0.057652239948842	-0.317415587220798	0.330728264462334	0.88687224519876	0.579732320150016	0.550027997712887	0.601148599520477	-0.623226876104712	0.774590068629227	-0.10769626958132	-0.524879698477891	-0.312216955517989	0.791847128436314	-7.74507003234508	-36.9522043935861	43.493892675647
5569	1653392917565	5.88959574933702	-1.17366164647435	7.72037640314857	0.0942199046838517	-0.0810073808536572	-0.0324219484726917	0.0251246206534223	-0.00285164855022392	-0.0045671517416488	0.655517578125	-0.38623046875	0.234375	0	0	0	0.0577734723288142	-0.317386415429263	0.330749417350501	0.886866907781737	0.579741372446535	0.549988395453811	0.601176102269501	-0.623334456611187	0.774534097634752	-0.107475982444247	-0.524741933025219	-0.312425505468524	0.79185617839207	-7.72933232493702	-36.954176284925	43.491386092184
5570	1653392917566	5.89114800791077	-1.15065827274062	7.79062246270581	0.0440368136202634	-0.0843615976120837	0.0216596519716106	0.0206700501245307	-0.00434374229354232	-0.00715884656322426	0.659423828125	-0.38427734375	0.23095703125	0	0	0	0.0577840600213106	-0.317387328113235	0.330769889310382	0.886858256254173	0.579713128557479	0.550012157674986	0.601181599009656	-0.62337187134578	0.774504565466103	-0.107471801357493	-0.524728690461042	-0.312456884196637	0.791852572721191	-7.72907003752245	-36.9545703961701	43.4940158562048
5571	1653392917567	5.87125537962202	-1.14206804296709	7.76347614042898	0.0422901853408878	-0.0818587263838755	-0.0127367841299026	0.0201383692801009	-0.0048183139327794	-0.00446414801747727	0.66162109375	-0.380126953125	0.232177734375	0	0	0	0.0578861758720168	-0.317375155890292	0.330783129027876	0.886851014893175	0.579711063948281	0.549967439193275	0.601224498971178	-0.623453975558372	0.774463424386883	-0.107291866641436	-0.524633417441563	-0.312637521922967	0.791844402133054	-7.71636432930747	-36.9576463542776	43.4917916672575
5572	1653392917567	5.87154979090263	-1.14018241641883	7.76353064447223	0.0413950507180981	-0.0804540277843362	-0.0127213294697288	0.0213358041941209	-0.00138578623582328	-0.00492738425264824	0.663330078125	-0.38427734375	0.235595703125	0	0	0	0.0579101784185103	-0.317361716439062	0.330813318499558	0.886842996520635	0.579688178484324	0.550002002089785	0.601214947770558	-0.623515896578548	0.774417919077693	-0.107260492844412	-0.524585114580442	-0.312689437475276	0.791855904348777	-7.71402441483208	-36.9569615155697	43.4947189093813
5573	1653392917568	5.89212353761424	-1.14491059111802	7.79073151727742	0.0430562697135752	-0.0828658688859403	0.0216767108178288	0.0192674788146957	-0.00348612934509746	-0.00667650913921789	0.658203125	-0.390380859375	0.23486328125	0	0	0	0.0580100054174427	-0.317344408397854	0.330815386327432	0.886841894533133	0.579707413255297	0.549943586201951	0.601249837432154	-0.623580189603369	0.774392038881001	-0.107073419913408	-0.524487428020043	-0.312856232338537	0.791854731460169	-7.7007432391242	-36.959463198526	43.4907310156838
5574	1653392917568	5.88670928764547	-1.11040634894744	7.78106845794329	0.0233703363356425	-0.0553225906711899	0.0070767792742874	0.0201420104940511	-0.00482246575162348	-0.00446072579012782	0.654052734375	-0.388671875	0.23486328125	0	0	0	0.057999602905739	-0.317333843687605	0.330904504097882	0.886813107075534	0.579602881636371	0.550090429003797	0.601216283476449	-0.623711376693529	0.774276510461023	-0.107144780233872	-0.524446964126858	-0.312884012481815	0.791870555426454	-7.70566170866574	-36.9570572877763	43.5035279544549
5575	1653392917569	5.87580832020163	-1.17982215949055	7.79405704547325	0.0544501538438189	-0.120637277635974	0.018228696078241	0.0198252509517509	-0.0021165204797201	-0.00355290609238987	0.6572265625	-0.39306640625	0.232177734375	0	0	0	0.0580945745383475	-0.317310015639881	0.330922028396954	0.886808877665009	0.579609930192528	0.550061204483951	0.601236226573114	-0.623797165905372	0.774231263061708	-0.106972179122881	-0.524337128792762	-0.313047316901993	0.791878748767654	-7.69331868141153	-36.9584872533995	43.5016601138979
5576	1653392917569	5.881103471416	-1.15288262970507	7.75253495777228	0.0620381116327964	-0.0824097635330906	-0.0143367728856809	0.0182895921551317	-0.00374578533248559	-0.00799526441181031	0.6572265625	-0.391845703125	0.228515625	0	0	0	0.0580491772385933	-0.317305572043113	0.331013148609665	0.886779432790269	0.579494938795818	0.550232649559752	0.601190192259061	-0.623909959121047	0.774121176938877	-0.1071110000156	-0.524330028531272	-0.313018265877926	0.791894933944631	-7.70302717266849	-36.9551865283848	43.5162521606461
5577	1653392917570	5.89587548790515	-1.12495226668984	7.77007793589466	0.0450319911401152	-0.0596826916649435	0.00542784811895736	0.0223226271967816	-0.00113772329901462	-0.00360183491701496	0.66455078125	-0.397705078125	0.234130859375	0	0	0	0.0581529695315739	-0.317273002278323	0.331035765532081	0.886775843208727	0.579506327927777	0.55020830575455	0.601201493819145	-0.624009774693279	0.774067108146499	-0.106920125200827	-0.524198642671752	-0.313194719566638	0.791912148319918	-7.68929938916343	-36.9559968528764	43.5144241016687
5578	1653392917570	5.87098256853627	-1.14160982243906	7.78448924167499	0.0317701081282356	-0.0894472197484715	0.00367508153807705	0.0179696875757824	-0.00851685848766349	-0.00531145566363706	0.66064453125	-0.388916015625	0.229248046875	0	0	0	0.0581085365536524	-0.317338920130039	0.33118739919832	0.886698547626276	0.579221832765908	0.550446571242001	0.601257549354041	-0.624206972203093	0.773876609183691	-0.107147793310918	-0.524278288984343	-0.313246813178165	0.791838815500588	-7.70618096958858	-36.9600161752426	43.5408597847052
5579	1653392917571	5.90512364103096	-1.14140931348595	7.75876728439873	0.0656080109248355	-0.0640741006542927	0.0037967339310434	0.0202551271793931	-0.00324019992428677	-0.00534962885979365	0.651611328125	-0.38671875	0.22607421875	0	0	0	0.0582085079358908	-0.317319014388026	0.33119939789086	0.886694632637652	0.579231203889087	0.550404124150867	0.60128737934445	-0.624286789619725	0.773837456881218	-0.10696538988807	-0.524172888222481	-0.313418076130472	0.791840825423378	-7.69320027247706	-36.9621551468221	43.5381905357825
5580	1653392917571	5.87186799052059	-1.13784880557627	7.78437206981983	0.02974795326525	-0.0875156655968157	0.00369882821010492	0.0206819971616683	-0.0043607903916309	-0.00714812812391383	0.659423828125	-0.386962890625	0.2255859375	0	0	0	0.05820733122254	-0.317359538941779	0.331251395719049	0.886660782074403	0.579110871753686	0.550469939583347	0.601343033410875	-0.624360546782614	0.773768838852263	-0.107031264789954	-0.524217994576685	-0.313471896086919	0.791789659269222	-7.69837283537552	-36.966146004912	43.5475558812975
5581	1653392917572	5.87230765379109	-1.13575088803728	7.78434678787538	0.0296762463719555	-0.0874226678942029	0.00369987390994453	0.0230717598086476	-0.00497078437959047	-0.00630341275688294	0.658447265625	-0.389404296875	0.232421875	0	0	0	0.0583236057889262	-0.317343015134714	0.331263585047543	0.886654501468546	0.579115695933316	0.550415519880852	0.601388199250669	-0.624449875539197	0.773725588458455	-0.106822594537387	-0.524106252264512	-0.313674144995901	0.791783535505973	-7.68360212128045	-36.9693849239697	43.544488907434
5582	1653392917572	5.8893488257067	-1.17400083303194	7.76209082728169	0.0741009679676292	-0.100476299188775	0.000425032579942197	0.0177630984118654	-0.00422528302915929	-0.00529591642990221	0.655029296875	-0.387451171875	0.2333984375	0	0	0	0.05831039632929	-0.317384547728019	0.331338196355533	0.886612624644644	0.578964096998686	0.550523618297976	0.601435216862631	-0.624550893365229	0.773629794631567	-0.106925780123474	-0.524153370668538	-0.313720714257799	0.791733893086803	-7.6914117829841	-36.9727567831709	43.557598177529
5583	1653392917572	5.88144573237315	-1.15205069911568	7.77316866736195	0.0508341119018445	-0.0928934670503721	0.00207510016393009	0.0206857221167226	-0.00436587132129902	-0.0071449800198733	0.657470703125	-0.389892578125	0.2294921875	0	0	0	0.0584159842428895	-0.317369611554659	0.331343374879487	0.886609085431709	0.578976195170233	0.550465176676018	0.601477060820477	-0.624623009587014	0.773598281416812	-0.106732351625062	-0.524054063356693	-0.313900921081788	0.791728204893159	-7.67771864712411	-36.9757577403754	43.5539628559157
5584	1653392917573	5.90715867909348	-1.13171293752931	7.75863856118957	0.0600796572094001	-0.0576519181362051	0.00387194349314512	0.0177651709637709	-0.00422777921124764	-0.00529414788082182	0.6591796875	-0.388671875	0.2255859375	0	0	0	0.0583842296575107	-0.317380182701202	0.331421174592201	0.886578313736455	0.578859649320954	0.550601657261879	0.601464314326706	-0.624721647164157	0.773502573518449	-0.106848642129124	-0.524065234443694	-0.313897409643355	0.791722202711701	-7.68604155522281	-36.9748435771671	43.5668158952776
5585	1653392917573	5.8796991713825	-1.16075392572266	7.79398595777895	0.0447594494730599	-0.107904531939609	0.018425592119657	0.0251471658710736	-0.00287667817818776	-0.00455119017620141	0.662353515625	-0.38720703125	0.233642578125	0	0	0	0.0585024526250916	-0.317352063130731	0.331446081576624	0.886571275234552	0.578862326068341	0.550569402352204	0.601491263986674	-0.624832898507327	0.773441916088702	-0.106637007553523	-0.523929629245839	-0.314103383666229	0.791730262127035	-7.67092214211831	-36.9767763873144	43.5650074139754
5586	1653392917574	5.88260545299247	-1.14597020754697	7.77318990680197	0.0473208710627239	-0.0884871522306781	0.00213338271600882	0.0235048778803435	-0.00610029119646605	-0.0080958096049337	0.65380859375	-0.3935546875	0.22314453125	0	0	0	0.0585297042322848	-0.317393459831784	0.331526218955875	0.886524693126656	0.578703515601662	0.550658468388163	0.60156254223703	-0.624966249705027	0.773329279734605	-0.106672451152069	-0.52394601607409	-0.31422456348535	0.791671330756982	-7.67400579860784	-36.9818886485921	43.5774865009539
5587	1653392917574	5.88560109848017	-1.13139191557548	7.75228783654441	0.0517351622251911	-0.0707875482051171	-0.0141861011118785	0.0191764365661037	-0.00509694418103525	-0.00576800925468976	0.66015625	-0.39013671875	0.23779296875	0	0	0	0.0586267410190482	-0.317385282951624	0.331535783162515	0.886517632022072	0.578701213297071	0.550610105265908	0.60160902395789	-0.625039164413357	0.773293859440607	-0.10650187745249	-0.523861573965825	-0.314396435938002	0.791658974806407	-7.66199878941703	-36.985222623406	43.575087247701
5588	1653392917575	5.84623566855031	-1.17410146869629	7.74935100763081	0.0559092617469812	-0.123409043131175	-0.0356187387889424	0.020159255307013	-0.00484192084166956	-0.00444577396099449	0.656005859375	-0.384521484375	0.233642578125	0	0	0	0.0585892449648371	-0.317417466978442	0.331665251894726	0.886460158561595	0.578488624685196	0.550821564110105	0.601619909595027	-0.625210563025776	0.773130922120117	-0.106678625519314	-0.523891842836689	-0.314426751045449	0.791626904062881	-7.67487025059058	-36.9860034340316	43.5965868519251
5589	1653392917575	5.88142077090583	-1.15278773717157	7.79386932927689	0.0404244634755599	-0.10297690122074	0.0184972224515256	0.0188590742690309	-0.0023902735544801	-0.00486373165374615	0.66259765625	-0.38671875	0.232421875	0	0	0	0.0586780508842777	-0.317398445609805	0.33168015725723	0.886455518540395	0.578493000012597	0.55079076729787	0.6016438976636	-0.625288055866201	0.773090319252482	-0.106518568658997	-0.523794517084221	-0.314580496753245	0.791630226137803	-7.66346031381598	-36.9877240909434	43.5947705943673
5590	1653392917575	5.84684905894284	-1.17050315995594	7.74943257514767	0.0548944626408461	-0.121353467518371	-0.0355872584751076	0.0202681498691773	-0.00325652315156102	-0.00533951273764643	0.6640625	-0.385009765625	0.231201171875	0	0	0	0.0586860723450069	-0.317384409428663	0.331740138934893	0.88643756789962	0.578431233742154	0.550881755038441	0.601619979552955	-0.625385932690073	0.77300885026435	-0.106535217681089	-0.523745876379851	-0.314621374637445	0.791646163128671	-7.6644914206651	-36.9860084520359	43.602552292017
5591	1653392917576	5.8845469967467	-1.13660394324479	7.77309551615266	0.0439288055535744	-0.0833305847405545	0.00219428606612837	0.0201627856566229	-0.00484607522628344	-0.00444252238702006	0.664306640625	-0.388916015625	0.228271484375	0	0	0	0.0587839962446392	-0.317374078598195	0.331758399135825	0.886427944405123	0.578420117673563	0.550846798281283	0.601662673176391	-0.625472864859132	0.772961612776689	-0.106367478575781	-0.52365433522068	-0.314798586395997	0.791636272038914	-7.65266131962311	-36.9890708799581	43.6012864119513
5592	1653392917576	5.90154572861812	-1.17486070166643	7.75096122636876	0.0882621896240346	-0.0968520442280477	-0.00102243263794044	0.0208032812316565	-0.00279371933134624	-0.00803144995160577	0.65869140625	-0.383544921875	0.225830078125	0	0	0	0.0588167003666455	-0.317414807805253	0.331845082183114	0.886378743526049	0.578253362433673	0.550942270696299	0.601735542571783	-0.625619437266771	0.772838874377725	-0.106397340025873	-0.523663411504147	-0.314932831903214	0.791576871087869	-7.65535185939955	-36.9942981109559	43.614495819044
5593	1653392917577	5.86264776907641	-1.13858463830216	7.76669161124473	0.0355907034987635	-0.0969823168772141	-0.0158593154704967	0.0227693431503777	-0.00975528652036281	-0.00359999907048096	0.65576171875	-0.390625	0.22802734375	0	0	0	0.0589329074915846	-0.317422874489428	0.331869530132554	0.886358982656043	0.578210667440934	0.550897772409663	0.601817304845567	-0.625724384001656	0.772779054768373	-0.106214536561855	-0.523585159571257	-0.31515738427867	0.791539262330915	-7.64271344563463	-37.0001636936348	43.6142974144783
5594	1653392917577	5.91463529705783	-1.15725932001408	7.78894797544851	0.0642962098395408	-0.0899234197107557	0.0350357174460498	0.0203791708181076	-0.0016749891402685	-0.00623263298323166	0.662353515625	-0.390625	0.23046875	0	0	0	0.0589288569804326	-0.317468601384588	0.331930309710873	0.886320115108045	0.578071913260315	0.550976897008039	0.601878162141601	-0.62580914423512	0.772699318620447	-0.106295239757963	-0.52363706714791	-0.315214564966293	0.791482153899787	-7.64899709513361	-37.0045298579237	43.6252745259978
5595	1653392917578	5.871870260973	-1.15487613121634	7.75550765008151	0.056348134668144	-0.10263832385586	-0.0174442246205011	0.0180974065880875	-0.00695418932265887	-0.00618388321865324	0.66015625	-0.3828125	0.234375	0	0	0	0.059023265964808	-0.317472153965387	0.33193702992652	0.886310043774178	0.578058479240277	0.55092176028905	0.601941532558132	-0.625874733808728	0.772668124476816	-0.106135700861363	-0.523573502154446	-0.315387354625218	0.791455371062851	-7.63790771356267	-37.0090765908172	43.6230758685186
5596	1653392917578	5.88442612189861	-1.13945722426147	7.79356115370285	0.0334891258763183	-0.0955631225012559	0.0185981531834241	0.0201689213803975	-0.00485308416301087	-0.00443759551555504	0.654052734375	-0.38720703125	0.225341796875	0	0	0	0.0590329250597891	-0.317482079686473	0.332027837293408	0.886271830816652	0.577925288680428	0.551050046844329	0.601951996903828	-0.62601763011616	0.772545258042295	-0.106187339453023	-0.523549699157006	-0.315464213737829	0.791440485673675	-7.64172193670014	-37.0098274181808	43.6363323296315
5597	1653392917579	5.89311620937344	-1.15771066779756	7.78249973898198	0.0565148477405852	-0.10289342641394	0.0169938914654679	0.0202762112959578	-0.00326700243048537	-0.00533361516223695	0.66015625	-0.388671875	0.226806640625	0	0	0	0.059129381043075	-0.317465995889055	0.33204300999176	0.886265477871752	0.577925561939566	0.551013378170357	0.601985300430275	-0.62609964952693	0.77250231162615	-0.106016071397263	-0.523451309788305	-0.31563338798287	0.791438115503267	-7.62956458896281	-37.0122170291781	43.6344145741164
5598	1653392917579	5.87062940702945	-1.1618057566631	7.77625032613429	0.04771211286498	-0.116311847836319	-0.00104396307557408	0.0192951459081342	-0.00352612303668708	-0.00665370366818897	0.665771484375	-0.38525390625	0.2333984375	0	0	0	0.05911645070215	-0.317536164359901	0.332113757251695	0.886214692850522	0.577742473135528	0.551104960735423	0.602077201850437	-0.626191404761551	0.772411395001085	-0.106136522814879	-0.523543655618134	-0.315695991620555	0.791352059159964	-7.63895153728164	-37.0188115748284	43.6482373005354
5599	1653392917580	5.87350175814517	-1.14758171924554	7.75535501384057	0.0520548447957904	-0.0985988084274665	-0.0173789734756866	0.0186575235516796	-0.00557842362111712	-0.00306164263282349	0.661376953125	-0.385009765625	0.238037109375	0	0	0	0.0592052679503846	-0.317534782039582	0.332136176245355	0.886200856956883	0.57771444524838	0.55107926432159	0.602127614535433	-0.626278191738472	0.772360593352076	-0.105994058275072	-0.523470769292944	-0.315865095051043	0.791332796883997	-7.6290023009641	-37.0224292674937	43.6482912640544
5600	1653392917580	5.88593331414428	-1.13216984887888	7.79348506594403	0.0300535182306704	-0.0916054751885891	0.0186469287230562	0.0202795199500261	-0.00327131080125545	-0.00533106310425911	0.661865234375	-0.394775390625	0.228515625	0	0	0	0.0592332799311533	-0.31749878156535	0.332218618430176	0.886180981414892	0.577650626545726	0.551198654236985	0.60207956053886	-0.626424631062027	0.772244416233885	-0.105975200846185	-0.523365966843597	-0.315940825413435	0.791371884506232	-7.62728869277272	-37.0189808341362	43.6576515642602
5601	1653392917581	5.87407879038561	-1.14404621047865	7.75544033086452	0.0514512845764679	-0.096588409994941	-0.017355754414945	0.017568192598201	4.71059619971829E-05	-0.00527733301801063	0.660400390625	-0.38525390625	0.22998046875	0	0	0	0.0593116940032695	-0.31747313075607	0.332231020723092	0.886180276846475	0.577666720234464	0.551173417471424	0.602087223088506	-0.62649289421408	0.77220934364751	-0.105827137742387	-0.523266484530418	-0.316070551390591	0.791385868404804	-7.61662442071538	-37.0195307007375	43.655544066836
5602	1653392917581	5.87182479522055	-1.15465042505142	7.77641353068035	0.0444047150268009	-0.111903710583649	-0.000977171612216665	0.0226735115790948	-0.00388236551757456	-0.0044829535399149	0.655517578125	-0.3916015625	0.22900390625	0	0	0	0.0593121502645757	-0.317522993911114	0.332377446771821	0.886107470934627	0.577408762430335	0.551378334454746	0.602147036331309	-0.626710220564002	0.772014603416875	-0.105961085081766	-0.523290952061364	-0.316188842948317	0.79132243433743	-7.62675566644111	-37.0238230517343	43.678963132336
5603	1653392917582	5.87219746201417	-1.15279077383571	7.77640802221149	0.0442057665932974	-0.111750824820977	-0.000974530762515968	0.0177853563508745	-0.00425440678436979	-0.00527604459476862	0.658447265625	-0.38671875	0.2353515625	0	0	0	0.0593980263534211	-0.317516829408542	0.332389424413643	0.886099434626629	0.577400667160628	0.551340416095873	0.602189517628538	-0.626779908099326	0.771978290006571	-0.105813357198092	-0.523216414464858	-0.316343587476908	0.79130987501533	-7.61636702718836	-37.0268717653692	43.6773962610594
5604	1653392917582	5.89529458086971	-1.14486703694523	7.78274991194592	0.0488804871910442	-0.093692656730951	0.0171268231202575	0.0219051118317664	-0.000969895460267897	-0.00759804584477077	0.65673828125	-0.384765625	0.22412109375	0	0	0	0.0593725824375825	-0.317497985612371	0.332487423276026	0.886071125220796	0.57729428499071	0.55151365987883	0.60213286862961	-0.626916361176977	0.771854019635922	-0.105911512407706	-0.523170320837949	-0.316344836118639	0.791339851173558	-7.6230637377001	-37.0228063193743	43.6916602849585
5605	1653392917583	5.88353125908586	-1.15657275189118	7.744680461349	0.0702672238350429	-0.0986626295124775	-0.0188625743683737	0.021162291253108	-0.00460681412040776	-0.00310657842738798	0.659912109375	-0.385986328125	0.2265625	0	0	0	0.0594698844244586	-0.317488415818591	0.332515164024571	0.886057619097796	0.577269543029428	0.551493190309377	0.602175336370546	-0.627017187888721	0.771793997080508	-0.105751936921326	-0.523076782874862	-0.316526913725954	0.791328877335086	-7.6118172487216	-37.0258540193165	43.6918246515941
5606	1653392917584	5.87312582175696	-1.14702080084206	7.77656014893307	0.0398838841786007	-0.107667892564109	-0.000910357806922945	0.0193039717331359	-0.00353879550024863	-0.00664585803290363	0.659912109375	-0.392578125	0.23095703125	0	0	0	0.0594829141534944	-0.317571936129468	0.332557210370793	0.886011032740104	0.577107534426755	0.551518506382891	0.602307422189912	-0.627078923240284	0.771734969508409	-0.105816637943478	-0.523181534207466	-0.316626710741592	0.791219696613578	-7.61745830160341	-37.0353339476912	43.7011710625608
5607	1653392917585	5.88183976277347	-1.16512771803583	7.76555006406866	0.0628435717103425	-0.114958749663147	-0.00248022042853613	0.0240900782015335	-0.00475697803200821	-0.00495170496398571	0.6591796875	-0.39208984375	0.224365234375	0	0	0	0.0595959645549178	-0.317558890968803	0.332581329870386	0.885999058011395	0.577092019576619	0.551483033134125	0.602354766816171	-0.627183946775228	0.771675960060829	-0.105624379627263	-0.523072746229839	-0.316832253455014	0.791209343550866	-7.60387854606827	-37.0387322059251	43.7000996707279
5608	1653392917586	5.88217656951183	-1.16333830698089	7.7655632086877	0.05961611801107	-0.112218977758331	-0.00242835376411321	0.0149710244037001	-0.00252711181158271	-0.00432249909966002	0.663818359375	-0.3876953125	0.228759765625	0	0	0	0.0595340872666053	-0.317638333481376	0.332751684917026	0.885910773013505	0.576764410576108	0.551755988283379	0.602418578802336	-0.627397221342176	0.771464017276424	-0.105905602778305	-0.523178307410495	-0.316873159862352	0.791123163113012	-7.62470666651938	-37.0433126835567	43.7305124772662
5609	1653392917586	5.85958257374278	-1.16766970305446	7.75938769984248	0.0532362391765732	-0.127282544550712	-0.020485225190864	0.0203954609397855	-0.00169798937347901	-0.00622105189779001	0.66064453125	-0.380615234375	0.223876953125	0	0	0	0.059626650554749	-0.317618585293143	0.332766139576064	0.885906198856091	0.576770261256052	0.551722106849757	0.602444007808104	-0.627476236429628	0.771422717790531	-0.105738182284264	-0.523077086524285	-0.317032659658176	0.791126193640009	-7.61276582753252	-37.0451380758285	43.7284646687835
5610	1653392917587	5.88512885154581	-1.14724917030378	7.74485337875922	0.0614532438546629	-0.0938831291993796	-0.0187563215593478	0.0226841320639907	-0.00389423932349272	-0.00447405007853557	0.662109375	-0.389404296875	0.233154296875	0	0	0	0.059684637402749	-0.317695972631183	0.332832355445395	0.885849669075233	0.576583784285194	0.551755725996054	0.602591701345058	-0.627602001719278	0.771320734453546	-0.105735765188503	-0.523131787542413	-0.317222230356905	0.791014026064058	-7.61366066722789	-37.0557409565076	43.7394632389217
5611	1653392917587	5.88301671782679	-1.15771089921773	7.76576777044915	0.0566259862432713	-0.111261709942446	-0.00239973529139448	0.0202924725704036	-0.00328763286903495	-0.00531995486690859	0.6630859375	-0.382080078125	0.234619140625	0	0	0	0.0597779523304187	-0.317684903305089	0.332849613722316	0.885840862272747	0.576574873713883	0.551722471642123	0.60263067403421	-0.627684683665584	0.771275462120175	-0.105575089026466	-0.523042400665047	-0.317390100375575	0.791005797254436	-7.60230451637251	-37.0585390427933	43.7381805508258
5612	1653392917588	5.85213223217853	-1.14176963790242	7.77058494646694	0.0265488671971469	-0.117203616914195	-0.0188812483677481	0.019866199525931	-0.00216212870222247	-0.00352446647690798	0.66650390625	-0.3896484375	0.2294921875	0	0	0	0.0597958055273118	-0.317660791412811	0.332946901713667	0.885811742911323	0.576475964476513	0.551866984793872	0.602592974963528	-0.627846116421762	0.77114164456122	-0.105592699167745	-0.522957662220362	-0.317464006019483	0.791032166480653	-7.60330726072127	-37.0558323956896	43.7505862684598
5613	1653392917588	5.88354227671141	-1.15407186970052	7.76591125951687	0.0555697296003127	-0.109226758302083	-0.00237082737216454	0.0202947758320637	-0.00329069793546486	-0.00531791406784927	0.663818359375	-0.383544921875	0.2333984375	0	0	0	0.0598891895045629	-0.317649513434525	0.332964168177982	0.885802988426231	0.576467298648708	0.551833766609595	0.602631684877362	-0.627928854234045	0.771096295380063	-0.105431765950601	-0.522867868212401	-0.317631858100868	0.791024143190592	-7.59193047114468	-37.0586116187414	43.7492937138621
5614	1653392917589	5.86109671448659	-1.15824007875782	7.75965741164797	0.0477632329917354	-0.123002605881442	-0.0204023036513092	0.0201907009813293	-0.00487816464049418	-0.00441723881991616	0.65380859375	-0.375732421875	0.225341796875	0	0	0	0.0599302049274701	-0.317683705011008	0.33309386654983	0.885739188573428	0.576251079274726	0.55199088306641	0.602694581563729	-0.62814628124012	0.77091369320847	-0.105471925116991	-0.522845046834071	-0.317802049450978	0.790970868215661	-7.59529407102757	-37.0631275762166	43.7681785211567
5615	1653392917589	5.87607221241868	-1.13026676675275	7.77678749580208	0.0303702426884506	-0.10013463438367	-0.000796525740433651	0.0200866964635723	-0.00646555918555873	-0.0035163898546792	0.662109375	-0.391357421875	0.242919921875	0	0	0	0.0600250968001134	-0.317687805249665	0.333117608745712	0.885722363324607	0.576214234278379	0.551960948841934	0.602757220751849	-0.628237913891241	0.770859292995351	-0.105323662831715	-0.522775553908714	-0.317985945218053	0.790942892299575	-7.58500687184165	-37.0676253126211	43.7684564393152
5616	1653392917590	5.88238988510606	-1.16088182960346	7.78665636150972	0.0489273859359058	-0.123204852754128	0.0140415433052592	0.0208308956367012	-0.00283754308929563	-0.00800934248856157	0.659423828125	-0.386962890625	0.235595703125	0	0	0	0.0600381468603776	-0.317636145642236	0.333122341926849	0.885738226121176	0.576273568581431	0.551977813318772	0.602685048560398	-0.628258955559704	0.770849852461487	-0.105267230034492	-0.52268485621209	-0.317979556833346	0.791005399806231	-7.58039797225212	-37.0624430930224	43.7663838491647
5617	1653392917590	5.89120619318772	-1.17913318533625	7.77559509672932	0.0718463820500332	-0.130477373424644	0.0125026136877651	0.0199842795927336	-0.00805389999822676	-0.00261377842459382	0.653564453125	-0.388671875	0.234130859375	0	0	0	0.060133821935738	-0.317647184274787	0.333149623255991	0.885717516088562	0.576223189693382	0.551950235157136	0.602758470342447	-0.62835559202741	0.770790503967584	-0.105124920743276	-0.522624229851111	-0.31817123833461	0.790968379563401	-7.57061927529255	-37.067715040781	43.7674560611044
5618	1653392917590	5.88570763932532	-1.14499872705362	7.76561347681664	0.0526252097263452	-0.102366549624665	-0.00228060865952351	0.0150843983871252	-0.000953032745126155	-0.00521601399217598	0.655517578125	-0.3955078125	0.2236328125	0	0	0	0.0600680222913429	-0.317595117125702	0.333227471168485	0.885711367621854	0.576185588073136	0.552132097285365	0.60262784141133	-0.628441339585878	0.770702570313326	-0.105256975122503	-0.522562580746384	-0.318068695818524	0.791050348551836	-7.57924240998215	-37.0583356680986	43.7787528218678
5619	1653392917591	5.87140839499246	-1.16941068525953	7.74852696375337	0.0694549438910287	-0.124887114791344	-0.0218647789116471	0.0228006301673638	-0.00232232784929002	-0.00536541708241086	0.658203125	-0.39013671875	0.22607421875	0	0	0	0.0601704546696268	-0.317574667127748	0.333249725911392	0.88570337436612	0.576181901957363	0.552103589267345	0.602657483629722	-0.628538037717873	0.770648273129664	-0.105076992077383	-0.522450333523254	-0.318249691029512	0.7910516943671	-7.56641992180619	-37.0604639265511	43.7774580710252
5620	1653392917591	5.8633924523847	-1.14720064046954	7.75956297888551	0.042059529852333	-0.114512255423925	-0.0202731769920561	0.0217138653911002	-0.00416981583028411	-0.0057842799014819	0.655029296875	-0.384765625	0.2294921875	0	0	0	0.0601177041057422	-0.317690476845691	0.333431227716436	0.885597108711474	0.575792754610136	0.552373818271143	0.602781775294368	-0.628769106608028	0.77041895607313	-0.105375721580123	-0.522601295744484	-0.318335981333792	0.790917245149224	-7.58895547433168	-37.0693884966796	43.8108019136321
5621	1653392917592	5.88667499872925	-1.13916286157689	7.76573852051327	0.0478226012728769	-0.099026754084647	-0.0022217415540311	0.0206270395810548	-0.00601724782510189	-0.00620300845642758	0.657958984375	-0.38525390625	0.2236328125	0	0	0	0.0602165992402165	-0.317691327515636	0.333446384267051	0.885584377920323	0.575771458481166	0.552329234859633	0.602842967876248	-0.628850400264038	0.770374939990346	-0.105212289788928	-0.522526938718215	-0.318519808103426	0.790892363194593	-7.57755791283406	-37.0737827208748	43.8095502443459
5622	1653392917592	5.89543635713666	-1.15739632781841	7.75473811257699	0.0686238946546168	-0.105037220610459	-0.00371407549929614	0.0203051533365417	-0.00330417134165347	-0.00530994576479299	0.659912109375	-0.381591796875	0.225830078125	0	0	0	0.0602130672167993	-0.317755881804962	0.333480128745583	0.885548750688818	0.575644406620361	0.552359710241084	0.602936371128064	-0.628891935319706	0.770330780536349	-0.105287331850013	-0.522616925497565	-0.318573757645927	0.790811172229393	-7.58366915504855	-37.080490476343	43.8174463498048
5623	1653392917593	5.89332403439282	-1.16770618634927	7.77571468189637	0.0637336513766245	-0.122354070391926	0.0126631054940525	0.0242174828938928	-0.00319805640376415	-0.00583373538239847	0.65673828125	-0.3876953125	0.234130859375	0	0	0	0.0603221261260619	-0.317739306698331	0.333503636785353	0.885538422841967	0.575634114459615	0.552327147994195	0.602976025940414	-0.628993990129651	0.77027313070115	-0.105099307802806	-0.522505432173748	-0.318769549531394	0.790805948156991	-7.57033273500699	-37.0833384665646	43.8162706878398
5624	1653392917593	5.8734010652862	-1.15949759730702	7.74850650906907	0.060721452475884	-0.118513371023797	-0.0217274948428177	0.017598694736113	-0.00745423153299107	-0.00345233243820543	0.653076171875	-0.38623046875	0.222900390625	0	0	0	0.0603219228782546	-0.317782090746625	0.333548088704546	0.885506341559742	0.575520430644496	0.552379441985796	0.60303663734655	-0.62905634906623	0.770213876283628	-0.105160327498599	-0.52255558901445	-0.318822108473687	0.790751616841947	-7.57519138226274	-37.0876917564031	43.8246341513257
5625	1653392917594	5.88605385474785	-1.14370050961471	7.78643011504289	0.0386901841635047	-0.113106988918066	0.0142085966385093	0.02356014834793	-0.00617781351452368	-0.00804351424318512	0.651611328125	-0.387451171875	0.2216796875	0	0	0	0.0604363520275076	-0.317779464624458	0.333559967536787	0.885495006916164	0.575507919839701	0.552320508339572	0.603102553691573	-0.629142234704199	0.77017039082093	-0.104964839894812	-0.522465963210224	-0.319029191721155	0.7907273184332	-7.56150223602265	-37.0924263464314	43.8222023442582
5626	1653392917594	5.85532590883655	-1.12755563005708	7.79112970625564	0.00559936757876243	-0.119054088376432	-0.00229900033252761	0.0179146029180405	-0.00270199499289599	-0.00615515336538638	0.662353515625	-0.38916015625	0.2333984375	0	0	0	0.0603744292552678	-0.317901746624602	0.333592074117392	0.885443242602926	0.575309615158167	0.552367422602852	0.60324876887868	-0.629139968649705	0.770142512756314	-0.105182745223915	-0.522687044563006	-0.319015266864256	0.790586815570256	-7.57834853725181	-37.1029296377768	43.8344983100362
5627	1653392917595	5.8891844981778	-1.12749487140978	7.76553865179759	0.0390388770192719	-0.09345877491398	-0.00212823355874647	0.0212948340630835	-0.00305056630635072	-0.00398487235527644	0.6533203125	-0.38623046875	0.236083984375	0	0	0	0.0604661350190177	-0.317891872610658	0.333619923500477	0.885430037037082	0.575285007943251	0.552350816661223	0.603287439757712	-0.62923758822412	0.770083186318796	-0.105033060104826	-0.522596610400055	-0.319187188782338	0.790577207687903	-7.5677798054535	-37.1057077836241	43.8348621055174
5628	1653392917596	5.89310903229701	-1.1704267404455	7.79640617490642	0.0526237913782351	-0.132933649633259	0.0291692257707172	0.0196525235905184	-0.00629026699408558	-0.00751488288728444	0.655029296875	-0.38818359375	0.240234375	0	0	0	0.0604453650504826	-0.317853664516306	0.333706208048995	0.88541265662234	0.575218429326233	0.552509838831413	0.603205302163324	-0.6293609619687	0.769973049106949	-0.105101299700718	-0.522521327902789	-0.319177664700138	0.790630811594939	-7.57213206500121	-37.0998070769605	43.8464148543541
5629	1653392917596	5.86487680364491	-1.14207189510158	7.78010251236413	0.0275283679369735	-0.123030282668865	-0.0037522167371371	0.0202092228669027	-0.00489928034099423	-0.00440150679938193	0.6591796875	-0.3916015625	0.232421875	0	0	0	0.0605356023601038	-0.317853089891955	0.333730708159541	0.885397463585913	0.575186455354936	0.552485788533117	0.603257818055568	-0.629451501567636	0.769918510556461	-0.104958535988118	-0.522447460277561	-0.319350811133243	0.790609708186072	-7.5621651248102	-37.1035797285087	43.8467599881093
5630	1653392917597	5.87360843771612	-1.16038634016859	7.7691505788318	0.0503448586354508	-0.126682750056153	-0.00519584661945771	0.0193308053008668	-0.00357767088803116	-0.00662329590578021	0.6552734375	-0.382568359375	0.232421875	0	0	0	0.06048291750807	-0.317783608462012	0.333859541519433	0.88537743444195	0.575102769458594	0.552742449116833	0.603102470153607	-0.629624368220931	0.769759246452293	-0.105089758985319	-0.522331273717599	-0.319290600308755	0.790710789765149	-7.57055331442726	-37.0924203459414	43.8642198886968
5631	1653392917598	5.86556908981517	-1.13838721658137	7.78012062907718	0.0267614069335847	-0.118985925721417	-0.0037002011333378	0.0189034881431983	-0.00244740779753627	-0.00483082317225306	0.662841796875	-0.387939453125	0.22509765625	0	0	0	0.0605633183630371	-0.317773418713761	0.333882015499246	0.885367120777583	0.57508570817026	0.552725492034224	0.60313427917325	-0.629707142933712	0.769709768390037	-0.104956117416836	-0.522250267971757	-0.319439200632109	0.790704277655653	-7.56109892389955	-37.0947052060983	43.8641909307778
5632	1653392917599	5.89949650072608	-1.13820656070447	7.7544907157576	0.0585487317786782	-0.0921743599361584	-0.00351946022091631	0.0231418189705962	-0.00505926482989259	-0.00624278776111835	0.658935546875	-0.384033203125	0.23291015625	0	0	0	0.060593525971124	-0.31782202629051	0.333943551448189	0.885324397416648	0.574941728101529	0.552780832505629	0.603220822337899	-0.629812661322546	0.769620258113114	-0.104979378640355	-0.522281553307638	-0.319559086111296	0.790635168429962	-7.56340868758482	-37.1009220001018	43.874224538972
5633	1653392917599	5.87694023495182	-1.1423620563354	7.74836823311996	0.0521046019901652	-0.107214549857102	-0.0215476027617942	0.0175972542792657	4.36256318350559E-06	-0.00526109625538872	0.660888671875	-0.385986328125	0.22900390625	0	0	0	0.0606644886742146	-0.31780367491147	0.333962808787645	0.88531886141284	0.574939333118864	0.552768352385642	0.603234541313492	-0.629885942134805	0.769577324321127	-0.104854383750444	-0.522195809188264	-0.319684047915436	0.790641288053322	-7.55444950194256	-37.1019075441329	43.8736974924971
5634	1653392917601	5.85795969183284	-1.19137500976784	7.77316714195651	0.0587698138331837	-0.163419691142667	-0.00824789309234219	0.0230406606703802	-0.00664682224021446	-0.0053371251895684	0.658203125	-0.385498046875	0.2333984375	0	0	0	0.0607022618495293	-0.317827457156126	0.334030126853863	0.8852823375839	0.574819163663326	0.552836251994747	0.603286836890874	-0.630007634103792	0.769478219520687	-0.104850611129441	-0.522181299987215	-0.319805172196566	0.790601885768044	-7.55455297435345	-37.1056644724224	43.8831973613693
5635	1653392917602	5.90046616060673	-1.13237369195165	7.75460690305147	0.0563832146470855	-0.0900949396214112	-0.0034874544195489	0.0204246192720488	-0.00173943903722282	-0.00620101722528103	0.662109375	-0.38623046875	0.22802734375	0	0	0	0.0607900345137539	-0.317812061013139	0.334049201625048	0.885274644656711	0.574813249536497	0.552810964217192	0.603315643754205	-0.630090188848696	0.769431405194969	-0.104697978090835	-0.52208819376989	-0.319961482902166	0.790600131156794	-7.54369895864979	-37.1077340447993	43.882182445344
5636	1653392917603	5.87785406792651	-1.1365061289079	7.74853620551117	0.0486992849442867	-0.103693002901395	-0.0214921451237657	0.020425828070727	-0.00174094755440385	-0.00620000655668138	0.66064453125	-0.388671875	0.2255859375	0	0	0	0.0608036297547634	-0.317826404184908	0.334130586675921	0.885237847394214	0.574686255700993	0.552920084582422	0.603336628735352	-0.63022008060781	0.769319339312501	-0.10473969714708	-0.522071218807414	-0.320042394418526	0.790578590823074	-7.5468735101595	-37.1092417050558	43.8941576168195
5637	1653392917603	5.87572591887158	-1.14689585066735	7.76955263118576	0.0437328277248503	-0.120932315617531	-0.00509154227778374	0.0193390176929942	-0.00358868704168913	-0.00661594078847672	0.65966796875	-0.38671875	0.23291015625	0	0	0	0.0608901345581837	-0.317821212757532	0.334145647057688	0.885228080659	0.574672726547462	0.552885866790371	0.603380871146879	-0.630294572431376	0.769278156131771	-0.104593835679031	-0.521996177501383	-0.320200463463068	0.790564136469636	-7.53662076495191	-37.1124203874133	43.893059920262
5638	1653392917604	5.89889955764979	-1.13901708603563	7.77574232084673	0.0473450093137019	-0.103640930336451	0.0129709525149604	0.018807440431517	-0.00404050748772868	-0.00392101194407653	0.665283203125	-0.37646484375	0.229736328125	0	0	0	0.0608826720174055	-0.317878730420129	0.334272413994684	0.885160079441382	0.574430131977307	0.553062580082238	0.603449920034224	-0.63047580602415	0.769110506980375	-0.104734359551143	-0.522044329051405	-0.320298002749264	0.790492825989015	-7.54730267165019	-37.1173816060625	43.9142954159046
5639	1653392917605	5.87401707205464	-1.1556125412349	7.79050664286968	0.036323755351266	-0.13618925665802	0.0113466071140635	0.0203253941965371	-0.00332909050722051	-0.0052938374502096	0.6552734375	-0.388671875	0.22607421875	0	0	0	0.0609705412968618	-0.317871812431925	0.334295279925077	0.885147880173152	0.574408353362114	0.553039883821168	0.603491450221869	-0.630563149689124	0.769058517827564	-0.104590202270591	-0.521962793541797	-0.320461983798298	0.790480207910422	-7.53715293313711	-37.1203657403578	43.914205980867
5640	1653392917605	5.89711867626501	-1.14762719562841	7.79676376156994	0.0403969186290419	-0.120319684990054	0.02938929769123	0.0222951794499484	-0.00280519445318156	-0.00265222206030771	0.656494140625	-0.387451171875	0.229248046875	0	0	0	0.0610189152877724	-0.317925913214118	0.334329448608363	0.885112210670093	0.574293867000393	0.553039165967324	0.603601056354196	-0.630637143432124	0.769001023540662	-0.10456681652027	-0.52199937514283	-0.320601164532476	0.790399611368145	-7.53624659634843	-37.1282420082182	43.9198751738535
5641	1653392917606	5.88542979960187	-1.15985963614695	7.75870330562791	0.0617100424997574	-0.125299071894229	-0.00648896215651362	0.0177227518727945	-0.00589101986567469	-0.00433422109835576	0.6640625	-0.389404296875	0.22509765625	0	0	0	0.0610980928100282	-0.31793572882946	0.334351184381021	0.885095012352722	0.574252315673377	0.553014598004442	0.603663095060274	-0.630715664675027	0.768952617115971	-0.104449140561507	-0.521950216282456	-0.320759609403185	0.790367790777315	-7.5281624774202	-37.1327004566278	43.9206747443612
5642	1653392917607	5.87503716731697	-1.15005952250484	7.7905591662821	0.0307301619220574	-0.13344446020013	0.0114033637785997	0.020965088808005	-0.00130127677823248	-0.00888932987244278	0.658447265625	-0.389404296875	0.22607421875	0	0	0	0.0610977634320842	-0.318011093933987	0.334477795526265	0.885020119397518	0.573987096869598	0.553179623893033	0.603764123095082	-0.630898690236862	0.768783335206974	-0.104589799528703	-0.522020742197687	-0.320880799079041	0.790272014877012	-7.53908702290769	-37.1399614585538	43.9424412826166
5643	1653392917607	5.88859316428626	-1.14356059766774	7.73776000100159	0.0626221659275854	-0.105600137767272	-0.0228397224774746	0.0220694333358248	-0.00692451748388723	-0.00664451075828285	0.66162109375	-0.380859375	0.23291015625	0	0	0	0.0612009721968813	-0.31801855791552	0.334496229556907	0.885003339109917	0.573952938467092	0.55313447031292	0.603837960198459	-0.63098664999724	0.768733426828739	-0.104425887601707	-0.521951982418164	-0.321078146605759	0.790237275646979	-7.52773455709015	-37.1452686575685	43.9418081280405
5644	1653392917608	5.88196159881683	-1.17853297565112	7.80050575095434	0.0470678382767367	-0.156627066836937	0.0263956507169407	0.0177263224115306	-0.00589467386282195	-0.00433093380555419	0.662353515625	-0.3857421875	0.23291015625	0	0	0	0.0612106135932846	-0.318070533756621	0.33456635431331	0.884957485363457	0.573792980234558	0.55321541412628	0.603915823113315	-0.631092584275025	0.768637230690069	-0.104493816420748	-0.521999775772571	-0.321168979153017	0.790168792678624	-7.53322046331095	-37.1508656237975	43.953977002017
5645	1653392917609	5.90404952673719	-1.11356791752485	7.75460282805845	0.0431078748693621	-0.081129617299757	-0.00334188494411336	0.0227308011549316	-0.00394645333310908	-0.00443743547899565	0.65283203125	-0.3857421875	0.22412109375	0	0	0	0.0613080726195084	-0.31806485912507	0.334596528584282	0.884941370193968	0.573759816898194	0.553196733973133	0.603964441034744	-0.631196507896947	0.768572966582058	-0.104338695880076	-0.521910567944021	-0.321354895031513	0.790152131242861	-7.52232238729571	-37.1543606024217	43.954664989018
5646	1653392917609	5.86476391918938	-1.15622949360845	7.75234375297053	0.0475910265490311	-0.134855810310475	-0.0243930885508163	0.0207630220232023	-0.00447512362048191	-0.00707656092594071	0.6572265625	-0.389404296875	0.232666015625	0	0	0	0.0613046527617695	-0.318112350343431	0.334650757849462	0.884904030039143	0.573626805659517	0.553264074199217	0.604029098661101	-0.631271142907354	0.768501219641079	-0.104415609669326	-0.521966504635404	-0.321410546825486	0.790092544217474	-7.52836515300759	-37.1590088717201	43.9647874211191
5647	1653392917610	5.88569139974344	-1.16039065833279	7.77940891516469	0.0485393751034945	-0.136744919832374	0.0100422589732556	0.01967643640068	-0.00632334099778072	-0.00749055259665098	0.65625	-0.38427734375	0.240234375	0	0	0	0.0613970172684734	-0.318121909595597	0.334662122485058	0.884889891839421	0.573599428818094	0.553214785983267	0.604100236574233	-0.63134173149095	0.768463340088662	-0.104267507008599	-0.521911212120957	-0.321585906888449	0.790057713811572	-7.51813681240784	-37.1641233423347	43.9636032273623
5648	1653392917611	5.86336275767206	-1.16466973537581	7.77314061467305	0.0428157479448032	-0.148831260899445	-0.00793294113598364	0.0178341031924015	-0.00431689068658237	-0.0052319267600171	0.6552734375	-0.3876953125	0.23095703125	0	0	0	0.0613547143171719	-0.318039623994469	0.334733213598929	0.884895514913625	0.573608946566381	0.55338137826919	0.603938595060705	-0.631434299356075	0.768378549489584	-0.104331827746783	-0.521788752289381	-0.321501873819072	0.79017279320103	-7.5216384636801	-37.1525026022865	43.9717481662659
5649	1653392917612	5.88905724699504	-1.14449815631512	7.75823202061045	0.0529246890598344	-0.115717242411932	-0.00631986220923864	0.0225300224216362	-0.00711783738805632	-0.00262283404590447	0.656494140625	-0.384033203125	0.220947265625	0	0	0	0.0614529531587801	-0.318048482841689	0.334771247609564	0.88487112557937	0.573546748672073	0.553368784331187	0.604009201598386	-0.631548858404352	0.768303492644002	-0.10419108713891	-0.521718474405358	-0.321702862466054	0.79013739422033	-7.51194061799375	-37.1575784314266	43.9742011414841
5650	1653392917613	5.89784362311038	-1.16298128135732	7.74730305166682	0.0731560818273625	-0.121355987038535	-0.00770341787776907	0.0174066218093343	-0.00318356025113289	-0.00344174876253113	0.660400390625	-0.3857421875	0.232421875	0	0	0	0.0614109419533803	-0.318137485238033	0.334826254248783	0.884821234013147	0.573359839904299	0.553448513650522	0.604113595876591	-0.631597004207111	0.768240151348255	-0.104366154154557	-0.521865613220031	-0.321716975918956	0.790034473389638	-7.52538704931113	-37.1650838499194	43.9876572744742
5651	1653392917613	5.9018731798299	-1.12696780916569	7.79617974047632	0.0276440776708417	-0.108374798223942	0.0295721560654254	0.0203393375533481	-0.00334702446942211	-0.00528344767974208	0.6572265625	-0.375244140625	0.23095703125	0	0	0	0.0614968232245344	-0.318133464647995	0.334850526111507	0.884807529673657	0.573332447667819	0.553428138762762	0.604158257145272	-0.631684928511827	0.768186531792274	-0.10422861154196	-0.521789282701585	-0.321880020502271	0.790018478808706	-7.51573331678862	-37.1682949959864	43.9879710876848
5652	1653392917614	5.86727958616381	-1.14534931827645	7.75205529109076	0.0431735512896103	-0.12824972239536	-0.0242838235165532	0.0179410549546647	-0.00274000071661021	-0.00613424026670796	0.661376953125	-0.38916015625	0.236083984375	0	0	0	0.0615313381205588	-0.318116198113927	0.334804078396887	0.884828914545318	0.573416627172704	0.553340427850977	0.604158706456821	-0.631636889242076	0.76824024703581	-0.10412378682584	-0.521754934648898	-0.32190261530478	0.790031957853268	-7.50813424017067	-37.1683273021886	43.9792300112034
5653	1653392917615	5.910867222711	-1.14345632553823	7.78539019389152	0.0501019740555098	-0.114755262907798	0.0281695534490982	0.0217562934449229	-0.00422247067848029	-0.00574962154287969	0.65869140625	-0.38330078125	0.224853515625	0	0	0	0.0616260089558504	-0.318113395570079	0.334827872558258	0.884814329866531	0.57338832663397	0.553312881427788	0.6042107927917	-0.631729117285299	0.768185061556569	-0.103971311308787	-0.521674370899925	-0.322081614575266	0.790012205158096	-7.49745005536332	-37.1720724846265	43.9792177622457
5654	1653392917616	5.84283404041325	-1.16006850381317	7.76685506862749	0.030325738718712	-0.158910773859902	-0.0258424296672093	0.016322741988221	-0.00503470277585645	-0.00385229031566792	0.66650390625	-0.3935546875	0.2236328125	0	0	0	0.061616102317266	-0.318152817890922	0.334924587798938	0.884764240287211	0.573208609911554	0.553451923795482	0.604253967773769	-0.631865270114256	0.768057952845879	-0.104082954865986	-0.521706977092219	-0.322145850690765	0.789964480806587	-7.50585728038249	-37.1751770515774	43.9953861943604
5655	1653392917617	5.89111193582741	-1.13382556027916	7.75823917796123	0.0463999357625876	-0.110444293706312	-0.00622601512237608	0.0205493778543053	-0.000187913902542145	-0.00709249227945923	0.656005859375	-0.384033203125	0.224853515625	0	0	0	0.0617005286472409	-0.318134089470179	0.334941977614298	0.884758508019818	0.573209145497607	0.553427445772429	0.604275878869666	-0.631943611776504	0.768013832792948	-0.103932786807397	-0.521611490529848	-0.322293057487265	0.789967491763262	-7.49512299999281	-37.1767526531836	43.9940931588977
5656	1653392917618	5.89744728516849	-1.16448596735601	7.768392036347	0.0606965390654667	-0.133748846423611	0.00883257208066723	0.0176369315984474	-0.00749205586524565	-0.00341156115137897	0.651123046875	-0.38525390625	0.231201171875	0	0	0	0.0616911205947649	-0.318300466660873	0.335104766637753	0.884637673818999	0.572779216600255	0.553619977539869	0.604507145945814	-0.632165227436452	0.767798002032839	-0.104179428365679	-0.521815191663693	-0.32247658603864	0.789758037126465	-7.51467635256166	-37.1933848060562	44.0255340236842
5657	1653392917619	5.85599284442658	-1.14040165133513	7.80485060517266	0.00314997351558641	-0.151473096174195	0.0100366272468886	0.025781738883904	-0.00254604202766809	-0.0071741776117763	0.6591796875	-0.388916015625	0.229248046875	0	0	0	0.0618021067929573	-0.318284919029413	0.335129581638341	0.884626120700323	0.572765747658702	0.553587406360409	0.604549734784596	-0.632270120586183	0.767737326213726	-0.103989867545519	-0.521702878009028	-0.322676899478962	0.789750419828785	-7.50123031348131	-37.1964480888632	44.024522780818
5658	1653392917620	5.8899009347978	-1.14023462456052	7.77920334395755	0.0352533598992625	-0.123240409041872	0.0102776411431869	0.0197125254374756	-0.00538295858249203	-0.00167586331783921	0.657470703125	-0.385986328125	0.227783203125	0	0	0	0.0617486331306665	-0.318302757287558	0.335213188087596	0.884591758689727	0.572630946470577	0.553744126804336	0.604533904073143	-0.632363167541252	0.767638449677289	-0.104153900139383	-0.521738079386015	-0.322643228050355	0.789740922019266	-7.51301694318442	-37.1953094204769	44.0393664767344
5659	1653392917620	5.8758049730016	-1.1650039684476	7.76219229684915	0.0519548480267823	-0.145701690185346	-0.00911561055519527	0.0174156095014942	-0.00319381142981264	-0.00343449546229891	0.65966796875	-0.395751953125	0.230224609375	0	0	0	0.061817139184608	-0.318305359478247	0.335241766316891	0.884575207400245	0.572589312488311	0.55373965651783	0.604577432611969	-0.632446563358123	0.767583198839524	-0.104054684449012	-0.521682684896349	-0.32278231930947	0.78972067886091	-7.50613198686474	-37.1984403742072	44.0412171301292
5660	1653392917620	5.8882321018358	-1.14905926617919	7.80017229455436	0.0272070565249864	-0.137333246964045	0.0267588269861818	0.0217650111737831	-0.0042339084888666	-0.0057423693455417	0.654296875	-0.39306640625	0.22412109375	0	0	0	0.0617818650654571	-0.318358691958743	0.335423443721993	0.884489602994309	0.572277713311994	0.554019509647279	0.604616078000398	-0.632694684643321	0.767348229101425	-0.104279102983273	-0.521723734241106	-0.32286077219925	0.789661488806704	-7.52269292561415	-37.2012201978226	44.0712696720806
5661	1653392917621	5.8765249783208	-1.16135475700967	7.76219407958772	0.0484926653416911	-0.142314155337903	-0.00904811338005906	0.0188330398319502	-0.00406987096335557	-0.00389991146697168	0.65576171875	-0.387451171875	0.23486328125	0	0	0	0.061858012810514	-0.318363232889293	0.335452789270533	0.884471516989683	0.572232556229794	0.554010240932132	0.604667308966705	-0.632783508685982	0.767290024843507	-0.10416836809083	-0.521665537222627	-0.323014969804761	0.789636876390823	-7.51502741205376	-37.204905479688	44.0730500827728
5662	1653392917621	5.88303807844363	-1.11281886134832	7.78992990428378	0.00557064958483545	-0.108688886785175	0.0117549147346736	0.0231831312131529	-0.00511113720125215	-0.00620714301933378	0.665283203125	-0.391845703125	0.2314453125	0	0	0	0.0618025203915285	-0.318392531769667	0.335586105361281	0.884414275142031	0.572016323203497	0.554239362367258	0.604661934630821	-0.632949206116079	0.767124828723404	-0.104378156877353	-0.521701666152004	-0.32301428197345	0.789613288373112	-7.53021108310738	-37.2045188702441	44.0957113310105
5663	1653392917622	5.87500636268154	-1.16979959321472	7.78312573603266	0.0408918305393937	-0.155981061706442	0.00745391197805034	0.0173173973783354	-0.00478017680656723	-0.0025236458186607	0.657958984375	-0.38427734375	0.2294921875	0	0	0	0.0618700576964526	-0.318403492506277	0.335619959985048	0.884392760248566	0.57195691683888	0.554240440707149	0.604717139797532	-0.633039010515611	0.767062676840544	-0.104290272622305	-0.521657834644107	-0.32315999703392	0.789582623840886	-7.52423232385992	-37.2084902159433	44.0987409255328
5664	1653392917622	5.85502897099193	-1.1619184261533	7.7558907892791	0.0375662851109576	-0.151898659031843	-0.0269438657627141	0.0212146621874514	-0.0056458485936042	-0.0088445188678163	0.658447265625	-0.382568359375	0.235107421875	0	0	0	0.061899875444642	-0.318439466824998	0.335754213584876	0.88432676056317	0.571730828056425	0.554410145423644	0.604775372267463	-0.633255598756147	0.766875026959879	-0.104355352853981	-0.521642796263793	-0.323314218178877	0.789529422776297	-7.52937532171607	-37.2126795661066	44.1188281104775
5665	1653392917623	5.87825741384183	-1.15380906883612	7.76200760402271	0.0429272351805839	-0.136173300574395	-0.00893494472765788	0.0179541065500783	-0.00275918506477702	-0.00612406705510851	0.66748046875	-0.38037109375	0.21875	0	0	0	0.0619722601834919	-0.318439665439213	0.335774013984111	0.88431410142308	0.57170398201592	0.554390539316475	0.604818722315645	-0.633328242513846	0.766830501001495	-0.10424164219792	-0.521584024085729	-0.323453416507208	0.789511236885424	-7.52143619110632	-37.2157983987305	44.1191600485793
5666	1653392917624	5.88693986825064	-1.17205777367417	7.75126529282773	0.0641100072593812	-0.143837472803123	-0.0102848838162739	0.023290838600398	-0.00353638271356108	-0.00711066350801913	0.65576171875	-0.392578125	0.232666015625	0	0	0	0.0620750646012995	-0.318511033431943	0.335793565155188	0.884273763908683	0.571586806364968	0.554323693559158	0.604990715258036	-0.633410065465216	0.766778735910226	-0.104125208875019	-0.5216130862592	-0.323690612954482	0.78939481587372	-7.51422648954853	-37.2281737550606	44.1215767085949
5667	1653392917624	5.88137220759816	-1.13770617327771	7.74099449867163	0.0448774347662564	-0.118660515990327	-0.0253580191531082	0.0177522243498647	-0.00592449769059	-0.00430573560692347	0.654541015625	-0.387939453125	0.232421875	0	0	0	0.0621492889528419	-0.318526945168086	0.335819282452391	0.884253052365501	0.571531989470097	0.554306004794403	0.605058706293217	-0.633490897412472	0.766725750831635	-0.104023583418406	-0.521574987808938	-0.323846377253989	0.789356102169086	-7.50734031993969	-37.2330664536449	44.1234092151513
5668	1653392917625	5.87710370436861	-1.16024236102413	7.78297288580538	0.0343307324424899	-0.149726234486543	0.00757639870518822	0.0217753474370153	-0.0042465628958359	-0.00573420414536338	0.659423828125	-0.390869140625	0.221435546875	0	0	0	0.0620831499135037	-0.318499405767363	0.335947302552901	0.884218989238573	0.571395076866531	0.554555075890269	0.604959778776266	-0.633648861312737	0.766570184808493	-0.104207832333965	-0.52153311178655	-0.323788232595025	0.789407622045307	-7.520000221956	-37.2259476419352	44.143133426388
5669	1653392917626	5.90269361785002	-1.13997133147509	7.7680435342431	0.044259617187083	-0.116532632202437	0.00913975270918676	0.0202585011303924	-0.00495460381504505	-0.00435853969539331	0.660888671875	-0.38232421875	0.229248046875	0	0	0	0.0621661143373129	-0.318506563809009	0.335978221777551	0.884198833707653	0.571344406603546	0.554542472767892	0.605019185596055	-0.633743734619634	0.76650801743879	-0.10408812627968	-0.521473343396574	-0.323956949452435	0.789377886077556	-7.51174023817681	-37.2302224686181	44.1450220628388
5670	1653392917626	5.86949755164879	-1.13617000142341	7.79375001062381	0.00714409148513864	-0.140754866930573	0.00894996154021044	0.01947755058924	-0.00206041777458619	-0.00749461419767848	0.654052734375	-0.38818359375	0.2294921875	0	0	0	0.0621788630691882	-0.31860758799545	0.336074876980893	0.884124805059457	0.571085763867998	0.554642955018679	0.605171250767461	-0.633885585365773	0.766374932099401	-0.104204261501771	-0.521584235740304	-0.324099762261229	0.789245987718289	-7.5212678710448	-37.241165957305	44.1631762207312
5671	1653392917627	5.8805040243642	-1.14242155010083	7.76199027574099	0.0343483151876812	-0.130339977378594	-0.00882184588730972	0.0198303978989924	-0.0038158009143804	-0.00257099523299072	0.659912109375	-0.382568359375	0.22509765625	0	0	0	0.0622548086018569	-0.318612060770867	0.336113355813514	0.884103221112256	0.571028333550239	0.554647535344088	0.60522124369487	-0.633988066790222	0.766304301699449	-0.104100184267453	-0.521522553156078	-0.324258891525968	0.789221387074576	-7.51407318306279	-37.2447640843772	44.1662925469597
5672	1653392917628	5.87858326147168	-1.152656954818	7.7829825949154	0.0274583307873191	-0.146123101980393	0.00765229370647447	0.0212252334594179	-0.00566129210453201	-0.0088345423231857	0.661376953125	-0.3896484375	0.224609375	0	0	0	0.0622574035223779	-0.318673757015584	0.336140116072453	0.884070627644094	0.57091371791274	0.554663605420042	0.605314638449701	-0.634022808150088	0.766267676146899	-0.104158183729886	-0.521605795064174	-0.324317950959967	0.789142104592449	-7.51895846331102	-37.2514864194089	44.1728705226956
5673	1653392917628	5.85871997839577	-1.14462900067216	7.75567438767713	0.0255001650669431	-0.143723782764195	-0.0267815062096144	0.0205926468622701	-0.00768263068191249	-0.00522993890908345	0.65869140625	-0.390380859375	0.2314453125	0	0	0	0.0623471105947102	-0.318693764529042	0.336167030744396	0.884046859443149	0.570852023781608	0.55463554478995	0.60539852940026	-0.634114086321697	0.766209130481975	-0.104033138443747	-0.521562357223796	-0.32450420771018	0.789094244501597	-7.51048510382515	-37.2575252043125	44.1745164123614
5674	1653392917629	5.90004717256148	-1.15466450697024	7.80997255389655	0.0251863856050081	-0.145327456033398	0.0421451230479999	0.0224401719617187	-0.00126664859014887	-0.00353306813355304	0.65478515625	-0.387939453125	0.231689453125	0	0	0	0.062334171650431	-0.318744202800155	0.33635644837237	0.883957535102379	0.570532945639237	0.554912322338213	0.605445680847941	-0.634386945737911	0.765957581365959	-0.104221814536759	-0.521579678493651	-0.324624857435813	0.789033168451896	-7.52452604806665	-37.2609195546832	44.2048139969504
5675	1653392917630	5.8905492117304	-1.15496225414233	7.75108934785986	0.0510615389692931	-0.132861346728971	-0.0100533161070739	0.0188491660873694	-0.00408766831182363	-0.00388679090057218	0.660400390625	-0.38671875	0.233154296875	0	0	0	0.0624073785211537	-0.318752320709278	0.336388144221593	0.883937381026348	0.570479948939204	0.554907116957097	0.605500387620591	-0.634477103889097	0.76589667106654	-0.104120573806023	-0.521527978634729	-0.324777432712858	0.789004554297133	-7.51756988598987	-37.2648579914186	44.2072055647746
5676	1653392917630	5.8778850966245	-1.15724196948244	7.8039000876157	0.0177620319302907	-0.157682460198944	0.0242033672389077	0.0202672582229706	-0.00496457697031802	-0.00435092483287316	0.65966796875	-0.387939453125	0.229736328125	0	0	0	0.0623864302144015	-0.318729301297529	0.336474403581206	0.883914329306955	0.570393216458122	0.555060326915512	0.605441666969662	-0.634597860166245	0.765785818119551	-0.104199983874245	-0.521475919377857	-0.324777022357517	0.789039131638985	-7.52291178501832	-37.2606305966393	44.2194653280758
5677	1653392917631	5.88295847253297	-1.13108779559451	7.76179023731741	0.0263149027376038	-0.122433479122223	-0.00869506581948265	0.0203699102430701	-0.00338571306239773	-0.00525978683319291	0.662353515625	-0.39794921875	0.230712890625	0	0	0	0.062467020402213	-0.318731088975107	0.336503201888446	0.883897029863567	0.570352176079132	0.5550479985019	0.605491630496107	-0.63468872425321	0.765726932961786	-0.104079236367144	-0.521410220985004	-0.324936891558915	0.789016728565623	-7.51450478982152	-37.2642275367863	44.2208898157359
5678	1653392917632	5.84973474160273	-1.1272607389603	7.78752993554804	-0.0101243198794778	-0.144663699051856	-0.00887660157884085	0.0213574356102428	-0.00311997033488247	-0.00393930361526019	0.658447265625	-0.387451171875	0.229248046875	0	0	0	0.0624434354828144	-0.318763536546917	0.336761322696187	0.88378868326604	0.569963238608034	0.555442311263904	0.605496280329824	-0.635061072578468	0.765385257802036	-0.104320857141779	-0.521382144622278	-0.325068063637637	0.788981250266412	-7.53208451951763	-37.2645622931846	44.2607627664049
5679	1653392917633	5.88964928685212	-1.15973453885534	7.77214066565086	0.041572632625963	-0.143589543421096	0.0065171330175442	0.0202710075696805	-0.00496906608629782	-0.00434750810138863	0.660400390625	-0.38720703125	0.22998046875	0	0	0	0.0625240529526227	-0.318773170816947	0.336794300030581	0.883766942036529	0.569906530068441	0.555433356042652	0.60555787005087	-0.635157318490789	0.765320684538577	-0.104208591704306	-0.521326891453855	-0.325235356030984	0.788948816739374	-7.52437751243443	-37.2689964745529	44.2631505551361
5680	1653392917634	5.86717775583403	-1.16419721133741	7.76603542612358	0.0338607532254675	-0.1570323718194	-0.0114307962637419	0.0155657387903747	-0.0021731327510382	-0.00696684069151094	0.663330078125	-0.3896484375	0.2314453125	0	0	0	0.0625084909976323	-0.318799485665991	0.336886326478619	0.883723474580165	0.569748981941682	0.555573360388862	0.605577690146067	-0.635284059508072	0.76520058316988	-0.104317933508197	-0.52134466652241	-0.325278816928959	0.788919152984597	-7.53246189407695	-37.2704234873062	44.2782864966369
5681	1653392917635	5.89029806060897	-1.15618382365256	7.77217802363316	0.0390618123794286	-0.141217215486297	0.00656184700778795	0.0227785563470473	-0.00400003156437754	-0.00440091622879061	0.65966796875	-0.38720703125	0.230224609375	0	0	0	0.0625983443845178	-0.3188008754187	0.33692360642285	0.883702400442371	0.569696970534583	0.555567585544056	0.605631917633531	-0.635393213502238	0.765127861430676	-0.104186466961027	-0.521268477849005	-0.325459695746293	0.788894898225176	-7.52330656519565	-37.2743279113418	44.2806033208665
5682	1653392917635	5.86185088646056	-1.1280573705394	7.75573666703829	0.0128759242130601	-0.129769721895705	-0.0265617633579147	0.0202746599553948	-0.0049730619775044	-0.00434427389956238	0.662109375	-0.388671875	0.232177734375	0	0	0	0.0626191507931413	-0.318820724326922	0.337083388030455	0.883632829407957	0.569456270507133	0.555787329798331	0.605656668431669	-0.635644461848755	0.764907262935711	-0.104273665079951	-0.521225166411901	-0.325603014641819	0.788864375387205	-7.52981891890171	-37.2761100566252	44.3040315058273
5683	1653392917636	5.89352603610138	-1.14023387558024	7.75100713280113	0.0413062342143153	-0.121300768716475	-0.00985748617130611	0.020707095182292	-0.00611889615655778	-0.00612668124422088	0.6611328125	-0.38916015625	0.226318359375	0	0	0	0.0627059067850187	-0.318834609397664	0.33710931614981	0.883611775651227	0.569403601630493	0.555761896269954	0.605729521407573	-0.635733149456865	0.764850556438552	-0.104148879001615	-0.521174539988167	-0.325779589554138	0.788824922209015	-7.52128292286568	-37.281355974269	44.3053698771505
5684	1653392917636	5.85811975319391	-1.14846249527667	7.7977162334889	0.000714800205075389	-0.162258092940361	0.0064054217257592	0.0193915741626388	-0.00366417764834346	-0.00657265702060093	0.668212890625	-0.391845703125	0.23193359375	0	0	0	0.0627247422273144	-0.318877320566017	0.337275523566592	0.883531596686862	0.569124951263038	0.555984168251097	0.605787416924436	-0.635990159189658	0.764621655830796	-0.104260447191089	-0.521165335823248	-0.325937613798573	0.78876572228231	-7.52980623069245	-37.2855251122744	44.3308407510058
5685	1653392917637	5.86920683820287	-1.15465828010197	7.76592632493719	0.02786373722221	-0.151784039344089	-0.0113292315496754	0.0217974113357284	-0.00427427599925966	-0.0057161448790151	0.65771484375	-0.383544921875	0.232421875	0	0	0	0.0628122160990482	-0.318881784196105	0.337305805319395	0.883512210959458	0.569078402811485	0.555968252576447	0.605845750649966	-0.63608693873235	0.764558838413121	-0.104130634198039	-0.521098050109225	-0.326112073881773	0.78873806643327	-7.52079904562289	-37.289726039931	44.3323634392597
5686	1653392917637	5.8696041028039	-1.15269784879941	7.76591730828381	0.026767950686339	-0.149940348961634	-0.0112977996794843	0.0184072526629969	-0.00393554850335625	-0.00788995236237206	0.65869140625	-0.388671875	0.22998046875	0	0	0	0.0628524077968157	-0.318876944295947	0.337449221534158	0.883456332886132	0.56889103456494	0.556158936103912	0.605846703864432	-0.636327671063478	0.764355195440267	-0.10415483782524	-0.521008719534101	-0.326264268646194	0.788734138461244	-7.52256416058947	-37.2897946880174	44.3516160306047
5687	1653392917638	5.88442240747244	-1.12425631936158	7.78272432288874	0.008672360142091	-0.126755683766671	0.0079559296131162	0.0227868794506327	-0.00400885688758788	-0.00439470808076008	0.661376953125	-0.39208984375	0.235107421875	0	0	0	0.0629416021239334	-0.318878979493716	0.337487088708436	0.883434783169772	0.568837322784301	0.556154158365511	0.605901520331761	-0.636437173777429	0.764281639354353	-0.104025475629872	-0.520933608093957	-0.326444678128733	0.788709102318237	-7.51356357722205	-37.2937425362333	44.3540742145288
5688	1653392917639	5.8931389433138	-1.14246943927084	7.77205252832644	0.0305959534496487	-0.131124815568029	0.00673183294787982	0.0209155053126392	-0.00296827155777318	-0.00794363440115918	0.657470703125	-0.38427734375	0.225341796875	0	0	0	0.0629351200153366	-0.318856395634664	0.337650109921562	0.883381102866414	0.568646004465655	0.556412921917101	0.605843529245729	-0.636681984024802	0.764063147877224	-0.104132402614119	-0.520843328481309	-0.326515185526831	0.788739539263052	-7.52091142355462	-37.2895660602794	44.3770314036249
5689	1653392917639	5.86815319175607	-1.15878861442218	7.78722318551119	0.0194340198726044	-0.163586955866648	0.00524109583946952	0.0201543729465928	0.000900969772966547	-0.0052894290693662	0.658935546875	-0.3916015625	0.2373046875	0	0	0	0.0630053738525697	-0.318840812912013	0.337681978242538	0.883369537881803	0.568622835183626	0.55641857690829	0.605860081684781	-0.636773315376204	0.764002408871809	-0.104019536928746	-0.520756964554995	-0.326647648865605	0.788741717774609	-7.51283240756418	-37.2907581312906	44.3784894872239
5690	1653392917640	5.88136276556243	-1.15293533693388	7.73451080135436	0.0506283198671804	-0.13363614183797	-0.0289292388079492	0.0227912678136016	-0.0040133717199874	-0.0043906669006583	0.66162109375	-0.38720703125	0.2294921875	0	0	0	0.0630018041710464	-0.318831148802354	0.337782353600395	0.883334904110973	0.568499560299098	0.556576010655016	0.605831159897772	-0.636923761056918	0.763867708534742	-0.104087686394654	-0.520707569121903	-0.326694456979653	0.788754942449129	-7.51757363333718	-37.2886752588099	44.3928021250467
5691	1653392917641	5.87101891454997	-1.14278377248351	7.76631305351948	0.0220614813614711	-0.143300757405027	-0.011186754043905	0.019400175680278	-0.00367539448306292	-0.006565020843544	0.657958984375	-0.380859375	0.22705078125	0	0	0	0.0630781499962447	-0.318836625440214	0.33780636347183	0.883318297143722	0.568460134151668	0.556557834524873	0.605884851031326	-0.63700433246013	0.763816015581978	-0.10397391387986	-0.520652049172278	-0.326846250046496	0.788728706541895	-7.50969735665654	-37.2925420015624	44.3938531539819
5692	1653392917642	5.87125059591371	-1.14093042255703	7.76641039804525	0.0203697348921379	-0.142418956241925	-0.0111702397071607	0.0200570962664435	-0.000682345149805481	-0.00437517205207074	0.650390625	-0.38525390625	0.232177734375	0	0	0	0.0631096693344314	-0.318865234948316	0.337848704630462	0.883289524650537	0.568366429441747	0.556589484354014	0.605943683678749	-0.63708340251335	0.763750844832034	-0.103968193503428	-0.520657603541571	-0.326944632812478	0.788684263155708	-7.50970723637537	-37.2967792554822	44.4002035175035
5693	1653392917642	5.86914063977847	-1.15115360015168	7.78761140672905	0.0150445289790434	-0.1594192255403	0.0053173614246127	0.0203895346266149	-0.00340934393567855	-0.00524362310711644	0.662353515625	-0.389404296875	0.218017578125	0	0	0	0.063187828201823	-0.318868671872542	0.33787999425875	0.883270727435866	0.568319759155896	0.556581778915454	0.605994533582847	-0.637176254344357	0.763688815693687	-0.103854772081346	-0.520594921462628	-0.327102608005013	0.788660136930756	-7.50183493992856	-37.3004417673585	44.4021589468241
5694	1653392917643	5.87184351081045	-1.1371168615605	7.76652144582857	0.0164999588983729	-0.140180150821748	-0.011130686631116	0.0208227037263896	-0.004557895337405	-0.00702424404540993	0.656982421875	-0.3857421875	0.229248046875	0	0	0	0.0631694051723099	-0.318961488879773	0.337942622315076	0.883214571259207	0.568116705268817	0.556654481505624	0.606118138166322	-0.637248911607263	0.763608820545973	-0.103997085727181	-0.520727600430267	-0.327165642151025	0.78854638972355	-7.51306870994717	-37.3093452468267	44.4161351922909
5695	1653392917644	5.86765739254501	-1.15942220179154	7.8086367815325	0.00653807284502363	-0.174582987882121	0.0218410606580548	0.0187720425275187	-0.00569155590180504	-0.00295386487068325	0.65625	-0.380859375	0.231689453125	0	0	0	0.0632401318145955	-0.318979253038339	0.337980999357445	0.88318840907958	0.568042160408893	0.556657222226725	0.606185483941034	-0.637346382259788	0.763539059602831	-0.103911950617747	-0.52068963214026	-0.327323756247009	0.788505843718352	-7.50737007967408	-37.3141967382024	44.4200346874696
5696	1653392917645	5.89558278471418	-1.12705837611931	7.77244920763007	0.0209209156222122	-0.122832572772226	0.0068644419313717	0.0237639375733944	-0.00473900317154924	-0.00885957868251152	0.66357421875	-0.390625	0.226806640625	0	0	0	0.0632635947685783	-0.318966380847922	0.337931133967987	0.883210458588917	0.568125993167777	0.556570703881152	0.606186363644355	-0.637286543332204	0.763600532544135	-0.103827204460128	-0.520671410368208	-0.327327478650285	0.788516330931471	-7.50121851125411	-37.3142601128181	44.4113559550439
5697	1653392917645	5.87090606683265	-1.14324871595458	7.78744516507883	0.00973541452666954	-0.1552881644799	0.00539026980698587	0.0202942599906542	-0.00499377201499074	-0.00432677326632418	0.655029296875	-0.389404296875	0.228759765625	0	0	0	0.0633420288182367	-0.318977969937817	0.337966108202739	0.883187268808735	0.568063928801287	0.556565304578621	0.606249482089802	-0.637384151635356	0.763533394182969	-0.103721739339023	-0.520619646228341	-0.327493233070154	0.788481684159077	-7.49401113567545	-37.3188073616514	44.4142072224521
5698	1653392917646	5.86284838533072	-1.12105862078247	7.79815029332143	-0.0162889853600263	-0.145576472132103	0.00665342314422901	0.0204959493927347	-0.00183854756863677	-0.00615226239780886	0.656494140625	-0.387451171875	0.2265625	0	0	0	0.063329505389654	-0.319027366579551	0.338129928225991	0.883107617880349	0.567779382022405	0.556802540236923	0.6062981977014	-0.637617921561911	0.763315050769976	-0.103891863834945	-0.520643793253435	-0.327598938419738	0.788421826240837	-7.50672615178903	-37.32231717372	44.4407639656905
5699	1653392917646	5.87990525396606	-1.15982164177352	7.77685824501561	0.0294698438341115	-0.159806036193448	0.00421589258803401	0.0188772392321452	-0.00411810840138547	-0.00386268751597422	0.658203125	-0.382080078125	0.222900390625	0	0	0	0.0633989436846127	-0.31903817094464	0.338165391130598	0.883085153120277	0.567717627443577	0.556804306347163	0.606354401256468	-0.637711038479007	0.76324948436233	-0.103802003943389	-0.520597086902973	-0.327748667508949	0.788390438839948	-7.50060246332197	-37.326366673069	44.4439702856011
5700	1653392917647	5.87188432580614	-1.1377290190495	7.78751597293355	0.00342036838098994	-0.151444320102355	0.00545454446585758	0.0194107003325565	-0.00368974664253359	-0.00655605344308313	0.656005859375	-0.39111328125	0.225341796875	0	0	0	0.0634021494458711	-0.319128813741389	0.338179703795993	0.883046689380642	0.567582576360937	0.556790030222925	0.606493925159878	-0.637723841188186	0.763229310772196	-0.103871659072073	-0.520728644681342	-0.327819891743245	0.788273935371315	-7.50667493332662	-37.3364203962697	44.4500503212827
5701	1653392917648	5.89131187840416	-1.16448806883404	7.74508340553865	0.0537875443963227	-0.148274956721851	-0.0134513579726665	0.0198668665748309	-0.00385040653613348	-0.00254183881696983	0.65673828125	-0.385498046875	0.226806640625	0	0	0	0.0634731696705789	-0.319137937913495	0.33822258694447	0.883021865525924	0.567512916529826	0.556802486410415	0.606547673888038	-0.637829272336423	0.763153276825121	-0.103782924519735	-0.520675435297844	-0.327975711293167	0.788244266632585	-7.50061432934066	-37.3402937464143	44.4542066406639
5702	1653392917648	5.88092408364682	-1.15450570149611	7.77687885471661	0.0230573746231527	-0.156140840155241	0.00429202813583096	0.0179930424351201	-0.0028141171398876	-0.0060928159058481	0.6533203125	-0.386962890625	0.227783203125	0	0	0	0.0634286054823407	-0.319207155787574	0.338297990054554	0.882971162397517	0.567322523238113	0.556921009527246	0.606616966275996	-0.637908468533607	0.763062563863228	-0.103963019403942	-0.52078588728944	-0.327985537451926	0.788167207401147	-7.5142077947464	-37.345287530177	44.4699139332928
5703	1653392917648	5.88125070520572	-1.15261128171343	7.77691286305172	0.0222713524432257	-0.155709496652282	0.00430069393412324	0.0228090171964194	-0.00403261915696806	-0.00437645096810404	0.663330078125	-0.385986328125	0.228271484375	0	0	0	0.0635153382153294	-0.319212111832488	0.338337796539854	0.882947883458244	0.567262326183999	0.556919552206639	0.60667459618998	-0.63801901318852	0.762986674487898	-0.103841578203756	-0.520716037876947	-0.328164511981194	0.788138858941671	-7.50579731961758	-37.3494410723923	44.4728783753919
5704	1653392917649	5.87917722685872	-1.16271720045022	7.79813912173712	0.0157159999931395	-0.171407457408392	0.0208258518692421	0.0200702726605939	-0.000698478133584161	-0.00436726504316243	0.660400390625	-0.384765625	0.22900390625	0	0	0	0.0635104348051772	-0.319236299173393	0.338406677328157	0.882913093515239	0.567138212059585	0.557017700359838	0.606700527367248	-0.638117045024229	0.762894690821148	-0.103915001642937	-0.520731106494901	-0.328211779500285	0.788109219921866	-7.5113231312786	-37.3513100767341	44.4841934865514
5705	1653392917651	5.87325633039178	-1.12849362804355	7.78782512052664	-0.00370755981333649	-0.146256073614846	0.00553309750503317	0.0205039667712698	-0.00184957708405014	-0.0061462300121305	0.662841796875	-0.3837890625	0.223388671875	0	0	0	0.0635858885693866	-0.319235276951825	0.338435806070587	0.882896867076605	0.567100086237687	0.557010108277182	0.606743134667587	-0.638205543267886	0.762836079888386	-0.103801732946329	-0.520664168856807	-0.328360860179103	0.788091345448666	-7.5033972677433	-37.3543811231694	44.4857286854273
5706	1653392917651	5.88204603095643	-1.146867647806	7.77716049541776	0.0173006858684519	-0.153098918125034	0.00435177199442549	0.0226136215300316	-0.00719258641326834	-0.00254350955745339	0.655517578125	-0.38330078125	0.22900390625	0	0	0	0.0636584194591744	-0.319318863921472	0.338520350677977	0.882828998704007	0.56687887064152	0.557056496098455	0.60690724676404	-0.638365832821415	0.762703155617639	-0.103792870165134	-0.520708564848338	-0.328590865006025	0.787966137551721	-7.50394251770422	-37.366211159264	44.4992894645025
5707	1653392917652	5.8680991867749	-1.17153121000589	7.76039678136712	0.0339650637179841	-0.175484180848898	-0.014785391897485	0.0194188061304179	-0.00370141603354624	-0.00654889560755429	0.658447265625	-0.3876953125	0.224853515625	0	0	0	0.0637328918395148	-0.319328339598817	0.338545016953906	0.882810739356129	0.566833366049484	0.557038916386935	0.606965881053854	-0.638445790502708	0.762650779986905	-0.103685873554396	-0.520660069260534	-0.328742199018981	0.78793506005367	-7.49658727738057	-37.3704382698775	44.5006848815789
5708	1653392917653	5.88275547727279	-1.14310904869375	7.77717724662935	0.0144619071964008	-0.151095204626522	0.00438740817567051	0.020074765233729	-0.000704078298826041	-0.0043644282030809	0.65283203125	-0.390625	0.23681640625	0	0	0	0.0637164006653448	-0.319361770006755	0.338570234029168	0.882790165766384	0.566756512975175	0.557075781054457	0.607003813136942	-0.638470111034233	0.762620833831376	-0.103756354611518	-0.520713906397894	-0.328749202233107	0.787896560288812	-7.50198749190583	-37.3731730271587	44.5064642952542
5709	1653392917653	5.8686246901833	-1.16785657195163	7.76055326047084	0.031122237556766	-0.173482883531659	-0.0147403099655214	0.0193214696860771	-0.00528178087000543	-0.00563170702439539	0.662841796875	-0.38525390625	0.227783203125	0	0	0	0.0637914213257399	-0.319379049526274	0.33859838315697	0.882767700027828	0.566696315294359	0.557060144843349	0.607074362215127	-0.638554718887129	0.762563578977455	-0.103656446997153	-0.520675673734404	-0.328908472138071	0.787855354577871	-7.49523347686393	-37.3782596095036	44.5087028324812
5710	1653392917654	5.87273579798261	-1.13100914445935	7.80898611840756	-0.0149469515786085	-0.158085168609267	0.022110903863302	0.0219304823376274	-0.00273744366797267	-0.0066023525989367	0.66455078125	-0.397216796875	0.235595703125	0	0	0	0.0637811885008966	-0.319335766318718	0.338674430944798	0.882754925314647	0.566648596347709	0.557197814576006	0.606992556534999	-0.638668273402616	0.762463179635261	-0.103695401293449	-0.520588325652902	-0.328908034459802	0.7879132566861	-7.4974734123571	-37.3723614590551	44.5181929311847
5711	1653392917655	5.88151029218367	-1.14935589064083	7.79836057483392	0.00750000276203924	-0.164968457979328	0.020945679469591	0.0193240140505203	-0.00528474702544544	-0.00562937225253997	0.650634765625	-0.386962890625	0.233154296875	0	0	0	0.0638559493389013	-0.319352795736124	0.338703014504652	0.882732392945343	0.566588119641966	0.55718309309146	0.607062520218152	-0.63875339687451	0.762405371398978	-0.103596079285177	-0.520549710077583	-0.329066939140077	0.787872419179098	-7.49075756612123	-37.3774057784689	44.5204933702949
5712	1653392917655	5.85910191789646	-1.15375517092827	7.79229674649873	0.00102402861326263	-0.1766161503866	0.00306122097602035	0.0204126483832144	-0.0034377484172572	-0.00522503430377735	0.65576171875	-0.38916015625	0.2275390625	0	0	0	0.063806504897002	-0.319291186304682	0.338867667990778	0.882695061655762	0.566443683877281	0.55748792489549	0.606917429796884	-0.638979343465567	0.762194867046641	-0.103751545877958	-0.520429583728527	-0.329038292974349	0.787963736561956	-7.50101150689875	-37.3669452656095	44.5434630288647
5713	1653392917656	5.87017559155664	-1.16031630984053	7.76051133371106	0.0281148368381804	-0.16609939715176	-0.0146032694217109	0.0197819762133228	-0.00544149652995601	-0.00161413514079362	0.66650390625	-0.38427734375	0.22900390625	0	0	0	0.0638766023175572	-0.319308980123947	0.338915518536891	0.882665183511528	0.56635609301415	0.557505111248935	0.606983382669625	-0.639090602208144	0.76211210194247	-0.103674231330948	-0.520388295482306	-0.329200842957826	0.787923109777139	-7.495867499617	-37.3717000566651	44.5487757619917
5714	1653392917657	5.8645524248959	-1.12627527221563	7.7498779632534	0.00758028858836216	-0.140083509295177	-0.0299270956575341	0.0183393473329932	-0.00556106319302872	-0.00694508731127169	0.654541015625	-0.38818359375	0.2216796875	0	0	0	0.0639121385949681	-0.319359442913369	0.339015692542666	0.882605883150626	0.566155812863758	0.5576125994829	0.607071482165405	-0.639256379391264	0.761967197500068	-0.103717266361318	-0.520402610454781	-0.329354184475946	0.78784956952456	-7.49963562579295	-37.3780519514175	44.5644292585944
