// Start Time : 24/05/2022 11:48:00																																
// Update Rate : 100Hz																																
// Filter Profile : 46.1 human																																
// Firmware Version : 4.4.0																																
PacketCounter	Time_Of_Arrival	Acc_X	Acc_Y	Acc_Z	FreeAcc_X	FreeAcc_Y	FreeAcc_Z	Gyr_X	Gyr_Y	Gyr_Z	Mag_X	Mag_Y	Mag_Z	VelInc_X	VelInc_Y	VelInc_Z	OriInc_q0	OriInc_q1	OriInc_q2	OriInc_q3	Mat[1][1]	Mat[2][1]	Mat[3][1]	Mat[1][2]	Mat[2][2]	Mat[3][2]	Mat[1][3]	Mat[2][3]	Mat[3][3]	Euler_X	Euler_Y	Euler_Z
5491	1653392917945	9.74540091688679	-0.241977031170574	0.798523183317686	-1.73472347597681E-16	0	-0.0316326568452414	0.000810080622565416	0.00753219127406047	0.000463704451386936	0.589111328125	0.341552734375	0.267578125	0	0	0	-0.598828028192108	-0.317181199228713	-0.641117393675198	0.360235432785988	-0.0232708512340875	-0.0820324193269431	0.996357942539833	0.841780387781896	-0.539253039642655	-0.0247373802557554	0.539318316236897	0.8381389153449	0.0816021590147749	-16.8644778166457	-85.1084902282608	-105.837510598076
5492	1653392917946	9.74682870078357	-0.217013190654857	0.822979414331184	1.7347234759768E-16	2.77555756156289E-15	-0.0287689490470626	0.000204467717837468	0.00807181589579323	0.00176625827316462	0.586669921875	0.34521484375	0.265869140625	0	0	0	-0.596199082054795	-0.32017027888187	-0.64071022014133	0.362667976094077	-0.026037187345692	-0.0829597048616975	0.996212704317901	0.84650061034409	-0.531925863273063	-0.0221718891456907	0.531750676127645	0.842717368606146	0.0840752941554522	-14.773393941224	-85.0118512187951	-107.424643758736
5493	1653392917947	9.74995158493471	-0.2340796892623	0.741016676742153	-0.0412640247710302	-0.0561020903851378	-0.0320634196199698	0.00153047117794864	0.0085091321919232	-0.00149389996244763	0.59326171875	0.345947265625	0.2607421875	0	0	0	-0.597511105573545	-0.31864902431127	-0.6409484110664	0.361425528115009	-0.0247041326861348	-0.0825175743159826	0.996283371213849	0.844102897540615	-0.535668773864526	-0.023436362132668	0.535611803633718	0.840386705413336	0.0828865560435122	-15.7883709780294	-85.0586362556646	-106.666661980409
5494	1653392917948	9.73044541652906	-0.235952162531664	0.770217741622459	-0.0272003387010132	-0.0295277167335795	-0.0490371727305572	-0.00231933247812473	0.00675533061962277	-0.00049365315552548	0.602294921875	0.351318359375	0.267822265625	0	0	0	-0.597492860917925	-0.318630858316306	-0.640973179940481	0.361427779615396	-0.0247444825487959	-0.0825717002135279	0.996277885385016	0.844090352662102	-0.535688672501798	-0.0234333671508975	0.535629710832175	0.840368705079567	0.0829533145614546	-15.774381987053	-85.0549885538664	-106.682037036541
5495	1653392917950	9.76460381004061	-0.239951179363301	0.773144930793832	-0.0302438078351912	-0.0282292755510602	-0.0146719723373927	0.0030957028700964	0.00889806175242532	-0.00101513350181612	0.58740234375	0.345947265625	0.26708984375	0	0	0	-0.597460797526251	-0.318632759275992	-0.640990536296004	0.361448326202273	-0.0247914058097425	-0.0826287479613273	0.996271989071418	0.844111077861424	-0.535656544403486	-0.0234212439750895	0.535594879017342	0.840383576974264	0.0830275202709272	-15.7532354362256	-85.0510708981727	-106.701013640915
5496	1653392917950	9.73032613268567	-0.235963071849604	0.771719884027766	-0.0271158472975557	-0.0294054063608135	-0.049036568582391	-0.0036453675044153	0.00631834675423403	0.00276605765902249	0.590087890625	0.339599609375	0.26025390625	0	0	0	-0.597451541919165	-0.318601393978781	-0.641010219351855	0.361456367352515	-0.0248018991174718	-0.0826966624650847	0.996266092877451	0.844092238825957	-0.535684892510203	-0.0234518291422301	0.535624082873381	0.840358826902811	0.0830896136263795	-15.7615829235164	-85.0471564129967	-106.694731355475
5497	1653392917952	9.76448535967933	-0.240207450465417	0.774560030615007	-0.0302285265729132	-0.0282134697863166	-0.0146718796546246	0.000810855308125788	0.00753291462461825	0.000463718207677514	0.59033203125	0.345703125	0.258544921875	0	0	0	-0.59742746315093	-0.318589227738483	-0.641029869432062	0.361472041433297	-0.0248367790701784	-0.0827608428166238	0.996259894456111	0.844096659276686	-0.535677734462085	-0.023456227307643	0.535615500338964	0.840357071546287	0.0831626604840834	-15.7512325679777	-85.0430446036536	-106.704659449106
5498	1653392917953	9.73020290157143	-0.236186144575555	0.773204001174427	-0.0271006196407648	-0.0293896561103596	-0.0490364788809678	-0.00124531155858945	0.00920030890102515	0.000632245517057625	0.59814453125	0.347412109375	0.264892578125	0	0	0	-0.597401232006367	-0.318566719113229	-0.641058192333805	0.361485003163925	-0.024880720969705	-0.0828415444191516	0.996252090709113	0.84409014631703	-0.535687675922021	-0.0234635622990326	0.535623724842846	0.840342782668784	0.0832540269414158	-15.7394796780499	-85.0378727121513	-106.717172699158
5499	1653392917954	9.7465197002341	-0.250728012600538	0.763095065861453	-0.0455336350795013	-0.0319432031748383	-0.0332839451684261	-0.00339194181972648	0.00431138709411296	-0.00162046986878937	0.591796875	0.340576171875	0.255615234375	0	0	0	-0.597392941463297	-0.318553463298583	-0.64107759473627	0.361475977123607	-0.0249135829047256	-0.0828651190321673	0.99624930887536	0.844071480845212	-0.535717617966023	-0.0234514183916537	0.535651611227503	0.840321370577111	0.0832907290206149	-15.7251476563747	-85.0360303662886	-106.733522554057
5500	1653392917955	9.73011509323603	-0.236009522945895	0.774362041128894	-0.0270623022037304	-0.029350705292349	-0.0490362554312913	-0.00171244023043687	0.00621645310195406	-0.00179648753880999	0.5908203125	0.34521484375	0.258056640625	0	0	0	-0.597373248643653	-0.318542104650944	-0.641102137137031	0.361475004845158	-0.0249620453542426	-0.0829077324854578	0.996244550392047	0.844061860025941	-0.535733496873479	-0.0234349477759689	0.535664515103699	0.84030704401536	0.0833522587389514	-15.7036212936007	-85.0328805101368	-106.756114862302
5501	1653392917956	9.76428869193927	-0.240021620643295	0.777092747089682	-0.0301100393990233	-0.0281003294470311	-0.0146711896828631	-0.00243307657609713	0.00523966415822618	0.000160840805208019	0.592041015625	0.35205078125	0.2607421875	0	0	0	-0.597365091587696	-0.318525299646419	-0.641117729003169	0.361475640113415	-0.0249806179140425	-0.0829450933663962	0.996240974972959	0.84404867255152	-0.535753990179513	-0.0234414242474102	0.535684428644934	0.840290291204873	0.0833931616751667	-15.7004225869379	-85.0305150882656	-106.760753344637
5502	1653392917956	9.74478039509929	-0.242025889365663	0.80604570890042	-0.0160469585424145	-0.00152627083655071	-0.0316459393881452	-0.00243299912799364	0.00523973452151916	0.000160823042649926	0.590576171875	0.33935546875	0.263671875	0	0	0	-0.597352948423112	-0.318507549806122	-0.641136963056402	0.361477233487158	-0.0250073293613711	-0.0829899834405556	0.996236566346944	0.844035679327389	-0.535774300773943	-0.0234450560363009	0.535703654552183	0.840272908809233	0.0834447914534304	-15.6934981641924	-85.0275999795262	-106.769103177706
5503	1653392917958	9.72999781430152	-0.236030099693287	0.775828006232548	-0.0268703296919574	-0.0291827683404508	-0.0490352218264025	-0.00411238885124553	0.00333475254807009	0.000336612050261871	0.593505859375	0.35009765625	0.26611328125	0	0	0	-0.597355655104433	-0.318488345863828	-0.641147896622743	0.361470288571425	-0.0250109035896893	-0.0830102014451422	0.996234792183883	0.844013459391599	-0.535808808058026	-0.0234563759618441	0.535738495039747	0.840248908159644	0.0834627897273535	-15.6974829851446	-85.0264273334587	-106.767509814802
5504	1653392917958	9.51402526267495	-0.320356704570853	0.727536862773298	-0.118368875000188	-0.00736502176435436	-0.266245645250185	0.00743124514957016	0.00747374424375329	0.010513327306354	0.593017578125	0.354736328125	0.26953125	0	0	0	-0.597335005625757	-0.31846725898053	-0.641139382097726	0.361538087530001	-0.0249622046384517	-0.0831293282180489	0.996226080329964	0.844055895957065	-0.535737632445156	-0.0235549078150509	0.535673905318996	0.840282514379584	0.0835389920230098	-15.7464900181821	-85.020673167187	-106.714043446661
5505	1653392917959	9.94117115800977	-0.196069852207974	0.820147480151553	0.0266487386753609	-0.0332531136229559	0.16409331679629	0.025358937911967	0.0116036248402573	0.0270003050222187	0.591064453125	0.343505859375	0.26904296875	0	0	0	-0.597305081453708	-0.318446593813735	-0.641075519027833	0.361718931576996	-0.0247721084167518	-0.0833587662926933	0.996211653579071	0.84419784091897	-0.535502362854453	-0.0238164809543193	0.53545900686452	0.840409742601463	0.083636813116018	-15.894872476335	-85.0111588789318	-106.550612262089
5506	1653392917960	9.74920382356521	-0.237471831936647	0.749724496745841	-0.0406943933068187	-0.0556320589474378	-0.0320583481321304	-0.000260794182156238	0.0050890084637926	-0.000663233736692667	0.585693359375	0.33642578125	0.263916015625	0	0	0	-0.597288184823933	-0.31843853460385	-0.641092331929314	0.361724129538684	-0.024804956758426	-0.0833979828190581	0.996207553967508	0.844196280065166	-0.535505107577668	-0.0238100920276834	0.535459947002901	0.840404102929027	0.0836874478981677	-15.8816943393139	-85.0084585294047	-106.563990532411
5507	1653392917961	9.76078862813938	-0.260069346405714	0.798591617446104	-0.0339189669708969	-0.00368684937166116	-0.015891193739737	0.000698099951101286	0.00601751808687269	0.00111817137158826	0.583251953125	0.34130859375	0.262451171875	0	0	0	-0.59728143485922	-0.318428929664401	-0.641096177591216	0.361736914626124	-0.0248025843385671	-0.0834329304996181	0.996204686757884	0.844199682542174	-0.535498842699113	-0.0238303475342581	0.535454692579887	0.840404626103496	0.0837158086505907	-15.88941001723	-85.0065708092177	-106.555935384406
5508	1653392917962	9.74748015150261	-0.228942917231609	0.792265687963934	-0.0110405211276999	-0.0250767903677951	-0.0304218620727781	-0.000145427345415755	0.00660553605879611	-0.00131843991549264	0.5810546875	0.34765625	0.262451171875	0	0	0	-0.597258424788396	-0.318420453245385	-0.641118520002867	0.361742770879558	-0.024849083471326	-0.0834813831245865	0.996199468842581	0.844198576427569	-0.535501165342766	-0.0238173355815832	0.53545428059574	0.840398334474876	0.0837815779485752	-15.8693329532369	-85.0031372511247	-106.576172644237
5509	1653392917963	9.74906935419229	-0.237451205711146	0.751477572533495	-0.040156669980698	-0.0551810498382744	-0.0320535706683618	-0.00086672661751757	0.00562913067966732	0.000638820418540075	0.59033203125	0.35400390625	0.263427734375	0	0	0	-0.597256910925198	-0.31840803640686	-0.641122790260754	0.361748631665529	-0.0248442196804149	-0.0835077837365887	0.996197377432743	0.844193384689067	-0.53550849967929	-0.0238364430747142	0.535462691506784	0.840391038045171	0.0838010094072351	-15.8779253959347	-85.0017616958669	-106.568153886684
5510	1653392917963	9.74426845051804	-0.245485213443014	0.811172335498127	-0.0151579623938445	-0.000856310112624241	-0.0316444396864934	-0.000751383658565508	0.00714565341754455	-1.63430440826745E-05	0.586181640625	0.345703125	0.26416015625	0	0	0	-0.597235337511875	-0.31839275232775	-0.64114535430881	0.361757711100217	-0.024882620173219	-0.0835677459189889	0.996191390775556	0.844189357510182	-0.535514827449385	-0.0238369093718576	0.535467257523615	0.840381045373988	0.0838720137844753	-15.8654550923684	-84.9978262570497	-106.581103952194
5511	1653392917965	9.76369378670006	-0.243436354473952	0.783479157719216	-0.0288675680765724	-0.0271270025014529	-0.0146647071361947	-2.97011977543483E-05	0.00812230415295743	-0.00197360773805667	0.594970703125	0.34765625	0.25927734375	0	0	0	-0.597223295945936	-0.318387267482737	-0.641157579310222	0.361760751294838	-0.024906987204135	-0.0835947086327702	0.996188519647268	0.844187881725813	-0.53551741345494	-0.0238310770595065	0.535468451298205	0.840376715869219	0.0839077653686984	-15.8553499847227	-84.995939963565	-106.591390010682
5512	1653392917965	9.72943671885194	-0.239369061463247	0.781818622697854	-0.0257444378148151	-0.0283069660940959	-0.049029609779561	0.00046762866295499	0.0029849355532722	0.00242850022567848	0.58642578125	0.343505859375	0.269775390625	0	0	0	-0.597216747176049	-0.3183761172613	-0.641161354686191	0.361774684171028	-0.0249024695708248	-0.0836327949298617	0.996185435860962	0.844190991447198	-0.535511451701144	-0.0238548748965577	0.535463758781742	0.840376725468497	0.083937609700156	-15.8650273745317	-84.9939147462197	-106.581406518725
5513	1653392917966	9.76360559539803	-0.243477330559959	0.784564705249771	-0.0284528173233796	-0.0267619921737301	-0.0146624901731762	-2.93658843105732E-05	0.00812248818089492	-0.00197367454446157	0.5888671875	0.34619140625	0.263427734375	0	0	0	-0.597207963795506	-0.318371442437578	-0.641170689744076	0.361776753305885	-0.0249204574933572	-0.0836533791634451	0.996183257715597	0.844189222638581	-0.535514410815338	-0.0238510416956764	0.535465710554084	0.840372791065749	0.0839645452388831	-15.8577736275146	-84.9924847834646	-106.588867042604
5514	1653392917967	9.74570639058392	-0.25389263422898	0.772379693978668	-0.0437995399315954	-0.0305335242316719	-0.0332715219055899	0.000813874311695975	0.00753462365689086	0.000463055150967875	0.5947265625	0.340087890625	0.26513671875	0	0	0	-0.597183077816418	-0.318359034936836	-0.641191051595121	0.361792664102161	-0.0249568795431413	-0.083719180841641	0.996176818101422	0.844193694178619	-0.535507186151895	-0.0238549845679445	0.535456964538259	0.840370842151776	0.0840397928875922	-15.8467757675004	-84.9882595263868	-106.599439213628
5515	1653392917968	9.72928457853552	-0.239332307426856	0.783720878439288	-0.0248294628865116	-0.0275130451312208	-0.0490249706110717	-0.00399605813230969	0.00485244540106176	-0.000320743203316642	0.5869140625	0.333251953125	0.2666015625	0	0	0	-0.597198746541739	-0.318343118180062	-0.641190190141645	0.361782332767219	-0.024934401652969	-0.083714343179158	0.996177787526047	0.844170787768446	-0.535542405609808	-0.0238749423467423	0.535494123863754	0.840348880251376	0.0840226324727401	-15.8624430874819	-84.9888953727266	-106.586215998819
5516	1653392917969	9.74562116457966	-0.253880363857616	0.773458315287229	-0.0432967777112235	-0.0301026869939512	-0.0332679474046014	-0.000259890999927139	0.00508969076317647	-0.000663379073285462	0.585205078125	0.352783203125	0.258056640625	0	0	0	-0.597181856139243	-0.3183350445359	-0.64120699228044	0.361787538714488	-0.0249672150580044	-0.0837535735470856	0.996173668137409	0.844169224627554	-0.535545152502479	-0.0238685949064827	0.535495059140569	0.84034322068378	0.0840732602368313	-15.849368164499	-84.9861940178991	-106.599491341427
5517	1653392917970	9.74245805892664	-0.270467545566471	0.791672449895203	-0.0471554381537599	-0.00563645622969899	-0.0344906182263678	-0.00303753117239015	0.00578109654608872	0.00146083718634617	0.583740234375	0.34716796875	0.26416015625	0	0	0	-0.597198215697301	-0.318316054056665	-0.64120187365141	0.361786315556124	-0.0249299060885685	-0.0837605677711623	0.996174014451827	0.844151685812946	-0.535571103212239	-0.0239065836787223	0.535524444933728	0.84032598477655	0.0840583617955082	-15.8759951335899	-84.9864210632088	-106.574740246909
5518	1653392917971	9.74698905779192	-0.229045167693048	0.79825540987247	-0.00893109401805657	-0.0232559023399782	-0.0304152103905224	-0.00147261795787965	0.00616973758696829	0.00194059530886965	0.591552734375	0.34619140625	0.26123046875	0	0	0	-0.59718419422817	-0.318294373198613	-0.641219123891723	0.361797962003222	-0.0249465457087337	-0.0838228068710851	0.996168362730646	0.844144282014982	-0.535581853360835	-0.0239271705804162	0.535535340569241	0.840312927068736	0.084119460308307	-15.8780180344472	-84.9827170501324	-106.573556761162
5519	1653392917972	9.72598065474987	-0.25623839374535	0.80354282340756	-0.0280736679511765	-0.00252997134901275	-0.0502468716842301	-0.00460211057572959	0.00539277630965032	0.000980905595158811	0.59130859375	0.350830078125	0.2607421875	0	0	0	-0.59720628087261	-0.318273103599628	-0.641213223786091	0.361790673253492	-0.0249043336661813	-0.083820534860189	0.996169610106831	0.844119320870257	-0.535619480543691	-0.0239654792491866	0.53557664838768	0.840289170463275	0.0840937792227312	-15.9067656100987	-84.9835343183018	-106.547471382172
5520	1653392917973	9.74542459198877	-0.254530093712253	0.775718294091222	-0.0421313774116302	-0.0290987611266336	-0.0332598185070712	-0.000514138973333713	0.00709835319282314	0.0037224758715273	0.5927734375	0.345703125	0.26611328125	0	0	0	-0.597190366753936	-0.318247530879104	-0.641228503285823	0.361812356781076	-0.0249109686736464	-0.0839000726496391	0.99616274847493	0.844117511386544	-0.535620655139755	-0.0240029322843605	0.535579191726423	0.840280483884426	0.0841643498913079	-15.9176836176355	-84.9790402895563	-106.536805091759
5521	1653392917974	9.74995686733253	-0.213307846999727	0.782265887095537	-0.00316492146266254	-0.0461471287761757	-0.0291829043621465	0.00142578830445184	0.00391360163932177	0.00421057518182257	0.589111328125	0.344482421875	0.266845703125	0	0	0	-0.597216155936758	-0.31823868949401	-0.641197626732813	0.361832285830694	-0.0248205200373124	-0.0838974322799714	0.99616522858505	0.844126579519828	-0.53560306687934	-0.0240763887989961	0.535569098747522	0.840291958551474	0.0841139991945133	-15.9729866418091	-84.9806641755868	-106.480515209379
5522	1653392917975	9.76317085716204	-0.244674009057754	0.789586352870439	-0.0260388542582268	-0.0247519072621605	-0.0146504934670126	-0.0025462087405513	0.00372494314899037	0.000813703301732131	0.58837890625	0.352783203125	0.2646484375	0	0	0	-0.597210105467627	-0.31822142364188	-0.641211315356459	0.36183319986082	-0.0248336508116512	-0.0839329840943345	0.996161906503348	0.844113183995236	-0.535623722027631	-0.0240865316451086	0.535589602580921	0.840275242157168	0.0841504309253613	-15.9728071625965	-84.978489116241	-106.482155370658
5523	1653392917976	9.72577370874085	-0.257353295032589	0.805688517370979	-0.0266420824572216	-0.00134555476195286	-0.0502426247700516	0.00273165351397337	0.00939227639536385	0.00402736788308742	0.579345703125	0.34716796875	0.265380859375	0	0	0	-0.597215318084266	-0.318208865266631	-0.641196383353832	0.361862100647743	-0.0247793679206225	-0.0839709230414168	0.996160060938515	0.844127757791196	-0.535597876361051	-0.0241504319617837	0.535569147218044	0.840287926202147	0.0841539638224628	-16.0123746808615	-84.9772811795216	-106.441046587839
5524	1653392917977	9.75990572462407	-0.261832418532347	0.808741824894995	-0.0297549263407118	-0.000154156603289489	-0.0158769692133838	0.00105117043630053	0.00748731921989272	0.00420232001471796	0.591796875	0.343994140625	0.26171875	0	0	0	-0.597196038103696	-0.318186225368951	-0.641209502009782	0.361890580964849	-0.0247841989643469	-0.0840562520659873	0.996152744296935	0.844134464744017	-0.535585466788767	-0.0241911801281096	0.535558352481807	0.8402873045889	0.0842288361174158	-16.0244793339313	-84.9724952286654	-106.428286185908
5525	1653392917978	9.77767842923865	-0.251664572980076	0.822333955369553	-0.0137166575559601	0.00416763484259661	0.00272694995466338	0.00371326465572992	0.00527896336589934	0.00273383339628905	0.59130859375	0.343994140625	0.26025390625	0	0	0	-0.597209579819038	-0.318184802085671	-0.641185226976352	0.361912495226891	-0.0247201271420264	-0.0840598668784882	0.996154031309643	0.844151914712039	-0.535555555040696	-0.0242444293199692	0.535533808645244	0.840306007502876	0.0841982989881395	-16.0634592389796	-84.9733367581012	-106.387430497904
5526	1653392917979	9.72725987575904	-0.266778026132336	0.766335111105113	-0.0553727790710914	-0.031145356949995	-0.0518478234368533	0.00226461544565096	0.00640736045433243	0.00159856007741754	0.588134765625	0.348876953125	0.266845703125	0	0	0	-0.597187396679187	-0.318175789752848	-0.641197929044147	0.361934518735342	-0.0247412347907024	-0.0841221845876882	0.99614824667879	0.844164470863078	-0.535535141925935	-0.0242581511007636	0.535513041329052	0.840312780946811	0.0842627601253737	-16.0604204830494	-84.9695555072619	-106.389174109974
5527	1653392917980	9.72865891991305	-0.241862737596495	0.790679984082725	-0.0207090737485068	-0.0241736226341355	-0.0490065226272058	0.00382955714835671	0.00679591971673132	0.00207871775921123	0.59765625	0.34228515625	0.270263671875	0	0	0	-0.597200775693975	-0.318174489629199	-0.641172134263451	0.361959282107482	-0.0246734232135013	-0.0841283068254577	0.996149411573188	0.844184514875827	-0.53550094449087	-0.0243154949209696	0.535484572168791	0.840333961255921	0.0842324553194266	-16.1019125420629	-84.9703167380363	-106.345529277611
5528	1653392917981	9.76450133320047	-0.254599665137017	0.752122204004836	-0.05322460395751	-0.0533219384846351	-0.0162431612587763	-0.00242960673387208	0.00524221449308114	0.000157777916820237	0.5947265625	0.3427734375	0.26904296875	0	0	0	-0.59718854783469	-0.318156848102405	-0.641191409111742	0.361960820009481	-0.0247004062263158	-0.0841730842463672	0.996144960244597	0.844171588654116	-0.535521169567215	-0.0243188374423688	0.535503705721484	0.840316588455694	0.0842841166812744	-16.094651672128	-84.9674085197703	-106.354210104835
5529	1653392917983	9.76591060314719	-0.229664959055254	0.776331937322523	-0.0182370950279289	-0.046259567802185	-0.0134029690465454	0.00371350975120732	0.00527930232130773	0.00273398892515671	0.58349609375	0.3505859375	0.265625	0	0	0	-0.597222408305376	-0.318148554368185	-0.641151361146872	0.361983182580178	-0.024587141094104	-0.084161128769834	0.996148772471766	0.844182912124398	-0.535499345765119	-0.0244061787730155	0.535491067497852	0.8403316934933	0.0842137847427223	-16.1622309299964	-84.9698990862352	-106.285389101731
5530	1653392917984	9.7448768060745	-0.256874579269851	0.78180332183785	-0.0380026823883845	-0.0260612660288151	-0.0332343366087464	0.00189092219310445	0.00998155402711742	0.00158985287290846	0.579833984375	0.350830078125	0.263427734375	0	0	0	-0.597189537575505	-0.318131628982719	-0.64117532415496	0.362009843161673	-0.0246270593288321	-0.0842537962722786	0.996139952899453	0.844193317873607	-0.535482280189726	-0.0244206809971197	0.535472828448247	0.840333282344881	0.0843138457023126	-16.1531425621832	-84.9641390373652	-106.293437595601
5531	1653392917985	9.74482685237668	-0.256978066178514	0.782391693242667	-0.0374650627258744	-0.0254178407222555	-0.0332305687145062	-0.000490404896290597	0.00205706296253244	0.000646475373963078	0.58056640625	0.35107421875	0.265380859375	0	0	0	-0.597213314568488	-0.318137383352175	-0.641153394760487	0.362004401358679	-0.0245781405981305	-0.0842089392989139	0.996144954083938	0.844192464098505	-0.535482837421553	-0.0244379701746651	0.535476422043056	0.840337423520526	0.0842497244319044	-16.1756406017638	-84.9674044959449	-106.27098947425
5532	1653392917986	9.76430440884262	-0.255050429520259	0.754522245892383	-0.0515202599680978	-0.051981671465328	-0.0162268463611426	0.00093313502589365	0.00905306354305797	-0.00019220334666034	0.5927734375	0.339599609375	0.26513671875	0	0	0	-0.597182098107747	-0.318124612254594	-0.641179505660697	0.362020875500567	-0.0246288548028649	-0.0842840851727885	0.99613734620166	0.844197378796437	-0.535475233559334	-0.0244348087326602	0.535466343614914	0.840334735228268	0.0843405455549867	-16.1571502175305	-84.9624378648343	-106.289017263266
5533	1653392917987	9.72689006152303	-0.267522550466282	0.770756856421751	-0.051922446719096	-0.0284467252516241	-0.0518206218560486	-0.00291949094630075	0.00729974970962281	0.000803640809885897	0.58447265625	0.3427734375	0.264404296875	0	0	0	-0.597210033701163	-0.318105579335826	-0.641165668994074	0.362016023050715	-0.024569149402401	-0.0842728037004181	0.996139775058758	0.844176178723125	-0.535506478899925	-0.0244824494817513	0.53550250809316	0.840315955824162	0.0842980320841489	-16.1947394369338	-84.9640229574742	-106.253676548756
5534	1653392917988	9.76249254824167	-0.246634965861101	0.797325290354772	-0.021207817410719	-0.0208833872767739	-0.0146298367252946	-0.000864234498461727	0.00563116234922282	0.000637701234544488	0.590576171875	0.34521484375	0.25927734375	0	0	0	-0.597194332249654	-0.318090731519454	-0.641182963815705	0.362024340290564	-0.0245946131321447	-0.0843237149527293	0.996134838313293	0.844171642970986	-0.535513327117202	-0.0244890523199913	0.535508489389801	0.840306484311787	0.0843544321006178	-16.1886148479306	-84.9608017175674	-106.260327613745
5535	1653392917989	9.76243933512818	-0.246573270384332	0.797995651625037	-0.0201993667635321	-0.0200446005600686	-0.0146259539689932	-2.42730589143575E-05	0.00812472714296817	-0.00197421933222694	0.58203125	0.34228515625	0.260009765625	0	0	0	-0.59721371774351	-0.318090781034164	-0.641166315988459	0.362021802660886	-0.0245519794742755	-0.0842960151964631	0.996138234446351	0.844168726881863	-0.535516938838475	-0.0245105848914965	0.535515042607161	0.840306961793764	0.0843080607201016	-16.21054622672	-84.9630174831111	-106.23868000495
5536	1653392917990	9.76093516808067	-0.271616020064145	0.775070640034178	-0.0540214470931825	-0.0264085007241739	-0.0174462040235248	-0.00135445982299775	0.00768853841115051	0.00128401470507372	0.591064453125	0.345947265625	0.26123046875	0	0	0	-0.597193424159472	-0.318068734123048	-0.641189250902362	0.362034030225496	-0.0245827501987407	-0.0843675443848749	0.996131419967834	0.84416177018092	-0.535527282664094	-0.0245241776095958	0.535524597154679	0.840293191080874	0.0843845890280951	-16.2051267829384	-84.958572440707	-106.244900644762
5537	1653392917991	9.73127276728722	-0.225995139722832	0.7793351589486	-0.011712296249766	-0.044379461924729	-0.0477500838792775	-0.00567483376585806	0.0029491307668194	-0.000149319062939727	0.588134765625	0.348876953125	0.262451171875	0	0	0	-0.597241727696864	-0.31805651603258	-0.641162390925754	0.362012651393915	-0.0244983178568248	-0.0843045479451022	0.996138833505631	0.844131040507276	-0.53557378567993	-0.0245663701953205	0.535576902857368	0.840269875271178	0.0842847426137645	-16.2497544182733	-84.9634084329018	-106.203498673829
5538	1653392917992	9.7444594430481	-0.257280170855306	0.786855774850835	-0.0345773536233492	-0.0229749391861579	-0.0332138880303709	-0.00039646820983421	0.00861741368171169	0.00306642350545963	0.594482421875	0.345703125	0.269287109375	0	0	0	-0.597219647664734	-0.318030625383577	-0.641183210607715	0.362034948860085	-0.0245187764941739	-0.084393185648269	0.996130824648733	0.844129737800968	-0.535574434244014	-0.0245969742910368	0.535578019861997	0.840260564111122	0.0843704275226843	-16.2532780652796	-84.9581843033749	-106.200181271218
5539	1653392917993	9.74755061305808	-0.241028658713865	0.7698162890742	-0.0289765086167043	-0.0460175241655196	-0.0319666515430477	-0.00158747087614564	0.00465487368059862	0.00259430096307804	0.58154296875	0.352294921875	0.27099609375	0	0	0	-0.597266865105204	-0.318020448685067	-0.6411418647468	0.362039217950966	-0.0243997930257112	-0.0843508457661507	0.996137332358766	0.844123151468071	-0.535581197767204	-0.0246756105063101	0.535593834221339	0.840260504496541	0.0842705721311026	-16.3207740638702	-84.9624288322705	-106.13333448879
5540	1653392917994	9.74435656333949	-0.257829085550722	0.787949376073776	-0.0333878866858719	-0.0220352908126657	-0.0332075923869315	-0.00158739909043492	0.00465493900527763	0.00259428465043236	0.59033203125	0.3544921875	0.260986328125	0	0	0	-0.597258904242783	-0.317999308476618	-0.641153593646411	0.36205014910285	-0.0244029816746283	-0.0844036712936076	0.996132779682282	0.844115345416437	-0.535592258685995	-0.0247025518544949	0.535605991488032	0.840248149481923	0.0843164822222061	-16.3292218371354	-84.9594590618397	-106.125759611909
5541	1653392917994	9.74746290430541	-0.241478130941233	0.770785401993059	-0.0282927819308705	-0.0450972587230286	-0.0319603633413745	0.000701152202942037	0.00602006460747949	0.00111858050437725	0.594482421875	0.348876953125	0.266357421875	0	0	0	-0.59727445828745	-0.318014122246906	-0.64112739282688	0.362057876168951	-0.0243546315629248	-0.0843670192157149	0.996137067872735	0.844133869586832	-0.535562224711118	-0.0247207135584544	0.535578997102944	0.840270973871604	0.0842604790579277	-16.3508677731972	-84.9622562567976	-106.102095531866
5542	1653392917996	9.76208330929539	-0.247616580356738	0.802017874497062	-0.0173475825213317	-0.0173220208661846	-0.0146152983259586	-0.000863463091334576	0.00563177470727619	0.000637644473498631	0.589111328125	0.3486328125	0.262939453125	0	0	0	-0.597258630370224	-0.317999741343065	-0.641144656146451	0.362066047633409	-0.0243806111988139	-0.0844172432791634	0.996132177391494	0.844129603169742	-0.535568683313731	-0.0247264737900598	0.535584539405374	0.840261813062299	0.0843165859080565	-16.344172398537	-84.9590663103812	-106.109288390837
5543	1653392917996	9.74420427792002	-0.258219311250917	0.789702918328159	-0.0315291107828649	-0.0200381634455168	-0.0331971269995712	0.000211190128578642	0.00807762537235335	0.00176493874561103	0.588623046875	0.3408203125	0.27099609375	0	0	0	-0.597290149118954	-0.318001064781204	-0.641107132536787	0.362079335469366	-0.0242860651830397	-0.0843854822208784	0.996137178017303	0.844141095833484	-0.535547755248166	-0.0247873389797344	0.535570721159187	0.840278342121824	0.0842396011269568	-16.3964171469217	-84.9623281247193	-106.055770455942
5544	1653392917998	9.76339901869723	-0.222805052835781	0.827073737535032	0.0176482245380884	-0.00987174528138679	-0.0118075791445058	0.000701432859040453	0.00602031193511576	0.00111858348618651	0.585693359375	0.34814453125	0.268310546875	0	0	0	-0.59727105135768	-0.317989659287901	-0.641122109216541	0.362094336975587	-0.0243099646806041	-0.084441333866796	0.996131862130725	0.844145406361817	-0.53554053543235	-0.0247965285287243	0.535562842750943	0.840277332815559	0.0842997355921125	-16.3910971050528	-84.9588607422397	-106.060673956896
5545	1653392917998	9.76363066556026	-0.256513296899324	0.762700646706315	-0.0446859397217818	-0.0459689860721986	-0.0161632291793587	0.00394792850781396	0.00831423739103469	0.00142559368780838	0.595947265625	0.34375	0.26806640625	0	0	0	-0.597286468382613	-0.317974105014063	-0.641108495325981	0.362106669986054	-0.0242552684772747	-0.0844560642425772	0.996131946663568	0.844142585126465	-0.535542456184233	-0.0248510281511339	0.535569769429815	0.8402746282239	0.0842826864550635	-16.4283264844684	-84.9589158616918	-106.023743981153
5546	1653392918000	9.75868165001547	-0.264667786975053	0.822473524951276	-0.0197008230567237	0.00835693060240658	-0.0158551550619102	-0.00147016591823022	0.00617257088850716	0.00193867554350612	0.583740234375	0.352294921875	0.26513671875	0	0	0	-0.597272008494456	-0.317952667773725	-0.641126155584303	0.36211807680681	-0.0242732926374726	-0.0845182839266959	0.996126230427963	0.844135197876229	-0.535553199010617	-0.0248704389980227	0.535580596148699	0.840261525188189	0.0843444978491401	-16.4290674199476	-84.955189956048	-106.023841078964
5547	1653392918000	9.76667735602866	-0.240253311791781	0.74639732659516	-0.0392983382531995	-0.0690688464393373	-0.0149068842061748	0.000818892241491273	0.00753772254830349	0.000463374562043425	0.587158203125	0.35205078125	0.26318359375	0	0	0	-0.597294346102398	-0.317953331807033	-0.641100579592994	0.36212593079265	-0.0242085487233317	-0.0844948334081193	0.996129795406224	0.844141743059161	-0.535540978080728	-0.0249114114690114	0.53557321048924	0.84027167268906	0.0842902858138313	-16.4646805882921	-84.9575133260901	-105.987495913327
5548	1653392918001	9.72609501411671	-0.269271498193668	0.78012392314267	-0.0450621081309187	-0.02233232581536	-0.051770635117542	-0.000862838984013128	0.00563231795330231	0.000637245156952093	0.59326171875	0.344482421875	0.2685546875	0	0	0	-0.597278407537783	-0.317938719329404	-0.641118061754261	0.362134098826344	-0.0242347967127249	-0.0845455591180059	0.996124853149301	0.84413728702068	-0.535547730436821	-0.0249172447380576	0.535579046723879	0.840262266710456	0.0843469492806175	-16.4578626343392	-84.9542926408231	-105.994832282635
5549	1653392918002	9.73063338688277	-0.227721522984912	0.786780529537705	-0.00580048330201238	-0.0389702984667069	-0.0477216974220269	0.000819134860882587	0.00753792883691206	0.000463377603110831	0.592041015625	0.3388671875	0.266357421875	0	0	0	-0.597302747846644	-0.317944330653124	-0.641087953846017	0.362142327619834	-0.0241647239218732	-0.0845121229069201	0.996129392799723	0.844148212352413	-0.535528674303251	-0.024956654047107	0.535564992974712	0.840277775548519	0.0842816600407689	-16.4945556573575	-84.9572508856288	-105.956930158004
5550	1653392918003	9.74696869576132	-0.24241077041771	0.776719482838865	-0.024259370012677	-0.0415391579869445	-0.0319337689549428	-0.00303456678504303	0.00578458684579446	0.00145708316467424	0.59130859375	0.34521484375	0.26953125	0	0	0	-0.597291547230336	-0.317920103456029	-0.641107843543068	0.362146860228356	-0.0241849184678704	-0.0845684042360286	0.996124126162836	0.844132366191548	-0.535552918890502	-0.0249723730494381	0.535589057082536	0.840256660832174	0.0843392308513991	-16.4937260188961	-84.95381906372	-105.959499165389
5551	1653392918004	9.72910311335545	-0.253074963561914	0.76430385088086	-0.0382760393246143	-0.0445615173650882	-0.0505050297170832	-0.00146982612148388	0.00617302945160595	0.00193843640226041	0.5908203125	0.3505859375	0.265380859375	0	0	0	-0.597343566673639	-0.31788521477628	-0.641078615586001	0.362143427689349	-0.0240656022700509	-0.0845514385587564	0.996128456086375	0.844098190507871	-0.535602256016096	-0.025069266678673	0.535648290922988	0.840226920294817	0.0842593071605091	-16.5690677530884	-84.9566403384564	-105.887771585108
5552	1653392918005	9.7646923617815	-0.232214020932402	0.790763485249552	-0.00752625420106407	-0.0369717037421259	-0.0133494454951482	-0.000372546130875743	0.00357492339585855	-8.94959922885121E-06	0.585693359375	0.347412109375	0.257080078125	0	0	0	-0.597332519627736	-0.317877383476612	-0.641090272523088	0.36214788767231	-0.0240855368993276	-0.0845819791934913	0.996125381519808	0.844095972812517	-0.535605753057094	-0.0250692236384331	0.535650889660385	0.840221617246221	0.0842956601384868	-16.5622869003377	-84.9546368623626	-105.894815927544
5553	1653392918006	9.74364194511219	-0.259467181385161	0.79620564358562	-0.026574690447707	-0.0155758461787073	-0.0331742837259483	0.00380910309407928	0.0118420574542466	0.00515643782984428	0.58837890625	0.34521484375	0.265380859375	0	0	0	-0.597333714308798	-0.3178961512174	-0.641057514808606	0.362187428686632	-0.0240254005028432	-0.0845857683152214	0.996126512009997	0.844146123399865	-0.53552460708506	-0.0251140907733832	0.535574553614769	0.840272957439972	0.0842689415824395	-16.5952718871209	-84.9553734300608	-105.856453367798
5554	1653392918007	9.76630354957805	-0.241191501381865	0.750971911654302	-0.0361988040203935	-0.0660982974393827	-0.0148744520879642	-0.000254811949102243	0.00509230754606767	-0.000664187170430376	0.59423828125	0.34033203125	0.265380859375	0	0	0	-0.597316591723248	-0.317888401548042	-0.641074462448404	0.362192472326309	-0.0240590044845588	-0.0846246558768379	0.996122398062075	0.844144722120949	-0.535527154302774	-0.0251068739535475	0.5355752537399	0.840267418517522	0.0843197068267077	-16.5813252237869	-84.952693513702	-105.870585578988
5555	1653392918008	9.78090173358734	-0.247333179685021	0.782160440424729	-0.0239018282541825	-0.037393054733259	0.00245490974401896	0.00371423879821966	0.00528067281963472	0.0027367791457456	0.587890625	0.3427734375	0.267822265625	0	0	0	-0.597361759066965	-0.31788097370675	-0.641027908674081	0.362206896207961	-0.0239301862876335	-0.0845895831122713	0.996128479972906	0.844149333621805	-0.535515701789288	-0.0251959457649102	0.53557375657336	0.840278248894983	0.0842212307193406	-16.6552807878424	-84.9566559067152	-105.796078522099
5556	1653392918009	9.72884171561184	-0.253908504696916	0.767348703732022	-0.0362251363285514	-0.0424316258201635	-0.0504877138991091	0.000585049216830448	0.00450406267507239	0.00177355432926323	0.589111328125	0.351806640625	0.25634765625	0	0	0	-0.597349161697286	-0.317869379799789	-0.641037142265382	0.362221504940663	-0.0239391207561413	-0.0846368616831771	0.99612424934937	0.844152891893739	-0.535509277488436	-0.0252132669690165	0.53556774884683	0.840277582331122	0.084266072810494	-16.6577184741186	-84.953899307379	-105.793295177346
5557	1653392918010	9.74660549633573	-0.243483174635917	0.780930311608794	-0.0200219616797817	-0.0374527509019923	-0.0319076753367824	0.00299244854263218	0.00738644288387682	-0.00035623501956637	0.5859375	0.34716796875	0.27099609375	0	0	0	-0.597361792122774	-0.317902543511828	-0.641003333793087	0.362231401464212	-0.0238946022102815	-0.0845774056609773	0.996130368193276	0.844188738111431	-0.535452769243967	-0.025213217858845	0.535513232731968	0.840319578708378	0.0841937242811573	-16.6712079202128	-84.957886722822	-105.775917662443
5558	1653392918011	9.75977330852557	-0.274562762400145	0.788546350323458	-0.0428682796831737	-0.0160305075492542	-0.0173685615730523	0.00131024747682265	0.00548088968305596	-0.000182770406078399	0.585693359375	0.3408203125	0.270751953125	0	0	0	-0.597341729924974	-0.31789768550243	-0.641017642179482	0.36224342872866	-0.0239251120662887	-0.0846217503629796	0.99612586974645	0.844195963951647	-0.535441519790206	-0.0252101831112985	0.535500479421229	0.840322282371627	0.0842478384848757	-16.6591990964283	-84.9549549518975	-105.787192164636
5559	1653392918012	9.74650993871526	-0.24333123113628	0.782169311764087	-0.0194112468254227	-0.0370845958983623	-0.0319050414089119	0.00360018517283123	0.00684603683481531	-0.00165731015978523	0.59033203125	0.35302734375	0.26416015625	0	0	0	-0.597350565417261	-0.317876300297797	-0.641026788259725	0.362231440432888	-0.0239213711151885	-0.0846329383035036	0.996125009101812	0.844167289166048	-0.5354860825418	-0.0252238638214265	0.535545848556419	0.84029275919655	0.0842539194093269	-16.6666018754052	-84.9543942379511	-105.782864011994
5560	1653392918014	9.74504252808253	-0.268394974029323	0.759147663030894	-0.0532341520822819	-0.0434551507780073	-0.0346777155045039	0.003832146139047	0.00679857101100699	0.00208167783391465	0.5849609375	0.3515625	0.263427734375	0	0	0	-0.597325065977441	-0.317869842154845	-0.641037414753944	0.362260350975758	-0.0239404073319321	-0.0847016288399494	0.996118713291061	0.844188126589476	-0.535452403118748	-0.0252414524088392	0.535512150956569	0.840307299781584	0.0843230580069989	-16.6646624551744	-84.9502943769496	-105.782626569558
5561	1653392918014	9.74638583905051	-0.243479347523522	0.783668188757027	-0.0190291291899281	-0.0357939788970037	-0.0318994821888587	0.0018957597475533	0.00998566347550506	0.00159032976869887	0.582763671875	0.349609375	0.26904296875	0	0	0	-0.597315042956156	-0.317914315748615	-0.641013448107659	0.362280259806556	-0.0239355056255615	-0.0846630307043568	0.996122112395063	0.844243043375399	-0.53536700239317	-0.0252161944154266	0.535425788772537	0.840365601378654	0.0842904546007527	-16.6549933982417	-84.9525074766083	-105.786391521795
5562	1653392918016	9.75953610555444	-0.274674845183294	0.791437823601428	-0.0418888677843723	-0.0143706757119853	-0.0173617484734994	0.00287537645745848	0.00586968266150019	0.000298909926186336	0.59033203125	0.349365234375	0.259033203125	0	0	0	-0.597291172430779	-0.317912516717892	-0.641026059305781	0.362298879850962	-0.0239655539900067	-0.0847133668018226	0.99611711043785	0.844258726165221	-0.535342306745668	-0.0252154298417705	0.53539971564788	0.840376261024386	0.0843497741007219	-16.6434520259922	-84.9492511216612	-105.796297451654
5563	1653392918017	9.74626572459193	-0.243592657976476	0.785125441203595	-0.0185907421741023	-0.0346991647373299	-0.0318946937744151	0.0023857942492064	0.00792790355514489	0.000944521141472848	0.591064453125	0.341552734375	0.264404296875	0	0	0	-0.59729035711243	-0.317944555517804	-0.64100453156254	0.362310197804838	-0.0239510997342515	-0.0846745230340787	0.996120760736604	0.844295391462806	-0.535285160366411	-0.0252009731195528	0.535342541534097	0.840416576609753	0.0843109778341847	-16.641668478094	-84.9516273185449	-105.794126367007
5564	1653392918018	9.7479869764469	-0.252177354843876	0.744428288701567	-0.0480154226950968	-0.0650369184276647	-0.0333989584089664	0.00287561656150632	0.00586987692226335	0.000298903176063656	0.586181640625	0.34326171875	0.260009765625	0	0	0	-0.597266321923957	-0.317943214223566	-0.641017155997721	0.362328661495621	-0.0239817635084388	-0.0847242279767879	0.996115796588309	0.844311324536748	-0.535260107175958	-0.0251993040575111	0.535316039623349	0.840427523858969	0.0843701064492307	-16.6296092965964	-84.9483961315799	-105.80452276074
5565	1653392918019	9.74296642084869	-0.260219008058974	0.804186741244073	-0.0217234536133371	-0.00971797396645893	-0.0331547289016871	0.00395072637654164	0.0083166814298314	0.00142640995277024	0.590576171875	0.345458984375	0.26220703125	0	0	0	-0.597298683786393	-0.317939973371502	-0.640979857207318	0.362344143507325	-0.0238820080259712	-0.0847003394947089	0.99612022476312	0.844320849966224	-0.535241789996944	-0.0252691225249386	0.535305475410966	0.840441597453594	0.0842969113591426	-16.6868026729861	-84.9512783516116	-105.746266405016
5566	1653392918020	9.75930214780743	-0.274934619114465	0.794227703282125	-0.040161810773673	-0.0122625468084323	-0.0173516491479901	0.0022681370561111	0.00641092143809831	0.00159967712684339	0.590087890625	0.348876953125	0.26171875	0	0	0	-0.597276494797234	-0.31793169382295	-0.640992276557747	0.36236601416098	-0.0239033210876277	-0.084761377385369	0.996114521601164	0.844333888071445	-0.535220619687909	-0.0252818851165633	0.535283958936879	0.840448925970297	0.0843604536511989	-16.682885868249	-84.9475665692467	-105.748835534742
5567	1653392918021	9.74921818387032	-0.227292187530299	0.770298698485176	-0.0117889229303588	-0.0563656512945571	-0.0306139165926886	0.00311238829677917	0.00890501739302184	-0.00101190786157205	0.5830078125	0.345458984375	0.267333984375	0	0	0	-0.597291387923119	-0.317969449472155	-0.640949088586707	0.36238473057666	-0.0238406099155112	-0.0846994979769507	0.996121287977177	0.844381153146446	-0.535145472494513	-0.0252940997013676	0.535212194862873	0.840503015051747	0.0842768542304962	-16.7061319657182	-84.9519706230439	-105.720470062511
5568	1653392918022	9.72957004588076	-0.229216622659233	0.799395553018641	0.0022268497343306	-0.0298077576632368	-0.047687961135745	0.000703633488652755	0.00602263422955137	0.00111746690395424	0.5849609375	0.35302734375	0.260986328125	0	0	0	-0.597272768227758	-0.317958641563384	-0.640963278183691	0.362399804923697	-0.0238632434496334	-0.0847538578970471	0.996116122338972	0.844386010011046	-0.535137367292867	-0.0253034429373529	0.535203523633476	0.840502695830552	0.0843350851774364	-16.7010625833473	-84.948608100985	-105.725063142478
5569	1653392918023	9.76230091898875	-0.258561049363516	0.778859495236642	-0.034619734590839	-0.0339630834112731	-0.0160735057347363	0.00502642393194799	0.0107642623713379	0.00255394159523501	0.5888671875	0.3447265625	0.26904296875	0	0	0	-0.597245371705818	-0.317990119542009	-0.6409604173538	0.362422396155758	-0.0238959454813965	-0.0847605663074284	0.996114767578914	0.844433074886007	-0.535064581276756	-0.0252720379410564	0.535127803265832	0.840548356885179	0.0843604996992766	-16.6767402554879	-84.9477266025395	-105.744360249959
5570	1653392918025	9.76223327302943	-0.25855375061265	0.779709293802798	-0.0346305478554344	-0.0339350646500411	-0.0160734468572237	0.00203809701397421	0.00645844763269861	-0.00213953455134313	0.58984375	0.3505859375	0.2666015625	0	0	0	-0.597217436014442	-0.317993031187067	-0.640979867215434	0.362431477746183	-0.0239495161181095	-0.0848005954488822	0.996110074082791	0.844444526472885	-0.535047712110359	-0.0252465339295612	0.535107337258325	0.84055505755244	0.0844235324735946	-16.6490929973916	-84.9446738823854	-105.770823540901
5571	1653392918026	9.76039131476246	-0.249874526610793	0.821669813231958	-0.0044957007631935	-0.00281685110060242	-0.0145860658304056	0.00131184971674147	0.00548201862002262	-0.000183426165641816	0.592529296875	0.351318359375	0.268310546875	0	0	0	-0.597235271179794	-0.317999013755882	-0.640960113572028	0.362431774157312	-0.0239064798799624	-0.0847681678211626	0.996113867960883	0.844449076682768	-0.535039672662938	-0.0252647099005059	0.535102081017603	0.840563445791559	0.0843733162181688	-16.6697809574724	-84.947141334998	-105.749614322065
5572	1653392918027	9.7261377958499	-0.245720151501911	0.81996462646653	-0.00147104604414274	-0.00405634723766035	-0.0489555884938859	0.00299501519012792	0.00738822320526889	-0.000356577938448702	0.59423828125	0.3466796875	0.270263671875	0	0	0	-0.597205358055467	-0.317997870314935	-0.640977746019892	0.362450884799948	-0.0239502328351517	-0.0848258383593589	0.996107907555087	0.844465966368585	-0.535013421165802	-0.0252561045617617	0.535073469714499	0.840574337176133	0.0844462295700135	-16.6508263090703	-84.9432653603993	-105.766812128207
5573	1653392918027	9.76528336901098	-0.241881217069592	0.763905350006176	-0.0285024300067696	-0.0563063352542609	-0.0147878746573369	0.000703989659190338	0.0060231794072324	0.00111711109209646	0.587646484375	0.341552734375	0.26953125	0	0	0	-0.597230011501865	-0.318001785867096	-0.640944439470291	0.362465726736936	-0.0238698206050951	-0.0848003636391554	0.996112006749717	0.844481204563232	-0.534986922252806	-0.0253078675099894	0.535053013077876	0.840593773082538	0.0843823550936404	-16.6949838579641	-84.9459306951619	-105.720983265114
5574	1653392918028	9.7456278920944	-0.243949494611689	0.792893774617089	-0.01450461748514	-0.0297525630864576	-0.0318714825549282	0.00383338089450138	0.00680057181896126	0.00208196596142024	0.583740234375	0.3447265625	0.26708984375	0	0	0	-0.597204329891675	-0.317996921747624	-0.640954649850176	0.36249425230355	-0.0238898108110515	-0.0848664759960359	0.996105897076926	0.844503030235656	-0.534951749611852	-0.0253230628086867	0.535017671541984	0.840609485337415	0.0844498922353419	-16.6918338921069	-84.9419586406732	-105.7218469976
5575	1653392918029	9.74556577688741	-0.244072267432935	0.793619135638558	-0.0139245089947884	-0.0295841661780059	-0.0318701286751573	0.00238746326370049	0.0079295853086274	0.000943912214586112	0.587646484375	0.33642578125	0.270263671875	0	0	0	-0.5972146879506	-0.317950571946278	-0.640971352308651	0.362488311280131	-0.0238736813626932	-0.0849197429373876	0.996101744099287	0.844458749371833	-0.535019315968626	-0.0253722712783767	0.535088280517853	0.840561103549237	0.0844841005902048	-16.7160673816017	-84.9392604589009	-105.702387456312
5576	1653392918030	9.74551171807068	-0.243947939683998	0.794320880683338	-0.0139369417606741	-0.0295726438192208	-0.0318701115379803	0.00421203091554849	0.0063064986443465	-0.00295769612461196	0.5908203125	0.343994140625	0.261962890625	0	0	0	-0.597181831070293	-0.317962296096825	-0.640988910253752	0.362501111490812	-0.0239336096149144	-0.0849557724517058	0.996097233736715	0.844480997229372	-0.534985844857522	-0.0253375436964308	0.535050490747636	0.840578766403969	0.0845476778007333	-16.6826057941791	-84.9363317092125	-105.733508202285
5577	1653392918031	9.74726435269884	-0.252416264577486	0.75375109291505	-0.0418687034934879	-0.0595802645837105	-0.0333359435303073	0.00189811862595855	0.00998859205058027	0.001588648883301	0.593505859375	0.337646484375	0.26416015625	0	0	0	-0.597219810318453	-0.317899126049236	-0.640979627814962	0.362510359226487	-0.0238294752333501	-0.0850121987530706	0.996094916247077	0.844434821791176	-0.535052770221231	-0.0254630089559516	0.535128010719499	0.840530462946915	0.0845372876406474	-16.7625361372319	-84.9348275320714	-105.658531705391
5578	1653392918032	9.74538325108441	-0.243929931850139	0.795900980323892	-0.0124542962728003	-0.0292291574146446	-0.0318670787413033	0.00287729669194172	0.00587135357682956	0.00029891058251692	0.594970703125	0.343994140625	0.263916015625	0	0	0	-0.597196421477026	-0.317896864953732	-0.640991850412118	0.362529261071257	-0.0238579380843252	-0.0850628634669365	0.9960899096212	0.844450344063475	-0.535028236239434	-0.0254637553711221	0.535102247427017	0.840540954198739	0.084596034855245	-16.7520113527511	-84.9315794788209	-105.667437460454
5579	1653392918033	9.74212860131566	-0.260440617190064	0.81420261817277	-0.0146491013990082	-0.00441120918976898	-0.0331377397345918	-0.00230601059976651	0.00676394740828683	-0.000504352899535372	0.583984375	0.3486328125	0.259521484375	0	0	0	-0.597270507346721	-0.317858386460643	-0.640938195636586	0.362535814209501	-0.0236714489384904	-0.0850312217346401	0.996097060449165	0.844420980717672	-0.535067659144182	-0.0256087379964487	0.535156864693856	0.840519060740612	0.0844679744208557	-16.8660910216474	-84.9362192207285	-105.556425179547
5580	1653392918034	9.73251801058682	-0.246426838941809	0.725113831993183	-0.0506061705261277	-0.0865357397066516	-0.0505987726870973	-0.000741269682684579	0.00715279815681557	-2.16423140344538E-05	0.59033203125	0.346435546875	0.25830078125	0	0	0	-0.597249939472329	-0.317842561135278	-0.64095979028304	0.362545394911572	-0.0237066928574228	-0.0850911397816567	0.996091105594475	0.844416941380755	-0.53507388591876	-0.0256118276772323	0.535161678208496	0.8405090329904	0.0845372322625326	-16.8549749701631	-84.93235517885	-105.568025223022
5581	1653392918035	9.76163223997	-0.258572076717168	0.78719222024505	-0.0279915154542801	-0.0292439955223371	-0.0160371013438088	0.00226919300205337	0.00641274809270478	0.00159952920362542	0.591796875	0.340576171875	0.27001953125	0	0	0	-0.597258492596484	-0.317918812557614	-0.640900352394304	0.362569524290431	-0.0236512661543731	-0.0849824502578946	0.99610170201514	0.844501293282794	-0.534941937355534	-0.0255868970763463	0.535031011487169	0.840604013080161	0.0844198432866645	-16.8615853701558	-84.9392331242538	-105.552291923151
5582	1653392918036	9.76157462767732	-0.258660471519894	0.787877311767529	-0.027955873693537	-0.0292245636176879	-0.0160369415841561	0.000823629266509328	0.00754176429655375	0.000461037243681913	0.5869140625	0.34228515625	0.265625	0	0	0	-0.597234871561094	-0.317906789726099	-0.64091907953212	0.362585872213948	-0.0236839869245076	-0.0850463654804951	0.996095469561988	0.844506448402362	-0.534933516633792	-0.0255927995466038	0.535021427019692	0.840602907739655	0.0844915624748978	-16.8517502295738	-84.9351866231293	-105.561628454838
5583	1653392918037	9.74830601161188	-0.227594650505049	0.781669752088291	-0.00385070676203088	-0.0504909780031495	-0.0305754841951646	-0.0012302380903224	0.00921201784652672	0.000622808591591361	0.58837890625	0.343017578125	0.2646484375	0	0	0	-0.59727157934027	-0.317831452117738	-0.64092629278281	0.362578702872622	-0.0236066894711718	-0.0851090610075538	0.996091949544129	0.844435834489045	-0.535039704535874	-0.0257028403285577	0.535136286980244	0.840528977670953	0.0844996571142186	-16.9185474008479	-84.932902630061	-105.502411667065
5584	1653392918038	9.7404553397013	-0.285563611371815	0.794070594564195	-0.0464543593394014	-0.00889832414637873	-0.0358613081567469	0.00108468216541081	0.00552968572786566	-0.00392283037026659	0.589111328125	0.34619140625	0.2607421875	0	0	0	-0.597247255597442	-0.317836191004125	-0.640946523197678	0.362578854554593	-0.0236645798224059	-0.0851337268100102	0.996088468069612	0.844440898037043	-0.535033459835736	-0.0256664484998151	0.535125739788529	0.840530454781765	0.0845517427386261	-16.8861428429066	-84.9306446557346	-105.534308701879
5585	1653392918038	9.77781267693307	-0.272990957387454	0.779475859743871	-0.0439948956885903	-0.0305267849363099	-0.000202461499009487	-0.00123012443367162	0.00921228123077473	0.0006226544020413	0.594970703125	0.34619140625	0.267822265625	0	0	0	-0.597269473775482	-0.317840867243533	-0.640917855727626	0.362588831895496	-0.0235970293612365	-0.0851060182527164	0.996092438412467	0.844452608344267	-0.535013044189077	-0.0257067074535118	0.535110243282531	0.840546255838848	0.0844927176116753	-16.92225776954	-84.9332197749711	-105.496900248604
5586	1653392918040	9.76455627383465	-0.241874634036258	0.77314591862052	-0.0211079308940622	-0.051945038462578	-0.0147450614856588	-0.000251144868162957	0.00509450097138757	-0.000666637068009961	0.5859375	0.343017578125	0.25732421875	0	0	0	-0.597254486336023	-0.317832560048693	-0.640932539423837	0.362594845843263	-0.0236241126387887	-0.0851438258711446	0.996088565448903	0.844451515442124	-0.535014883081589	-0.025704337157239	0.535110772989602	0.84054125645159	0.0845390846487762	-16.9120359484686	-84.9307077992279	-105.507273213081
5587	1653392918040	9.70931550883712	-0.264793808669483	0.775965971131573	-0.0365762626728123	-0.0319216908409213	-0.0689360436154462	0.000704895888537651	0.00602455481276695	0.0011167096286673	0.590087890625	0.34130859375	0.27197265625	0	0	0	-0.597293161476934	-0.317850271248713	-0.640876702718199	0.362614307816249	-0.0235034860396635	-0.085082537122549	0.996096655963051	0.844481710684329	-0.534964137668124	-0.0257684250327535	0.535068431570815	0.840579760216596	0.0844241686400165	-16.9735356313494	-84.9359566609004	-105.442460831627
5588	1653392918042	9.74345928614569	-0.268975223013648	0.779004739602168	-0.0395107218509678	-0.0306131730449147	-0.0345639935549578	0.000824210058091002	0.0075424513871609	0.000461048468608481	0.58642578125	0.348876953125	0.266845703125	0	0	0	-0.597270646000247	-0.31783774440815	-0.640894338967023	0.36263120375391	-0.0235327709808765	-0.0851462613855216	0.99609051941178	0.84448688108919	-0.534955556587061	-0.0257771244494276	0.535058983999161	0.840578768854351	0.0844938873119745	-16.9657314216265	-84.9319749699952	-105.449763880288
5589	1653392918042	9.74476406267977	-0.243831744502948	0.803476426518405	-0.0051954501229412	-0.0240945925445872	-0.0318465328866058	0.00155226667725146	0.00851918821907931	-0.0014948262641792	0.593017578125	0.34716796875	0.267578125	0	0	0	-0.597269893987286	-0.317802225963969	-0.640917929980095	0.362621877358208	-0.023548095595249	-0.0851943223829907	0.996086047802869	0.844449129624685	-0.535014238467109	-0.0257959708786277	0.53511788857218	0.840536550110203	0.0845408378175243	-16.9685356910455	-84.9290755381113	-105.451039403223
5590	1653392918043	9.73151096906007	-0.212618799237516	0.797130088344624	0.0176982595337305	-0.0455181354339154	-0.0463910465454482	0.00131378059832981	0.0054836209466836	-0.000183539255384974	0.597412109375	0.347412109375	0.265625	0	0	0	-0.597251910372215	-0.317796446372579	-0.640930173520492	0.362634922340211	-0.0235721373120964	-0.0852382579891557	0.99608172040125	0.844456396811252	-0.535002663544538	-0.0257981372351962	0.535105361799988	0.840539463306288	0.0845911484593995	-16.9603654808724	-84.9262711850466	-105.458468955724
5591	1653392918044	9.74466079245672	-0.243824330586875	0.804730162040856	-0.00367551716009117	-0.0230462780134666	-0.0318433173284571	-0.00146810822112844	0.00617734395087644	0.00193341160461508	0.5947265625	0.341064453125	0.262451171875	0	0	0	-0.597293164301332	-0.317804039074774	-0.640872344380377	0.362662524718314	-0.0234335380876813	-0.0851964046168316	0.996088571329406	0.844485125123696	-0.534952971825396	-0.0258880547742164	0.535066110623266	0.84057533307583	0.0844829372533228	-17.0366037257	-84.930711612338	-105.379081517187
5592	1653392918045	9.74323163230825	-0.26903012383778	0.781828050572907	-0.0374226236600996	-0.0294069241807873	-0.0345520769835037	0.00407314502022515	0.00983849389263178	0.0007720284998683	0.592041015625	0.349365234375	0.26318359375	0	0	0	-0.597258119670011	-0.317796297640434	-0.640891055682772	0.362693956994182	-0.0234716640962914	-0.0852817876418929	0.996080367079461	0.84450746430916	-0.534917213531871	-0.025898212166333	0.535029180242223	0.84058943091375	0.0845765033885515	-17.0251374314773	-84.92539448826	-105.388225796294
5593	1653392918046	9.74453162458285	-0.243872771374733	0.806278105020398	-0.0018956273639667	-0.0217287653307877	-0.0318397947440019	0.00722535458793031	0.0055678981014061	-0.00133345718034728	0.585693359375	0.34130859375	0.2646484375	0	0	0	-0.597290556858019	-0.317852860059869	-0.640807604654436	0.362738423463857	-0.023329653662388	-0.0851900569438542	0.996091552748991	0.844592104080147	-0.534780790989434	-0.0259554101140007	0.534901771342612	0.840685529664106	0.0844271000799988	-17.0889904254237	-84.9326452306077	-105.315198796449
5594	1653392918047	9.76091437619014	-0.258426626833104	0.79609126019361	-0.0202074541770202	-0.0242468916200431	-0.0160043104325389	-0.00254319614108121	0.00372955311264611	0.000805139824759419	0.59228515625	0.34375	0.26611328125	0	0	0	-0.597287781067241	-0.317835053941088	-0.640817718821577	0.362740728783449	-0.0233329405388489	-0.0852233844576539	0.996088624886056	0.844579360913091	-0.534800084335836	-0.0259725415394378	0.534921748487987	0.840669878451682	0.0844563701480754	-17.0940312861707	-84.9307463403483	-105.311546402722
5595	1653392918048	9.72988749864312	-0.23784862360216	0.776655733705841	-0.0116424266464344	-0.0490876001398521	-0.0490849722917588	0.00250907049422877	0.00945008675106551	0.000288386765993697	0.589111328125	0.34912109375	0.267578125	0	0	0	-0.597308748330886	-0.3178004867092	-0.640808931189335	0.36275201380939	-0.0232664712892452	-0.085259438641512	0.996087094302642	0.844559482382385	-0.534827654249255	-0.0260511222068444	0.534956028129176	0.840648683085136	0.0844502196295729	-17.1438975033432	-84.9297539498577	-105.263810885598
5596	1653392918049	9.74624375425731	-0.252453338590772	0.76682266211406	-0.0299413584507696	-0.0516073404444789	-0.0332468279177167	-0.000739372762529949	0.00715448480341673	-2.30081954205232E-05	0.583984375	0.34765625	0.2607421875	0	0	0	-0.597290749928404	-0.317784339506868	-0.640827663477568	0.362762703893371	-0.0232939614278705	-0.0853174589464669	0.996081483895727	0.844556044784706	-0.534832668456308	-0.0260596233571569	0.534960258877806	0.840639606460951	0.0845137472282959	-17.1370285281606	-84.9261179632652	-105.271096414652
5597	1653392918050	9.7265451637547	-0.254411242422336	0.79576930909828	-0.0160784588263751	-0.0239358121015568	-0.0503708729276564	-0.000858920155839643	0.00563661627354792	0.000632715382201828	0.593017578125	0.34326171875	0.259765625	0	0	0	-0.597277766568884	-0.31783790514875	-0.640813100704819	0.362762877894384	-0.0233247279685403	-0.0852513809718524	0.996086421505477	0.844601437444564	-0.534764320944877	-0.0259910159659282	0.534887248802746	0.840689790045506	0.0844766712262811	-17.1016100230935	-84.9293177869587	-105.301619007219
5598	1653392918050	9.76391850304107	-0.242037458835793	0.781108525842218	-0.0145464540575032	-0.0465807889023187	-0.0147061522427929	-0.000739133769115957	0.0071546841199468	-2.3046820246092E-05	0.5947265625	0.3486328125	0.268310546875	0	0	0	-0.597259559470913	-0.317822424307005	-0.640831817464158	0.362773354801331	-0.0233530233335966	-0.0853084543066549	0.996080872181065	0.844598378832974	-0.534768799307611	-0.0259982645538107	0.534890843793286	0.840681151751904	0.0845398504564576	-17.0940626397778	-84.9257216809816	-105.309541966536
5599	1653392918051	9.72831606808886	-0.263046224270501	0.755699715183643	-0.0437856799102654	-0.0530485508578024	-0.05176130312746	-0.00447694727742373	0.00691835070234032	0.000309440379163665	0.59423828125	0.344482421875	0.272216796875	0	0	0	-0.597306230660073	-0.317833874004881	-0.64077222730706	0.362791741997602	-0.0232148375060025	-0.0852454386209366	0.996089497241033	0.844622051652712	-0.53472756094679	-0.026077297134901	0.534859477976725	0.840713774573857	0.0844137906994115	-17.1670818197755	-84.9313120393362	-105.233897316827
5600	1653392918052	9.74603886353638	-0.252527350338178	0.769398079054123	-0.0282498877242064	-0.0491670896054654	-0.0332292224439676	-0.00012984839421712	0.00661355185891331	-0.00132289417811951	0.5947265625	0.338623046875	0.259033203125	0	0	0	-0.597287140399037	-0.317825322380486	-0.640790030710765	0.362799218451994	-0.0232495980091267	-0.0852902887653038	0.996084847206675	0.844622200569475	-0.534727583088726	-0.0260720192786926	0.534857732951102	0.840709211634095	0.0844702727353616	-17.1530084928045	-84.9282973421532	-105.247996780368
5601	1653392918053	9.74733241383616	-0.227397558166449	0.793774631171353	0.00790418063487067	-0.0422701993232584	-0.0305389420019502	0.000825623707322433	0.00754391366361749	0.000460814404867859	0.58984375	0.3505859375	0.26318359375	0	0	0	-0.59735571137842	-0.317772958650334	-0.640737996257702	0.362824090966767	-0.0230496661954436	-0.085303378537346	0.99608837283566	0.844597345622927	-0.534758051529505	-0.0262516683483695	0.534905633411151	0.840688503510356	0.0843730016683912	-17.2829162454087	-84.9305829040984	-105.1206891221
5602	1653392918054	9.72627114198079	-0.254525294978945	0.799075247327313	-0.011804860204616	-0.0221076977375827	-0.0503604586572663	-0.00146767513445078	0.00617839115287974	0.00193249700728377	0.58935546875	0.34375	0.25927734375	0	0	0	-0.59734643993642	-0.317750477465415	-0.640750036893398	0.362837780539589	-0.0230519514167802	-0.0853624095299941	0.996083262872694	0.844590875538247	-0.534766758167212	-0.0262824526417921	0.534915750836911	0.84067697327723	0.0844237295315716	-17.2921978641989	-84.9272705993449	-105.112140579022
5603	1653392918055	9.76688396846691	-0.225775573566912	0.766703529608732	-0.00514224962913524	-0.0670615605853748	-0.0133859765245479	-0.00303198733377908	0.00578959080552017	0.00144854052543231	0.5888671875	0.34521484375	0.2685546875	0	0	0	-0.597366026177193	-0.31781779196764	-0.640687216337847	0.362857510187324	-0.0229765161398496	-0.085249233386159	0.996094698265756	0.844663439130636	-0.534652556818939	-0.0262739049815282	0.534804407519312	0.840761090735081	0.0842913637561655	-17.3124342441128	-84.9346860732309	-105.084028170454
5604	1653392918056	9.74259893376848	-0.269405229084592	0.789545267698448	-0.0292767095075187	-0.0229149287198922	-0.0345069253155596	-0.00242274176508908	0.00524829967003381	0.00014867078041287	0.587890625	0.349609375	0.2607421875	0	0	0	-0.597358928421414	-0.317800067412018	-0.640700580462578	0.3628611221708	-0.0229882333043349	-0.0852892477612756	0.996091002542369	0.84465207864726	-0.53466984633973	-0.0262872868876295	0.534821846194047	0.840746037535334	0.0843308555762732	-17.313098184647	-84.9322883353016	-105.084612133556
5605	1653392918057	9.74903025297055	-0.236393026998998	0.754691081299731	-0.0202230167491891	-0.0697891806780516	-0.031902544559026	-0.0024226639436953	0.00524837074191554	0.000148653301933093	0.58984375	0.345458984375	0.260986328125	0	0	0	-0.597359789174205	-0.317839366599811	-0.640681102725569	0.362859675256883	-0.0229882767004388	-0.085225759709791	0.996096435600607	0.844683587803094	-0.534621986223802	-0.0262482064570175	0.534772078207564	0.84078290998807	0.0842788386343615	-17.2989287225453	-84.9358136250517	-105.095363803033
5606	1653392918058	9.76351228446425	-0.24235074069012	0.786073278686655	-0.00908050400991976	-0.0419044244426667	-0.0146784459173617	-8.87865354829891E-06	0.00813232342279139	-0.00197840630861158	0.590576171875	0.34326171875	0.263427734375	0	0	0	-0.597335629707147	-0.317830947402693	-0.640703003454188	0.36286815197845	-0.0230336995242212	-0.0852779314465132	0.996090921098286	0.844684927875341	-0.534620386305703	-0.0262376669422412	0.534768006995986	0.840778637308623	0.0843472687109448	-17.2792033561626	-84.9322355081676	-105.114996815094
5607	1653392918059	9.72602644361429	-0.254584542631807	0.802029321137042	-0.0091985631659932	-0.0179952207192087	-0.0503492080934258	-0.00169318564306491	0.00622536692019697	-0.00180693253941033	0.5908203125	0.341796875	0.2578125	0	0	0	-0.597372092403648	-0.31785787631773	-0.640652181035573	0.362874271083572	-0.0229376932057079	-0.0851935370969636	0.996100358130299	0.844711235748574	-0.534577267696697	-0.0262692417487054	0.534730577422424	0.840814608637863	0.0842259073601404	-17.3221927221765	-84.938360316718	-105.069097481009
5608	1653392918061	9.74563286147361	-0.252775619794981	0.774442799254827	-0.0230064811229445	-0.044440608384274	-0.0331928609361416	-0.00256587224708493	0.00877979270989209	0.00387636185483299	0.59619140625	0.3486328125	0.263427734375	0	0	0	-0.597360305376463	-0.317822848484433	-0.640668778583	0.362895051896203	-0.0229356937395824	-0.0852815516517531	0.996092872628127	0.844700566956866	-0.534591636580987	-0.0263198457520636	0.534747516249897	0.840796550329229	0.0842986050835607	-17.3394917253686	-84.9335014815025	-105.05299903802
5609	1653392918061	9.74557504728222	-0.252942904061864	0.775115388940893	-0.0210353714631011	-0.0426608715837447	-0.0331804968575451	-0.000248669406071834	0.0050961898428308	-0.000667091616042604	0.593994140625	0.347900390625	0.257568359375	0	0	0	-0.597415105921877	-0.317887001486962	-0.640565300124463	0.362931318266194	-0.0227520988758313	-0.0851414242904611	0.996109070266172	0.844783410948546	-0.534457425014381	-0.0263865388624061	0.534624476228768	0.840896068915053	0.0840860910039625	-17.4220579505381	-84.9440212236652	-104.961393509988
5610	1653392918062	9.74229241441347	-0.269384943242983	0.793325382413873	-0.0252934677178629	-0.0186077940494814	-0.0344866654235787	-0.00543058986935583	0.00598938420785869	-0.0014759061533244	0.593505859375	0.343994140625	0.265869140625	0	0	0	-0.597409750053921	-0.317864315991607	-0.640586717808666	0.362922201204088	-0.0227781328273827	-0.0851758002432332	0.996105536435685	0.84475676651366	-0.534499504984734	-0.0263872052415857	0.534665467460061	0.840865840799827	0.0841277343193997	-17.4143686827962	-84.9417242758192	-104.971970727145
5611	1653392918063	9.73097091851231	-0.246833036908915	0.745453889125141	-0.0301069519102005	-0.0687643944244982	-0.0503726736773	-0.00459582235261939	0.00540136343067754	0.000963741019338912	0.5927734375	0.349365234375	0.26708984375	0	0	0	-0.597464999509441	-0.317908066237835	-0.640497639960093	0.362950146697387	-0.0226055307470577	-0.0850595394880216	0.99611940284372	0.844815310043364	-0.534403304866531	-0.0264612861377913	0.5345802857345	0.840938750736233	0.0839400715642083	-17.4969473358181	-84.9507432549049	-104.882974562881
5612	1653392918064	9.74219726773577	-0.269497754617652	0.794454695952115	-0.0233534539867002	-0.0168568622748298	-0.0344786643694714	-0.00447537621831836	0.00691984148769163	0.000308170472627829	0.5966796875	0.345703125	0.258544921875	0	0	0	-0.597458428601721	-0.317881854175011	-0.64051614584078	0.362951263665374	-0.0226196125929405	-0.0851099029091653	0.996114781314352	0.844794675214779	-0.534435013979931	-0.026479663159249	0.534612298637902	0.840913503434845	0.0839891057580384	-17.4987588978423	-84.9477355389734	-104.883412951874
5613	1653392918064	9.76315660259372	-0.242568862250605	0.790411711632465	-0.00197106737513456	-0.0352637521081993	-0.0146482858043715	-0.00615980398765245	0.00501280903333444	0.0004791566414906	0.59375	0.347900390625	0.266845703125	0	0	0	-0.59750422038582	-0.317937948718958	-0.640430683877638	0.362977556514911	-0.0224720001751952	-0.0849853971413809	0.996128752461672	0.844862461862932	-0.534325508461692	-0.0265268079885126	0.534511393464191	0.840995679703455	0.0838083347710286	-17.5634928565349	-84.9568335070836	-104.811273347143
5614	1653392918066	9.74534703976913	-0.253131037188754	0.777915644434122	-0.0172040081271052	-0.0390325814752943	-0.0331578517488502	-0.00447506388471487	0.00692012011835473	0.000308203374697797	0.58544921875	0.358642578125	0.26171875	0	0	0	-0.597498165168151	-0.317912240361403	-0.640448396134546	0.362978789928246	-0.0224846813658371	-0.0850344070799385	0.996124283770073	0.844842328281676	-0.53435641098124	-0.0265455530521648	0.534542682531034	0.840971090856167	0.0838555000981726	-17.5658630040866	-84.9539217292387	-104.811098203375
5615	1653392918066	9.73078193199385	-0.247130470409006	0.747818559033863	-0.029042862411445	-0.0649775379119928	-0.0503435104423762	-0.00603906366541306	0.00653154770309306	-0.000176441016422246	0.59375	0.344482421875	0.276123046875	0	0	0	-0.597445530794548	-0.318053975812473	-0.640417070257806	0.362996532112785	-0.0225847108154254	-0.0848984984176288	0.996133613429351	0.844978204020025	-0.534150372287942	-0.0263669208620643	0.534323652450906	0.841115702356748	0.0838010124069999	-17.4655179309699	-84.9600027954086	-104.896827908163
5616	1653392918067	9.77944343633145	-0.257207218867458	0.781588125582775	-0.0208140278422687	-0.0356519038582088	0.0012234367667503	-0.00325579119324637	0.00583788375724699	-0.00229119149019391	0.592041015625	0.348876953125	0.266845703125	0	0	0	-0.597436112246427	-0.318043241461366	-0.640434371708704	0.362990914319765	-0.0226153758103518	-0.0849226808868336	0.996130856387829	0.844964751706554	-0.534172185364096	-0.0263561142209328	0.534343628342696	0.841099408306972	0.0838371766892443	-17.4517208476934	-84.9582049959415	-104.91209520034
5617	1653392918068	9.74194975583859	-0.269544697761471	0.797468197709424	-0.0219152077647892	-0.0132270152207833	-0.0344697513220158	0.000827135661795618	0.0075453333858251	0.000462644453891782	0.5830078125	0.34423828125	0.269287109375	0	0	0	-0.597429138450279	-0.318000014211779	-0.640455813102259	0.363002433814691	-0.0226153151503359	-0.085009088778334	0.996123487498276	0.844938986849214	-0.534210448011838	-0.0264065472414603	0.534384371050347	0.841066377915601	0.0839088309837302	-17.4690610517594	-84.9534030582826	-104.897573850642
5618	1653392918069	9.73195242699892	-0.221910708877493	0.77352995744601	0.00555248604810887	-0.0585113701968926	-0.0476970120097189	-0.00435401306652707	0.00843915269832509	-0.000347448412688351	0.58642578125	0.3388671875	0.26123046875	0	0	0	-0.597416298771205	-0.317974550143352	-0.640479573332604	0.363003949795773	-0.022643796790364	-0.0850668720663331	0.996117907550992	0.844919587466655	-0.534240635787601	-0.0264165438397563	0.534413837004708	0.841041360665521	0.0839719028472941	-17.4629441140225	-84.9497699149161	-104.905819553755
5619	1653392918070	9.76151404741077	-0.267659182402821	0.770682394949192	-0.0351966712124422	-0.0396049804892301	-0.0172832409736525	-0.00447444232893012	0.00692073049715803	0.000307845312861962	0.58837890625	0.34423828125	0.26318359375	0	0	0	-0.597443860174439	-0.317890212843044	-0.640521394511414	0.362958661133225	-0.0226436884964838	-0.0851224638128532	0.996113161004162	0.844808687303342	-0.534413645773963	-0.026463882318847	0.534589136840694	0.840925812045873	0.0840132930369386	-17.4842381015249	-84.9466814552167	-104.896449717542
5620	1653392918071	9.7431013298154	-0.24459117025353	0.8231685790914	0.0127471979047359	-0.00657146110615708	-0.0318259893299988	-0.00410601565406345	0.00334236621849825	0.000318797044261586	0.58740234375	0.35302734375	0.2646484375	0	0	0	-0.597447995759861	-0.317872414780647	-0.640528425560079	0.362955033487032	-0.0226390720579054	-0.0851415580610193	0.996111634058803	0.844790506533198	-0.534441543175895	-0.026480879878705	0.534618062253549	0.840906149352417	0.0840260405680914	-17.4922909567337	-84.9456883101029	-104.890356007775
5621	1653392918072	9.74825705221708	-0.236676907490285	0.764525766829984	-0.0123928705326966	-0.0595139106407211	-0.031821569217124	-0.00615890076032586	0.00501366160205022	0.000478168081378784	0.588623046875	0.349609375	0.25927734375	0	0	0	-0.597437945858959	-0.317940113977367	-0.64050763795089	0.36294896404103	-0.0226719006987401	-0.0850441901076829	0.996119205039053	0.844842144510889	-0.534364266851203	-0.0263928242296604	0.534535065058363	0.840965109883581	0.0839639695437721	-17.4497645217116	-84.9506144859692	-104.927297219438
5622	1653392918073	9.71077287869929	-0.249125388826874	0.780189280796095	-0.013722949421939	-0.0367776057223643	-0.0675179047568992	-0.00554910542715163	0.00447260812667548	-0.000821485036593615	0.592529296875	0.354248046875	0.260498046875	0	0	0	-0.597439087716485	-0.31791982890995	-0.640522318053899	0.362938946558815	-0.022683715078545	-0.0850655256219019	0.996117114309811	0.844816455825667	-0.534404606913292	-0.02639833472036	0.534575163130868	0.84093731779516	0.0839870377087256	-17.4486838306349	-84.94925364156	-104.931149869382
5623	1653392918074	9.74819302722547	-0.236632003805385	0.765355572631598	-0.012092593683157	-0.0565542759316459	-0.0318036325877209	-0.00867688049132174	0.00369557637145207	-0.00179165104448005	0.58740234375	0.34521484375	0.267333984375	0	0	0	-0.597433859767426	-0.318100871921134	-0.640429279345737	0.362953105294761	-0.0226756531205729	-0.0848031279059889	0.996139671056683	0.844980054734896	-0.534153757279809	-0.0262387248942379	0.534316874013696	0.841123173549049	0.0837692369728204	-17.3919263829416	-84.9639550746445	-104.970193959427
5624	1653392918075	9.73040155504763	-0.246970744705557	0.752804168799796	-0.027355669368285	-0.0603063772760301	-0.0503086635193721	-0.00530730134835075	0.00751039834168345	-0.00213170085733068	0.583984375	0.34912109375	0.257568359375	0	0	0	-0.59742281695551	-0.318081452443916	-0.640454298202423	0.36294415452815	-0.0227150369495789	-0.0848400528693063	0.996135629583398	0.844956522230685	-0.534191460610031	-0.0262289715991348	0.534352414270026	0.841095505183838	0.0838203347842228	-17.3758907809092	-84.9613178852454	-104.988792017134
5625	1653392918076	9.76129505428827	-0.267449805051901	0.773523586905381	-0.0349247145079241	-0.0335699540164221	-0.0172597257572722	-0.00855564865727776	0.00521470951808872	-0.00244705053870861	0.58447265625	0.343505859375	0.25634765625	0	0	0	-0.597420124176192	-0.318136017023846	-0.640449439590611	0.362909334723674	-0.0227720199994484	-0.0847284425013452	0.996143828037117	0.844971877682567	-0.534172578885247	-0.0261186119976097	0.534325706878064	0.841118747263655	0.0837573398030129	-17.319394696214	-84.9666690739463	-105.043589768491
5626	1653392918077	9.74809392760471	-0.236200437350543	0.766749813001262	-0.0119128524059191	-0.0548355067476219	-0.0317936249033046	-0.00674428483402635	0.000505833710673393	-0.00129641522977423	0.5947265625	0.343994140625	0.26708984375	0	0	0	-0.597435325063232	-0.318122963937931	-0.640454155747376	0.362887429608484	-0.022767491597476	-0.084709731981801	0.996145522819799	0.844941317463147	-0.534220986494988	-0.02611719035357	0.534374224088327	0.841089887524451	0.083737624363873	-17.322341958205	-84.9677759784951	-105.04390537965
5627	1653392918078	9.70931089986154	-0.273649381959723	0.758545150033444	-0.0457062623995943	-0.0374223681358872	-0.0701259248197647	-0.00760125122639439	0.00614454682041152	-0.000662065259291985	0.58544921875	0.34765625	0.266357421875	0	0	0	-0.597498084714248	-0.318111840715178	-0.640411318947107	0.362869450524611	-0.0226436012775427	-0.0846289757276711	0.996155210691822	0.844913837936642	-0.534261237345536	-0.0261827564093365	0.534422935309065	0.841072450349732	0.0836017911192124	-17.3897294615668	-84.9741080353676	-104.979364831919
5628	1653392918079	9.74803742973959	-0.236054782294178	0.767512582263418	-0.0101750032034954	-0.0534029853366709	-0.0317837362761963	-0.00650231129036177	0.00354392990391499	-0.00260647629941369	0.5859375	0.34619140625	0.271484375	0	0	0	-0.597501575669497	-0.318098152351485	-0.640426399607385	0.362849086024702	-0.0226648156870125	-0.0846279730321247	0.996154813425277	0.844884562022397	-0.53430821248322	-0.0261688923955475	0.534468318037746	0.841042710124439	0.0836108650860791	-17.3793034741362	-84.9738482228905	-104.992936749598
5629	1653392918080	9.77894172906726	-0.256537204810067	0.788058876773556	-0.0184982097767487	-0.0280960311094772	0.00125261526832254	-0.00699111795986177	0.00560392775392698	-0.00196172947213789	0.590576171875	0.34375	0.2626953125	0	0	0	-0.597469614032928	-0.318073102636479	-0.640495804563393	0.362801165961799	-0.022810748568208	-0.0846672216455336	0.996148147279603	0.844823277111425	-0.534409630711927	-0.0260763696295319	0.534558977289197	0.840974320762037	0.0837191233730976	-17.300478135471	-84.9694905575785	-105.078411353305
5630	1653392918081	9.74472388581139	-0.25228968039885	0.785953733323405	-0.0153927796971622	-0.0293052639285751	-0.0331208467589139	-0.00662284824419418	0.00202523079818996	-0.00195179282601514	0.588134765625	0.350341796875	0.269775390625	0	0	0	-0.597478651050005	-0.318059713646137	-0.640506067113634	0.362779903089228	-0.0228200069080738	-0.0846576805858045	0.996148746123062	0.844793235236383	-0.534457520939816	-0.0260681416620561	0.534606057750529	0.840944846841158	0.0837145601896087	-17.29623143015	-84.9698818681396	-105.085875016822
5631	1653392918081	9.74470045911798	-0.252104296028312	0.786303613884148	-0.0151675521879042	-0.0285311925303421	-0.033118205917571	-0.00481730981974485	0.0054517990376597	-0.00277585254106668	0.593505859375	0.347900390625	0.2587890625	0	0	0	-0.597478255814394	-0.318080754735325	-0.640505507200686	0.362763094238633	-0.022845342574805	-0.0846108502432358	0.996152144174652	0.844796188432788	-0.534455141850837	-0.0260211713540089	0.534600308952467	0.840951071924115	0.0836887345919914	-17.2719325428098	-84.972102879194	-105.109835795579
5632	1653392918082	9.76111255488397	-0.266434778310023	0.776172324419293	-0.0333785565085455	-0.0309057747086561	-0.0172455669904945	-0.00638078153394751	0.00506355671778047	-0.00326142983649012	0.5908203125	0.351318359375	0.26513671875	0	0	0	-0.597474971520782	-0.318066684842238	-0.640526862315027	0.362743133708379	-0.0228821547073318	-0.0846196755854458	0.996150549615751	0.844767209456749	-0.534502005881786	-0.0259993756656628	0.534644525664115	0.84092039826143	0.0837144847994186	-17.2533315982686	-84.971060532763	-105.131561506781
5633	1653392918083	9.7623751409491	-0.241197837018668	0.800420135302039	0.00124273798241536	-0.0222021374303459	-0.0146098629866529	-0.00542696237180808	0.00599281171786887	-0.00147621894120344	0.5927734375	0.342041015625	0.26416015625	0	0	0	-0.597486528215789	-0.31818695342193	-0.640443339147697	0.362766096285281	-0.0228212159731621	-0.0844374238217846	0.996167412416129	0.844887096316296	-0.534315644116017	-0.0259342810022278	0.534457656489009	0.841057140693321	0.0835338225454269	-17.2477101230465	-84.9820945028475	-105.124191084118
5634	1653392918083	9.76430524219318	-0.249547827732861	0.759494876169942	-0.027930272183767	-0.0524416587147906	-0.0158902726582202	-0.00650133078144289	0.0035447482334637	-0.00260691941152187	0.58984375	0.346923828125	0.2646484375	0	0	0	-0.59748963276389	-0.318174278963724	-0.640458473826201	0.362745379363817	-0.0228438569797448	-0.084435037923812	0.996167095706886	0.844858370295615	-0.534361835912229	-0.025918380774053	0.534502097600866	0.841028033237488	0.0835425338911731	-17.2360714670325	-84.981887044989	-105.138915659762
5635	1653392918084	9.72811166047163	-0.236823016120046	0.798896224271359	0.0058484329977149	-0.0225497042228844	-0.0489824263941987	-0.00229969520494742	0.00676973496002733	-0.000504772622863882	0.593505859375	0.34814453125	0.26220703125	0	0	0	-0.597535453396215	-0.318158701559916	-0.640421320793381	0.362749161859196	-0.0227288550100618	-0.0844023867320057	0.996172493227891	0.844846802686228	-0.534376172384317	-0.0259997380514456	0.534525283911612	0.841022201551081	0.0834528451125765	-17.3044254588002	-84.9854238182695	-105.071738681726
5636	1653392918086	9.72806513207147	-0.236740151238688	0.799487131089226	0.00603035955883558	-0.0223651374922189	-0.0489821125421557	-0.00699003796577824	0.00560485592351286	-0.00196209689860502	0.5888671875	0.34619140625	0.262451171875	0	0	0	-0.597534312446476	-0.318138698884353	-0.640441748042112	0.362732520028259	-0.0227557287261311	-0.0844205209962807	0.996170343086392	0.844815675798195	-0.534425774372238	-0.0259916450474504	0.534573335227059	0.840988862780804	0.0834810274425759	-17.2938688178474	-84.9840146209967	-105.085653353936
5637	1653392918086	9.76419190030558	-0.249140047289256	0.761084247271579	-0.0251581644884981	-0.049669274201692	-0.0158683135859405	-0.00637978894430333	0.00506442815938848	-0.00326177084132568	0.590087890625	0.345703125	0.27099609375	0	0	0	-0.597564995739796	-0.318207160375917	-0.640380575959771	0.362729922787499	-0.0226861579621457	-0.0842714728761888	0.996184549717669	0.844869314613819	-0.534342412400141	-0.0259620402583103	0.534491514863326	0.841056778802523	0.0833205579039863	-17.3066294944265	-84.9933329397945	-105.067020249705
5638	1653392918088	9.74444840197941	-0.250946199699708	0.789790047232016	-0.0110768323639312	-0.0229716519861922	-0.0330980777214833	-0.00711073615294931	0.00408583914555954	-0.0013077026898661	0.595703125	0.353515625	0.265380859375	0	0	0	-0.597570324908013	-0.318188150836295	-0.640394844001775	0.362712628995261	-0.022698511113356	-0.084279001571538	0.99618363140906	0.844838188280036	-0.534391698869452	-0.0259605046778309	0.534540188589168	0.841024709549919	0.0833320149134219	-17.3034297588988	-84.9927300860477	-105.073565911836
5639	1653392918089	9.72796934978839	-0.236106423549309	0.800838861659726	0.00738371817545023	-0.0196369774844565	-0.0489771741296447	-0.00203244390068657	0.00476032114804037	-0.00488919766540888	0.58447265625	0.3427734375	0.2626953125	0	0	0	-0.597545579021064	-0.318255336527925	-0.640379411566104	0.362721699111217	-0.0227444999725057	-0.0842148777939516	0.996188005388114	0.844903155162443	-0.534293019530737	-0.0258771651707821	0.534435539721629	0.841093825704883	0.0833056435277561	-17.2563199843402	-84.9956021769603	-105.113686051921
5640	1653392918090	9.74766667914916	-0.233826590712622	0.772884587280109	-0.00631720828304233	-0.0459380084226274	-0.0317425744300532	-0.0066214429063253	0.00202604720297827	-0.00195310471068846	0.5869140625	0.344482421875	0.262939453125	0	0	0	-0.597555445023311	-0.31824370438513	-0.64038802953517	0.36270043613192	-0.0227517675054148	-0.0842015184126876	0.996188968706428	0.844874552011581	-0.534338676497889	-0.0258683235195845	0.53448044719953	0.841066158572251	0.0832968694844454	-17.2524831047478	-84.9962349427294	-105.120583135845
5641	1653392918091	9.72990468971146	-0.244140087990127	0.760114077755539	-0.0211296704752541	-0.0490488344443311	-0.0502301511744196	-0.00855268120565799	0.00521716348798335	-0.00244823191822537	0.594482421875	0.342041015625	0.26025390625	0	0	0	-0.597593327370195	-0.31821687386135	-0.640396215539672	0.362647105868769	-0.0227385833752488	-0.0841471073972573	0.996193867248119	0.844804229301841	-0.534450195589831	-0.0258612178312309	0.534592153870415	0.841000744797926	0.0832404725450566	-17.2590171580666	-84.9994538370215	-105.121546446159
5642	1653392918092	9.74109773821176	-0.266662136783291	0.808765126548643	-0.0144553868368169	0.0030105212272355	-0.0344473950842019	-0.00674219134971723	0.000506864563410059	-0.00129896018882367	0.590087890625	0.344970703125	0.25830078125	0	0	0	-0.597609478899517	-0.318205794793406	-0.640399057583495	0.362625192086148	-0.0227317615878629	-0.0841240641174173	0.996195969100197	0.844775260954595	-0.534496084448761	-0.0258591219502722	0.534638219260659	0.84097388636349	0.0832159657786878	-17.262481846282	-85.0008356246884	-105.121168817386
5643	1653392918093	9.76534025711613	-0.223155055343404	0.786869016197603	0.0126131349259765	-0.0390339436209037	-0.0132410205430915	-0.00676732497204254	0.00555518613383662	0.00177759714433954	0.589111328125	0.34765625	0.26513671875	0	0	0	-0.597714409443181	-0.318213402094232	-0.640291320875707	0.362635822669034	-0.0224654897222859	-0.0839836683678902	0.996213855163142	0.844786611206527	-0.534470981689536	-0.0260067540845905	0.534631539752127	0.841003872273663	0.082955430943209	-17.4063504853601	-85.0126096295413	-104.97589438414
5644	1653392918094	9.74756574046621	-0.233651357439179	0.774209490769124	-0.00262348705640705	-0.0427557132937753	-0.0317264576958429	-0.00493652554740724	0.00393434914834327	-0.00212140273160642	0.59423828125	0.34814453125	0.267578125	0	0	0	-0.597715951152771	-0.318204707250767	-0.640301782854473	0.362622438487162	-0.0224812176863257	-0.0839835292213694	0.996213512090086	0.844767646244095	-0.534501462778157	-0.0259963487286786	0.53466084456462	0.840984514190086	0.0829628120419836	-17.3983519868843	-85.0123835312502	-104.985931123193
5645	1653392918095	9.74753815671882	-0.233500442891852	0.774602211117582	-0.00224054603234457	-0.0418794828172558	-0.0317225714436748	-0.00337324961814872	0.00432259785789878	-0.00163522085666158	0.58544921875	0.3515625	0.25927734375	0	0	0	-0.597716839545104	-0.318245509918546	-0.640277299442417	0.362628397894625	-0.0224704495291798	-0.0839240618343347	0.996218766508232	0.844806863386069	-0.534440880914124	-0.0259674485371162	0.534599328912551	0.841028951138403	0.0829087502817939	-17.3908254774426	-85.0158475157364	-104.989212210523
5646	1653392918096	9.76396681995417	-0.247917361745994	0.764364029709095	-0.0203857709885643	-0.0441944730324072	-0.0158309934344523	-0.00493632264808763	0.0039345182699156	-0.00212148536790424	0.58740234375	0.346923828125	0.2666015625	0	0	0	-0.597718384172583	-0.318236968767421	-0.640287699020922	0.362614985093464	-0.0224862116155665	-0.0839236553607129	0.996218445100309	0.844788002383288	-0.53447120859078	-0.0259568529826913	0.534628470357158	0.841009718884632	0.08291592986368	-17.3827425022596	-85.0156355580426	-104.999322210234
5647	1653392918097	9.73101543664705	-0.218566984999542	0.786166672278707	0.0156441672745131	-0.0374184248741735	-0.0476043583867121	-0.00313077317188192	0.00736198349334547	-0.0029434151303328	0.588623046875	0.349609375	0.274169921875	0	0	0	-0.597671025177383	-0.318354341932467	-0.640275857471927	0.362610927820372	-0.0226053213773306	-0.0837997136528615	0.9962261828707	0.844884377302656	-0.534327655995989	-0.0257748914204043	0.534471129655597	0.84111328846329	0.0828797172723239	-17.2752521458084	-85.0207408566109	-105.096445793406
5648	1653392918098	9.74744250648331	-0.232817407950745	0.776010178223698	-0.00251300739909522	-0.039721109877118	-0.0317136342235074	-0.00745189112182876	0.00261819419884759	-0.00439400821617106	0.587158203125	0.34619140625	0.2646484375	0	0	0	-0.597677451562709	-0.318347853483951	-0.640290407411949	0.362580339031098	-0.0226343232831989	-0.083774758434076	0.996227623216112	0.844852093557063	-0.534380283860509	-0.0257420324257822	0.534520932631978	0.841082339649617	0.0828726161513327	-17.2559279199103	-85.0216917577184	-105.119224814678
5649	1653392918099	9.76188473428284	-0.238582545202962	0.807156732266614	0.00756256650438613	-0.0118640799479146	-0.0145947309227328	-0.00107836161835042	0.00569059272911509	-0.00310247566302232	0.587890625	0.34814453125	0.257080078125	0	0	0	-0.597625654380244	-0.318358344701615	-0.640342844078591	0.362563902812696	-0.0227819872076229	-0.0838121732152031	0.996221110336363	0.84484862953406	-0.534390761472147	-0.0256380035814152	0.534520134544334	0.841071955110955	0.0829830831708659	-17.1687734147057	-85.017393463332	-105.206826794553
5650	1653392918100	9.76386071503106	-0.246748968497435	0.766095508340559	-0.0215656280605167	-0.0420837073844091	-0.0158242251246143	-0.00757272330717173	0.00109864318678	-0.00374025407699851	0.587890625	0.345703125	0.26513671875	0	0	0	-0.597637716901671	-0.318352132395236	-0.640352482555248	0.36253244988731	-0.0227987642305268	-0.083778625433416	0.99622354834146	0.844815591735285	-0.534444285156223	-0.0256109746947499	0.534571634405083	0.841041287918935	0.0829621582719292	-17.1558079605836	-85.0190020362253	-105.223317157587
5651	1653392918100	9.74737184952424	-0.231966811445169	0.777151606011709	-0.00262839223342873	-0.0376865617944255	-0.031705613737488	-0.00374095642847872	0.00790260306947329	-0.00164343796083895	0.590087890625	0.357177734375	0.265625	0	0	0	-0.597645097207182	-0.318428369270696	-0.640308603362361	0.362530831637761	-0.0227834677925037	-0.0836489135509206	0.996234798055709	0.844877528376159	-0.534349539511277	-0.0255446994321529	0.534474391940662	0.841114397026847	0.0828474228556472	-17.1363233754073	-85.0264312140301	-105.236072347769
5652	1653392918103	9.74278222457508	-0.273462844500196	0.771721309996441	-0.0407437364380534	-0.019983741984618	-0.0356693221544013	-0.00386200464593911	0.00638297230901224	-0.000989545343288806	0.591552734375	0.3466796875	0.270751953125	0	0	0	-0.597638086823583	-0.318416971559833	-0.640322630497194	0.362527624152513	-0.022804877808363	-0.0836730644601141	0.996232280059224	0.844865503240827	-0.534368707897998	-0.0255414457901285	0.534492487301525	0.841099817086699	0.0828786988010231	-17.1281810491688	-85.024767397825	-105.245526850907
5653	1653392918104	9.74727713274636	-0.231687846351362	0.778421746363979	-0.00344072752725393	-0.0364395898446043	-0.0317011406153629	-0.00107791695957389	0.00569114966514591	-0.00310221339175095	0.585693359375	0.3515625	0.260009765625	0	0	0	-0.597564998733782	-0.318533845655917	-0.640319970055023	0.36255013089045	-0.0229469497592261	-0.0836068237583443	0.996234579061473	0.844985532062525	-0.53418718352594	-0.0253673719891513	0.534296629319108	0.841221702036785	0.0829045229198945	-17.0132183978656	-85.0262864871946	-105.347623652092
5654	1653392918105	9.72951468282496	-0.241910367180334	0.765797932164545	-0.0187111000806374	-0.040159062721138	-0.0501845994523595	0.000363813647567902	0.00455953976095531	-0.00196168722102193	0.596435546875	0.34228515625	0.25634765625	0	0	0	-0.597554149965544	-0.318542678601132	-0.640323932888762	0.362553252279497	-0.02296835424103	-0.0836100496839441	0.996233815073202	0.844996047840931	-0.534171402342351	-0.0253493994566422	0.534279078606551	0.841231402475832	0.0829191995371436	-16.9990243629121	-85.0257816227531	-105.360699001072
5655	1653392918106	9.74393478648974	-0.247833009433288	0.797076325628032	-0.00596443715533759	-0.00954225157558525	-0.0330712993363136	-0.00168832618618296	0.00623130603588731	-0.00180269400894991	0.58447265625	0.348876953125	0.25927734375	0	0	0	-0.597607654540966	-0.318655323675106	-0.640207156882267	0.362572299278756	-0.0228128380595231	-0.0833810405940929	0.996256581654102	0.845104482947982	-0.534000224978459	-0.0253411251561295	0.534114208124904	0.841362800337881	0.0826477518551181	-17.0463788037926	-85.0408484046691	-105.301512962835
5656	1653392918107	9.74388377465986	-0.247607689559381	0.797769663824163	-0.00577171986844965	-0.00927392343282388	-0.0330709255655304	0.00216952758378505	0.00798768502798354	-0.00278271630295852	0.581298828125	0.34814453125	0.265869140625	0	0	0	-0.597581908312555	-0.318667112342133	-0.640218841855071	0.36258374053838	-0.0228577879094438	-0.0834064826661964	0.996253421665964	0.845125287105649	-0.533968605217446	-0.0253135879860988	0.534079367347665	0.841380346390019	0.0826942687381035	-17.0199021997391	-85.0387544162715	-105.325789112353
5657	1653392918108	9.7668472289968	-0.228857467788085	0.752521891540889	-0.0162944289584079	-0.0582791076983655	-0.0144065051078233	-0.000246621424154252	0.00509975926189213	-0.000662175888506004	0.590576171875	0.343505859375	0.265380859375	0	0	0	-0.597530340751941	-0.318770338407234	-0.640223742229263	0.362569335601572	-0.023001937524609	-0.0833010958526594	0.996258921315067	0.845200891573004	-0.533857896466345	-0.0251236793628876	0.53395352209187	0.84146103522996	0.082685926465214	-16.9011254435359	-85.0423993659176	-105.436429825862
5658	1653392918109	9.74707343026785	-0.230590291309776	0.781293062270435	-0.00227063403554651	-0.0315073839709093	-0.0316836673781395	0.00326991297296052	0.0053879971292528	-0.00472786819427801	0.5888671875	0.346435546875	0.26318359375	0	0	0	-0.597507406247668	-0.318797021191237	-0.640229579611358	0.362573363816817	-0.0230509106594849	-0.083293222086517	0.996258447729411	0.845227547092351	-0.533818030260304	-0.0250739746601193	0.533909214337059	0.841487106094595	0.0827067175175578	-16.865589213061	-85.0420853869201	-105.469115322798
5659	1653392918110	9.72728380808719	-0.232276070654851	0.810231056581623	0.0127327520753409	-0.00432764476698474	-0.0489638964660877	0.00155908966847101	0.00852808980798642	-0.00148330819184156	0.59033203125	0.337646484375	0.26806640625	0	0	0	-0.597529322003308	-0.318785613181614	-0.640212111767807	0.362578121403503	-0.0229916304515458	-0.0832863069514451	0.996260395681555	0.845221312186719	-0.533825677415858	-0.0251212968785445	0.533921640650142	0.841482939343329	0.0826688843493779	-16.9028992742352	-85.0433769721062	-105.432451744398
5660	1653392918111	9.74572092372931	-0.255205721937045	0.758913087969599	-0.0347308150225212	-0.0370582630393849	-0.0342633687308425	0.00131633953713574	0.00548826460961742	-0.000175443300366445	0.586181640625	0.343017578125	0.25927734375	0	0	0	-0.59751715310573	-0.318792159581414	-0.640212815773171	0.36259117646963	-0.0230017809815865	-0.0833034688732288	0.996258726509014	0.845238603375284	-0.533798395471577	-0.0251192427467276	0.533893829741339	0.841498547274835	0.0826896214676839	-16.8975988846459	-85.0422702105143	-105.435911025508
5661	1653392918112	9.73247351657079	-0.224035667918972	0.752593281201693	-0.00976027241646662	-0.0584714804641395	-0.0487683156677345	-0.000614293055074108	0.0086800489153342	-0.000670894307132949	0.588134765625	0.346435546875	0.271240234375	0	0	0	-0.597597002365757	-0.318665883531613	-0.640218698756658	0.362560195276328	-0.0228558551293048	-0.083368079372087	0.99625668039322	0.845103186390997	-0.534004318948414	-0.0252980571630541	0.534114420548718	0.841361486334056	0.0826597548729562	-17.0167550145266	-85.0409138490514	-105.331281262087
5662	1653392918113	9.74686632342517	-0.230071029627869	0.784025100867557	0.0013928779114469	-0.0302638386674589	-0.031679576235268	-0.000246306609291154	0.00510010164622424	-0.000662441337640939	0.596435546875	0.34326171875	0.2646484375	0	0	0	-0.597588704936761	-0.318668947619374	-0.640221208773909	0.362566746118892	-0.0228661886815286	-0.0833799135000757	0.996255452903472	0.845111768345765	-0.533990912863839	-0.0252943468454776	0.534100399193519	0.841368822219819	0.0826756831103321	-17.0113147389735	-85.0401003288747	-105.335812038033
5663	1653392918115	9.7146550686774	-0.23433465033	0.74079520688469	-0.0238064528215015	-0.0623273608861573	-0.067239098058268	0.00155973625051476	0.00852862049923349	-0.00148330432364697	0.58642578125	0.34814453125	0.267578125	0	0	0	-0.597606481083362	-0.318610148679444	-0.640227237283628	0.362578476423792	-0.0228066844027269	-0.0834582529390833	0.996250257296284	0.84507221209816	-0.53404884318533	-0.0253927043052453	0.534165528170882	0.84132428534351	0.082708133851248	-17.0673137780648	-85.036658407474	-105.284088318774
5664	1653392918115	9.76323584751375	-0.244458803911213	0.774744561786057	-0.0155322833404404	-0.0326820814932051	-0.0157769272184201	-0.00241994612570228	0.00525192293976355	0.000149719728213873	0.59033203125	0.350830078125	0.2705078125	0	0	0	-0.597603154490517	-0.318602959275235	-0.640232168306967	0.362581569786724	-0.0228101499879563	-0.0834765022396087	0.996248648998516	0.845069036211186	-0.534053519184115	-0.0254000528377395	0.534170404547673	0.841319506620941	0.0827252481680925	-17.0686392566469	-85.0355934447876	-105.283116625421
5665	1653392918116	9.74467518567091	-0.221474053477297	0.827364351321445	0.0310060961090094	0.000529064245759906	-0.0304935743679078	0.000827351785759047	0.00754881212232669	0.00047010516990535	0.596435546875	0.351318359375	0.25634765625	0	0	0	-0.59753402354147	-0.318639139258382	-0.640270979414015	0.362595177247628	-0.0229556562942085	-0.0835228846565704	0.996241419327036	0.845113792411977	-0.533987672738878	-0.0252951228098086	0.534093358617339	0.84135669790022	0.0828443792860403	-16.9791599119975	-85.0308090024332	-105.367872687179
5666	1653392918117	9.74666275619324	-0.229808820110286	0.786628374243601	0.00190519448457719	-0.029674688095184	-0.0316778574370602	-0.00107591497832614	0.00569210959196218	-0.00310307806940296	0.58642578125	0.345703125	0.264404296875	0	0	0	-0.597521172236108	-0.318645234351143	-0.640281536386285	0.362592357224627	-0.0229904624237515	-0.0835278352175296	0.996240201648887	0.845116931045307	-0.533983994215187	-0.0252679002403911	0.534086895081788	0.841358541090461	0.0828673267097856	-16.9575090605587	-85.0300036210777	-105.389201109283
5667	1653392918118	9.76308758610332	-0.244288178990507	0.776664377707502	-0.0152651430100235	-0.0297942965845122	-0.015767299413568	-0.00134640795681164	0.00770068438439712	0.00128216435639981	0.58349609375	0.345947265625	0.26953125	0	0	0	-0.597542684696534	-0.318759578440803	-0.640180936241233	0.362634030382144	-0.022878599948921	-0.0833578776174395	0.996257011972058	0.845247694714452	-0.533777782322087	-0.0252510134295533	0.533884729360451	0.841506234877931	0.0826701422357994	-16.9849230444404	-85.0411336261274	-105.347608698287
5668	1653392918119	9.76303709658903	-0.24432461201543	0.777287328481036	-0.0150573330097964	-0.0295129691404619	-0.0157661262860032	-0.000245781743973226	0.00510054643209918	-0.000662528278034734	0.59326171875	0.343994140625	0.256591796875	0	0	0	-0.597534503937539	-0.318762937985587	-0.640183196980834	0.362640566228206	-0.0228886726596091	-0.0833690860400444	0.996255842721501	0.845256502131607	-0.533764018184965	-0.0252471482603661	0.533870353426861	0.841513855134832	0.0826854119418303	-16.97951703629	-85.0403586667777	-105.352080088788
5669	1653392918120	9.74527157858094	-0.254732863299964	0.764819209099757	-0.0295361078541641	-0.0325482189354187	-0.034230246059332	-0.000613223547269269	0.00868105168634578	-0.000671148335931073	0.592529296875	0.35107421875	0.265380859375	0	0	0	-0.597555885920173	-0.318762140344351	-0.640164472792925	0.362639088983801	-0.0228397086863117	-0.0833409360842848	0.996259321702798	0.845253708769402	-0.533767178048174	-0.0252738491342275	0.53387687299479	0.841514639213772	0.0826353221704904	-17.0061477726155	-85.0426648314471	-105.325714939634
5670	1653392918120	9.76293682705882	-0.244135283576443	0.778605117726543	-0.0138612153776587	-0.0282704113228699	-0.0157606965624844	0.000365623345459649	0.00456065829136839	-0.00196182280860209	0.5859375	0.3466796875	0.26171875	0	0	0	-0.597546501192249	-0.318772413549172	-0.640166179890297	0.362642509087948	-0.0228571790305994	-0.0833402586314955	0.996258977705094	0.84526562020316	-0.533749117924866	-0.0252568885057969	0.533857266195123	0.84152616145053	0.082644654545876	-16.9935847723768	-85.0424367528397	-105.337004736092
5671	1653392918122	9.72871212665181	-0.239919240742149	0.776545026302909	-0.0109062229318287	-0.0282282558718185	-0.0501309721906775	-0.000245582424589985	0.00510074884923786	-0.000662587921796897	0.58837890625	0.348388671875	0.25830078125	0	0	0	-0.597530710192243	-0.318867204542153	-0.640123440778279	0.362660635871616	-0.022868627132699	-0.0832292537637789	0.996267994673617	0.845361042512129	-0.533601938113337	-0.0251729903765257	0.533705662042171	0.841630478868021	0.0825615124892542	-16.9564544088678	-85.0484186788568	-105.363823045102
5672	1653392918122	9.76284399894242	-0.243998063838598	0.779811202677524	-0.0135804987971161	-0.0264676366829211	-0.0157552671210386	0.00407515506362802	0.00984666722944043	0.000791299438800536	0.592041015625	0.34423828125	0.259765625	0	0	0	-0.597502050661918	-0.318872078627292	-0.640129842829667	0.362692267970491	-0.0228912364184479	-0.0832868472257017	0.99626266234083	0.845393730740243	-0.533549832452663	-0.0251796805942659	0.53365291278164	0.841657814892096	0.0826237938534258	-16.9486504999135	-85.0448802980521	-105.368162620418
5673	1653392918123	9.74507147524303	-0.254495879526269	0.767443256800247	-0.0273706015847495	-0.0282123376622576	-0.0342104739214566	0.00288002857870466	0.00587779250950909	0.000312430757682225	0.59033203125	0.34375	0.265380859375	0	0	0	-0.597547817767917	-0.31896522443394	-0.640022203014116	0.362724924331875	-0.0227344694984711	-0.0831100627093216	0.9962810152628	0.845497957926739	-0.533383629740484	-0.025201322714886	0.533494467673599	0.841780625223294	0.0823955821652135	-17.0066549485768	-85.0570693800288	-105.298800054811
5674	1653392918124	9.74502638749038	-0.254388469317004	0.768051161222547	-0.0271463015947441	-0.0279024006194936	-0.0342089593617327	0.00205086432255519	0.00646961179778626	-0.00212837965521309	0.587158203125	0.346923828125	0.264892578125	0	0	0	-0.597529512968585	-0.31897910962936	-0.640026166779555	0.362735874416986	-0.0227623330849405	-0.0831220384650985	0.996279379950191	0.845519766561036	-0.53335002606201	-0.0251808271155611	0.53345871494156	0.841800734390901	0.0824216175031727	-16.9885623734723	-85.055982071646	-105.314567164506
5675	1653392918125	9.72849085271699	-0.239755492334253	0.779362640908542	-0.0081551659425385	-0.0249814145583255	-0.0501194382142582	0.0023908185528609	0.00793843604614556	0.000957533766282938	0.587890625	0.3427734375	0.265869140625	0	0	0	-0.597535847610897	-0.31895889596967	-0.640024809335834	0.362745609120724	-0.0227330677671233	-0.0831536301172592	0.996277411882964	0.845511127142351	-0.533361691490888	-0.0252237968682534	0.533473655870997	0.841790223184079	0.0824322670034717	-17.0138076532199	-85.0546738331415	-105.290261067107
5676	1653392918126	9.76261085068612	-0.243884773673656	0.782759926849748	-0.0108041729427947	-0.0231950983120913	-0.0157435173783487	0.0025131331644105	0.00945892365777206	0.000303455822152847	0.593017578125	0.346923828125	0.261474609375	0	0	0	-0.597511109760632	-0.318961427615964	-0.64003250759246	0.362770548185366	-0.0227560061638136	-0.0832038941002413	0.996272691681363	0.845535880442843	-0.533322274124951	-0.0252275009847884	0.533433443896443	0.841810230354055	0.082488162811607	-17.0052967884641	-85.0515375671229	-105.296153643671
5677	1653392918127	9.73166197118165	-0.223110714881184	0.763286466626668	-0.00199725797112149	-0.0478643979264885	-0.0487058825702533	0.00410348262209126	0.00479794061605454	-0.00228566920377951	0.592529296875	0.3359375	0.266357421875	0	0	0	-0.597546475857519	-0.318968811486011	-0.639990264397112	0.362780330181195	-0.0226572824477671	-0.0831543804376138	0.996279075644029	0.845549137285323	-0.53329865866565	-0.0252823476256698	0.533416632650435	0.84183008361513	0.0823942129789229	-17.0584305270411	-85.0557797668426	-105.241531348002
5678	1653392918128	9.76250702940184	-0.243689503129881	0.784114417736617	-0.00915728786764578	-0.0221232968226473	-0.0157393606464442	0.00395381989878538	0.00832749816929285	0.00144514938773791	0.59228515625	0.34619140625	0.263427734375	0	0	0	-0.597524905912811	-0.318974501515083	-0.639989857211995	0.362811572118174	-0.0226634999020511	-0.0832010344567675	0.996275039152098	0.84558187048231	-0.533246061040688	-0.0252970096301712	0.533364477710906	0.841858792345792	0.0824385083941813	-17.0591102741804	-85.053097060359	-105.237367975465
5679	1653392918129	9.74267951733784	-0.245700810196296	0.812923062049388	0.00734118476576947	0.00421851509075574	-0.0330684904221297	0.00180724670199748	0.00342931090373761	-0.000820378167963139	0.58984375	0.34619140625	0.26513671875	0	0	0	-0.597627362936535	-0.318861588808495	-0.639954738818122	0.36280401667605	-0.0224295611064956	-0.0832354785454245	0.996277456284084	0.845477120390923	-0.533401065332494	-0.0255292459276374	0.533540395550368	0.841757185067924	0.0823376445040909	-17.2263413218107	-85.0547033442081	-105.081329966637
5680	1653392918130	9.74470904076207	-0.254111483901269	0.772158316045066	-0.0216852891918947	-0.0259615542759974	-0.0341899783297475	0.000950981967292615	0.00907093155773429	-0.000184830538049993	0.591064453125	0.34765625	0.266357421875	0	0	0	-0.597606920161883	-0.318860422008859	-0.63996384307424	0.362822656140175	-0.0224513783320352	-0.0832803732392744	0.996273213051581	0.845493152272204	-0.533375502935442	-0.0255323780556409	0.533514072046655	0.841768942347894	0.0823880005019229	-17.2184224397991	-85.0518838862026	-105.087563911446
5681	1653392918131	9.7479288599937	-0.237526394541434	0.755530189770942	-0.0167161591973252	-0.0493525152474229	-0.0327770090512374	0.00419893419402732	0.0113688065195492	0.000136874374268526	0.591064453125	0.34619140625	0.265380859375	0	0	0	-0.597581160593903	-0.318875829358723	-0.639960311513298	0.362857770540789	-0.0224619897228233	-0.0833207673535502	0.996269596417209	0.845537520127668	-0.533304887617909	-0.025538185119622	0.533443306335402	0.841809685481502	0.08242992390806	-17.2138656507879	-85.0494820419853	-105.087385457286
5682	1653392918131	9.74249111329163	-0.245640289881734	0.815196123201776	0.00830190646254336	0.00538674945573525	-0.033069832491762	-0.000489305874572522	0.00206068344523514	0.000644729288509072	0.59375	0.344970703125	0.265380859375	0	0	0	-0.597587114866276	-0.318880269209755	-0.639949235968096	0.362863596187831	-0.0224393014148707	-0.0833110821523984	0.996270917643695	0.845546042411754	-0.533290768940698	-0.0255508497796076	0.533430752688513	0.841819588363941	0.0824100281090293	-17.225809106036	-85.0503593473503	-105.07451234467
5683	1653392918132	9.76431863758693	-0.252197605305103	0.746166189244668	-0.0334575023627029	-0.0510731166733669	-0.0168434407333393	0.000339773548562777	0.00961165156665604	0.00111385689843464	0.591064453125	0.34375	0.259521484375	0	0	0	-0.597609160136691	-0.318854732502849	-0.639924818853885	0.362892790636682	-0.0223442284492819	-0.0833471888298455	0.996270034463131	0.845549224416392	-0.533280964128916	-0.0256499977889154	0.533429699720445	0.841822225539274	0.0823899025625122	-17.2926466565728	-85.0497728909315	-105.007322135385
5684	1653392918133	9.73006881532493	-0.248147868723223	0.744398497158315	-0.0303363075780345	-0.0522586179488388	-0.051217475259218	-0.00229608512646644	0.00677377019009054	-0.000507107115591374	0.596923828125	0.343017578125	0.265869140625	0	0	0	-0.597601756651606	-0.3188480753548	-0.639932552594236	0.362897194009103	-0.0223555340544684	-0.0833711155090378	0.996267778860643	0.845547795257086	-0.533283062845719	-0.0256534757444448	0.533431491414803	0.84181852675067	0.0824160905789094	-17.2896837045163	-85.0482754226768	-105.010458115448
5685	1653392918134	9.76090147333573	-0.26878310569826	0.765269776105337	-0.0350413511899118	-0.0259148388912923	-0.018240963840487	-0.000733335625705183	0.00716252675396046	-1.89578414230155E-05	0.590087890625	0.349365234375	0.267578125	0	0	0	-0.597685401587872	-0.318811743294881	-0.639858703913733	0.362921578432394	-0.0221201772737674	-0.0833388119518947	0.996275735015073	0.845535311240418	-0.533294000490836	-0.0258369209862588	0.533461090617626	0.841814796414821	0.0822624661320458	-17.436413644454	-85.0535594366573	-104.864960278151
5686	1653392918134	9.74557471120501	-0.229256664791441	0.80015379024688	0.0173819618318107	-0.0165473274535366	-0.0316620988393375	-0.000978483883486984	0.00412159882462825	0.00128933918027139	0.590087890625	0.34619140625	0.262939453125	0	0	0	-0.597687645205484	-0.318808514998947	-0.639852443828961	0.362931756200798	-0.0221000382194553	-0.083349721094079	0.996275269342885	0.845541363498791	-0.533283342210342	-0.0258588385967755	0.53345233238154	0.841820468339008	0.0822612190657788	-17.450556003867	-85.0532500092115	-104.850167062026
5687	1653392918136	9.73114216844678	-0.223268057271119	0.769839474059826	0.00653641897350142	-0.0436930841370656	-0.0486883088506769	-0.000855771554382089	0.00564217104201752	0.000635175043393714	0.593017578125	0.341796875	0.273193359375	0	0	0	-0.597675391633922	-0.318847558296193	-0.639835313014317	0.362947837882616	-0.0221059864231455	-0.0833190083665917	0.996277706369598	0.84558836547138	-0.533210203089781	-0.0258301277657643	0.53337757877858	0.841869836830946	0.0822407216075879	-17.4364366507305	-85.0548695660521	-104.859220522821
5688	1653392918136	9.76196491477588	-0.243940057794152	0.790757707791226	-0.000546707258422886	-0.0179407584756042	-0.0157265440878884	0.000952350015256978	0.00907199904772079	-0.000184833068359306	0.58984375	0.349609375	0.258544921875	0	0	0	-0.597655891748235	-0.318846094104756	-0.639843440722984	0.362966905786927	-0.0221249207241718	-0.0833634943293257	0.996273564688009	0.845604481139804	-0.53318438715521	-0.0258354556802239	0.533351243890207	0.84188178333251	0.0822892066655256	-17.4301620933268	-85.0521174736205	-104.863799503915
5689	1653392918137	9.71332950960563	-0.233734503077724	0.758163152577956	-0.00776846072588766	-0.0470487227689678	-0.0671273790652282	-0.00229542559700196	0.00677428709312226	-0.000507470039010556	0.5869140625	0.33984375	0.272705078125	0	0	0	-0.597674113278198	-0.318821986909161	-0.639835512405956	0.36297205408216	-0.0220738845449946	-0.0833815237863509	0.99627318799221	0.845588117064455	-0.533207657237344	-0.0258907424160266	0.533379302092315	0.841865259857258	0.0822763899608298	-17.4677512631021	-85.0518672400145	-104.827959950841
5690	1653392918138	9.74747270913479	-0.237774264522397	0.761315187832078	-0.0103133722603442	-0.0452451589250759	-0.0327482966274388	-0.00024357129545988	0.00510211334421088	-0.000663667985008146	0.591552734375	0.345703125	0.2646484375	0	0	0	-0.597668863886163	-0.31882514038347	-0.639834464317251	0.362979775293803	-0.0220752237373664	-0.083390221303543	0.996272430356221	0.845597659028883	-0.533192425174243	-0.0258927940107442	0.533364119098593	0.841874045643264	0.0822849180009668	-17.4673508390608	-85.0513639915379	-104.827341412069
5691	1653392918139	9.74410899295158	-0.254293719426926	0.779634554237225	-0.0141107849045426	-0.0222123730921897	-0.0341668791894882	0.000952746579527458	0.00907241114831934	-0.000184758980256967	0.589111328125	0.352783203125	0.2607421875	0	0	0	-0.59768133867706	-0.318699516666599	-0.639894526055737	0.362963677242748	-0.0220687727992395	-0.0835554329353419	0.996258730899822	0.845478447963441	-0.533375974157797	-0.0260050806680567	0.533553336880641	0.841741385354319	0.0824152709473477	-17.5124219138443	-85.0422731215601	-104.795176642788
5692	1653392918139	9.74736517355362	-0.237733932229987	0.762703338701283	-0.0092900985582501	-0.0458683133773952	-0.0327501738402169	-0.00241798732708992	0.00525393111964201	0.000146417855471529	0.585205078125	0.3505859375	0.265869140625	0	0	0	-0.597680871548308	-0.318692251664322	-0.639896199247412	0.362967875580051	-0.0220637941643196	-0.0835710026043152	0.99625753523413	0.845476053526014	-0.533379140052057	-0.026017991302246	0.533557337032442	0.841737833580644	0.082425649028759	-17.5185133606113	-85.0414804744458	-104.789350247113
5693	1653392918141	9.74400964538915	-0.254348413469648	0.780857397454715	-0.015172232297201	-0.0199852765209979	-0.0341636631688136	-0.000855379739878988	0.00564265580005141	0.0006349893569386	0.59130859375	0.344970703125	0.250732421875	0	0	0	-0.597608774420026	-0.318856275821125	-0.639869195142704	0.362990139278058	-0.0222038230461795	-0.0834298001099855	0.996266258936707	0.845635032948372	-0.533137668312756	-0.0257995673693031	0.533299523056733	0.841904801672758	0.0823888562113528	-17.3876287097933	-85.0472666175572	-104.90312310409
5694	1653392918141	9.76164604392297	-0.243977501951255	0.794672873365063	0.000593842281354332	-0.0156536813838461	-0.0157226255615157	-0.0013444221413548	0.00770376285322336	0.00127951606580138	0.59130859375	0.345703125	0.266845703125	0	0	0	-0.597599942523024	-0.318845545212273	-0.639874503437994	0.363004747688991	-0.0222037237034619	-0.0834708063611006	0.996262826336066	0.845639124331407	-0.53313014290708	-0.0258209628768115	0.533293039569907	0.84190550254129	0.0824236539895336	-17.3942748387051	-85.0449890829508	-104.896063601886
5695	1653392918143	9.74722030455548	-0.237952223555627	0.764484599120301	-0.00831530010766898	-0.04147144603205	-0.0327296633490448	-0.00398019361246507	0.00486555415708935	-0.000342439571377956	0.587158203125	0.3505859375	0.26806640625	0	0	0	-0.597671068771065	-0.318909220592107	-0.63976683545444	0.363021485353139	-0.0220093894521079	-0.0832925843482324	0.996282054524992	0.84570384319716	-0.533024620386671	-0.0258797925648312	0.533198458716357	0.841989963986649	0.082172405150776	-17.4815632759895	-85.0577605024959	-104.801632820884
5696	1653392918143	9.75943206773961	-0.235478137487044	0.837169603881826	0.032199853689005	0.0173293995272564	-0.0146528643412864	-0.00324486134320853	0.00584607246450645	-0.0022951894514794	0.59326171875	0.345703125	0.26220703125	0	0	0	-0.597666495012582	-0.318906947588805	-0.639775264940484	0.363016156512766	-0.0220280617001497	-0.0832975202201384	0.996281229183262	0.845697510622386	-0.533035257780581	-0.0258676340218703	0.533207731587638	0.841982741561825	0.0821862390379348	-17.471087982278	-85.0572116319555	-104.812799019624
5697	1653392918145	9.74261853524387	-0.279383606044972	0.759600326872936	-0.0463278829685665	-0.0228804374298841	-0.0366455287000296	-0.00122113122434777	0.00922482024029593	0.000625577778528242	0.586181640625	0.344970703125	0.263916015625	0	0	0	-0.597639258803205	-0.318947578675006	-0.639767124912893	0.363039645597001	-0.0220590641239177	-0.0832904715531633	0.99628113253159	0.845752849618794	-0.532949315564309	-0.0258291386078656	0.533118668826807	0.842037840235215	0.0821995167890121	-17.4440195248922	-85.0571473604289	-104.833928104873
5698	1653392918145	9.74707610184159	-0.237755097372249	0.766382153251102	-0.00768810584497233	-0.0399439732148329	-0.0327227923051652	-0.00336765663691436	0.00432550311989696	-0.00164130196635049	0.5888671875	0.34619140625	0.26025390625	0	0	0	-0.597640750742676	-0.318945920444156	-0.639770016444898	0.363033550711027	-0.0220643482197505	-0.0832858027357692	0.996281405828843	0.845746120098005	-0.532960281780349	-0.0258232140482532	0.533129125894289	0.842031361118616	0.0821980657675224	-17.4405501393	-85.0573291000679	-104.838119799347
5699	1653392918147	9.74703041907493	-0.237755532802755	0.766962825106975	-0.00712615391914774	-0.038782171925137	-0.0327176905989166	-0.00134411177161374	0.00770422165047943	0.00127967326416689	0.585205078125	0.3515625	0.25732421875	0	0	0	-0.597651929122723	-0.318967893962009	-0.6397467386137	0.36303686406543	-0.0220328138908507	-0.0832397452555944	0.996285952887942	0.845766853874023	-0.532927435901957	-0.0258220245333851	0.533097537041852	0.842056704072089	0.0821433084746552	-17.4507154396084	-85.060353822552	-104.825684701687
5700	1653392918148	9.74697693477498	-0.237857285349427	0.767610696100087	-0.00683137766099868	-0.0384543058302898	-0.0327161856060574	-0.000854912532517254	0.00564318034015185	0.000635090181726036	0.58984375	0.34521484375	0.259521484375	0	0	0	-0.597648382261207	-0.318965338215866	-0.639745204769842	0.36304765137843	-0.0220256280183376	-0.0832577513803865	0.996284607200914	0.845774224908829	-0.532915031690889	-0.0258365918373165	0.533086139559328	0.84206277428288	0.0821550483948025	-17.4576186024121	-85.0594584735407	-104.817997950531
5701	1653392918149	9.74360328105807	-0.254508148864088	0.785860089700771	-0.0110333613741504	-0.0119476020324631	-0.0341449933104734	-0.00290626566605025	0.00731585129164334	0.000790591368078041	0.587158203125	0.347412109375	0.258544921875	0	0	0	-0.597645399252763	-0.3191030894913	-0.639666482563524	0.363070222014864	-0.0219999812761674	-0.0830667170359753	0.996301119815046	0.845908690323248	-0.53270646432637	-0.0257353939256182	0.532873801626104	0.842213597245832	0.0819863900582271	-17.4269878967829	-85.0704563115459	-104.834042457023
5702	1653392918149	9.74805956595912	-0.212978814182114	0.792598362361855	0.027615697364879	-0.0289711708499583	-0.030221646972473	-0.00241710749882404	0.00525475579286082	0.000146016361544482	0.5859375	0.347412109375	0.258544921875	0	0	0	-0.597645274309402	-0.319098627762724	-0.639666658975868	0.363074038248724	-0.0219947376908066	-0.0830771401728616	0.996300366503301	0.84590828785689	-0.532706617019421	-0.0257454601580303	0.532874656977546	0.842212472577095	0.0819923837111713	-17.4321942526536	-85.0699540532203	-104.828883962271
5703	1653392918151	9.74896788303628	-0.246435580426944	0.728123019426316	-0.035078512440616	-0.0637889429564116	-0.0337319562787002	-0.00217026802237233	0.00829673576330468	-0.00116195795559949	0.59423828125	0.345947265625	0.262451171875	0	0	0	-0.597639893979594	-0.319214218489479	-0.639609104142705	0.363082681680051	-0.0219950467761643	-0.0829116741285534	0.996314143335582	0.846012280907879	-0.532546497956348	-0.025640750134846	0.532709525417336	0.842330031405524	0.0818576796764205	-17.3924204905501	-85.0791476157821	-104.857369721646
5704	1653392918151	9.76446689805693	-0.227538485991112	0.78318717518072	0.00995371534490957	-0.0288440611781647	-0.0142671496884965	-0.00266378677340587	0.00221295982595033	0.00145385236267278	0.590087890625	0.349365234375	0.26220703125	0	0	0	-0.597652145376232	-0.319211370808558	-0.639597768037519	0.363084988666748	-0.0219624082641081	-0.0829019755339149	0.99631567039559	0.846011417902805	-0.532546783502778	-0.0256632842584738	0.532712242586301	0.842330805463875	0.0818320277474166	-17.4119094647858	-85.0801677092797	-104.837954994811
5705	1653392918152	9.70922686492876	-0.250604908010926	0.785568562893433	-0.00623255610319433	-0.00902454943018729	-0.0685154244217401	-0.00122006686382553	0.00922581547251576	0.00062580498180678	0.5927734375	0.3505859375	0.258544921875	0	0	0	-0.597660725627774	-0.319268909511857	-0.639538953541362	0.363123873305531	-0.0218854193553421	-0.0828347476209211	0.996322956177473	0.846092700137901	-0.532416832109396	-0.025679946650093	0.532586303985558	0.842419563800114	0.0817380409223836	-17.4413497278555	-85.0850376022907	-104.799699342633
5706	1653392918152	9.74883906759472	-0.246571393259688	0.729799800510039	-0.0334281532112297	-0.0615851791030616	-0.0337120484688249	0.00180931617383606	0.00343059136078938	-0.000818565773889358	0.585693359375	0.3544921875	0.26416015625	0	0	0	-0.597657563450777	-0.319285243513522	-0.639527856325697	0.363134260443778	-0.0218778914840613	-0.0828224689118931	0.996324142288819	0.846115431648213	-0.532380884332923	-0.025676259923394	0.532550499193241	0.842443489285919	0.0817247402491814	-17.4416636691464	-85.0858308672152	-104.796929206063
5707	1653392918154	9.74332435402706	-0.254716700479652	0.789243496966466	-0.00956651225947347	-0.00471019495855499	-0.0341372837716154	-0.00302922937231983	0.00579541128987223	0.00144422149796274	0.589599609375	0.34716796875	0.259521484375	0	0	0	-0.597599890848649	-0.319476666104099	-0.639459387672395	0.363181389653075	-0.0219472973346885	-0.0826410564981294	0.99633767966517	0.846317939668129	-0.532067876049343	-0.0254896110647856	0.532225761435498	0.842659024194967	0.0816180605453853	-17.3437703562207	-85.0948936574812	-104.872940418347
5708	1653392918154	9.71358552964615	-0.209102441734966	0.793486932210379	0.03191346252682	-0.0232137837917999	-0.0645833529044992	0.000955147616131327	0.00907444030918314	-0.000183361362146381	0.583740234375	0.34228515625	0.269775390625	0	0	0	-0.597581042796586	-0.319479107104589	-0.639465206156798	0.363200010364321	-0.0219652995230042	-0.0826782230569783	0.996334199477768	0.846336854958109	-0.532037705190023	-0.0254913356996314	0.532194939431485	0.842674428049335	0.0816599948275987	-17.3365003643261	-85.0925622018835	-104.878204286127
5709	1653392918155	9.74654027779927	-0.23817353614697	0.773037910679391	-0.00449380911316747	-0.0281316163715455	-0.0326796917425796	-0.000241676057404301	0.00510354934203197	-0.000663382405503663	0.5908203125	0.3486328125	0.258544921875	0	0	0	-0.597588380244126	-0.319443522445192	-0.63949036289134	0.363174943428249	-0.0219841765261793	-0.0827022784169449	0.996331786669036	0.846285227046947	-0.532119592867393	-0.0254961441935517	0.532276253898823	0.842620360560607	0.0816879275300195	-17.3340006747813	-85.0909464555579	-104.886284039946
5710	1653392918156	9.75750790495888	-0.260879846964003	0.822028270586074	0.00214638607151825	0.0242031470946868	-0.0171700783104072	0.00227034737277634	0.00642107018764611	0.00161395308410832	0.5947265625	0.336181640625	0.268310546875	0	0	0	-0.597578457367921	-0.319449461600718	-0.639483003666151	0.363199004396907	-0.021972940989743	-0.0827269475798403	0.996329986504664	0.84631141346132	-0.532077049376214	-0.025514799082213	0.532235080870629	0.842644803978061	0.0817040575455753	-17.3427038591886	-85.0897413142671	-104.874773391575
5711	1653392918156	9.72876672081618	-0.248687442694056	0.761050777755773	-0.01727891098653	-0.0315498933925407	-0.0510967309646784	-0.000117750469452913	0.00662478973716926	-0.00131743052189176	0.5810546875	0.345947265625	0.26708984375	0	0	0	-0.597660756703675	-0.319366557938083	-0.63944950184521	0.363195479263005	-0.0217813274786134	-0.0827446192080769	0.99633272643499	0.846236053940568	-0.532188091027394	-0.0256977971763097	0.532362766151396	0.842572942694417	0.0816132431343436	-17.4778012738519	-85.091575710237	-104.747725287965
