// Start Time : 14/06/2022 10:44:36																																
// Update Rate : 100Hz																																
// Filter Profile : 46.1 human																																
// Firmware Version : 4.3.5																																
PacketCounter	Time_Of_Arrival	Acc_X	Acc_Y	Acc_Z	FreeAcc_X	FreeAcc_Y	FreeAcc_Z	Gyr_X	Gyr_Y	Gyr_Z	Mag_X	Mag_Y	Mag_Z	VelInc_X	VelInc_Y	VelInc_Z	OriInc_q0	OriInc_q1	OriInc_q2	OriInc_q3	Mat[1][1]	Mat[2][1]	Mat[3][1]	Mat[1][2]	Mat[2][2]	Mat[3][2]	Mat[1][3]	Mat[2][3]	Mat[3][3]	Euler_X	Euler_Y	Euler_Z
24814	1655203509311	6.02396909003954	-1.28223912248092	7.54047173937925	-2.08166817117217E-15	-7.80625564189563E-16	-0.0766175837127125	0.00759207422243537	0.00464516596772615	-0.00610631948090779	0.56201171875	-0.377685546875	0.2216796875	0	0	0	0.0667323751451174	-0.329108410496972	0.375333940459347	0.863920642991535	0.501624174558831	0.604593106530977	0.618740949859788	-0.692441850181766	0.7093424464935	-0.131748160212837	-0.518553248582075	-0.362354065987726	0.774468888495296	-9.65440493435508	-38.2242501449882	50.3178833412973
24815	1655203509311	6.02422371112427	-1.30482271860248	7.5660721733674	-0.00226660792168147	-0.0452635946921109	-0.0537310793907295	0.00608009756635912	0.0060650587152582	-0.0107233825776151	0.55859375	-0.388427734375	0.21142578125	0	0	0	0.0684749372906955	-0.329488904027414	0.377386599229205	0.862744226180659	0.498032833690058	0.606052754963387	0.620212346513628	-0.696299683128416	0.705781075370503	-0.130536680378067	-0.516846251647353	-0.366842107520588	0.773496490171698	-9.57908175820856	-38.3316427994121	50.5878375828032
24816	1655203509311	6.02180712696184	-1.25484490020927	7.56494808116605	-0.0364374680722234	-0.0115368943740459	-0.0626219619815185	0.00913140827436531	0.00613144049340421	-0.0106945686627488	0.56494140625	-0.3798828125	0.226318359375	0	0	0	0.0685203765291911	-0.329441561828555	0.377357607470717	0.862771378422022	0.498138986847877	0.605999766589378	0.620178871516749	-0.696293606032808	0.705812388168548	-0.130399719729907	-0.516752130116557	-0.366869398562252	0.77354643068052	-9.56861085361126	-38.3291977960448	50.5793902591605
24817	1655203509312	6.04741256053549	-1.27765693104885	7.54228534572098	0.00514142795231334	-0.00428316217861557	-0.0612962192836228	0.00760578045978798	0.00609818281184094	-0.0107090549072314	0.558837890625	-0.385498046875	0.226318359375	0	0	0	0.0685562500917789	-0.329399114913633	0.377328838995825	0.862797317409791	0.498238340712356	0.605951883929838	0.620145845915361	-0.696281356337957	0.705845975670833	-0.130283273851504	-0.516672844903208	-0.36688386853495	0.773592527334937	-9.55966478929894	-38.3267856972145	50.5715639179414
24818	1655203509312	6.02269243875235	-1.27755032662431	7.54228717368391	-0.00602624280226401	-0.0196428679583267	-0.0766392638333091	0.00759022059264233	0.00612249939502193	-0.0091831107245623	0.557861328125	-0.3779296875	0.2236328125	0	0	0	0.0685925676066256	-0.329355233954837	0.377303822076341	0.862822122677826	0.498333911426278	0.605909527013445	0.620110439999948	-0.696274811620017	0.70587377103143	-0.130167607619473	-0.516589488303909	-0.366900346748557	0.77364037907137	-9.5507542040007	-38.3241998359715	50.5642078419235
24819	1655203509313	6.0461745788123	-1.27451755422673	7.56767204879802	-0.00825193561922038	-0.0129798436713182	-0.0428334466070552	0.00908294630251237	0.00768132497143683	-0.00919360234800581	0.556640625	-0.386962890625	0.22265625	0	0	0	0.0686321109829638	-0.329301612428169	0.377281866575528	0.862849045052213	0.498437682410987	0.605873266958343	0.620062465512942	-0.696275926202499	0.705896052990615	-0.130040751163326	-0.516487861758257	-0.366917356849597	0.77370016278846	-9.54089389156275	-38.320696179749	50.5566726890104
24820	1655203509314	6.04677701697233	-1.27500971171752	7.51938135897948	0.0185373493506322	0.00442775456596552	-0.0797589870618527	0.00453903621053043	0.00605546095501781	-0.00921234830901152	0.556884765625	-0.38134765625	0.2177734375	0	0	0	0.0686554384998239	-0.329263763295828	0.37725167313973	0.862874834525808	0.498533098587087	0.605830453967703	0.620027588626865	-0.696253446172412	0.705935211755343	-0.129948510945605	-0.516426072450063	-0.366912711484935	0.773743609889332	-9.53372511069201	-38.3181491693034	50.5493053137994
24821	1655203509314	6.0216223899353	-1.27408107484252	7.54372826583334	-0.00602801993501503	-0.0196254364501034	-0.0766392297802874	0.0107061565023107	0.0046154133556596	-0.0121805725928608	0.562255859375	-0.380615234375	0.22314453125	0	0	0	0.0687124590288156	-0.329219408973338	0.37721851543049	0.862901715345309	0.498641544743327	0.605762057748818	0.620007209028981	-0.696247958351104	0.705969579181261	-0.129791115884533	-0.516328761883268	-0.36695951093077	0.773786357458919	-9.52187291936115	-38.3166609170531	50.5400165044159
24822	1655203509315	6.04568444854668	-1.27178464526781	7.54466284649374	0.00513964777043609	-0.00426570284066631	-0.0612962106920474	0.00450574498658123	0.00758064747839813	-0.00923781656566706	0.556640625	-0.3837890625	0.229736328125	0	0	0	0.0687328074926853	-0.329175029515323	0.377188679352753	0.862930067436456	0.498745000223425	0.605724657150126	0.619960534608855	-0.696225152890429	0.706009002684599	-0.129698976908056	-0.516259587063364	-0.366945401727096	0.77383920223552	-9.5145990612773	-38.3132525590623	50.5324481511867
24823	1655203509316	6.04528458900982	-1.27077151152077	7.54515395028083	0.00513718388287943	-0.00424167929943655	-0.0612961989143184	0.00759026722327516	0.00612273279346755	-0.00918311003421743	0.560791015625	-0.376953125	0.22216796875	0	0	0	0.068768012914002	-0.329130785080422	0.377164066820087	0.862954896510785	0.498840386024158	0.605683816343017	0.619923691990739	-0.696218496658241	0.706036454199186	-0.12958522389833	-0.516176398319614	-0.366959997768149	0.773887773424411	-9.50582085870378	-38.3105622727962	50.5251756480018
24824	1655203509316	6.04392133337345	-1.24536969475739	7.54475424296557	-0.011948277744054	0.0126215619669812	-0.0657419328968682	0.00608206063632909	0.00458818946816049	-0.00764663397484899	0.563232421875	-0.3818359375	0.23486328125	0	0	0	0.0687981867354306	-0.329096888693388	0.377142659352047	0.862974774747857	0.498917304698395	0.605646664599527	0.619898088988793	-0.696211741409035	0.706060447997566	-0.129490752170479	-0.516111164572796	-0.366975150974757	0.773924094708497	-9.49857947139374	-38.308692773758	50.5191157071525
24825	1655203509317	6.02075747005436	-1.27059751607492	7.52115019827018	0.00736679687895029	-0.0108804888481147	-0.0951019589821378	0.00755691415350909	0.00764814154352476	-0.00920851518111807	0.5703125	-0.391845703125	0.224609375	0	0	0	0.0688308097137495	-0.329046018527451	0.37711827234993	0.863002228262005	0.499021052702073	0.605610810935955	0.619849606467254	-0.696204826489275	0.706088256587907	-0.129376247749303	-0.51602018229247	-0.366980816373479	0.773982074650764	-9.48963503992613	-38.3051527729604	50.5116045114442
24826	1655203509317	6.04422971456995	-1.26759563040093	7.54653315141132	0.00513981732475043	-0.00422439135740298	-0.0612961927973909	0.00759035511764485	0.00612277207023905	-0.00918311968264609	0.56640625	-0.3818359375	0.21435546875	0	0	0	0.0688671253156234	-0.329002125225664	0.3770932413065	0.863027003058836	0.499116577915908	0.605568438662938	0.619814091276445	-0.696198161011027	0.70611601282344	-0.129260578055306	-0.515936781257527	-0.366997333136985	0.774029841295517	-9.48073039172388	-38.3025597046806	50.5042546230736
24827	1655203509318	6.01990717431469	-1.26824797355095	7.52222730431472	0.0073583047056085	-0.0108503235384827	-0.0951019188196476	0.0090650484681792	0.0091827498989597	-0.0107451494507162	0.566162109375	-0.385009765625	0.224365234375	0	0	0	0.0689050994208276	-0.328941499498224	0.377065486994483	0.863059207528243	0.499238216850947	0.605528187330297	0.619755449499213	-0.696191174236542	0.706147411582838	-0.129126612400398	-0.515828510021143	-0.367003334403575	0.774099154363332	-9.47024998721724	-38.2982782993394	50.4955327285157
24828	1655203509319	6.04337514679762	-1.26523755005329	7.54761318956772	0.00513129428961895	-0.00419412103993362	-0.0612961752423562	0.00608231852154939	0.00458817982105657	-0.00764655681450423	0.568603515625	-0.37744140625	0.224853515625	0	0	0	0.0689352724132312	-0.328907598109202	0.377044073677098	0.863079073218861	0.499315116822029	0.605491029594909	0.619729801762914	-0.696184369092666	0.706171389444585	-0.129032139255884	-0.515763258040013	-0.367018503361889	0.774135440246698	-9.46301106741506	-38.2964058510018	50.4894753538775
24829	1655203509320	6.01969590682928	-1.29000498291999	7.54836551479039	0.0110281572240335	-0.0363724238454125	-0.0721930736164893	0.00142203258673944	0.0075613967535666	-0.00621684088539984	0.56591796875	-0.382080078125	0.2255859375	0	0	0	0.0689349888860221	-0.328870205136177	0.377023018103562	0.863102542749733	0.499396063987541	0.605477723328713	0.619677575700808	-0.696160379072738	0.706203222254731	-0.128987346225657	-0.515717265449834	-0.366979202993458	0.774184710961946	-9.45919424266073	-38.2925931647236	50.4842982938353
24830	1655203509321	6.01884572830122	-1.2656320993324	7.52351715049172	0.00733741353195812	-0.0108056657015318	-0.0951018532621894	0.0061485533957826	0.00301312527593315	-0.010672709473689	0.56787109375	-0.377197265625	0.218017578125	0	0	0	0.0689733925178884	-0.328841931861311	0.376988108041377	0.863125495724508	0.499485900490207	0.605413407985694	0.619668008406626	-0.696138782556138	0.706245275039913	-0.128873608256528	-0.51565941340457	-0.367004382691741	0.774211309948588	-9.45068504799802	-38.2918947402975	50.4762515815703
24831	1655203509322	6.04368162695934	-1.28721437413326	7.54945590200293	0.0221544102068677	-0.0209152720020755	-0.0568499013135355	0.00306485996106624	0.00299449757224806	-0.00765097346277074	0.56298828125	-0.3779296875	0.216552734375	0	0	0	0.0689884521857937	-0.328820544887245	0.376962941318455	0.863143431648299	0.499551980265188	0.605376532670375	0.61965076672681	-0.696115814425017	0.706279068675095	-0.128812460805765	-0.515626407314953	-0.367000178260768	0.774235285450127	-9.4459945107354	-38.2906360931055	50.4708175817225
24832	1655203509322	6.04251834817185	-1.26219060946461	7.54880923755392	0.00506897767367093	-0.00405211882185839	-0.061296082607841	0.00308243241695703	0.00149411378204681	-0.00609932947392233	0.565673828125	-0.37744140625	0.223876953125	0	0	0	0.0690089668317661	-0.328806182919879	0.376942201191359	0.863156320449248	0.499602142069345	0.605338936862351	0.619647053699185	-0.696101236747142	0.706304678915651	-0.128750800933273	-0.515597486261155	-0.367012904487318	0.774248513140943	-9.44139593723844	-38.2903650439622	50.4662464733739
24833	1655203509323	6.0196636997493	-1.28765965077074	7.52494778741102	0.0243079984055927	-0.0274473643893667	-0.0906549967534182	0.00613235427990539	0.00303824180741703	-0.00914673323603079	0.564208984375	-0.38427734375	0.22314453125	0	0	0	0.0690377818552112	-0.32877921059063	0.3769162156166	0.863175637842713	0.499676794177325	0.605293414817672	0.619631328564843	-0.69608616449481	0.706335902163545	-0.128660968882231	-0.515545490679121	-0.367027894434703	0.774276030719828	-9.43459767827313	-38.2892171283115	50.4599283555939
24834	1655203509324	6.0185172649493	-1.26248850163883	7.52430803869696	0.00722259447361075	-0.0105842686343733	-0.0951015235797303	0.00157312712514447	0.00143457226022473	-0.00764046001297345	0.554931640625	-0.380615234375	0.227783203125	0	0	0	0.0690544276661818	-0.328767417202715	0.376886321078474	0.863191851438303	0.499737372739579	0.605244710886552	0.619630049490175	-0.696056094207441	0.706376374007259	-0.128601446185638	-0.515527372701028	-0.367030323254374	0.774286942811103	-9.43018083395868	-38.2891237582174	50.4542547429115
24835	1655203509325	6.01954313651358	-1.28606928176861	7.52531619719123	0.0241959769052778	-0.0272718249570212	-0.0906542233110805	0.00613232167420878	0.003038415181714	-0.00914673719894346	0.56298828125	-0.387451171875	0.219970703125	0	0	0	0.0690802803343623	-0.328741142416051	0.376861468067824	0.863210640595724	0.499809390337508	0.605202597982264	0.619613095992948	-0.696040719084422	0.70640669750938	-0.128518073010499	-0.51547831254757	-0.367041405170328	0.774314352303831	-9.42384927597257	-38.2878861955028	50.4482436703919
24836	1655203509325	6.01891093416468	-1.28431059862972	7.54996232305075	0.0108009113418961	-0.0359744212370817	-0.0721913409120205	0.00460670777387335	0.00300383933178926	-0.00916192906748811	0.5625	-0.379150390625	0.21826171875	0	0	0	0.0691095569450105	-0.328716324622966	0.376830544064336	0.863231248348558	0.499888637973091	0.605148922826475	0.619601590400932	-0.696018681047616	0.706445220398082	-0.128425644672088	-0.515431222626398	-0.367055761129916	0.774338894130466	-9.41690010367879	-38.2870463282045	50.4412884006234
24837	1655203509326	6.04260451338428	-1.25872067239114	7.5254774619012	0.0181099225233685	0.00520079236763591	-0.079758564743102	0.00611599069030181	0.00306363704998029	-0.00762076988842151	0.565185546875	-0.382568359375	0.22509765625	0	0	0	0.0691283921878023	-0.328691607942434	0.376813496186456	0.863246593595067	0.499946831919915	0.605122089241844	0.619580844091251	-0.696009778772579	0.706465708970539	-0.128361169758224	-0.515386799507114	-0.367060566065521	0.774366184523494	-9.41193127931403	-38.2855319459404	50.4367659978119
24838	1655203509327	6.01922599582629	-1.28321430499626	7.52605720828127	0.024027785877982	-0.0270229823247446	-0.0906531113180708	0.0031302572608235	0.00289348254166744	-0.0137551184567662	0.56591796875	-0.3828125	0.22607421875	0	0	0	0.0691590471442813	-0.328668483068548	0.376760273459493	0.86327617294713	0.500057449160296	0.605035535750496	0.619576103492064	-0.695957132212005	0.706537445081647	-0.128251740030075	-0.515350577434954	-0.367065170203616	0.77438810887103	-9.40378937171493	-38.285185909106	50.4265171998936
24839	1655203509327	6.04252889601418	-1.27943666445766	7.57553875182193	0.00819896771957519	-0.028785445479966	-0.0383840568135056	0.00767581749665009	0.0015734128505861	-0.00757959212989993	0.56298828125	-0.380615234375	0.218505859375	0	0	0	0.0691853455444038	-0.32864820710851	0.376746245763798	0.863287906917007	0.500105244534492	0.605005676345837	0.619566684044916	-0.695956235431242	0.70655130852957	-0.128180212121552	-0.515305407262015	-0.367087700698985	0.774407487852527	-9.39840734311881	-38.2844983478213	50.422439528654
24840	1655203509328	6.01848937462439	-1.25773681940454	7.50128646271521	0.0201348207670872	-0.00117863871259734	-0.113563277610769	0.0030302793550716	0.00451949607658099	-0.00767732157951632	0.5537109375	-0.389892578125	0.22314453125	0	0	0	0.0692025312063709	-0.328620326104783	0.376719648647527	0.863308749676673	0.500181975187339	0.604968020960436	0.619541512178889	-0.695933454449692	0.70658663199503	-0.128109166196793	-0.515261699212555	-0.367081768957725	0.774439381890834	-9.39291103798921	-38.2826609895058	50.4163715742436
24841	1655203509329	6.04327146321949	-1.27939078006119	7.52727747216092	0.0347287196054272	-0.0110630530548525	-0.0753084362972505	0.00460675804286377	0.00300379906644438	-0.00916201659780316	0.56103515625	-0.3818359375	0.22265625	0	0	0	0.0692127059338678	-0.328600955394464	0.376695423809634	0.863325877714804	0.500243939589451	0.604935092192595	0.619523635657238	-0.695908537373815	0.706620318036384	-0.128058712114391	-0.515235197278158	-0.367071192511883	0.774462026902314	-9.3890080009562	-38.2813561651105	50.4113543661276
24842	1655203509329	6.01876699708908	-1.27960072444947	7.52703948732975	0.0235618516063787	-0.0264240896246945	-0.0906503247255141	0.00611590853137562	0.00306412995935495	-0.0076207476267256	0.56689453125	-0.3857421875	0.224609375	0	0	0	0.0692458161672514	-0.328573580732594	0.376673680493118	0.863343128432526	0.50031268093666	0.604892575892595	0.619509639088847	-0.695901958967894	0.7066439107342	-0.127964240813301	-0.515177333350973	-0.367095839056094	0.774488837975785	-9.38188573811159	-38.28033455858	50.4055101721752
24843	1655203509330	6.04295203072224	-1.27772034610111	7.52781763402669	0.0344030770866251	-0.0107099431786505	-0.0753068855457464	0.00301365456044361	0.00454471735430361	-0.00615152634563051	0.563720703125	-0.38427734375	0.229736328125	0	0	0	0.0692385244350317	-0.328553735721113	0.37666085746896	0.863356860127091	0.500358082388899	0.604888318756463	0.619477127277581	-0.695882622192252	0.706665250369615	-0.127951553530565	-0.515159359343242	-0.367061773754812	0.774516938955522	-9.38063777702017	-38.2779615839121	50.4027586768651
24844	1655203509331	6.01849699280357	-1.27809400138305	7.52751136071699	0.0232369757843966	-0.0260716926852319	-0.0906485913872554	0.00467607276034027	-4.69803768565623E-05	-0.00910978188276004	0.5634765625	-0.378173828125	0.218994140625	0	0	0	0.0692737338359965	-0.32854197912672	0.376629233140771	0.863372305842452	0.500421177390585	0.604823839696893	0.619489118672256	-0.695861158160796	0.706703141088428	-0.127858980673494	-0.515127065666458	-0.367095073938697	0.774522635503835	-9.37390367728447	-38.2788368037533	50.3962105371788
24845	1655203509332	6.04280974699787	-1.27627620508317	7.5281768216511	0.0340344100508774	-0.0103332846541338	-0.0753051829957751	0.00148784336680644	0.00450953519705725	-0.0061670072616263	0.56591796875	-0.382080078125	0.22314453125	0	0	0	0.0692578678669294	-0.328526634957084	0.376613779663995	0.863386158581142	0.50046462218195	0.604820140436394	0.619457633472039	-0.695832357534892	0.706730817411453	-0.127862746444665	-0.515123763916704	-0.367047884401259	0.774547195724604	-9.37388289099967	-38.2765388056733	50.393595384965
24846	1655203509332	5.99287447831205	-1.25347473063842	7.52651766708091	-0.00538003281454306	-0.0241969407130598	-0.110440348779074	0.00316725690669261	-0.000107555825686927	-0.0106510666820617	0.57177734375	-0.385009765625	0.2314453125	0	0	0	0.0692892469864648	-0.328517415540092	0.376572968188798	0.863404949932756	0.500538214632674	0.604744480800733	0.619472040235382	-0.695795378179583	0.706783599763054	-0.127772198892836	-0.515102210630343	-0.367070914193744	0.774550615877815	-9.36732173276463	-38.2775902974882	50.3859367278302
24847	1655203509333	6.04337466534675	-1.29834369638063	7.5536765944086	0.0373102906991857	-0.0354595104164528	-0.0523874530897714	0.0061174087432604	0.0015902286995523	-0.00454256711788616	0.5615234375	-0.375244140625	0.21728515625	0	0	0	0.0692931623350009	-0.328507172873793	0.376573233476881	0.863408417177438	0.500551274398468	0.604746397219015	0.619459616721453	-0.695799600651639	0.706782114964763	-0.127757417393101	-0.515083815928134	-0.367070615844631	0.774562990048166	-9.36611028483162	-38.2766835541817	50.3852916266661
24848	1655203509334	6.04445545895957	-1.29920255482842	7.50500465044097	0.0641094019852136	-0.0180621339361605	-0.0893120443782713	0.00465978883581453	-2.14543494818411E-05	-0.00758369871362288	0.564697265625	-0.389892578125	0.214111328125	0	0	0	0.0693258403764756	-0.328495776929358	0.37654810051505	0.86342109100611	0.500604105076172	0.604692651934463	0.619469391235234	-0.695785635117467	0.706810911709207	-0.127674136194386	-0.515051337193748	-0.367103707125474	0.774568904791346	-9.36004267499223	-38.2773969564603	50.37982004273
24849	1655203509335	6.01794858049529	-1.27347326504658	7.55256475302098	0.00840402807399977	-0.0335870981310886	-0.0721804534940968	0.00464152642139343	0.00147835492022824	-0.00913596025321392	0.558837890625	-0.37744140625	0.228759765625	0	0	0	0.0693281338705347	-0.328499823212877	0.376523922877082	0.863429911170786	0.500635203300724	0.604655475126571	0.619480548213989	-0.695752594007168	0.706846690710566	-0.127656115262136	-0.515065744491264	-0.367096053140025	0.774562952006276	-9.35881555319885	-38.27821126784	50.3763413233833
24850	1655203509336	6.04458491540162	-1.29740037217979	7.50521214761303	0.0634488049008638	-0.0176902446505558	-0.089307027577119	0.00469307429166009	-7.25428125544567E-05	-0.010635648243309	0.562255859375	-0.382568359375	0.223876953125	0	0	0	0.0693660155752661	-0.328487761712173	0.376485594339049	0.863448170733896	0.500708775320999	0.604579821089009	0.619494925119268	-0.695723369869853	0.70689390627677	-0.127553901883498	-0.515033702716125	-0.367129738921748	0.774568292577077	-9.35139109830976	-38.2792606045898	50.3686836495366
24851	1655203509337	6.04357582423127	-1.29490715642173	7.55410553952359	0.0361508738473291	-0.0345229049958766	-0.0523797321199488	0.00460824576211775	0.00152960185747267	-0.00608405583803943	0.568359375	-0.3798828125	0.21875	0	0	0	0.0693582794918629	-0.328481427983696	0.376478127452307	0.863454457447365	0.500728342039592	0.604577621180305	0.619481256735217	-0.695709247940223	0.706907297231866	-0.127556714644065	-0.515033755989576	-0.367107576996582	0.77457876107144	-9.35146951324885	-38.2782629807949	50.3674813463486
24852	1655203509338	6.01806503493671	-1.27076050336934	7.55292887802331	0.00790514232105206	-0.0330274549077163	-0.072178122158018	0.00618372603914955	0.00148830441577162	-0.0106465993937611	0.5703125	-0.38232421875	0.212890625	0	0	0	0.0693997148084402	-0.328459650634336	0.376442773145389	0.863474826521472	0.500810192903558	0.604507704313747	0.619483321897551	-0.695687728634158	0.706949036262233	-0.127442710092595	-0.514983237505597	-0.367142336912025	0.774595874979354	-9.34305624113271	-38.2784137113466	50.3596253677714
24853	1655203509339	6.01854158689095	-1.27056849621065	7.5287495964727	0.0204732596937391	-0.0239480126384882	-0.0906369154209141	0.0061153266933921	0.00306500391833764	-0.0076210734926344	0.562744140625	-0.374267578125	0.225830078125	0	0	0	0.0693988084165308	-0.328462379535684	0.376427536872851	0.863480503603851	0.500829549427189	0.604485882719784	0.619488966821074	-0.695665473717523	0.706972229748407	-0.127435532886	-0.514994476764492	-0.367133605050053	0.774592541240244	-9.34257884452664	-38.2788257204756	50.3575213342779
24854	1655203509341	6.04456685747428	-1.29381456899876	7.50584567048771	0.0621162175041072	-0.0167535542046567	-0.0892967642000126	0.00313451726796982	-5.71399808268935E-05	-0.00759902942052029	0.566650390625	-0.379638671875	0.22314453125	0	0	0	0.0694250287402413	-0.328454412831453	0.376399566754406	0.863493619098055	0.500882129677282	0.604431334146038	0.619499680768594	-0.695643162348769	0.707007063063024	-0.127364058730868	-0.514973477809638	-0.367156336022458	0.774595728151924	-9.33739348819917	-38.279607711669	50.3520259802266
24855	1655203509343	6.04467980540244	-1.31557037737972	7.55560901077688	0.0518307499349647	-0.0504771597278007	-0.0479102324458971	0.00921835257327423	0.00158566237269347	-0.00908974516472696	0.55908203125	-0.373291015625	0.222412109375	0	0	0	0.069441434489699	-0.328441878501737	0.376383832291609	0.863503926112525	0.500922286471464	0.604402883438861	0.619494969638165	-0.695632784197469	0.707026195930989	-0.127314523197596	-0.514948436705926	-0.367166328464559	0.774607639244526	-9.33368483107415	-38.2792638539438	50.348444200524
24856	1655203509344	6.01905018200934	-1.26855168299699	7.50485477789089	0.033310270522771	-0.0147382329617107	-0.109094891024963	0.00460622914613928	0.00300336599498083	-0.00916269193212477	0.56298828125	-0.38134765625	0.2216796875	0	0	0	0.0694709696188673	-0.328417260537293	0.376352457653391	0.863524588520586	0.501001861198866	0.604348271209516	0.619483899840297	-0.695610133325907	0.707065223996934	-0.127221505369491	-0.514901619233798	-0.367181067186525	0.774631774722789	-9.32669988662173	-38.2784558938633	50.3414288933123
24857	1655203509345	6.04386267194838	-1.28999264435434	7.53089176771056	0.0474858083958416	-0.024337354013547	-0.0708271428352241	0.00609644982872225	0.00456464038684602	-0.00917383638942024	0.55517578125	-0.38330078125	0.21484375	0	0	0	0.069463423163217	-0.328401161754434	0.376333230103269	0.863539697825657	0.501051953756757	0.604333629877779	0.619457668800124	-0.69558110534274	0.707096265524976	-0.127207693048824	-0.51489209114795	-0.367145386842024	0.774655019601572	-9.32543016759847	-38.2765413841097	50.3379322634662
24858	1655203509346	6.01931124584731	-1.29007469615491	7.53071497161177	0.0363269849525076	-0.0397137633043948	-0.0861683734108585	0.00765752564172473	0.00307534619478836	-0.00913169301508492	0.56298828125	-0.384765625	0.224853515625	0	0	0	0.0695060010404747	-0.328370457416137	0.376306974203997	0.863559389782261	0.501131807723498	0.604279407319172	0.619445969538724	-0.69557427673848	0.707123953969587	-0.127091066807063	-0.51482359777648	-0.367181306185933	0.774683517031357	-9.31669371581297	-38.2756875131643	50.3309198036712
24859	1655203509347	6.0435340405387	-1.28780372767156	7.53153010432439	0.046465618104847	-0.023519012816154	-0.070820213402925	0.00611317359714264	0.00453862942934321	-0.0106999394788592	0.570556640625	-0.37841796875	0.2216796875	0	0	0	0.0694854735048338	-0.328364909158276	0.376291944504252	0.863569700664918	0.501161717869373	0.604275461365844	0.619425620501216	-0.695541826146783	0.707152282946036	-0.127111041238	-0.514838324741485	-0.367133239458518	0.774696510810573	-9.31797875564714	-38.2742023619694	50.3290556640681
24860	1655203509348	6.01841043640379	-1.28702260063904	7.55577879734109	0.0218970407423559	-0.0475852015861151	-0.0677019518306778	0.00611318851188225	0.00453863857827866	-0.0106999597710667	0.554931640625	-0.38134765625	0.2314453125	0	0	0	0.0695209823569701	-0.328330368430015	0.376257105940782	0.863595155386944	0.501259518791356	0.604215928238982	0.61940455833273	-0.695519327242504	0.707194846482378	-0.126997301313455	-0.514773503837555	-0.367149235558337	0.774732004357465	-9.3093679525043	-38.272665195716	50.3207880009739
24861	1655203509349	6.04194956607706	-1.26130061804647	7.53139051566579	0.0286528111878776	-0.00579829213220437	-0.0752841037361342	0.0075882787650343	0.00465303094509238	-0.00610641899566234	0.564453125	-0.388671875	0.2265625	0	0	0	0.0695028301641261	-0.328309118733368	0.37626241419748	0.863602382360065	0.501279436437607	0.604245408745668	0.619359679519563	-0.695519060428305	0.707191904522921	-0.127015143814316	-0.514754468835117	-0.367106382656341	0.774764958311392	-9.31026388487828	-38.269389943625	50.3210429669802
24862	1655203509350	6.01850518246067	-1.28578999527052	7.53209187690013	0.0345790628015017	-0.0380325890000149	-0.0861552832575238	0.00916650127643555	0.00313792813178126	-0.0075899282949153	0.56884765625	-0.375732421875	0.2216796875	0	0	0	0.0695491107984899	-0.328275707608367	0.376245577854259	0.863618692552726	0.501348649878681	0.604202860928666	0.619345165566374	-0.695527995172294	0.707204372664508	-0.126896742337259	-0.514674984039863	-0.367152390881245	0.77479596196273	-9.30137106223308	-38.2683307481232	50.3151730324147
24863	1655203509351	6.04277350711434	-1.28355631649974	7.53286528144296	0.0447167520157198	-0.0218652207779173	-0.0708081766090185	0.00462353000567939	0.00297651590576812	-0.0106888615232697	0.562744140625	-0.3798828125	0.21240234375	0	0	0	0.0695268830245351	-0.328280051943223	0.376227374772288	0.863626761109798	0.501370339936214	0.604191480689377	0.619338709346205	-0.695488635772356	0.707237950017689	-0.12692533067234	-0.514707042640522	-0.367106437858496	0.774796440066095	-9.30342427555337	-38.2678595927302	50.3134245827832
24864	1655203509352	6.04146985743111	-1.25823766246773	7.53228762349704	0.0276368069534927	-0.00500929500812115	-0.0752807292412942	0.00457073879530095	0.0045280317440425	-0.00918986435021941	0.55859375	-0.385009765625	0.22412109375	0	0	0	0.069553347568059	-0.328248729058888	0.376196544041418	0.863649966111615	0.501457864245036	0.604142669143343	0.61931546541901	-0.695465860907368	0.70727698418674	-0.126832582375676	-0.514652549492548	-0.36711156745609	0.774830207426603	-9.29634663045196	-38.2661633466342	50.3062347393457
24865	1655203509353	6.04404142294642	-1.30681802640413	7.51001044507612	0.0740360870077549	-0.0293426650222969	-0.0847829369512816	0.00607736844716393	0.00606362140956151	-0.0107271841092152	0.56494140625	-0.37939453125	0.22119140625	0	0	0	0.0695317035889053	-0.328246343070428	0.376177794280163	0.86366078268463	0.501489210702805	0.604132961612136	0.619299552916379	-0.695427071334196	0.707311218573072	-0.126854359547547	-0.514674421361913	-0.367061581719505	0.774839360913831	-9.29780701905095	-38.2650021405551	50.3040221590207
24866	1655203509354	6.04207275018759	-1.28048978265076	7.53394920719378	0.0435368556967965	-0.0211733581663005	-0.0708013038670803	0.00762198483081814	0.00460120640646406	-0.00915840951419827	0.55810546875	-0.380126953125	0.22705078125	0	0	0	0.0695709469417827	-0.328209277064162	0.376152242043392	0.863682837965635	0.501576322509498	0.604084811429484	0.619275975069317	-0.69542013223121	0.707338748294706	-0.12673884506498	-0.514598904376383	-0.367087776643522	0.774877107581287	-9.2890433996487	-38.263281594334	50.2968868065933
24867	1655203509355	6.04233368612017	-1.28026281171892	7.50996635753205	0.0560693164896403	-0.0116870484186017	-0.0892526052852567	0.00606031572354405	0.00608984690332553	-0.00920132617554404	0.558349609375	-0.380126953125	0.22265625	0	0	0	0.0695478854904596	-0.328191957240602	0.376140181815979	0.86369652914078	0.50161720565205	0.604091825687567	0.619236017307852	-0.695392052331804	0.707363310494497	-0.126755830319663	-0.514597000134659	-0.367028899548425	0.774906261652777	-9.28992316112086	-38.2603658496717	50.2949185879613
24868	1655203509356	6.04085186643311	-1.27751647461075	7.55924363089203	0.0292378356386388	-0.0290611618085786	-0.0523387850082173	0.006041272295254	0.00758877205673728	-0.0107545079013616	0.56298828125	-0.37646484375	0.214599609375	0	0	0	0.0695773024242257	-0.32814426866044	0.376106245486197	0.863727057604976	0.501730862103163	0.604043495482568	0.619191083251703	-0.695369067560023	0.707406182187288	-0.126642620329448	-0.51451725130837	-0.36702581512532	0.774960675865346	-9.28113009410068	-38.2570871212252	50.2862855629943
24869	1655203509358	6.04100120465464	-1.27734900854747	7.53534151782255	0.0415644289870336	-0.0198710773444337	-0.0707899453222396	0.0060432043517512	0.006116338947467	-0.00767532805617773	0.561767578125	-0.383544921875	0.2236328125	0	0	0	0.0695585424927549	-0.328143078715795	0.376090655624765	0.863735809034764	0.501755877285308	0.60403562484383	0.619178490848297	-0.695336241982055	0.707434855836036	-0.126662683275387	-0.514537219446684	-0.366983499176422	0.774967458114406	-9.2824950112747	-38.2561683108123	50.28451457097
24870	1655203509360	6.04065680043623	-1.27622248496409	7.53580848361099	0.0415557758669402	-0.0198737441488754	-0.0707899138469816	0.00912881539176063	0.00613716887947364	-0.0106954902928773	0.56396484375	-0.38232421875	0.22509765625	0	0	0	0.0696038847102788	-0.328096130398339	0.376061456128324	0.863762704488634	0.501861420864562	0.603982190330401	0.61914507832292	-0.695329251266939	0.707466160895766	-0.126526137694805	-0.514443725377579	-0.367011096495867	0.775016456901749	-9.27208609162865	-38.2537304070877	50.2760997777144
24871	1655203509362	6.0402656878891	-1.27504976112866	7.53632048080975	0.0403858222782027	-0.0189166050994321	-0.0707830878883371	0.00602402478519172	0.00761508151952221	-0.00922879106794001	0.565185546875	-0.37451171875	0.22216796875	0	0	0	0.069567700655726	-0.328081591114687	0.376060170408343	0.863771701799485	0.501882435608207	0.604012502902596	0.61909847129945	-0.695308030587879	0.707478166515847	-0.126575615753512	-0.514451905845414	-0.366938060496206	0.775045609194261	-9.27530610556009	-38.2503299196769	50.276333924649
24872	1655203509363	6.01542804544146	-1.27516700914767	7.53635476497726	0.0292283380465259	-0.0342909798409412	-0.0861238218192533	0.00754962576407585	0.00765212754578161	-0.00921279335874051	0.564453125	-0.382080078125	0.22314453125	0	0	0	0.0696008080272185	-0.328031504482782	0.376035511958461	0.863798792158717	0.501985251625802	0.603975526536236	0.619051185682943	-0.695300557617779	0.707506042536193	-0.12646080163901	-0.514361683765992	-0.366945177267738	0.775102119177442	-9.26637478930833	-38.2468800841367	50.2688406097362
24873	1655203509364	6.03768161566136	-1.24768937220123	7.56088386858114	0.00886729231889052	-0.0102089744129128	-0.0568116978785991	0.00606057267518068	0.00608974337363137	-0.009201444113614	0.562255859375	-0.382080078125	0.21875	0	0	0	0.0695861857728634	-0.328025545912394	0.376016106305396	0.863810680518243	0.50202225805561	0.603961364194758	0.619034993337819	-0.695265550499177	0.707539301097028	-0.126467196111109	-0.514372886829995	-0.366904358059613	0.77511400795692	-9.26669554392048	-38.2456987704041	50.2661039234824
24874	1655203509365	6.04018854118567	-1.29616667990898	7.53875090718777	0.0564369050959173	-0.0352461535865912	-0.0662899077322425	0.00756701961852975	0.00762553310037574	-0.0107388349826068	0.562255859375	-0.386474609375	0.22509765625	0	0	0	0.0696220484047745	-0.327975056908664	0.37598468880291	0.86384063704335	0.502135751663075	0.603913115612796	0.618990012595199	-0.69525029676341	0.707576568323404	-0.126342490121355	-0.514282715782038	-0.366911908706328	0.775170264843364	-9.25705595133768	-38.2424172977404	50.2574868835627
24875	1655203509365	6.01314027876199	-1.24739983705851	7.53693540630101	0.0097153711167662	-0.0159344623977216	-0.0906037760616094	0.00764036291612686	0.00457497983973832	-0.0106837486229496	0.551513671875	-0.380126953125	0.218994140625	0	0	0	0.0695960392278163	-0.327980968984307	0.375981998281925	0.863841659261607	0.502132041904092	0.603925473729887	0.61898096471003	-0.695230179263523	0.707587856583462	-0.126389964225138	-0.514313533104503	-0.366869796243509	0.775169750615831	-9.26048014312357	-38.2417572467664	50.2582713605601
24876	1655203509366	6.03901543813102	-1.29323682286357	7.56398954650531	0.04157933713256	-0.0429501187494706	-0.0478251916373829	0.00144872989535216	0.00603127967203029	-0.00619823297193852	0.5712890625	-0.385498046875	0.224365234375	0	0	0	0.0696007244755214	-0.327950619884263	0.375959895452078	0.863862423700483	0.502205095858382	0.603904051526543	0.618942596889002	-0.695206454471107	0.707619792328291	-0.126341660456796	-0.514274272500178	-0.36684346260373	0.775208260140021	-9.25655035514855	-38.2389583479368	50.253174540492
24877	1655203509367	6.0138331062023	-1.27011468919796	7.53848052476192	0.0255043942005109	-0.0318830082925544	-0.0861051530287842	0.00769656674276538	0.00155140286983616	-0.00910233263913599	0.564697265625	-0.38671875	0.220947265625	0	0	0	0.0695826171418913	-0.327965176965683	0.37595848439271	0.863858970030809	0.502188121422009	0.60390886751431	0.61895167052058	-0.695191568893012	0.707626954809642	-0.126383445778725	-0.514310969397605	-0.366821717683695	0.775194204179107	-9.25972376803494	-38.2396202516597	50.2543512404383
24878	1655203509368	6.03914265342656	-1.29236693128752	7.54024101481715	0.053704348495651	-0.0333527564017755	-0.0662678046061416	0.00446281472693155	0.00763131813453273	-0.00619363913557476	0.571044921875	-0.385009765625	0.22412109375	0	0	0	0.069597047464352	-0.327922409089133	0.375942145325957	0.863881153845331	0.502268793969792	0.603893805626552	0.618900904935524	-0.695183531506556	0.707647508703923	-0.126312552611384	-0.51424305160712	-0.366806863282315	0.775246289202848	-9.25400852656765	-38.2359170787106	50.2491241258966
24879	1655203509369	6.01445116474035	-1.29280863464467	7.54009910818586	0.0408799827337151	-0.0478198869373427	-0.0815973116894248	0.00459118170499006	0.00302860125995521	-0.00763646926747136	0.556640625	-0.378662109375	0.223388671875	0	0	0	0.0695557636783971	-0.327954359534	0.375953064783199	0.863867598004393	0.502210462285528	0.603925110215209	0.618917694707869	-0.695169573931397	0.70764257763847	-0.1264169521592	-0.514318884594952	-0.366764834144072	0.775215867603518	-9.26188179195632	-38.2371418133624	50.2538557622138
24880	1655203509369	6.038544082576	-1.26805285873346	7.49129223969264	0.0617692363230835	0.00178445740237985	-0.107657048889784	0.00606052426875049	0.00608979433274691	-0.00920166173342675	0.56201171875	-0.375	0.220703125	0	0	0	0.069584705560524	-0.32791451256003	0.375925935983615	0.863892199212041	0.502303526214722	0.603883297544435	0.618882969954026	-0.695154636766485	0.707675318813796	-0.126315771477074	-0.514248187682089	-0.366770508749887	0.775260082409147	-9.25407846937605	-38.2346088292419	50.2466861646651
24881	1655203509370	6.01274929125471	-1.26657774828005	7.53994000736465	0.0230898560996234	-0.0303879958733842	-0.0860943358438835	0.00457199232148879	0.00452689006369874	-0.00919025336981008	0.563232421875	-0.382568359375	0.2255859375	0	0	0	0.0695686192328971	-0.32790338290663	0.375896504746212	0.863910525700432	0.502362378395938	0.60385832286729	0.618859569430965	-0.69510546522973	0.707724049875218	-0.126313346230631	-0.514257166192301	-0.366717595885612	0.775279157392833	-9.25368012167618	-38.2329019366414	50.2422209154824
24882	1655203509371	6.03858958717384	-1.28969683487498	7.51735224693672	0.0647078992292299	-0.023176030200289	-0.0846997696737244	0.00604271590555996	0.00611688675364983	-0.00767570332408517	0.5556640625	-0.384765625	0.21826171875	0	0	0	0.069594967029917	-0.327863931257512	0.375875924228505	0.863932331105765	0.502445064331472	0.603827367878202	0.618822645941651	-0.695098085822864	0.707747660298943	-0.126221632166447	-0.514186355725561	-0.366723000563987	0.775323566288948	-9.24655677953794	-38.2302087265811	50.2361405586822
24883	1655203509372	6.01220837481487	-1.26486630690437	7.54065860484595	0.0217091714247082	-0.0292514156746432	-0.0860876717293131	0.00306589244782394	0.00299081471907149	-0.00765284919582675	0.56494140625	-0.383544921875	0.22412109375	0	0	0	0.0695418841270918	-0.327880369287311	0.375882103408459	0.863927678758646	0.502414215546497	0.603867068872123	0.618808952059187	-0.695072743466228	0.707753141378573	-0.126330408687272	-0.514250753336472	-0.366647042808956	0.775316779576141	-9.25446716107406	-38.2292099161594	50.239722308253
24884	1655203509373	6.03704227981758	-1.28637356466489	7.56673446063192	0.0364554581747677	-0.0393792129352004	-0.0477896647727665	0.0030643634039129	0.00446193690519574	-0.0107327747730876	0.55859375	-0.38525390625	0.219482421875	0	0	0	0.0695630662713117	-0.327852725510228	0.375843324446665	0.863953335345913	0.502508771688789	0.603809305702588	0.618788539585846	-0.69503506919018	0.707805550559625	-0.12624403032535	-0.514209283241392	-0.366641002813305	0.775347140372897	-9.24789291376765	-38.227721087662	50.2317261499896
24885	1655203509374	6.01242641941873	-1.2641450756066	7.51681517552754	0.0336090875136629	-0.0194844134394516	-0.104529177257529	0.00608130635612053	0.00312089009746581	-0.00456782156414345	0.5625	-0.383544921875	0.227783203125	0	0	0	0.0695183183139447	-0.327871416080381	0.37587034606229	0.863938088573054	0.50244363493692	0.603871277718455	0.618780957737111	-0.695043555594933	0.707777372739631	-0.126355239162207	-0.514261460287787	-0.366593331342056	0.775335075872494	-9.25604001451053	-38.227168096663	50.2382691625578
24886	1655203509375	6.03743355516163	-1.28570719276083	7.54274776707035	0.048340968348505	-0.0296003971882047	-0.0662276088679974	0.00468562117513961	-0.00151998504461164	-0.00602638797005278	0.5634765625	-0.3818359375	0.220458984375	0	0	0	0.0695496357835585	-0.327868434446727	0.375852854426987	0.863944309359645	0.502473843025077	0.603825609076158	0.618800994585026	-0.69503812987894	0.707794959962921	-0.126286549820137	-0.514239278050594	-0.366634598033102	0.775330275711654	-9.25115154299232	-38.2286295167103	50.2344449996122
24887	1655203509378	6.03804935449883	-1.28582471683648	7.51844942003474	0.0606186887089785	-0.0199297551387898	-0.084666236586477	0.00308372204171476	0.00296345315832592	-0.00917899958439932	0.5625	-0.3837890625	0.222900390625	0	0	0	0.0695092187410572	-0.327878012081136	0.375849836428422	0.863945240255688	0.502465819300901	0.603846265542167	0.618787352832177	-0.69500844339069	0.707810737933472	-0.126361477047887	-0.514287238855802	-0.366570111788798	0.77532895540746	-9.25656086186474	-38.2276345301186	50.2358585385507
24888	1655203509379	6.01356665314271	-1.28625721241878	7.51813847388276	0.0494433568229481	-0.0352876140501961	-0.100007108564014	0.00308373132938401	0.00296345895088784	-0.00917901227715521	0.56201171875	-0.385009765625	0.22119140625	0	0	0	0.069530177755268	-0.327857542225778	0.37581790207627	0.863965213921246	0.502540672969328	0.60379520194679	0.618776394279526	-0.694979174704244	0.707852917720625	-0.126286157601723	-0.514253652139626	-0.366572777194973	0.775349972773987	-9.25089235453035	-38.2268352575771	50.2292797104109
24889	1655203509381	6.03622610624703	-1.25905868020155	7.54224326146559	0.0285154558044622	-0.010655087827414	-0.0707285714677646	0.00317833233724063	-0.00158508658452081	-0.00756879344501813	0.56298828125	-0.387451171875	0.22314453125	0	0	0	0.0694873068098116	-0.327902987943764	0.375827491423048	0.863947244558677	0.502466654376422	0.603820060234479	0.618812246241294	-0.694960442342888	0.707850421765956	-0.126403180277773	-0.514351285424993	-0.366536649278333	0.775302289379742	-9.25987586917364	-38.2294501874098	50.2345891533032
24890	1655203509382	6.0138949570159	-1.307448584867	7.56784832583056	0.0380471263876976	-0.068383563544504	-0.058582651635966	0.0031783386789421	-0.00158508263329639	-0.00756880212650562	0.567626953125	-0.3828125	0.22216796875	0	0	0	0.0695141920166326	-0.327902789150855	0.375801458799972	0.863956481276214	0.502506048861806	0.60376441711094	0.618834549365161	-0.694940006902228	0.707882081344175	-0.126338219548044	-0.514340410296554	-0.36656716648184	0.77529507595073	-9.25528405485784	-38.2310769548641	50.2297843715545
24891	1655203509382	6.03791121443525	-1.28225049143949	7.54295383863842	0.0438943624151998	-0.0264595006716863	-0.0661975358149434	-0.00137863157287215	-0.0031978236810615	-0.00606430486424973	0.558837890625	-0.379150390625	0.22705078125	0	0	0	0.0694543927701284	-0.327969349457877	0.375813303143896	0.863930873577964	0.502400933992502	0.603795606547031	0.618889462697472	-0.694911254602274	0.707880897010014	-0.126502900659991	-0.51448192363829	-0.366518077538887	0.775224386282219	-9.26796946022759	-38.2350824332664	50.2371331114581
24892	1655203509383	6.03879597981744	-1.2826324153061	7.51839504736976	0.0572748060582773	-0.0177490300244089	-0.0846417512117412	0.00472361468662844	-0.00304462577931283	-0.00599824556067638	0.560791015625	-0.386474609375	0.222900390625	0	0	0	0.0694878105989831	-0.327973380545426	0.375796333849597	0.863934037584448	0.502421154237615	0.603746183726534	0.618921262690327	-0.694906792321929	0.707897119286724	-0.126436618471094	-0.514468204808995	-0.366568157565825	0.77520981166353	-9.26336877083899	-38.237402083501	50.2336933589812
24893	1655203509384	6.03781066078677	-1.25735156155766	7.51747121052628	0.0392837414049246	0.00039781732378702	-0.0891632861906899	0.00622736595460759	-3.76447518506424E-05	-0.0106160756239861	0.564453125	-0.38134765625	0.22265625	0	0	0	0.0694608806689168	-0.327972626009011	0.375797326125513	0.863936058005664	0.502420652531336	0.603767186208124	0.618901181747387	-0.694892255959656	0.707903111467226	-0.126482952931687	-0.514488328844578	-0.36652199065451	0.775218285290904	-9.2666050480129	-38.2359372706623	50.2347014576436
24894	1655203509384	6.03984673598558	-1.30431942699715	7.54366543123115	0.0599311891684197	-0.0419169263934814	-0.0616598734473026	0.00167062523002286	-0.00165083090321533	-0.00911135723854609	0.569580078125	-0.378662109375	0.22314453125	0	0	0	0.069483282156738	-0.327975019186692	0.375762912365523	0.863948316730114	0.502469240960139	0.603701909658576	0.618925412439602	-0.694857032852618	0.707948614382616	-0.126421767465065	-0.514488450583877	-0.366541626105854	0.775208920580432	-9.2623100338474	-38.2377047923884	50.2289312256242
24895	1655203509385	6.04001707344866	-1.30351928307691	7.54366735482215	0.058774338073703	-0.0415859429303608	-0.0616514147173586	0.00619156757636251	1.72567849155574E-05	-0.00756414049642793	0.5634765625	-0.389892578125	0.223388671875	0	0	0	0.0694857700416584	-0.328005718105493	0.37575017839755	0.863942000417867	0.502448104648617	0.603669261763045	0.618974413475607	-0.694836181365554	0.707967062391854	-0.126433063846379	-0.51453725151863	-0.366559764527844	0.775167953303634	-9.26360438427608	-38.2412793323435	50.2285927332552
24896	1655203509385	6.03949501067057	-1.2790684137382	7.51844072455362	0.0550825963085309	-0.0160237219569482	-0.0846260965180114	0.00470175924173418	-7.6077773447819E-05	-0.0106326448084212	0.567626953125	-0.385986328125	0.228515625	0	0	0	0.0695209705947566	-0.327995276638046	0.375714403782123	0.863958691108168	0.502515570587551	0.603598349079432	0.618988799822462	-0.694808549008922	0.708011042876413	-0.126338606091601	-0.514508679753008	-0.366591593130063	0.775171866301389	-9.25675750376181	-38.2423288245825	50.2215004845149
24897	1655203509386	6.04141582665728	-1.30342080315684	7.49499961252738	0.0839991784809934	-0.0226644536085039	-0.0985193285599521	0.00315834296885699	-8.7282259705442E-05	-0.00912312079330603	0.563232421875	-0.37939453125	0.222412109375	0	0	0	0.069463568260082	-0.328025341113056	0.375748639071295	0.86393700494209	0.502424671647465	0.603674686353755	0.618988143970167	-0.694817929047529	0.707975545841293	-0.126485856777845	-0.514584779015119	-0.366534445238668	0.77514837654448	-9.26763535452673	-38.2422809794525	50.2301597892932
24898	1655203509386	6.03854659861613	-1.27551751728854	7.56737186123841	0.0265097740465519	-0.0317494659015769	-0.0477298114803464	0.00617138112239869	0.00151537689523297	-0.00911850954157442	0.56396484375	-0.383544921875	0.21728515625	0	0	0	0.0694991558566563	-0.328005726554836	0.375723011789132	0.863952735451744	0.502488923518676	0.603621605391356	0.618987753712305	-0.694806089838197	0.708004171494633	-0.12639062730264	-0.514538025091244	-0.366566570558421	0.775164221364893	-9.26059279553441	-38.2422525097369	50.2240799442685
24899	1655203509387	6.04098368009669	-1.30063613177808	7.51960928876561	0.0688764830759855	-0.0307917190269887	-0.0800633661971091	0.00470187619762091	-7.6123932878637E-05	-0.0106326546257897	0.56005859375	-0.37841796875	0.2158203125	0	0	0	0.0694859950265539	-0.328055922699749	0.375702079485234	0.863943838190456	0.502454518104175	0.603580408706925	0.619055851649819	-0.69476157755951	0.708039287931282	-0.126438590204038	-0.514631720343512	-0.366566579178934	0.775102016153572	-9.26477668831537	-38.2472204936575	50.2240861654885
24900	1655203509388	6.03915786282393	-1.27433756176477	7.54329682252657	0.0382701015931202	-0.0225495688860924	-0.0661639988502678	0.00611275174303506	0.00453844230924808	-0.0107013896909895	0.565185546875	-0.384521484375	0.228271484375	0	0	0	0.0695180506566385	-0.328023357620045	0.375670546173502	0.863967336319074	0.502544635186749	0.603527073438923	0.619034701185052	-0.694741251005287	0.708077762741207	-0.126334777725756	-0.514571164948666	-0.366580077933398	0.775135834977146	-9.25690468582274	-38.2456774565538	50.216543921374
24901	1655203509388	6.03900916619725	-1.27322959738411	7.54360295494152	0.0369785539541116	-0.0217999126346716	-0.0661573075389246	0.00615107742012547	0.00301322177254092	-0.0106729651707252	0.566162109375	-0.38134765625	0.22705078125	0	0	0	0.0695002698585354	-0.328037645872008	0.375658476726808	0.863968589847823	0.502544023508091	0.603516838980357	0.619045175656395	-0.694711658627809	0.708100842705771	-0.126368144427209	-0.514611713627757	-0.366552345002097	0.775122030760684	-9.25946926146325	-38.2464416199663	50.216100437506
24902	1655203509389	6.04076290164272	-1.29724669083558	7.52037211105704	0.067423719450547	-0.0299243354601337	-0.0800504880709933	0.0107481772737104	0.00163269901975395	-0.00906889255938015	0.56103515625	-0.38134765625	0.219482421875	0	0	0	0.0695549317613538	-0.328009688419113	0.375640738545782	0.863982517945618	0.502607359695953	0.603464679273364	0.619044604894478	-0.694723445253581	0.708112294024906	-0.126239113058434	-0.514533941149132	-0.366616093373275	0.775143511541741	-9.24992625325758	-38.2463999799132	50.2101145950047
24903	1655203509390	6.04008376703698	-1.2951289540783	7.54505898268558	0.0528050019244747	-0.0378258588288652	-0.0616019508860432	0.00611259911447521	0.00453817016641153	-0.0107016956512191	0.5732421875	-0.383056640625	0.2197265625	0	0	0	0.0695367979134691	-0.328011372543971	0.375630102767268	0.863987962365688	0.502621130753744	0.603462053134393	0.619035983886762	-0.694697495238032	0.708133319261985	-0.126263978477664	-0.514555525701389	-0.366579803832435	0.775146346435523	-9.25168346574704	-38.245771035424	50.2092200048507
24904	1655203509390	6.06358464565255	-1.26922260891328	7.5206577876254	0.0602079183228167	0.00314661282143384	-0.0692463217065402	0.00914570297656758	0.00464428190418506	-0.00914256383176685	0.5712890625	-0.389892578125	0.225341796875	0	0	0	0.0695788804719482	-0.327973449778398	0.375610583532611	0.864007456664015	0.502700211557498	0.603420639027987	0.619012140183941	-0.694700740868402	0.708150937861125	-0.12614725460074	-0.514473884601484	-0.366613940817129	0.775184391265455	-9.24283268386317	-38.2440315495446	50.2028534808369
24905	1655203509392	6.03898931787862	-1.26930382378849	7.52050149738969	0.0468359761902279	-0.0116804278020178	-0.0845767131641626	0.00611267230895773	0.00453797992235654	-0.0107018055154946	0.56591796875	-0.3798828125	0.220458984375	0	0	0	0.0695580140098063	-0.328026061053711	0.375627871844997	0.863981647866317	0.502605210325571	0.603437492701606	0.619072851089101	-0.694704858103028	0.70813076916042	-0.126237767313603	-0.514561136000029	-0.366625157579607	0.775121171913198	-9.25009133037221	-38.2484607154705	50.2089657275055
24906	1655203509392	6.039372095148	-1.29160471507549	7.54623270058682	0.050350349605748	-0.037125081390095	-0.0615862739540898	0.00910700771066524	0.00616972937000299	-0.0091712903480965	0.559814453125	-0.38134765625	0.2216796875	0	0	0	0.0695969224926067	-0.327982294624819	0.375608597468151	0.864003509425862	0.502691591841294	0.603401176090115	0.619038112061877	-0.694707409441919	0.708148899775133	-0.126121968799125	-0.514473302279686	-0.366649909914532	0.775167765584393	-9.24120673491244	-38.245926295655	50.2024277893876
24907	1655203509393	6.01517436815288	-1.29257657385531	7.52183261850662	0.0513257362497559	-0.0433314246052975	-0.0953559006536295	0.00754272673785797	0.00765555036614045	-0.00921680980823785	0.559814453125	-0.383544921875	0.217529296875	0	0	0	0.0695799668338655	-0.327983097464262	0.375599260641783	0.864008629238443	0.502704566366189	0.603399898572895	0.61902882110351	-0.694684110747423	0.708167647241488	-0.126145034287988	-0.514492084710392	-0.366615801354326	0.775171431986293	-9.24282466055998	-38.2452484796486	50.2016408944506
24908	1655203509393	6.03802179409037	-1.26582451342904	7.52186466669179	0.0452430218904533	-0.0110209829331441	-0.0845684048758635	0.0076592179829924	0.0030799256001257	-0.00913020164134384	0.563232421875	-0.38134765625	0.2236328125	0	0	0	0.0696181746839059	-0.327955767329888	0.375576763188718	0.864025705278166	0.502774219255501	0.603352591603312	0.619018363748274	-0.694679319197578	0.708190809412735	-0.126041346162782	-0.514430488920721	-0.366648916088544	0.775196648857491	-9.23506300257366	-38.2444855774546	50.1955277718483
24909	1655203509395	6.03897588185623	-1.28894981273535	7.52323340197791	0.0606385835521269	-0.0269836158313701	-0.0799972513357758	0.0105936372300743	0.00773465819190809	-0.009183531538411	0.560302734375	-0.38623046875	0.21728515625	0	0	0	0.0695966688073162	-0.327956441488429	0.375589151668756	0.864021796788666	0.502754723269982	0.603385075675347	0.619002535279121	-0.694683779041332	0.708178185679338	-0.12608768561908	-0.514443520093876	-0.366619840952692	0.775201752354343	-9.23833999501506	-38.2433308481471	50.198137472009
24910	1655203509395	6.03862664873095	-1.28759704598761	7.52374535441054	0.0605162519504567	-0.0269167747280107	-0.079996304843819	0.0106715825342802	0.00468425917270397	-0.00912552152777386	0.5595703125	-0.382568359375	0.218994140625	0	0	0	0.0696444181024794	-0.327916970864681	0.375572514551055	0.864040162006313	0.502831493065458	0.603344299392028	0.618979923723464	-0.694694645879221	0.708189882681928	-0.125962054023024	-0.514353806798691	-0.36666435122343	0.775240230492197	-9.22884335058843	-38.2416813062891	50.1919307248993
24911	1655203509396	6.0383501388361	-1.28636754863021	7.52417757624103	0.0581688190995163	-0.0258109821686581	-0.0799789966351003	0.00607427300074989	0.00606220743723515	-0.0107311858256606	0.56201171875	-0.38134765625	0.216796875	0	0	0	0.0695894877383571	-0.327957819778077	0.375586074900208	0.864023189494228	0.502757537574931	0.603385323373502	0.619000008036386	-0.694674990086081	0.708184807074737	-0.126098918224626	-0.514452637820524	-0.366606642828485	0.775201943285447	-9.23914657008895	-38.2431464807046	50.1979913080683
24912	1655203509396	6.03796069914049	-1.28519610966114	7.52469027072925	0.0580223692287027	-0.0257337007913235	-0.0799779178178461	0.00906788972564464	0.00769520727448318	-0.00920058132811509	0.564453125	-0.392578125	0.2275390625	0	0	0	0.0696239747157796	-0.327909171282532	0.375568121192379	0.864046679223759	0.502848323465659	0.603356096176269	0.618954751815276	-0.694677455578058	0.708202176977606	-0.125987734465605	-0.514360570319471	-0.366621191055718	0.77525615506716	-9.23050614645133	-38.2398450274674	50.1915385174875
24913	1655203509397	6.0376142222707	-1.28395706082388	7.52517978897445	0.0558760396179338	-0.0242336398769131	-0.0799615083424196	0.00914626487703615	0.00464482224844421	-0.00914215941897538	0.56884765625	-0.379150390625	0.216552734375	0	0	0	0.0695759884895013	-0.327932550705022	0.375617859761323	0.864020050370436	0.502742931232842	0.603450261475657	0.618948565730927	-0.694715186968398	0.708140810508063	-0.12612454752524	-0.514412630182107	-0.366584743842327	0.775238848027614	-9.24055968843362	-38.2393937626331	50.2018422952712
24914	1655203509398	6.01295348063048	-1.28410889654535	7.52505797743334	0.0446251839363353	-0.039556375416975	-0.0953067190821581	0.00605596472569165	0.00609019564286716	-0.00920541785155204	0.566162109375	-0.38134765625	0.220703125	0	0	0	0.0695997253496924	-0.327896910131534	0.375595129788677	0.864041545897225	0.50282382961044	0.60341652337182	0.618915742001896	-0.69470266292449	0.708168353420549	-0.126038856465978	-0.514350470498	-0.36658707360666	0.775278989114881	-9.23391980967873	-38.2369993716175	50.195733102427
24915	1655203509398	6.03765619062339	-1.28252179115865	7.50163154810566	0.0671336980544951	-0.0157441611535554	-0.0983744522092884	0.00918339821797552	0.00458814758205174	-0.0121941074484993	0.559814453125	-0.387939453125	0.232421875	0	0	0	0.0696231870550602	-0.327952734355626	0.375563347389031	0.864032284090653	0.502798352253229	0.60333148459203	0.619019334650715	-0.694663942869071	0.708209567844485	-0.12602069072626	-0.514427665905551	-0.366647416073678	0.775199231705929	-9.23354541164269	-38.2445564079907	50.1931894827294
24916	1655203509399	6.01132399724892	-1.25735687288304	7.52481794676256	0.02531809206928	-0.0228943780199674	-0.0998771400099869	0.00615549959126606	0.00154307874202691	-0.00759133319683018	0.564208984375	-0.376220703125	0.220947265625	0	0	0	0.0696532782971913	-0.327938096634755	0.37554565062575	0.86404310650228	0.502844138143312	0.603291334181882	0.619021274946148	-0.69465918821849	0.708227770237072	-0.125944581815393	-0.514389332080808	-0.366678321647285	0.775210051196056	-9.22793829391265	-38.2446979591501	50.1887482651602
24917	1655203509400	6.03619586609336	-1.27851076460703	7.55100229602306	0.039425222492054	-0.0315901903563474	-0.0615164799792929	0.00607425899765202	0.00606158289448949	-0.0107317814517903	0.564453125	-0.38232421875	0.224609375	0	0	0	0.069618757384909	-0.327893840583079	0.375551972927956	0.864059936322579	0.502892689875197	0.603343704156778	0.618930785406953	-0.694653951099015	0.708227888500203	-0.125972799338077	-0.514348938652172	-0.366591915629523	0.775277715855719	-9.22917849706017	-38.2380967323901	50.1884736230195
24918	1655203509401	6.03651624995773	-1.2783082563766	7.52702209569571	0.0527314798431872	-0.0228457889286957	-0.0799406066116877	0.00762073141165331	0.00460521022010636	-0.00915917376919679	0.5654296875	-0.375	0.216796875	0	0	0	0.0696517686300894	-0.327862128135914	0.375531521293367	0.864078198183463	0.502965002898557	0.603304846377552	0.618909903133414	-0.694649554743518	0.708249415283579	-0.125875978030363	-0.51428416459569	-0.366614276983079	0.77531011212178	-9.22182825134401	-38.2365734522137	50.1826068612105
24919	1655203509402	6.01370832160274	-1.30374143409035	7.50346377908177	0.070806708631478	-0.0464899172281217	-0.109119814544311	0.00908800850070409	0.00619933357651637	-0.00764561843960562	0.567138671875	-0.37890625	0.224853515625	0	0	0	0.0696639739346631	-0.327879656656938	0.37551182220107	0.864079124197195	0.502971604275521	0.603261053196276	0.618947224720354	-0.694626652616497	0.708275604245726	-0.125855003496696	-0.514308641544462	-0.366635745838936	0.775283722972318	-9.22062647653251	-38.2392959384531	50.1801913250368
24920	1655203509403	6.03597804895426	-1.2761493368969	7.52781999501238	0.0511516997962201	-0.0228048438967939	-0.0799320796422513	0.00460948170021394	0.00299921234578168	-0.00916389090412306	0.564453125	-0.371826171875	0.220703125	0	0	0	0.0696870840571338	-0.327861043862075	0.375485495264965	0.864095763835762	0.503035557526588	0.603215491435107	0.618939656797509	-0.694606211925811	0.708308706322476	-0.125781504609608	-0.514273699714452	-0.366646761120952	0.775301692466569	-9.21512415211387	-38.2387438752904	50.1744797764548
24921	1655203509404	6.03592475976832	-1.27519170934436	7.52802500186147	0.0505801436797588	-0.0232446761288727	-0.0799301330511142	0.00617475718806874	0.00151446669695333	-0.00911703061845403	0.56201171875	-0.383056640625	0.222412109375	0	0	0	0.0697246312245155	-0.32787570880955	0.375424015735969	0.86411388357202	0.503108655962627	0.603096182679178	0.618996506236733	-0.694540234216068	0.708390568418568	-0.125684786791031	-0.514291302036665	-0.366684874263204	0.775271990746481	-9.20850648090647	-38.242891018147	50.164809961286
24922	1655203509405	6.03533806524202	-1.27320861581131	7.55258367849051	0.0369203166817543	-0.0318271561627286	-0.0615074446253594	0.0061935152939719	0.00148569296193888	-0.0106430700978155	0.56005859375	-0.388427734375	0.2158203125	0	0	0	0.069760371866066	-0.327860234387323	0.375392668000406	0.864130489009695	0.503176023038053	0.603033195797779	0.619003113566908	-0.6945198032816	0.70842767065729	-0.125588527727548	-0.514252985104896	-0.366716784744035	0.775282314449195	-9.20145415269108	-38.2433730354704	50.1580926190052
24923	1655203509406	6.03601116523864	-1.27318109676023	7.52829602916237	0.047684617142898	-0.0216819788901469	-0.0799119093020835	0.00316360767897215	-9.18030196763521E-05	-0.0091217139816546	0.56298828125	-0.38134765625	0.225830078125	0	0	0	0.0696835080694944	-0.327941543162975	0.375430609865779	0.864089353103499	0.503012402887391	0.603106951289708	0.619064235639151	-0.694515419966986	0.708392131757875	-0.125813032280497	-0.514418947910682	-0.366664141919505	0.77519710594203	-9.21861654512812	-38.2478321586259	50.1707055836465
24924	1655203509408	6.03803397704896	-1.29770349152823	7.50487366357532	0.0780435211553475	-0.029782923235827	-0.0937347688939169	0.00619833358440204	-0.00144912248238051	-0.00447943028135015	0.556884765625	-0.3828125	0.223876953125	0	0	0	0.0697136958577068	-0.327941752444466	0.375425680063129	0.864088980581658	0.503019531505578	0.603078323161936	0.61908633247399	-0.694526449517764	0.708391118717992	-0.125757838092585	-0.514397085765615	-0.366713183637648	0.775188415227023	-9.21474326180702	-38.249444286935	50.1689683858214
24925	1655203509409	6.03696962567264	-1.2951393839281	7.55366697785349	0.0501807930362039	-0.0454902658291997	-0.0568846999023513	0.00314480575417063	-6.3110422496719E-05	-0.00759572879323238	0.55908203125	-0.383544921875	0.224365234375	0	0	0	0.0696592757331483	-0.327940202325434	0.375448332519725	0.864084115472125	0.502987546613824	0.603149726666038	0.619042757145329	-0.694526034577125	0.708372269824983	-0.125866256945918	-0.51442892147116	-0.366632151571143	0.775205618006174	-9.22234991623867	-38.2462651771578	50.1740969910715
24926	1655203509410	6.06259757351089	-1.29488667802571	7.50553182022797	0.0880309686502476	-0.0126716550848258	-0.0783708137417953	0.0046490392476862	0.00147388536311068	-0.00913444052761273	0.567138671875	-0.382080078125	0.224853515625	0	0	0	0.0696844536314195	-0.327928735059693	0.37542250779215	0.864097657841574	0.503041370730405	0.60310034990306	0.619047128480927	-0.694506488833769	0.708404035130286	-0.125795309844676	-0.514402679135194	-0.366652002528194	0.775213643288481	-9.21714701590536	-38.2465840888619	50.1687741458873
24927	1655203509411	6.01197326059072	-1.27125181870581	7.528023584347	0.0341234443760385	-0.0340541096185212	-0.0952433265864698	0.00617457058090426	0.0015147052455975	-0.00911725061585717	0.5625	-0.3818359375	0.22021484375	0	0	0	0.0696524953204671	-0.327934219361628	0.375445013748426	0.864088374715663	0.503000378846248	0.603152470090941	0.619029657370088	-0.694518216808968	0.708379143094154	-0.125870712040906	-0.514426929117269	-0.366614357946317	0.775215355334624	-9.22255688280899	-38.2453094886904	50.1735062064683
24928	1655203509412	6.03822571352883	-1.29432314639053	7.50530313845438	0.0755533466391497	-0.0267065324357977	-0.0937061513127819	0.00463028004384457	0.00150282554219321	-0.00760845166269638	0.562744140625	-0.37646484375	0.21484375	0	0	0	0.069674674283131	-0.327923088625635	0.375426262317225	0.86409895803217	0.503043139017484	0.603115015392634	0.619031403480777	-0.694506752952272	0.708401122652116	-0.125810252081916	-0.514400593303633	-0.366633505879054	0.775223775419527	-9.21810464057178	-38.2454368747188	50.1693603864735
24929	1655203509413	6.03757476206168	-1.29249427545674	7.52988703561027	0.0598132575803106	-0.0353549019518694	-0.0752738682590532	0.00462763556536988	0.00296992814678632	-0.0106905126002952	0.567626953125	-0.384765625	0.2265625	0	0	0	0.0696604984755259	-0.327999124850174	0.375389646221669	0.864087149863503	0.50299837521418	0.603041573910703	0.619139317655725	-0.694435904057101	0.708460056923422	-0.125869467705471	-0.514539998142314	-0.366640434048624	0.775127978099323	-9.22348902367342	-38.2533100953733	50.168436335297
24930	1655203509413	6.03558524378838	-1.2662561184148	7.55355493378124	0.0290194410915434	-0.0270637821230393	-0.0614663470501409	0.00460882726529842	0.00299900100919	-0.00916450103440799	0.567626953125	-0.374267578125	0.2255859375	0	0	0	0.0696820965249904	-0.327982043202874	0.375364451635305	0.864102837172102	0.503058615569989	0.602998022477383	0.619132792048016	-0.694415928049088	0.708491867744817	-0.125800604971459	-0.514508064244411	-0.366650594200837	0.7751443695207	-9.21833795384158	-38.2528339747516	50.1630257517866
24931	1655203509414	6.03725466590619	-1.29059109993449	7.53047010246904	0.0590987065326948	-0.0349503720097773	-0.0752680448839253	0.00605356514288424	0.00609041437438309	-0.00920738078033572	0.559326171875	-0.384521484375	0.228515625	0	0	0	0.0696906381660976	-0.32795659381724	0.375346371974907	0.864119661024485	0.503119147234138	0.602977350807647	0.619103737752718	-0.694399368063259	0.708516631994555	-0.125752534051762	-0.514471224967676	-0.366636736566435	0.775175375047592	-9.21451362895287	-38.2507141565382	50.1586684017006
24932	1655203509415	6.06196003044909	-1.28914684495617	7.50703468750663	0.0834441416673322	-0.0107785913247791	-0.078328133927096	0.00611294029494042	0.00453612840006244	-0.0107033208597279	0.5625	-0.38525390625	0.220947265625	0	0	0	0.0697186682391149	-0.327929225904062	0.375317295336629	0.864140415625913	0.503198701238321	0.602928109354146	0.619087039133192	-0.694379264981006	0.708552470240324	-0.125661582358226	-0.514420551141287	-0.366648458154361	0.775203460193855	-9.20763546129736	-38.2494958435652	50.1519102390112
24933	1655203509416	6.01116666111568	-1.2653849103336	7.52965598020365	0.0292808459937692	-0.0313994789721585	-0.0952185877764346	0.00615350026984085	0.00301098836764394	-0.0106731825201696	0.56005859375	-0.38916015625	0.213623046875	0	0	0	0.0696543822398385	-0.327923110623364	0.375368250167318	0.864125787903711	0.503130220570845	0.603048206474468	0.619025719834208	-0.694413333245015	0.708493887602225	-0.125803552580339	-0.514441545522794	-0.366564144316125	0.775229401107766	-9.21755645267318	-38.2450222299101	50.1613598360214
24934	1655203509416	6.03521785065707	-1.26295933504061	7.53065344533852	0.0401173522836935	-0.0158493685886116	-0.0798665304465409	0.00599102261867489	0.00911158867884396	-0.0107940445510583	0.5625	-0.38037109375	0.223388671875	0	0	0	0.069672687197091	-0.327876020586429	0.375341193488802	0.864153933193355	0.503232607189618	0.603017130442182	0.618972764711353	-0.694393144129163	0.708529410258276	-0.125714900411506	-0.51436864644684	-0.366546607121572	0.775286063566288	-9.21051066995816	-38.2411590550149	50.1541723788343
24935	1655203509417	6.03546503744761	-1.28532532083817	7.55654509476397	0.0406854545674505	-0.0400136566184973	-0.0568164803648177	0.00605341731922813	0.00609058725309497	-0.00920752205348397	0.564208984375	-0.3828125	0.223388671875	0	0	0	0.0696011420128146	-0.327941021751233	0.375386873974946	0.864115190313529	0.50307876220015	0.603104860838653	0.619012347094914	-0.694405139345593	0.70848075175566	-0.125922701853806	-0.514502926593807	-0.366496318159575	0.775220734566538	-9.22623776307569	-38.2440466442826	50.1668901523929
24936	1655203509418	6.01134999080884	-1.28656812076187	7.53205441742374	0.0428878819679356	-0.0466735715915444	-0.0905779160037277	0.00755985771222848	0.00616140448552856	-0.0076640371493883	0.565673828125	-0.38525390625	0.225341796875	0	0	0	0.069625704153035	-0.327905838853101	0.375375547020162	0.864131483552446	0.503141919090716	0.603086306819611	0.618979091553499	-0.694409006523766	0.708490920041016	-0.125844141214884	-0.51443594442106	-0.366507193307468	0.775260044334476	-9.22012109497181	-38.2416205991416	50.1624851255199
24937	1655203509419	6.03674187851085	-1.3084738754272	7.53400771052447	0.0694750068365248	-0.0467822903257259	-0.0705821954562786	0.00763896473862839	0.00457751994294712	-0.0106857590430232	0.5654296875	-0.37744140625	0.21728515625	0	0	0	0.0695951526825892	-0.327908796218565	0.37540882590991	0.864118365453785	0.503088069582868	0.603153596566802	0.618957295127793	-0.694437047521982	0.70844945630406	-0.125922813228716	-0.514450756897426	-0.366476611547058	0.775264672171157	-9.22573188337546	-38.2400305588089	50.1686460721243
24938	1655203509420	6.05897390203509	-1.28066597670377	7.55836056646365	0.0496827275645897	-0.0230195237418453	-0.0414496640725535	0.007619813529258	0.00460696421052771	-0.00915974976434924	0.560791015625	-0.37939453125	0.225341796875	0	0	0	0.0696249253509761	-0.327879782664113	0.375391070243481	0.8641346898901	0.503152785003175	0.60311968136056	0.618937739113624	-0.694434102928893	0.708467828302649	-0.125835658497389	-0.514391438141123	-0.366496911604537	0.77529443578001	-9.21910832383566	-38.238603985176	50.1634361115242
24939	1655203509421	6.03438277125798	-1.28082300055552	7.55817373490497	0.0373014616231709	-0.0382887245456328	-0.0567960325211807	0.00763903765189837	0.00457748501521039	-0.0106858076786709	0.56494140625	-0.38623046875	0.223876953125	0	0	0	0.0696307931248519	-0.32789873007522	0.375358694529172	0.864141091434274	0.503176546512829	0.603062046660027	0.618974580186976	-0.694389441219104	0.70851480618032	-0.125817619380928	-0.514428485761475	-0.366500937654303	0.775267950927725	-9.21811890550657	-38.2412914939466	50.1594117014024
24940	1655203509422	6.0353822219486	-1.28152915624178	7.50978441124121	0.0640601606687521	-0.0208714032137756	-0.0936093192483511	0.00912606716445357	0.00467837193104261	-0.007616150730178	0.5615234375	-0.387939453125	0.217529296875	0	0	0	0.0696643941461587	-0.327867489075267	0.375349937102658	0.864154040963045	0.503230668649022	0.603038949871671	0.618953083091708	-0.694401709818274	0.708518593810559	-0.125728547379525	-0.514358979247486	-0.366531618230106	0.775299563591457	-9.21133572985705	-38.2397232965099	50.1553007888867
24941	1655203509423	6.03634613230362	-1.30486773019379	7.51122109210631	0.0781367764357397	-0.0359347717877238	-0.0889432297535428	0.00448663555888821	0.00757349603112443	-0.00925637763850735	0.554931640625	-0.37841796875	0.22216796875	0	0	0	0.0695719578515712	-0.32791844677846	0.37542409450801	0.864109937569256	0.503052483050487	0.603187525018574	0.618953155706236	-0.694443238450668	0.708432983887081	-0.125981331597168	-0.514477198587934	-0.366452612219937	0.775258469886203	-9.23001802838814	-38.2397285936299	50.1722249446797
24942	1655203509425	6.03404516034624	-1.27835291033169	7.53512854563555	0.0472566235953556	-0.0275985939536782	-0.0751797613816123	0.00916236737227366	0.00608518664550768	-0.0137507572566885	0.56884765625	-0.377197265625	0.21630859375	0	0	0	0.0696121269419136	-0.327879732985063	0.375390241922051	0.864136099668317	0.503154093934696	0.60312770782766	0.61892885359087	-0.694425330204607	0.708472636104655	-0.125857000842798	-0.514402000897136	-0.366474408303602	0.775298064960533	-9.22060265410785	-38.2379558126234	50.1637378671249
24943	1655203509426	6.03440608747324	-1.27786703971848	7.51119274753596	0.0590261468726826	-0.0189661682924909	-0.0935735382401468	0.0106709944733033	0.00469124289356427	-0.00912421526513475	0.56298828125	-0.382568359375	0.21484375	0	0	0	0.0696256606614005	-0.327915731099045	0.375362492083125	0.86413340417576	0.50314854566985	0.603063837329301	0.618995596992396	-0.69438923500545	0.708510533829219	-0.12584281370655	-0.514456150997207	-0.366506250367839	0.775247081350485	-9.22017702505826	-38.2428246872906	50.1610638422584
24944	1655203509427	6.0090777124169	-1.27697666369548	7.53549903336173	0.0341684528851714	-0.042898366742947	-0.0905259706429859	0.0075567499155178	0.00762751845726747	-0.0107474534139128	0.564208984375	-0.37939453125	0.215576171875	0	0	0	0.0696509839309585	-0.327875082766839	0.375339302968051	0.864156859710982	0.503236675496192	0.60303042251565	0.61895650732191	-0.694377711000269	0.708538296169814	-0.125750058953481	-0.51438550028317	-0.366507561151709	0.775293341076175	-9.21295739864612	-38.2399730893434	50.1545657929322
24945	1655203509429	6.03501615058071	-1.29966733734665	7.51319117697561	0.0722993462219013	-0.0356974576959164	-0.0888972002830925	0.00912370056557616	0.0061445908905627	-0.0106987836253139	0.5625	-0.3857421875	0.218994140625	0	0	0	0.0696352879080656	-0.327984980436225	0.375332687052301	0.864119293452188	0.503102453276696	0.602985775605897	0.619109098563351	-0.694343089774688	0.70855260141612	-0.125860576466935	-0.514563499666571	-0.366553359612764	0.77515355857242	-9.22254955770772	-38.2511052797352	50.1599973987718
24946	1655203509429	6.00779152670941	-1.27351866700889	7.56083626882261	0.0168087002752301	-0.0514527783810426	-0.0721163383417576	0.00762019667013375	0.00460714555932714	-0.00915970210245212	0.551025390625	-0.38818359375	0.22705078125	0	0	0	0.0696634600026514	-0.327959433031217	0.37531523830557	0.864134297734985	0.503162164362952	0.602951962073919	0.61909350488016	-0.694339117455769	0.708570948472185	-0.125779175350981	-0.514510472511817	-0.366573515699702	0.775179225252604	-9.21638728117043	-38.2499675749523	50.1550718905437
24947	1655203509430	6.00763151297478	-1.27245926279769	7.56114177237418	0.0146645249464929	-0.0482970942222785	-0.0720967161440491	0.00463039182372526	0.00296740745154526	-0.0106905627901716	0.566650390625	-0.3876953125	0.218994140625	0	0	0	0.0695391692383154	-0.327963326175911	0.375409616458653	0.864101834563291	0.503015353108001	0.603171682103432	0.618998769341385	-0.694396871075062	0.708463847624024	-0.126063325558734	-0.514576077930948	-0.366419020410076	0.775208721250557	-9.23650431647009	-38.2430561155828	50.1735649016351
24948	1655203509431	6.03385924786437	-1.29535959953878	7.5385817387652	0.0559375296308919	-0.0408552006344393	-0.0704684011769085	0.00766177865860112	0.00308224976066965	-0.00912869616441395	0.5625	-0.385498046875	0.2265625	0	0	0	0.0695690132797756	-0.327944317183571	0.37539347363872	0.864113659866418	0.503064529552914	0.603135731677502	0.618993835413205	-0.694394781906185	0.708479784681468	-0.125985243418273	-0.514530821202352	-0.366447382132203	0.775225354436559	-9.23068720019439	-38.2426961773896	50.169130044606
24949	1655203509432	6.00868092331876	-1.27220624370413	7.51289844144259	0.0389545457439812	-0.0291005804341777	-0.108871939702922	0.00615593946589973	0.00300971166899955	-0.0106727008471219	0.567138671875	-0.38037109375	0.218017578125	0	0	0	0.0695065789009812	-0.327985378403798	0.375462263308662	0.864073212102966	0.50290736076891	0.603259484596346	0.619000953738362	-0.694448050925913	0.708393848641239	-0.126174719228757	-0.514612564022344	-0.366409810801794	0.775188854085599	-9.24475797628334	-38.2432154715118	50.1837177158268
24950	1655203509433	6.0586009538403	-1.29283868128903	7.5153396916854	0.0776900322556258	-0.0148159667847213	-0.0734803756847118	0.00456899552138742	0.00452236615582924	-0.00919579614049837	0.564697265625	-0.378173828125	0.218017578125	0	0	0	0.0695196926681277	-0.327966374829367	0.37544201039867	0.86408817035093	0.502962707618177	0.603229756509288	0.618984955881109	-0.694430242843758	0.708420618318269	-0.126122422136279	-0.514582503170631	-0.366406998300125	0.775210138625225	-9.24074296618037	-38.242048405377	50.1792277586395
24951	1655203509434	6.03334535058703	-1.26989998075686	7.48967793608568	0.0606446160418023	-0.00535373993412338	-0.111889912333549	0.00611667496145341	0.00307005067846475	-0.00762058814587962	0.5615234375	-0.38330078125	0.21875	0	0	0	0.0695289003344665	-0.328061124429363	0.375421546394046	0.864060352729788	0.502869122282491	0.603154289151079	0.619134516348017	-0.694393206047328	0.708448789042766	-0.126168096994255	-0.514723927217446	-0.366476761585908	0.775083261312844	-9.24551878508191	-38.2529597826221	50.180946004181
24952	1655203509435	6.03394673341091	-1.2923358898558	7.51531446213075	0.0637901759509825	-0.0306234813931521	-0.0888203519626849	0.00463064932308342	0.00296698803250214	-0.0106907049281247	0.552001953125	-0.38623046875	0.217529296875	0	0	0	0.0695476311763415	-0.328049327171401	0.375393876999595	0.864075345702771	0.502926152107209	0.60310708085873	0.619134181373228	-0.694367295313784	0.708485128217945	-0.126106630644949	-0.51470316175953	-0.366484204450973	0.775093531880302	-9.24097195792751	-38.2529353422728	50.1755443924281
24953	1655203509436	6.03244555259076	-1.26692022721267	7.51462116365408	0.0435799545974164	-0.011632112738209	-0.0934804600833203	0.00761986366548968	0.00460787324770776	-0.00915987659816474	0.56884765625	-0.38232421875	0.21826171875	0	0	0	0.0694476671200594	-0.328106210246558	0.375467897017956	0.86402962601877	0.50274034621311	0.603258351546503	0.619137711320283	-0.694403195023412	0.70840175968099	-0.126377013820371	-0.514836233214796	-0.366396381218855	0.775046672658445	-9.26099266213927	-38.2531928938264	50.1930246484944
24954	1655203509436	6.03357665828146	-1.29021807545331	7.51597543448675	0.0602369413946634	-0.0282441533652001	-0.0887904892568159	0.00458870381999299	0.00449190546505911	-0.0107220833187674	0.559326171875	-0.37548828125	0.224365234375	0	0	0	0.0694622016044748	-0.328088711199009	0.375441659082193	0.864046503816573	0.502802716418769	0.603218577431209	0.619125816134149	-0.69437763423704	0.70843712634774	-0.126319195229891	-0.514809799278606	-0.366393485004885	0.775065600264066	-9.25660689473799	-38.2523250023946	50.1876710044645
24955	1655203509438	6.0313606997787	-1.26404074759507	7.53969086209928	0.0282342458233435	-0.0200021483336002	-0.0750874583077383	0.00452924199630651	0.00458284051339435	-0.00614397029696189	0.550537109375	-0.387451171875	0.22021484375	0	0	0	0.0694528449083665	-0.328118964865096	0.375427467539826	0.864041934078795	0.502784323024981	0.603192559162293	0.619166101374709	-0.69434774147537	0.708461037901534	-0.126349403178386	-0.514868078665172	-0.366390084945984	0.775028494459984	-9.25921778900485	-38.2552643186039	50.1874864024364
24956	1655203509438	6.03450567848995	-1.31280364334652	7.51762302328428	0.0755061186018159	-0.0447967519295945	-0.0840872532836023	0.0076621451695717	0.00308303443855745	-0.00912839587689896	0.563720703125	-0.389892578125	0.22314453125	0	0	0	0.0694807210277955	-0.328102696461264	0.375412447293259	0.864052396789449	0.502828229984267	0.603158425894081	0.619163697582363	-0.694345673579251	0.708475847645488	-0.12627770541463	-0.514827987499383	-0.366417639553532	0.77504209996061	-9.25389487343963	-38.2550889283101	50.1834309504598
24957	1655203509439	6.0073316790966	-1.26435339320595	7.51530270518864	0.027510067390403	-0.0232517495882553	-0.108816969071229	0.00615657134535114	0.00300959280333258	-0.0106726183056033	0.561767578125	-0.37646484375	0.23046875	0	0	0	0.0693454402153445	-0.328129360345065	0.375534821635244	0.863999959803393	0.502609441237849	0.603415591713834	0.619090763341872	-0.694432691476665	0.708329615321452	-0.126619086503729	-0.514924253251925	-0.366276916738154	0.775044665601757	-9.27844729782455	-38.249767555978	50.2077059252996
24958	1655203509440	6.03430144047658	-1.31078706875629	7.51813882735284	0.0722065708423895	-0.0411659623695108	-0.0840461633065317	0.00306580386457651	0.00298421935773619	-0.00765689948702008	0.561279296875	-0.38623046875	0.2216796875	0	0	0	0.0693497530374185	-0.328122958799027	0.375520281797783	0.864008364323595	0.50263968373497	0.603394836575638	0.619086439464368	-0.694415821210116	0.708350259424325	-0.126596118528856	-0.514917484251496	-0.366271185281277	0.775051871325242	-9.27670875607498	-38.2494520927651	50.2050414290671
24959	1655203509443	6.03207486563232	-1.28460509132279	7.54184931694616	0.0412789265317759	-0.0314454006959625	-0.0703603467402232	0.00605186716552976	0.00609031285979339	-0.00920963804568483	0.567626953125	-0.380615234375	0.218505859375	0	0	0	0.0693116364875592	-0.328063761298326	0.375537089376948	0.864026596854808	0.50269212605017	0.603470794318546	0.618969810904944	-0.69442533898995	0.708335583099414	-0.126626025302488	-0.51485344999898	-0.366174414889621	0.775140131140422	-9.27782400519787	-38.2409435753776	50.2056485627031
24960	1655203509444	6.03178015333374	-1.28363926590791	7.54224946128393	0.0408400612310693	-0.0312087434964472	-0.0703577361359144	0.00607437930566503	0.00459575176605838	-0.00765202577714007	0.568603515625	-0.372802734375	0.219482421875	0	0	0	0.0693257043088196	-0.328044187721864	0.37552859044421	0.864036593775387	0.502730577321774	0.603457099588909	0.618951933175313	-0.694424677021841	0.708344448962142	-0.126580052013071	-0.51481679709274	-0.366179833661359	0.775161915247977	-9.2742579992507	-38.2396394118998	50.2028539826644
24961	1655203509445	6.03154265253236	-1.28267278736256	7.54260381332084	0.03899802626528	-0.0326927110086876	-0.0703550552135326	0.00609441833085815	0.00456520456399622	-0.00917809039689766	0.56005859375	-0.37890625	0.224365234375	0	0	0	0.0693807369039083	-0.328122732638072	0.375458696272689	0.864032726848936	0.502732479438673	0.603286408348569	0.619116760893556	-0.694347996289983	0.708434161479766	-0.126498612231701	-0.514918356796036	-0.366287521423191	0.77504357134559	-9.26978531348036	-38.2516643247906	50.1947760904791
24962	1655203509445	6.03274817162218	-1.30596693533305	7.54392469400061	0.0556229225599857	-0.0492802699590077	-0.0656428168092091	0.00615710930853045	0.00300953850350545	-0.0106724765846663	0.568603515625	-0.385498046875	0.22314453125	0	0	0	0.0694035670514618	-0.328109735680923	0.375435694646072	0.864045823679248	0.502784081074033	0.603243315956974	0.619116846460969	-0.694331260119248	0.70846236813231	-0.126432488552496	-0.514890540833446	-0.366303937589529	0.775054292463856	-9.26489789910682	-38.2516705678295	50.1898710634557
24963	1655203509446	6.05489844198196	-1.25553150779543	7.51842233321754	0.0447199849591373	0.00945543442973867	-0.0780718379188006	0.00920555668688218	0.0045602919773308	-0.0137196806181806	0.562255859375	-0.381591796875	0.21484375	0	0	0	0.0693973051291015	-0.32810341655201	0.375444528268901	0.864044887885264	0.502779108479681	0.603262864845756	0.619101836513564	-0.694340836495198	0.708450840467521	-0.12644449144194	-0.51488248256425	-0.366294038361196	0.775064324175433	-9.26564436170798	-38.2505754431837	50.1910629196345
24964	1655203509447	6.03248597847653	-1.30344022590713	7.54457131908719	0.0538736293189164	-0.0480228580950634	-0.0656267149321223	0.00461158713032824	0.00299661987523032	-0.00916483379232864	0.558349609375	-0.380615234375	0.219970703125	0	0	0	0.0694107723145437	-0.328093941829049	0.375425770702263	0.86405555418294	0.502819712055379	0.603230936929247	0.619099970844781	-0.694323952505556	0.708475270758622	-0.12640031527081	-0.514865600079874	-0.366299368624846	0.775073020043551	-9.26236120181523	-38.2504393252811	50.1872958736917
24965	1655203509448	6.03372256419318	-1.30439298337941	7.49601756528474	0.0780615876147027	-0.030033489319047	-0.102356129390479	0.00770539493174586	0.00155887245193654	-0.00909625519394401	0.567626953125	-0.38330078125	0.225341796875	0	0	0	0.069374283856076	-0.328185227323716	0.375444654958238	0.864015611183749	0.502671535259542	0.603244855803374	0.619206727665794	-0.694315316274279	0.708457039605493	-0.126549850337202	-0.515021911404517	-0.366311707402571	0.774963330611875	-9.2744183150759	-38.2582286391631	50.1962513205466
24966	1655203509448	6.05584688255567	-1.27664344518949	7.52032633131433	0.0579200400160806	-0.00615966352919299	-0.0733334150594835	0.00448274897440524	0.00757168275300441	-0.00926064593782073	0.565185546875	-0.376708984375	0.21728515625	0	0	0	0.0693781876749115	-0.328157171530876	0.375427104160712	0.864033579966255	0.502734720468714	0.603229349982014	0.619170535600267	-0.694297149315363	0.708482313072893	-0.126508025498165	-0.514984727237425	-0.366288360971463	0.7749990756956	-9.27098615052283	-38.255587858528	50.1919852583188
24967	1655203509449	6.03055868855767	-1.27594093861081	7.5445321402687	0.0316755224087641	-0.0303678950778691	-0.0703209714617277	0.00920838897232582	0.00309706846327999	-0.0106355859599762	0.565673828125	-0.381103515625	0.227294921875	0	0	0	0.0694054463733194	-0.328200176518574	0.37541097931566	0.864022062655899	0.502702481484869	0.603168977881827	0.619255520144913	-0.694284496886122	0.708498961245955	-0.126484225486763	-0.51503325377352	-0.366355573226878	0.774935056293795	-9.27002473789002	-38.2617889701572	50.1909720273562
24968	1655203509450	6.03039420987039	-1.27470924152303	7.54487180662673	0.0311910934625426	-0.0301502700302795	-0.0703187325461325	0.00761960862141371	0.00460916087728819	-0.00916003088137577	0.558837890625	-0.38427734375	0.220703125	0	0	0	0.0694283493938382	-0.328179557229188	0.375397677544855	0.864033833950517	0.502749523821566	0.603142659243956	0.619242964350277	-0.694282519096849	0.708512575988752	-0.126418801379844	-0.514989999877398	-0.366372573026301	0.774955765034602	-9.26506968585498	-38.2608727716143	50.1871055731257
24969	1655203509451	6.03077738454324	-1.27447996941798	7.52090564529077	0.0435281222160976	-0.0199283019283073	-0.0886807403233529	0.00761706931607551	0.00607230952739967	-0.0122442320531919	0.56396484375	-0.38671875	0.21875	0	0	0	0.0693882506974852	-0.328155968200747	0.375426526746129	0.864033479799661	0.502737167099137	0.603221839448339	0.619175866155729	-0.694302513805896	0.708480387360962	-0.12648936733052	-0.514975106330343	-0.366304454159958	0.774997862398747	-9.26965680654044	-38.2559768003945	50.1914972800087
24970	1655203509451	6.02993083103852	-1.2722784367868	7.54565241010111	0.0294678509598922	-0.02832189870634	-0.0703078810377349	0.00615777080865934	0.00300918765379212	-0.0106724890638377	0.560546875	-0.384521484375	0.2177734375	0	0	0	0.0694099045854821	-0.328144374761532	0.37540430439968	0.864045798957434	0.502785755101112	0.603180084769241	0.619177090827154	-0.694285963739083	0.708507746767254	-0.126426948573798	-0.51494998302971	-0.366320294426286	0.775007068915595	-9.26505369710854	-38.2560661583537	50.1868233622329
24971	1655203509452	6.03058031557657	-1.27214281148995	7.52145932965262	0.0393993397705104	-0.0181658722309791	-0.0886596827837209	0.00925459964701003	0.000109478691261834	-0.00751893340385433	0.56640625	-0.383056640625	0.216552734375	0	0	0	0.0693489205943179	-0.328251910830776	0.375495016735222	0.863970429271374	0.50250835088592	0.603305350197711	0.619280236817494	-0.694361012994257	0.708388439238837	-0.126683080110783	-0.515119540420963	-0.3663447468923	0.774882820496695	-9.2849601652591	-38.2635925838643	50.2082254513341
24972	1655203509453	6.05555349973875	-1.29294815600626	7.54776577496135	0.0533365149554234	-0.0278559517562379	-0.0501779281606378	0.00757601804940877	0.00613435387433787	-0.00919255430028501	0.56201171875	-0.37890625	0.22314453125	0	0	0	0.0693674879535493	-0.328225714100234	0.375483240508744	0.86398400929384	0.502560433400888	0.60328664457699	0.619256195168808	-0.694359417652562	0.708400975424133	-0.126621708783806	-0.515070878517808	-0.366351310210804	0.774912064436811	-9.28019623005303	-38.2618382270967	50.2044316681923
24973	1655203509454	6.03025578729628	-1.26979689299258	7.52211590887377	0.0366358133658918	-0.0176106585640938	-0.0886478569930133	0.00619875292689052	0.00294646530990798	-0.0137247309000134	0.567626953125	-0.377685546875	0.225341796875	0	0	0	0.0693618494090666	-0.328289357429874	0.375469914938222	0.863966072609983	0.502496881549129	0.60324502163946	0.619348309031847	-0.694328049530061	0.708422553645676	-0.126672984972804	-0.515175158241526	-0.36637812346447	0.774830063289668	-9.28485429156058	-38.2685601498186	50.2060509072424
24974	1655203509454	6.05657474303895	-1.29250880722683	7.49964419919824	0.0777175396858273	-0.0100569336905896	-0.0868867021948194	0.00916787282189664	0.00316012861759999	-0.00758329752414388	0.555419921875	-0.378173828125	0.23095703125	0	0	0	0.0693900099244014	-0.328274237760416	0.375466633145213	0.863970982579917	0.502521664434832	0.603226646696644	0.619346098307536	-0.694342457161126	0.70841966783458	-0.126610135489199	-0.515131564706625	-0.36641395571166	0.774842102691018	-9.28018604266411	-38.2683988170008	50.2038030286195
24975	1655203509456	6.0305293711101	-1.26845311733355	7.49843311735291	0.0507955875350062	-0.00758916409550822	-0.107012779745808	0.00602712010448633	0.00758380245229627	-0.0107699944845824	0.5556640625	-0.38525390625	0.220703125	0	0	0	0.0693825849647166	-0.328155036785266	0.375431096448451	0.864032302958396	0.502731527303949	0.603232700290395	0.619169864217403	-0.694305679175809	0.708475097446255	-0.126501621186207	-0.514976344426478	-0.36629679987529	0.77500065747215	-9.27050637441632	-38.2555388714911	50.1923207407711
24976	1655203509457	6.05603156695511	-1.29027696746284	7.50046710186128	0.0783157019262236	-0.00864805166992449	-0.0868901456176196	0.00615820234613217	0.00300871263715854	-0.0106725910284088	0.5576171875	-0.3740234375	0.2158203125	0	0	0	0.0694032981170797	-0.328144082129708	0.375409730008407	0.864044083475339	0.502777991956532	0.60319254907087	0.619171252198891	-0.694289675300485	0.708501433650973	-0.126441944328865	-0.514952558567587	-0.366311980775816	0.775009287147447	-9.26610752153563	-38.2556401447415	50.1878407695939
24977	1655203509458	6.03019415365802	-1.28863465411919	7.54894556319745	0.0378061430151854	-0.0401511777961615	-0.0655155466000679	0.00609388503558351	0.00456514024413376	-0.00917908002349809	0.568603515625	-0.3720703125	0.224853515625	0	0	0	0.0693396774376872	-0.328191867539182	0.375422335619009	0.864025565091884	0.502696335999024	0.603235554896981	0.619195654927655	-0.694262427828337	0.708500158102411	-0.126598606922675	-0.515069000308754	-0.366243622848222	0.774964214427963	-9.27791900144925	-38.2574206985047	50.1944266514659
24978	1655203509459	6.0292351658408	-1.26422870246012	7.52387173132984	0.0337935935704074	-0.0144926065175351	-0.0886324171509862	0.00611450446756029	0.00453371877808272	-0.0107051614666547	0.563720703125	-0.384033203125	0.226806640625	0	0	0	0.0693567923823953	-0.328174960986634	0.375401757899902	0.864039553780676	0.50274943029417	0.603201609500125	0.619185617271063	-0.694246260037127	0.708526311032178	-0.12654089062274	-0.515038970140464	-0.366248938389716	0.774981660663694	-9.27355756129871	-38.2566882920473	50.1898648854675
24979	1655203509461	6.02896133412666	-1.26317066420982	7.52426885663681	0.033911751990034	-0.014471159502976	-0.0886327965590912	0.00604996427045126	0.00609023102881665	-0.00921174814325778	0.56103515625	-0.383056640625	0.214599609375	0	0	0	0.0693838402309354	-0.328128951842925	0.375361970740701	0.864072140853372	0.502869563768242	0.603145949766089	0.619142281803061	-0.694213336845344	0.70857854727293	-0.126428973303736	-0.514966061776494	-0.366239546779627	0.775034547354544	-9.26487670763472	-38.2535263661727	50.1805316259735
24980	1655203509462	6.05457394909202	-1.28502789073071	7.52622196588485	0.061418561883121	-0.0155217041964823	-0.0685010851257228	0.00620262587499887	0.00148365164992185	-0.0106398179340768	0.565673828125	-0.3818359375	0.218017578125	0	0	0	0.0694073271137839	-0.328124691517903	0.375340473589792	0.864081210676747	0.502907431403344	0.603100786074317	0.619155519458425	-0.694197817267487	0.708604303656622	-0.126369819737037	-0.514950003340468	-0.366264088706299	0.775033619518403	-9.26062787148909	-38.2544922228826	50.1762992909349
24981	1655203509463	6.03011112403155	-1.28545886499359	7.52587027625232	0.0466225291318947	-0.0306181681068195	-0.0838510047676664	0.00456836329400586	0.00452036695851423	-0.00919804461498321	0.563232421875	-0.376220703125	0.229248046875	0	0	0	0.0693568742437053	-0.328254987800519	0.375370634970887	0.864022669483144	0.502691098771269	0.603123996328757	0.619308569510033	-0.694190955963755	0.708573020793392	-0.126582743143977	-0.515170433812211	-0.366286389668189	0.774876573958448	-9.27780760253267	-38.2656601192113	50.1895085546245
24982	1655203509464	6.05420523278179	-1.28301814052495	7.52686142671176	0.0570169806046371	-0.0148772738771273	-0.0684733304777687	0.00607042744578568	0.00605876611976994	-0.0107380234508083	0.5625	-0.382080078125	0.22021484375	0	0	0	0.0693707935586028	-0.32823249374921	0.375350162564309	0.864038991314149	0.502751371020243	0.603094854577131	0.619288022910063	-0.694173848829539	0.708599896927993	-0.126526098789235	-0.515134668352316	-0.366282380761383	0.774902246096449	-9.27342613837941	-38.2641607563189	50.1847684369392
24983	1655203509465	6.0296780713528	-1.28322734917348	7.52659804163214	0.0457391659181218	-0.0295736940300103	-0.0838435805648689	0.0107586104761011	0.00165053665283505	-0.0090568580709938	0.566162109375	-0.381591796875	0.218505859375	0	0	0	0.0693880834514891	-0.32820122491098	0.375346443647507	0.864051096338075	0.502798006416202	0.603090504314445	0.619254397117728	-0.694183520246461	0.708600682232195	-0.12646862598407	-0.515076115697597	-0.366288024300298	0.774938499683723	-9.26886082382605	-38.2617070221954	50.1819512771477
24984	1655203509465	6.03103537616955	-1.30639283699835	7.52790021277853	0.0622745508373398	-0.0461082958304065	-0.0790689504477253	0.00613803465088058	0.00304018573852127	-0.00914650980118036	0.55615234375	-0.3828125	0.22509765625	0	0	0	0.0694053648299579	-0.32819187343205	0.375332038327445	0.864059517944769	0.502831910436253	0.603061886793322	0.619254738007152	-0.694174993632438	0.708617512675571	-0.12642111748	-0.5150545097972	-0.366302581791017	0.774945979091963	-9.26535145753404	-38.2617318970897	50.1787138396337
24985	1655203509466	6.02803733221944	-1.25651942108191	7.52612261670114	0.0262126145365679	-0.0110681070764909	-0.0886045256139631	0.00916540653875397	0.00462382802890645	-0.010667667513155	0.565185546875	-0.3837890625	0.218994140625	0	0	0	0.0693659986479723	-0.328204890333553	0.375373660203021	0.864039653846105	0.502752330373854	0.603142934891257	0.619240417281059	-0.694207974807798	0.708565946914712	-0.126528995041108	-0.51508774205655	-0.366268888883041	0.774939816385419	-9.27319293462324	-38.2606869129351	50.1869611422487
24986	1655203509467	6.02924896984103	-1.27964994498624	7.52755079623176	0.0427387158664286	-0.0275908975019919	-0.0838241117128593	0.00611455904449583	0.0045332840869026	-0.0107056260879287	0.561279296875	-0.380126953125	0.22021484375	0	0	0	0.069382437232111	-0.328188818842825	0.375353506226493	0.864053193937596	0.502803689100058	0.603109711574068	0.619231076442724	-0.69419187206864	0.70859164553442	-0.126473414726811	-0.515059312100275	-0.366273880701132	0.774956353180567	-9.26899586001746	-38.2600053195578	50.1825302582774
24987	1655203509468	6.05339331949526	-1.27702568577683	7.52853333811435	0.0510069410339152	-0.011359701609942	-0.0684352813826443	0.00914453240324074	0.00465589850611586	-0.00914159407052865	0.56298828125	-0.3798828125	0.21435546875	0	0	0	0.0693579637918234	-0.328250235023706	0.375388828096062	0.864016483526905	0.502670021895094	0.603150734582828	0.619299637058009	-0.694217806244555	0.708545401198635	-0.126590094135616	-0.515154818070242	-0.366295790055607	0.774882512131068	-9.27826715301103	-38.2650082806952	50.1919392940182
24988	1655203509469	6.05377476897131	-1.27686384009914	7.50458323586867	0.0640477999677178	-0.00248391935165947	-0.0867821937587934	0.00757454118364023	0.00613547679952905	-0.00919377741990178	0.562255859375	-0.381591796875	0.2197265625	0	0	0	0.0693748085659791	-0.328225714311678	0.375378338314315	0.864029003868161	0.502717967177945	0.603134351261198	0.619276674682011	-0.694216735648415	0.708556478121635	-0.126533952983079	-0.515109473240527	-0.366301339938308	0.774910032802046	-9.27390022019315	-38.2633326465841	50.1884862394494
24989	1655203509469	6.02932509849306	-1.29949351896299	7.55413256814014	0.0397339813907093	-0.0517461535271628	-0.060656453268102	0.00770850159127163	0.00156049870987878	-0.00909423559810215	0.567626953125	-0.3818359375	0.219970703125	0	0	0	0.0693556498868134	-0.328339875262799	0.375392093630464	0.863981189714756	0.502547404704294	0.603118964463509	0.619430077352919	-0.694207866193936	0.70854113973703	-0.126668432589236	-0.51528782688847	-0.366356340199833	0.774765440282375	-9.28528735529779	-38.2745276375883	50.1973294074664
24990	1655203509470	6.02831957496566	-1.27525011836635	7.52904166002972	0.0356851044668611	-0.0260924254098186	-0.0837915481420932	0.00443676454418726	0.00763345111594091	-0.00621327438231745	0.559326171875	-0.38671875	0.22021484375	0	0	0	0.0693508410768461	-0.328316843579348	0.375389837912451	0.863991308206334	0.502581039628315	0.603129015806839	0.619393000362449	-0.694205212774531	0.708545860867996	-0.126656565575971	-0.515258596398732	-0.366330661204746	0.774797022128056	-9.28406074902584	-38.2718216818742	50.1959131559513
24991	1655203509471	6.0295015655911	-1.29862336657163	7.53047274938371	0.0498626338278733	-0.0415597209508763	-0.0789769705984682	0.00923425553714512	0.00160617703412822	-0.00907487849011244	0.5673828125	-0.37841796875	0.221923828125	0	0	0	0.0693113267965252	-0.328388817803917	0.375460164040085	0.863936565691049	0.502380899120677	0.603225400014914	0.619461499187438	-0.694269658683441	0.708451210393396	-0.126832659531017	-0.515366930672001	-0.366355018075336	0.774713448638102	-9.29772879507942	-38.2768209472251	50.211638464068
24992	1655203509472	6.02797312764489	-1.27299696086989	7.52970031703231	0.0321816697471146	-0.0245139482407649	-0.0837752231881499	0.00766136817196145	0.00454614811605474	-0.0122128981329792	0.562744140625	-0.38232421875	0.228515625	0	0	0	0.0693354903733544	-0.328371633511117	0.375436654591536	0.863951375060566	0.502438777388713	0.603182411496608	0.619456417706099	-0.694253644433378	0.708479816327604	-0.126760510599227	-0.515332079505156	-0.36637047959346	0.774729320159855	-9.29234500567859	-38.2764500724952	50.2063846048995
24993	1655203509473	6.02989282909341	-1.29722333670485	7.50673670269354	0.0624707683135474	-0.0319517136931778	-0.0973094363544202	0.00458941162646297	0.00448680057960133	-0.0107252097048873	0.5595703125	-0.3857421875	0.224609375	0	0	0	0.0693297713360418	-0.328342552571623	0.375427143915327	0.863967019387212	0.502491255564663	0.603185512871793	0.619410829048574	-0.694241169230524	0.708495684836145	-0.126740141683671	-0.515297716884603	-0.366334685267659	0.774769101954487	-9.2904091381587	-38.273122843804	50.2035866999247
24994	1655203509475	6.02761098990965	-1.2708883496702	7.53034638187451	0.0311754147527756	-0.0235155447182544	-0.0837694822500516	0.00611751942614208	0.00307220072216321	-0.00762043016865032	0.564453125	-0.376708984375	0.218994140625	0	0	0	0.0693425370216157	-0.328335940285641	0.37542050274689	0.863971393619848	0.502509912868033	0.60316985571382	0.619410940028937	-0.694240444092957	0.708502117353357	-0.126708150848414	-0.515280499587337	-0.366348024239219	0.7747742457523	-9.28804440274633	-38.2731309433758	50.2018091209571
24995	1655203509475	6.02665710473169	-1.26873961904308	7.55513758465556	0.0158764055428194	-0.0310316754147732	-0.0654218585204269	0.00757135797619489	0.00759619517499194	-0.0122799434881495	0.559814453125	-0.385009765625	0.219970703125	0	0	0	0.069310357979319	-0.328336101898288	0.375434366494713	0.86396788998303	0.502488881289901	0.603212289374897	0.619386679003609	-0.694240660415315	0.708490221462984	-0.126773465352333	-0.515300717645659	-0.366301160301776	0.774782956934032	-9.29264597011579	-38.2713603460471	50.2049706115159
24996	1655203509476	6.05227314735616	-1.26821847452565	7.50725990995684	0.0534180009701495	0.00197470206737219	-0.0867178859075981	0.00625309921992804	-0.00150262359743933	-0.00751966410203391	0.559814453125	-0.38623046875	0.22119140625	0	0	0	0.0693318123812885	-0.328349221666462	0.375427099976644	0.86396434013568	0.502482562468311	0.603181160136504	0.619422119779121	-0.694241346664989	0.708495184790105	-0.126741965070834	-0.515305954745393	-0.366342819208477	0.774759776845909	-9.29065033933563	-38.2739468688392	50.2038708289012
24997	1655203509477	6.02930306592504	-1.29302568321799	7.50793453573697	0.0566979269530307	-0.0279319627963426	-0.097261643198145	0.00606956349582238	0.00605745848480922	-0.0107398782059446	0.56689453125	-0.379150390625	0.21533203125	0	0	0	0.0692316968544233	-0.328385269778646	0.375521857033797	0.863917485430728	0.502292898964589	0.603370458008284	0.619391583776065	-0.694309135803377	0.708380614081091	-0.127010745742491	-0.51539952230257	-0.366252639576795	0.774740173486127	-9.31023976982418	-38.2717182984596	50.2233482689638
24998	1655203509477	6.05058421780665	-1.26412496943711	7.55662821287729	0.0226313906007497	-0.0125637287474462	-0.0500268047257766	0.00456815766461119	0.00451877172077099	-0.00919948249046276	0.56005859375	-0.38330078125	0.2255859375	0	0	0	0.0692364278570904	-0.328375392728781	0.375507568247594	0.863927071399309	0.502327335277995	0.60335122907142	0.61938238803708	-0.69429338582626	0.708400766492737	-0.126984441686415	-0.515387177402016	-0.366245339097318	0.774751837015617	-9.30820768171036	-38.2710471909033	50.2205189506069
24999	1655203509478	6.02817414995799	-1.29002108375492	7.53301357977305	0.0403180212064712	-0.0356580886995149	-0.0789093475694145	0.00764302598580611	0.00311876445909669	-0.00760104476745256	0.562255859375	-0.389404296875	0.23046875	0	0	0	0.0692197200923971	-0.328426324176429	0.375534344998979	0.863897410381856	0.502220210628295	0.603379139847194	0.61944206640632	-0.694313452769063	0.708365172153037	-0.127073255189677	-0.515464537422676	-0.366268202930393	0.774689559876579	-9.31533949613366	-38.275402645162	50.2278308792913
25000	1655203509478	6.02882938134772	-1.31219924211379	7.55876103863799	0.0431252287525545	-0.0607337763937897	-0.0557426305495223	0.00768575840905072	0.00305371259059582	-0.0106532134235271	0.567138671875	-0.38232421875	0.2236328125	0	0	0	0.0692428073593704	-0.328416875639246	0.375518476138012	0.863906050160163	0.502256459748683	0.603344354058197	0.619446558685103	-0.694306379872016	0.708382615415957	-0.127014648940444	-0.515438744672668	-0.366291769771783	0.774695578848698	-9.31104744046419	-38.2757305117904	50.224173282585
25001	1655203509479	6.02718579696271	-1.26447212972791	7.50810694922792	0.0354042119004267	-0.00772662941510268	-0.102063534978837	0.00613897818104648	0.00303992914786698	-0.00914654731130982	0.572998046875	-0.378173828125	0.223388671875	0	0	0	0.0691884611589925	-0.32837642726874	0.375602685524074	0.863889171991276	0.502183089282642	0.60351846662296	0.619336423346482	-0.694397905357408	0.708271158939108	-0.127135811045894	-0.515386936072099	-0.366220460733864	0.774763757713337	-9.31896793764165	-38.267692768127	50.2364175701547
25002	1655203509479	6.02849243849015	-1.28760001725248	7.50951776379865	0.0518501161886033	-0.0241781056420967	-0.0972244944016776	0.00918708094285137	0.00459254120153106	-0.0121937805075984	0.567138671875	-0.380126953125	0.223876953125	0	0	0	0.0692172356716238	-0.328356563140655	0.375583901913899	0.863902583831977	0.502237400131175	0.603479939387764	0.619329925537284	-0.694391673848689	0.708291413818218	-0.127056980921964	-0.515342407724315	-0.366244775891655	0.774781883456871	-9.31307695384238	-38.2672185818677	50.2315726104027
25003	1655203509479	6.05264490214012	-1.28483582197022	7.51052526987179	0.0619004311469707	-0.00943890241512186	-0.0818404125309353	0.0076187944387837	0.00461140792811067	-0.00916109669224837	0.554931640625	-0.386962890625	0.228515625	0	0	0	0.0692784066758687	-0.328370969475088	0.375554156634324	0.86390513611688	0.502263163681344	0.603388294485183	0.619398321346667	-0.694384364740561	0.708319155606268	-0.126942222310271	-0.515327146978165	-0.366342107707378	0.774746017548887	-9.30523573167315	-38.2722100121489	50.2258489373206
25004	1655203509479	6.02660540778524	-1.26086488144042	7.50917940868988	0.0333080053017153	-0.00790525701383875	-0.102056262394374	0.00611489285499792	0.00453204444661748	-0.0107066644862655	0.552978515625	-0.38232421875	0.219970703125	0	0	0	0.0692919814648361	-0.328357817837343	0.37553614889435	0.863916874267065	0.502307488677397	0.603358904199358	0.61939100699151	-0.694369159509035	0.708342444356554	-0.126895436662232	-0.515304431517257	-0.366345484817722	0.77475952953955	-9.3017067707607	-38.2716762043821	50.2219904707216
25005	1655203509480	6.05216527608758	-1.28249881949592	7.5113111727492	0.0599689515382331	-0.00544009656132747	-0.0818252603952683	0.00911992547326816	0.00615041059878093	-0.0107017435723545	0.56591796875	-0.379150390625	0.2158203125	0	0	0	0.0691694077121005	-0.328291804793138	0.375632981361259	0.863909686978954	0.502248708438634	0.603610443304997	0.619193562308968	-0.694441442082108	0.708230912700819	-0.127122216051669	-0.515264318957413	-0.36614670151199	0.774880167884844	-9.31661361881424	-38.2572680081293	50.2370297145385
25006	1655203509481	6.02888232362152	-1.30711296558917	7.51230198323941	0.0655387354526944	-0.0374034836841479	-0.0923502808298462	0.00752708635176136	0.00766145441269701	-0.00922935836865146	0.561767578125	-0.38671875	0.220458984375	0	0	0	0.0691798090349158	-0.328262564169782	0.375626168002521	0.863922927637827	0.502297341752843	0.603605834511078	0.619158604084779	-0.694442400521388	0.708238271867268	-0.127075971845814	-0.515215617801053	-0.366140064465294	0.774915685973145	-9.31286444509337	-38.2547172877746	50.2340869397683
25007	1655203509482	6.05291066641413	-1.30438661109346	7.51340847270473	0.073080723526652	-0.0213150404061438	-0.0769458104728287	0.00916604964019911	0.00462551503152106	-0.0106675144999337	0.5625	-0.3837890625	0.22265625	0	0	0	0.0691601848814049	-0.328355645686236	0.375672795831516	0.863868849562986	0.502105040836215	0.603645777569139	0.619275627802203	-0.694482326219191	0.708173638598604	-0.127217908185896	-0.515349227743716	-0.366199225582147	0.774798877546291	-9.32446468315681	-38.2632562535156	50.2467377138739
25008	1655203509482	6.0268694575845	-1.28020952106581	7.51208360130014	0.0444752990681715	-0.0197708129536635	-0.0971779667211798	0.00916607380935059	0.00462552987780745	-0.0106675479166303	0.569580078125	-0.38427734375	0.222412109375	0	0	0	0.0691852939452611	-0.328336848390317	0.375661519913225	0.863878887082737	0.502146672891199	0.603619948747003	0.619267047709601	-0.694484274222781	0.708183635116387	-0.127151609547801	-0.515306036993121	-0.366222468491498	0.774816618181643	-9.31948094707833	-38.2626301487539	50.2431968430651
25009	1655203509483	6.05089097340477	-1.27736483241823	7.51321241691109	0.0532576761198221	-0.00329070263645048	-0.0817852506098724	0.0105775662741744	0.00775550083060271	-0.00919049312031764	0.566650390625	-0.37890625	0.21826171875	0	0	0	0.0691726416155153	-0.328350192517287	0.375726145460151	0.863846722713845	0.502032029383037	0.603713898404546	0.619268415428024	-0.69456529917008	0.708090018539179	-0.127230384869193	-0.515308535406048	-0.366248623913281	0.774802593451585	-9.32531916241739	-38.2627299532613	50.2540125209703
25010	1655203509484	6.02626591609307	-1.29979945869777	7.56294648200646	0.0315162944460504	-0.0524495138340796	-0.055650176398407	0.00914454479499588	0.00465855398099448	-0.00914142608989023	0.5625	-0.388916015625	0.2236328125	0	0	0	0.0691947959617417	-0.328332144324821	0.375721647676246	0.863853764639782	0.502062492941022	0.6036993681351	0.619257883353233	-0.694574871072049	0.708090647358519	-0.12717461853153	-0.515265952355763	-0.366271358471658	0.774820166429755	-9.32109584074727	-38.2619614151759	50.2516253932866
25011	1655203509484	6.0489027430368	-1.27280758295455	7.56286395676681	0.0227285664474811	-0.0191680697964922	-0.0451241725890767	0.00759734807425763	0.00464460338756217	-0.00763511692041252	0.569580078125	-0.388427734375	0.2255859375	0	0	0	0.0691614892238491	-0.328385211301763	0.375790373254438	0.863806365324964	0.501889496735172	0.60379701238462	0.619302915302619	-0.694643453395493	0.707996567555259	-0.127323732998825	-0.515342027901567	-0.366292271506484	0.774759682813272	-9.33254853936825	-38.2652475072846	50.2658878380737
25012	1655203509485	6.05149752052916	-1.29787679656998	7.5156737923779	0.0664378249697041	-0.018378784620017	-0.0768922266800036	0.0137182280372635	0.0062586706569694	-0.0121688266165917	0.556640625	-0.374267578125	0.223876953125	0	0	0	0.069204965772082	-0.32835111286802	0.375781115396754	0.863819872833445	0.501948199979009	0.603767335575956	0.6192842715824	-0.694661445684982	0.707998452047313	-0.127215045405254	-0.515260594667092	-0.366337544335986	0.774792438781636	-9.32433466677183	-38.263887011132	50.2612092564526
25013	1655203509486	6.02527380471972	-1.27371495847748	7.51446722218372	0.0377896838297431	-0.0160451844111	-0.0971427947162766	0.00447567756831817	0.00756640475864472	-0.0092702582866476	0.574462890625	-0.383056640625	0.212646484375	0	0	0	0.0691688076751726	-0.328314831893087	0.375793269574179	0.863831271572497	0.501977579403525	0.60382566488106	0.619203582198233	-0.694662246737538	0.707990189175086	-0.127256650079204	-0.51523089264303	-0.366257366427996	0.774850094407618	-9.32664869425307	-38.2579991240046	50.2622816829924
25014	1655203509487	6.02352374538623	-1.27045368206237	7.56369437509119	0.00980043100642317	-0.0329002690110999	-0.0604986424152827	0.0106701936173867	0.00470615270744859	-0.00912143178706122	0.569580078125	-0.382568359375	0.22509765625	0	0	0	0.0691969059869635	-0.328294006955363	0.375791886052942	0.863837537720951	0.50200700674793	0.603812416016223	0.619192644853469	-0.694680134157718	0.707984493157208	-0.127190678335893	-0.515178101613993	-0.36629021787864	0.774869666398047	-9.32166719274474	-38.2572010650146	50.2600125370224
25015	1655203509488	6.05063363738639	-1.29403654929859	7.51703138525689	0.0618001695818337	-0.0178538778840401	-0.076860706840435	0.00773198199815398	0.00298589392836641	-0.0137047409330467	0.560302734375	-0.375	0.218994140625	0	0	0	0.0692540311808383	-0.328419941826736	0.375811497219077	0.863776556485346	0.501812120736958	0.603745512127637	0.619415815157487	-0.694723131694349	0.707939195446318	-0.127207962956789	-0.515309970571377	-0.366487997261242	0.774688441951453	-9.32505434644411	-38.2734867410326	50.2678279529859
25016	1655203509489	6.02330383153478	-1.26775350525544	7.56432253618812	0.0058551635327456	-0.0335356298833207	-0.0604976398333576	0.00768793860494199	0.00305297189736961	-0.0106526156837162	0.5634765625	-0.38330078125	0.22998046875	0	0	0	0.0692748983374484	-0.328412407076684	0.375797485046962	0.863783844240452	0.501843082220954	0.603714120353529	0.619421328106111	-0.694717064805505	0.70795447738543	-0.127156037284698	-0.515287997817723	-0.366510189265849	0.774692558676869	-9.32126606310197	-38.2738890903085	50.2646257411786
25017	1655203509492	6.02545655770017	-1.29205082397287	7.54128404671416	0.0362770914513833	-0.0407899376650396	-0.0739242372011439	0.00618721725663333	0.00151400593712939	-0.00911161293588683	0.55810546875	-0.38037109375	0.228515625	0	0	0	0.0692653740975338	-0.328388702201113	0.37577776303894	0.863802200172729	0.501903866144238	0.603703384363319	0.61938254161523	-0.694687249592774	0.707986761513158	-0.127139178758316	-0.515268992277524	-0.366465508923263	0.774726336435595	-9.31965270212383	-38.271058399028	50.2607135746436
25018	1655203509493	6.0741388469188	-1.28783046011985	7.5427867523568	0.057258607170594	-0.00935446509536479	-0.0431461336438357	0.00770999488461797	0.00301938356276293	-0.0121787873358515	0.558349609375	-0.38720703125	0.2236328125	0	0	0	0.0692888927270783	-0.328380448465012	0.375757331565647	0.863812339681043	0.501945417681165	0.60366140412933	0.619389785864674	-0.694673874798778	0.70801095423864	-0.127077521026114	-0.515246548111613	-0.366487923188059	0.774730660821147	-9.31516117940947	-38.2715870859049	50.2564231039936
25019	1655203509494	6.02466276332234	-1.26635135997512	7.51620148034625	0.0315269764960381	-0.012281499563896	-0.0971149670484568	0.00778165859676281	3.2810149041409E-06	-0.010582743313798	0.56591796875	-0.384765625	0.224853515625	0	0	0	0.0692145161043964	-0.328332320064628	0.375811029223965	0.863813237149696	0.501927915829206	0.60381035811161	0.619258765580656	-0.694711808730438	0.707950842148117	-0.127204983834183	-0.515212451442929	-0.366358644689737	0.774814476722826	-9.32334961254618	-38.2620257920534	50.2643544219303
25020	1655203509495	6.02701673025635	-1.31288417837616	7.54295958162147	0.0513469148474643	-0.0540001297340394	-0.0690082728917378	0.00616512340653463	0.00154777952069753	-0.00758561778749809	0.562744140625	-0.386474609375	0.219482421875	0	0	0	0.0692260268506139	-0.328334395234754	0.375808333629493	0.863812698729841	0.501929242560905	0.60379745043431	0.619270275656165	-0.694714593076315	0.707951707162204	-0.127184961740493	-0.515207404478086	-0.366378246045186	0.774808564224613	-9.3219777634264	-38.2628656971769	50.2636778686572
25021	1655203509496	6.02605012228858	-1.28849634578597	7.5177885433617	0.0454480594408732	-0.0271000942516633	-0.0922013979757459	0.00911912069901745	0.00615081852007167	-0.0107031713627406	0.56298828125	-0.38330078125	0.221435546875	0	0	0	0.0691835853136682	-0.328361171800853	0.37589364922394	0.863768798261332	0.50176581065336	0.603936005042498	0.619267610224113	-0.694804817614419	0.707835191992512	-0.127340513571749	-0.515244928824311	-0.366375002954939	0.774785144753434	-9.33345553457504	-38.2626711962825	50.2793120188473
25022	1655203509496	6.04866823407115	-1.26137939280614	7.51770163341931	0.0384834615453494	0.0055549668181506	-0.081716635716953	0.00916897927493551	0.00316876472164093	-0.00758068133949873	0.565185546875	-0.38720703125	0.21826171875	0	0	0	0.0692045101893691	-0.328350953243336	0.375896931950975	0.863769577968272	0.501774296108074	0.603929934762888	0.619266654731661	-0.694823402320558	0.707824464638588	-0.127298730735151	-0.515211602502245	-0.366405732974241	0.774792774547284	-9.33035664996313	-38.2626014725773	50.2785526828099
25023	1655203509497	6.04923520100279	-1.28350828782774	7.54358392898811	0.0387426940707907	-0.0185514936707838	-0.0584855363105685	0.00606833877306761	0.0060544917458395	-0.0107434453595148	0.56201171875	-0.3828125	0.22216796875	0	0	0	0.0691527209302726	-0.328420528740088	0.375975896546118	0.863712905256349	0.501564163036847	0.604048121480945	0.619321610548581	-0.694892814167889	0.707720052808565	-0.127500210472275	-0.51532258554713	-0.366412600476544	0.774715714980042	-9.3457769210419	-38.2666117890348	50.2958591059337
25024	1655203509498	6.05119483294721	-1.30777109165843	7.52074347044631	0.0687870171285552	-0.0263195206322483	-0.0718772327438053	0.0076409662251661	0.00457780624222524	-0.0106880988918698	0.567138671875	-0.380615234375	0.216796875	0	0	0	0.0691689729457194	-0.328406676195934	0.375964086653146	0.863722011852563	0.501600121154009	0.604025809614753	0.619314249616078	-0.694888019618714	0.7077333174574	-0.127452703192695	-0.515294050662984	-0.366423761074504	0.774729416423147	-9.34219372814606	-38.2660746234327	50.2928001538828
25025	1655203509499	6.02289283679269	-1.25832390329008	7.54259335006847	0.00755693592609657	-0.0167647303001566	-0.0787779052157766	0.00764098824919945	0.00457781970053509	-0.0106881292303447	0.556396484375	-0.388916015625	0.22021484375	0	0	0	0.069166513209289	-0.328474541082159	0.375989594818293	0.863685297952739	0.501472600898483	0.604034493086185	0.619409042321977	-0.694912247824882	0.707695636077691	-0.127529818080178	-0.515385485215758	-0.366482220358245	0.774640938622669	-9.34879528454918	-38.2729924449988	50.300364825773
25026	1655203509499	6.02490165560041	-1.28258183681209	7.5197201616676	0.0375954362858295	-0.024532873065167	-0.0921610367788386	0.00761868332239736	0.00461191537320257	-0.00916207015670956	0.55859375	-0.38427734375	0.2294921875	0	0	0	0.06917990036374	-0.328461715764038	0.375984309083007	0.863691404372176	0.501497401201436	0.604022934327891	0.619400235222856	-0.694914729407328	0.707699881418073	-0.12749273192455	-0.515358007060088	-0.366493073122493	0.774654085326015	-9.34596878122576	-38.2723496890841	50.2984333953993
25027	1655203509501	6.02325404423033	-1.27928238080151	7.56884180653881	0.00873750671729189	-0.0383446786531783	-0.0555375624363705	0.00611569136691883	0.00452936227248663	-0.0107083585745332	0.570068359375	-0.385498046875	0.222412109375	0	0	0	0.069058735541652	-0.328423411489248	0.376072240211278	0.863677384197145	0.501415465856469	0.604249166350228	0.619245892650887	-0.694971188429121	0.707601122375717	-0.127732920056031	-0.515361599125658	-0.366310792330337	0.774737907662304	-9.36226934737372	-38.2610864491917	50.3135786024381
25028	1655203509501	6.02531256938445	-1.28145403252988	7.49596450016603	0.0490478858737788	-0.0121891615688882	-0.110448166287389	0.00621077856686831	0.00147962648340169	-0.0106373327160246	0.560302734375	-0.38427734375	0.22705078125	0	0	0	0.0690735542359565	-0.328425957705195	0.376058327069607	0.863681289048366	0.501433049894068	0.604217984957608	0.619262079516986	-0.694960177765791	0.707617957493642	-0.127699559718372	-0.515359338514083	-0.366329705165025	0.774730468821275	-9.35995573692137	-38.2622676132858	50.3111381712836
25029	1655203509503	6.0499074271212	-1.30083692090558	7.54659457325045	0.0481779537001809	-0.0290627340627885	-0.0535132003872078	0.00785381699473584	-0.00155573904468186	-0.012072089073858	0.563232421875	-0.38623046875	0.220703125	0	0	0	0.0690625896134662	-0.328443073343377	0.376109888092293	0.863653204919568	0.50133299930392	0.604290762134299	0.61927207155505	-0.695023278877096	0.70754342159017	-0.127769121400303	-0.515371580151512	-0.366353628839163	0.774711012577278	-9.36519510373846	-38.2629967471213	50.3201478693768
25030	1655203509503	6.02416650807677	-1.276941284659	7.54488740495166	0.0195468282973472	-0.0275339456783882	-0.0738297877945033	0.00466286268952	0.00146520657362248	-0.00913159459557268	0.558837890625	-0.380615234375	0.229736328125	0	0	0	0.0690679998662711	-0.328449089040977	0.376100291435083	0.863654663673549	0.501339533381196	0.604270898137863	0.619286164816223	-0.695012184689699	0.707556364353837	-0.12775779582958	-0.515380185302051	-0.366361396610016	0.77470161460525	-9.36449125737028	-38.2640251657294	50.3188553817096
25031	1655203509505	6.02575451580556	-1.30026418178044	7.54615335059164	0.035802075280022	-0.0423082325438222	-0.0688809735260403	0.00776138966974796	3.78625853786619E-05	-0.00905552954221699	0.56494140625	-0.38427734375	0.21533203125	0	0	0	0.0690251026020669	-0.32842840058399	0.376140039662607	0.863648650472649	0.501306912504909	0.604366067191193	0.619219699543421	-0.695045283382164	0.707508411546773	-0.127843269821954	-0.515367280221593	-0.366297016666	0.774740641801233	-9.3701816389457	-38.2591751651041	50.3251213032912
25032	1655203509505	6.04789303862707	-1.25000202500046	7.5202252588647	0.0253523235173678	0.015697732583231	-0.0816846412558263	0.00625846633774762	-4.53297238070226E-05	-0.0106018508762526	0.56640625	-0.3798828125	0.229736328125	0	0	0	0.0690423272488469	-0.328437149566714	0.376126738716712	0.863649739335852	0.501315430413645	0.604331389377739	0.619246647986047	-0.695035650021993	0.707523666940787	-0.127811212016668	-0.515371986459964	-0.366324763743097	0.774724391665111	-9.36806665253666	-38.2611415659666	50.3230273981053
25033	1655203509506	6.02443075404341	-1.27363664005032	7.54523498453947	0.0163810782635864	-0.0247739597825866	-0.0738165363594589	0.00773592442266039	0.00152844519735555	-0.0106174520043145	0.5615234375	-0.377685546875	0.224853515625	0	0	0	0.0690567321958328	-0.328471774402986	0.376147623237194	0.863626323528873	0.501238517907128	0.604335603203249	0.619304793189291	-0.695068352638597	0.707488266542886	-0.127829331001964	-0.515402690453332	-0.366386177966784	0.774674922317974	-9.36995885722587	-38.2653845445228	50.3275435219367
25034	1655203509508	6.05190270043309	-1.29734242735934	7.49836883519704	0.0709010172650496	-0.00832091033907369	-0.0900816147274934	0.00785440590728926	-0.00155572405413419	-0.0120719071767052	0.562744140625	-0.38134765625	0.220458984375	0	0	0	0.0690860364388611	-0.328483756373332	0.376130052175055	0.863627075315975	0.501249211299312	0.604284912272011	0.619345600591645	-0.695059475321539	0.707506606839918	-0.127776081656986	-0.515404262630379	-0.366434368036452	0.774651082736068	-9.36640796107444	-38.2683624950598	50.3245812475817
25035	1655203509510	6.02709249740934	-1.29653541747125	7.52211054485618	0.0454614138400838	-0.0319561411449796	-0.0871587364299131	0.00783199005372978	-0.00152117436248941	-0.0105458397005193	0.56494140625	-0.38330078125	0.22265625	0	0	0	0.0690971241674719	-0.328504301937961	0.376108731430485	0.86362765887956	0.501254291500009	0.604238401337829	0.619386865861336	-0.695033211500053	0.707535619147073	-0.127758297382559	-0.515434738996846	-0.366455047702815	0.774621022080076	-9.36548440508331	-38.2713739829724	50.3221287874669
25036	1655203509511	6.02510090171479	-1.269601098276	7.5453800092798	0.0139295980350739	-0.0234259948240177	-0.0738093857449336	0.0124529653968288	-0.0014428452381344	-0.0135375464257189	0.557861328125	-0.381591796875	0.22509765625	0	0	0	0.0691484579182052	-0.328506643109703	0.376092444494135	0.863629752495104	0.50127571725444	0.604177793933653	0.619428646906576	-0.695040705081342	0.70754592792392	-0.127660401684746	-0.515403796620746	-0.366535064074017	0.774603752400657	-9.35863999465066	-38.2744232387754	50.3181011077248
25037	1655203509512	6.05122416085405	-1.2906072777268	7.54729523367414	0.0407016661802666	-0.0230368457472743	-0.0534630714873145	0.0124047206799957	8.20160777126493E-05	-0.0135736489304981	0.56201171875	-0.38330078125	0.2265625	0	0	0	0.0691461528489038	-0.328496024817529	0.376110698099978	0.863626026703702	0.501262208907656	0.604209502917099	0.619408649040106	-0.69506644828626	0.707519104641886	-0.127668903940886	-0.51538221776439	-0.366534572927869	0.774618342450554	-9.35907909344749	-38.2729637425494	50.3203374917751
25038	1655203509512	6.02625134951489	-1.26719535386943	7.52124711676646	0.0257767275073907	-0.0129300283312129	-0.0921001527469301	0.0139560778349919	-0.00135863690245269	-0.0119913030206165	0.552001953125	-0.375732421875	0.21728515625	0	0	0	0.0692010171320941	-0.328495597074908	0.376103962580216	0.863624728259759	0.501272904067718	0.604160906079518	0.619447395032614	-0.695089823843511	0.707514057118686	-0.127569572268047	-0.515340288000766	-0.366624410732061	0.774603723860566	-9.35209941051952	-38.2757915523416	50.3174721050953
