// Start Time : 05/04/2022 11:41:04																																
// Update Rate : 100Hz																																
// Filter Profile : 46.1 human																																
// Firmware Version : 4.4.0																																
PacketCounter	Time_Of_Arrival	Acc_X	Acc_Y	Acc_Z	FreeAcc_X	FreeAcc_Y	FreeAcc_Z	Gyr_X	Gyr_Y	Gyr_Z	Mag_X	Mag_Y	Mag_Z	VelInc_X	VelInc_Y	VelInc_Z	OriInc_q0	OriInc_q1	OriInc_q2	OriInc_q3	Mat[1][1]	Mat[2][1]	Mat[3][1]	Mat[1][2]	Mat[2][2]	Mat[3][2]	Mat[1][3]	Mat[2][3]	Mat[3][3]	Euler_X	Euler_Y	Euler_Z
20126	1649158896624	9.68389943366291	-0.474375408600407	-0.583000128303537	0	-2.08166817117217E-15	-0.0996637442503054	-0.0459464132533236	-0.040300164239871	0.0187068615618886	0.582275390625	0.41845703125	0.0888671875	0	0	0	-0.593541474149166	-0.421442432397696	-0.538985327304617	0.423780145346478	0.0637621862500961	0.0434645644991373	0.997018161939645	0.957109685878217	-0.285593329169663	-0.0487596096363414	0.282622420912969	0.957364759100046	-0.0598104107209038	-140.811836318204	-85.5742423114059	34.280954963563
20127	1649158896624	9.69975380989231	-0.46396423816734	-0.572580239599112	0.00549795349598318	-0.0156307458103265	-0.0849918743866418	-0.0422769689669556	-0.0276156119363025	0.0175924064881801	0.566650390625	0.430908203125	0.09423828125	0	0	0	-0.592291985414205	-0.421904752888303	-0.538968225672272	0.425088032318062	0.0630192624118853	0.041563722421839	0.997146443379057	0.957999492553772	-0.282593088540436	-0.0487659571411511	0.279759798455348	0.95833898140878	-0.0576268329912825	-139.760865984161	-85.6705352786817	33.4064471750497
20128	1649158896625	9.69874148831236	-0.427844330926638	-0.606445833259326	0.0326864287242122	-0.0561808022113773	-0.0858076756193036	-0.03720415904024	-0.0235318714737357	0.0166264006452999	0.5712890625	0.419921875	0.0869140625	0	0	0	-0.592469532674557	-0.421805259078775	-0.538941666697889	0.42497300639309	0.0632444066207787	0.0417422087179342	0.997124732940936	0.957884850186353	-0.282956534501412	-0.048910258294332	0.280101336688443	0.958223975693731	-0.0578796474682396	-139.801060340975	-85.6540888921316	33.4253793479331
20129	1649158896626	9.73263474528287	-0.408638614512054	-0.622459926831473	0.0502148671641878	-0.0742555087708437	-0.0520221537019587	-0.0342182704511402	-0.00891341529602191	0.0162984236225286	0.56884765625	0.418212890625	0.086669921875	0	0	0	-0.592591440929062	-0.421692004211846	-0.538962515188827	0.424888979549656	0.0633905216102601	0.0417836786201292	0.997113717672638	0.957780610996517	-0.283290417282097	-0.0490187788023515	0.280424576257356	0.958123511702487	-0.0579775245571698	-139.786182433246	-85.6457681652402	33.3907580946428
20130	1649158896627	9.73077776580961	-0.406810645137764	-0.580922733037752	0.0649791815154629	-0.0348705235966334	-0.0563784469092141	-0.0356195048376475	-0.000312683953413197	0.0161555542974562	0.57568359375	0.421142578125	0.086181640625	0	0	0	-0.592702007218074	-0.421548804339294	-0.539002359149273	0.424826309250377	0.0635461247832607	0.0417408791152944	0.997105605758845	0.95767041077382	-0.28363842505763	-0.0491592123526199	0.280765514893359	0.958022412494358	-0.0579981276004441	-139.715389944561	-85.639650710403	33.2992927675209
20131	1649158896628	9.68013053742994	-0.421709962672684	-0.595950696383053	0.0443597601236507	-0.0476671942697251	-0.105283812418381	-0.0356875280117835	0.00755382992160485	0.0133180493709587	0.57080078125	0.42333984375	0.086669921875	0	0	0	-0.592785341939887	-0.421398468403315	-0.539071920127495	0.424770919600916	0.0636495915147935	0.0416335198836331	0.997103494890124	0.957561820857982	-0.283985993377466	-0.0492677866415781	0.28111223512175	0.957924112645419	-0.0579422615828973	-139.625783461544	-85.6380602405081	33.1889020785065
20132	1649158896629	9.66220224093469	-0.431598217269036	-0.567064072537228	0.042807367396812	-0.0189269045438811	-0.124354174999462	-0.0370310133119267	0.00986441925609114	0.0154458543778958	0.57373046875	0.41796875	0.090087890625	0	0	0	-0.592869933905989	-0.421231916558949	-0.539146365360389	0.424723569702772	0.063769738381513	0.0414951392825157	0.99710158654105	0.957447814835073	-0.284347123622019	-0.0494003558228994	0.281473093446422	0.957822982969092	-0.0578621721152336	-139.510655723072	-85.6366228604882	33.052160931044
20133	1649158896629	9.59367588272377	-0.455061138998393	-0.553182432680532	0.020601524814987	-0.00295765108729723	-0.192330037403428	-0.0321046541469714	0.0127763580031103	0.0112815188226475	0.57568359375	0.40966796875	0.08984375	0	0	0	-0.592926858540071	-0.421087641577978	-0.539228636751797	0.424682723734906	0.0638353508341909	0.0413461726385287	0.997103576361063	0.957350517324982	-0.284659564542796	-0.0494865566785127	0.281788990135289	0.957736616363001	-0.0577541229358009	-139.408415990219	-85.638121615432	32.931140303749
20134	1649158896630	9.5574244977539	-0.454716542299936	-0.511934193057585	0.0310912597864314	0.0342476982368625	-0.230878185054408	-0.0234093887020886	-0.00111908379224299	0.0130162422487004	0.574951171875	0.42041015625	0.090576171875	0	0	0	-0.593006983117603	-0.420988310636437	-0.539246962402846	0.424646057111734	0.0639631116935656	0.0413198232488838	0.997096481063472	0.957276208824275	-0.284889136973874	-0.0496028190056206	0.2820123762559	0.957669489876838	-0.057776879437524	-139.353128889288	-85.6327797053809	32.8622408047226
20135	1649158896630	9.59430334039652	-0.494655793922279	-0.522548423232072	-0.00667714686254564	0.0376261570640954	-0.191516060542201	-0.0193030529938184	-0.0159031778203001	0.00945725589368683	0.574951171875	0.421630859375	0.081298828125	0	0	0	-0.593108968430663	-0.420944920462105	-0.539222395583942	0.424577829855706	0.0640891640757326	0.0414486660295634	0.997083039236173	0.957216164136064	-0.285078080664342	-0.0496759805275579	0.282187515961839	0.957607694209432	-0.0579457489914674	-139.39403410912	-85.6226774568445	32.892137982229
20136	1649158896631	9.59667956676885	-0.536201612718371	-0.535304516824658	-0.0486301011430226	0.0387912663838613	-0.18634580263992	-0.00412047395931069	-0.0190046272585157	0.00847401455046933	0.57275390625	0.42431640625	0.083740234375	0	0	0	-0.593186786457142	-0.420949023511177	-0.539156716566631	0.424548455371969	0.0642239091721526	0.0416064945941633	0.997067795637905	0.957199099481305	-0.285121057292524	-0.0497580811584523	0.282214764749871	0.957588054591314	-0.0581372880447302	-139.440704915613	-85.6112491650785	32.9365778983148
20137	1649158896632	9.63061465869643	-0.516258839059318	-0.551502062472069	-0.0308094588091707	0.0206730442954869	-0.152561097263794	0.0087608236500673	-0.0217632648347991	0.00456044698299419	0.56787109375	0.41357421875	0.08447265625	0	0	0	-0.593234611338898	-0.421005723996559	-0.539066015313918	0.424540583931965	0.0643240229914157	0.0417995322546029	0.99705326796992	0.957221135931597	-0.285038945913679	-0.0498045804945843	0.282117204353124	0.957604092731289	-0.0583462474565608	-139.515801546177	-85.6003851872066	33.0169272832148
20138	1649158896633	9.63123747967033	-0.554349475901739	-0.522336374581513	-0.0579980211029384	0.0612230852560173	-0.151747361996994	0.0196179731008212	-0.0202751390402699	0.00355801295680301	0.569580078125	0.413330078125	0.08984375	0	0	0	-0.593255100092966	-0.421091081119405	-0.538957021321802	0.424565680175995	0.0644152611392425	0.0419835542692567	0.997039645803156	0.957274171641734	-0.284852569236771	-0.0498515206071134	0.281916360717135	0.95765149974828	-0.0585386247692493	-139.582268640891	-85.590222621369	33.0948648405725
20139	1649158896634	9.64941635648366	-0.564795812107477	-0.536601304840915	-0.0700091327665245	0.0526634488452991	-0.132269168337313	0.0362232109760259	-0.0166532261839171	0.000811801533123295	0.574462890625	0.414794921875	0.090087890625	0	0	0	-0.593223572428547	-0.421218318697578	-0.538830722236816	0.424643820021496	0.0644731615346735	0.0421309991090808	0.9970296837887	0.957375544051414	-0.284505508222273	-0.0498867060793273	0.281558660129613	0.957748189612101	-0.0586781577826049	-139.629641015237	-85.5828054168444	33.1632384974655
20140	1649158896635	9.64721274589701	-0.542957224650938	-0.511538636912031	-0.0416504506331291	0.0717734186395064	-0.137032257967061	0.0491079434862039	-0.0194077953162201	-0.00310690012760198	0.577880859375	0.41845703125	0.09375	0	0	0	-0.593165028886612	-0.421401030747676	-0.538676308429985	0.424740220048661	0.0644980120420798	0.0423257215974833	0.997019829157812	0.957515696707691	-0.284033833515623	-0.0498845865654419	0.28107596304381	0.957879593012437	-0.0588471604185188	-139.712141289896	-85.5754803741655	33.2742057047291
20141	1649158896636	9.66751964026591	-0.575009621485171	-0.552348417484784	-0.0819077982150224	0.0439797227965645	-0.112789552609806	0.0636193149116131	-0.0205598884429284	-0.00331852840072539	0.574462890625	0.418701171875	0.08544921875	0	0	0	-0.593077469627661	-0.421616661178326	-0.538488657390092	0.424886422352031	0.0645387137581132	0.0425096468977593	0.997009370240359	0.957695723360258	-0.283421838235465	-0.0499095488729631	0.28045259115209	0.958052708117804	-0.0590029879262157	-139.772729118242	-85.5677193751546	33.3716555974976
20142	1649158896637	9.64492087963952	-0.520870514159202	-0.488655753838124	-0.0131486399425326	0.0906656467599839	-0.141793108128459	0.0787119495841944	-0.0295286295084759	-0.00581591197473439	0.572265625	0.415771484375	0.08447265625	0	0	0	-0.592977442482759	-0.421908529083011	-0.538247470011036	0.425041888312593	0.0645657082274584	0.0428090390086793	0.996994812173183	0.957919923140547	-0.282665172533351	-0.0498981070492724	0.279679620586657	0.958262900469305	-0.0592581084127674	-139.901048709205	-85.5569391407719	33.5455952635491
20143	1649158896639	9.6286171236839	-0.532598598781958	-0.505127909100767	-0.029219438539212	0.0796585220728001	-0.156503679426649	0.0975505884159842	-0.0336782121756648	-0.00658652609228434	0.572998046875	0.414794921875	0.080078125	0	0	0	-0.592845641773026	-0.422246596181654	-0.537956133424857	0.4252588100843	0.0646220210471705	0.0431129382439648	0.996978068440701	0.958195278955187	-0.281725512917386	-0.0499253719007415	0.278721728223277	0.958525956835499	-0.0595162859125257	-140.00831772103	-85.5445726103472	33.709454274292
20144	1649158896640	9.594864690439	-0.50004849209436	-0.58289976727676	-0.0210707518162889	-0.00245396076629795	-0.187158909924545	0.122888936528029	-0.0439035249594309	-0.00762005843188774	0.57763671875	0.416259765625	0.086669921875	0	0	0	-0.592686220229064	-0.422692989667918	-0.537582633668303	0.425509803429291	0.0646710969276971	0.0435552591688008	0.996955660308374	0.958541982285603	-0.280544087342327	-0.0499227728922211	0.277515616530234	0.958852415367454	-0.0598926383276334	-140.187518663235	-85.5280758871056	33.959824815228
20145	1649158896641	9.59172226240035	-0.440369933341461	-0.591685445858397	0.0347751316038167	-0.0243382767951966	-0.192741933307442	0.136522176625681	-0.0516951347682839	-0.0112021247618783	0.572998046875	0.4228515625	0.08251953125	0	0	0	-0.592509379705756	-0.423183998320452	-0.537165161536568	0.42579517112998	0.0647377855938168	0.0440363129294525	0.9969301992918	0.958925640455558	-0.279227551615814	-0.0499358638208684	0.276171387354497	0.959214667090854	-0.0603041229475676	-140.37296058953	-85.5094050504302	34.2245484500416
20146	1649158896642	9.62466894969741	-0.382098540544136	-0.641569674936393	0.079834584421589	-0.0829875286869806	-0.159780980109062	0.147382507070752	-0.045434252374899	-0.0139575290717739	0.57470703125	0.42041015625	0.08740234375	0	0	0	-0.59228792407925	-0.423717792889864	-0.536748264627507	0.426098049042465	0.0647290648158049	0.0445110871229392	0.996909680608632	0.959340640661777	-0.277807369181494	-0.0498858777922968	0.274728381028831	0.959605037894024	-0.0606835060431299	-140.577521368309	-85.4944146649492	34.5144461060148
20147	1649158896643	9.66102126365178	-0.402154711355522	-0.669480956905007	0.0558881354306376	-0.100209959715683	-0.120829991062322	0.153450717880409	-0.0224483368275291	-0.0124277876038475	0.57763671875	0.419189453125	0.075927734375	0	0	0	-0.591992172411488	-0.424203147638566	-0.536385196214154	0.426483151624263	0.0646852216316743	0.0447313878966698	0.996902665780015	0.959768383760714	-0.276327621828339	-0.0498767976923437	0.273240684444702	0.960021952015439	-0.0608060853258798	-140.639342055446	-85.4893012276101	34.6647912804
20148	1649158896644	9.69090057367733	-0.33700210683828	-0.631783184840719	0.130475995506242	-0.0800890645108708	-0.0965751735785378	0.16366071598306	-0.000504271519879529	-0.0158092223080349	0.56640625	0.4140625	0.0791015625	0	0	0	-0.591610797559108	-0.424689800823245	-0.536070111218444	0.426923966469948	0.0645348178699138	0.0447797871857893	0.996910240664671	0.960224499935247	-0.274748999860558	-0.0498186390794551	0.271669223517503	0.96047267412208	-0.0607295254236234	-140.636725005764	-85.4948231657101	34.7562276628758
20149	1649158896645	9.67225361234463	-0.307766672773615	-0.634320686061651	0.155982588476627	-0.0919129854909231	-0.116461581736051	0.156575099341218	0.00286534883240965	-0.0130914597813818	0.576171875	0.423583984375	0.0703125	0	0	0	-0.591236848959782	-0.425144517691658	-0.535778011603505	0.427355881895909	0.0643881227178447	0.0447864406865797	0.996919427227446	0.960657979283589	-0.273238178571396	-0.049770921327197	0.27016738606213	0.960903258659066	-0.0606177449823293	-140.61188576713	-85.5015290608182	34.8213127376919
20150	1649158896646	9.67026488878923	-0.28530226199616	-0.606895408777094	0.184341049065391	-0.072802192388504	-0.121224083598728	0.165454372827032	0.0102604396686345	-0.0118348241237899	0.578369140625	0.4208984375	0.07666015625	0	0	0	-0.590830465045284	-0.425600671927501	-0.535481726427801	0.42783495683632	0.0642467774335239	0.0447200832112677	0.9969315251044	0.961111288462773	-0.271642635527448	-0.0497530878753237	0.268584144689956	0.961358618165604	-0.0604331407415318	-140.536230587456	-85.5103753706205	34.8405157699752
20151	1649158896647	9.66828182515342	-0.262773160623641	-0.579286369490756	0.212071105838164	-0.0534590159939056	-0.125971523534496	0.164705892187776	0.00794076790602112	-0.0131302163729638	0.57421875	0.414794921875	0.080810546875	0	0	0	-0.590416368567939	-0.426083840548847	-0.535196469557521	0.428282396933797	0.0640345995926215	0.0447032940594599	0.996945929103101	0.961564201309863	-0.270053498599574	-0.0496527406439451	0.267009095003031	0.961807009432955	-0.0602778548996148	-140.520656698586	-85.5209307200069	34.9193384521004
20152	1649158896648	9.63181067912539	-0.241574213865145	-0.553439092494337	0.236155462754422	-0.03652331755108	-0.164924593700697	0.162211372367407	-0.000335022994451892	-0.0201567401395546	0.578857421875	0.421630859375	0.076171875	0	0	0	-0.590026771852769	-0.42657802034262	-0.534892857779234	0.428706463392304	0.0638416465146722	0.0447608538675259	0.996955721249117	0.962008955276877	-0.26848392161247	-0.0495495086018126	0.265448703401218	0.9622436540693	-0.0602007978848558	-140.543207059343	-85.5281206689293	35.0351850437083
20153	1649158896649	9.63230116346823	-0.259120951850057	-0.537267662188643	0.221291741491649	-0.0159244736491919	-0.164485342378398	0.160128135153445	-0.00191018775705486	-0.018752701948169	0.57421875	0.42822265625	0.07861328125	0	0	0	-0.589620676944483	-0.427102464846836	-0.534617528801302	0.429086284725666	0.0635351648402921	0.044862790530163	0.996970718153028	0.962450987260433	-0.266936889564163	-0.0493233627323599	0.263915478799814	0.962669219937802	-0.0601381163174273	-140.642489869609	-85.5391546656931	35.2262826799393
20154	1649158896650	9.64716518383402	-0.190473099336372	-0.571143310783401	0.278389944323932	-0.0661061608176555	-0.150989286514367	0.151415373225062	-0.0017515654538368	-0.01915423211997	0.579833984375	0.420166015625	0.078857421875	0	0	0	-0.589259446109391	-0.427567289985648	-0.534329945673621	0.429477620908945	0.0633554433815084	0.0449306212462467	0.996979100617641	0.962861636639498	-0.265470371345443	-0.0492234763666714	0.262456770691556	0.963071503686066	-0.0600809645896348	-140.672726883312	-85.5453339612339	35.3436285417828
20155	1649158896651	9.5974670420243	-0.240368878920188	-0.553949118908161	0.228565232993684	-0.0379456587091404	-0.199034134125123	0.143362694736747	-0.00197885682240641	-0.0208993645603966	0.56787109375	0.42822265625	0.073974609375	0	0	0	-0.588864530494299	-0.428073986216162	-0.534115549574766	0.429781114933147	0.0629464840549018	0.0450496210212588	0.996999634799816	0.963260726618754	-0.264081711143652	-0.0488837641078366	0.261087174520381	0.963447653733861	-0.0600175458985323	-140.837486549199	-85.5605073973237	35.5905898014406
20156	1649158896652	9.61322070251471	-0.208463269596514	-0.556248074361447	0.258470768255875	-0.0475774373616747	-0.184717158447455	0.133170644907581	-0.00385005545369475	-0.0212091979324224	0.574951171875	0.423583984375	0.07373046875	0	0	0	-0.588543098160462	-0.428500211212266	-0.533864683386494	0.430108231066746	0.062752137647363	0.0451424945378117	0.997007685229953	0.963620872939306	-0.262788957119355	-0.0487522025329132	0.259801813805014	0.963796720892442	-0.0599908188025448	-140.900582926473	-85.5664702879091	35.7304019244866
20157	1649158896653	9.63106347221894	-0.198975326720844	-0.584670303174097	0.257333354221062	-0.0757370472717455	-0.165570828083629	0.120770043571292	-0.00110425285300487	-0.0224157301452954	0.57421875	0.4228515625	0.0771484375	0	0	0	-0.588177072365655	-0.428966607182489	-0.533719876985565	0.43032368558589	0.0622614856657139	0.0452720372406965	0.997032572209542	0.963961255380202	-0.26161835109224	-0.0483170414823078	0.258654606625368	0.964109060747722	-0.0599292370685783	-141.123028559774	-85.584954706563	36.0219299754027
20158	1649158896654	9.6472877215976	-0.185160717883406	-0.570820524880877	0.273638203318892	-0.0650923616767947	-0.150846657166516	0.110512044940987	0.00169871959768328	-0.0244699003829375	0.581787109375	0.418701171875	0.07470703125	0	0	0	-0.587882111391858	-0.429329797016608	-0.533540498907387	0.430586907052206	0.0620209228386692	0.0453195086838775	0.997045408826946	0.964261721530368	-0.260541681737785	-0.048139011918985	0.257590251216015	0.964398348303178	-0.0598589030017425	-141.193478741865	-85.5945191634379	36.1560936523696
20159	1649158896655	9.62953445786571	-0.191618973498799	-0.541937444180361	0.268752209581737	-0.0356500690627759	-0.169822174387978	0.0997610963913506	0.00294459204412667	-0.0208159107530144	0.5712890625	0.419921875	0.066650390625	0	0	0	-0.587537241645332	-0.429745641056222	-0.533465409352018	0.430735801504653	0.0614666820361215	0.0454178357660573	0.99707525653473	0.964548438455054	-0.259570706590642	-0.0476377807412641	0.256647923960799	0.964655518034476	-0.0597626526540569	-141.441082042538	-85.6168389650222	36.4607580712469
20160	1649158896656	9.64786856921152	-0.200487680028378	-0.554012189289781	0.256690294664258	-0.0441151385952076	-0.150355526709397	0.0859073280407832	0.000516950492217941	-0.0207537389332973	0.57861328125	0.42333984375	0.0712890625	0	0	0	-0.587306163048893	-0.430034533980335	-0.533327075296936	0.430933871010762	0.0612650606790661	0.0454664621159058	0.997085449278372	0.964781266406132	-0.258732596799993	-0.047482116053449	0.255819663692554	0.9648783571911	-0.059716459141794	-141.510873344542	-85.6244870190884	36.5801114665641
20161	1649158896657	9.68398814455015	-0.201291926327159	-0.594980714597054	0.242280236392909	-0.0803625404407836	-0.111708607080791	0.0727508203507921	-0.00542751764899511	-0.0208593998028622	0.57373046875	0.422119140625	0.077880859375	0	0	0	-0.587035035140652	-0.43041203582826	-0.533297252367403	0.430963325062544	0.0606790400631009	0.0456707749008557	0.997111946782796	0.964997003408754	-0.258032183730417	-0.0469060291587022	0.255144738352852	0.965056253530989	-0.0597293061368289	-141.857093761083	-85.64443194861	36.9673669162421
20162	1649158896658	9.65050513335648	-0.238520795845937	-0.564469118725035	0.210863318692898	-0.0419982031808569	-0.14513650682421	0.0605334291280717	-0.00777929192475289	-0.0165183620174638	0.5771484375	0.424072265625	0.072509765625	0	0	0	-0.586889768298566	-0.430638670085234	-0.533179707549616	0.431080195730427	0.0605394705690542	0.0457884332334907	0.997115034429449	0.965161283993411	-0.257440401352476	-0.0467775120294597	0.254555825671716	0.965208712731862	-0.0597785286126462	-141.956336398674	-85.6467619832734	37.1016804480703
20163	1649158896658	9.68969393466209	-0.298966530062083	-0.599751776379348	0.14026442188231	-0.0569109403024286	-0.101027434000846	0.0524350932235168	-0.00807619365985172	-0.0182396874250948	0.57666015625	0.42578125	0.07568359375	0	0	0	-0.586652298071277	-0.430974795220346	-0.53319796051589	0.431044941919247	0.0599213215729544	0.0460001402095614	0.997142628875956	0.965329275897693	-0.256921967861228	-0.04615724780737	0.254064606578302	0.965336775188336	-0.0598003858950572	-142.337052700526	-85.6676411519426	37.5125719447089
20164	1649158896659	9.68918859390782	-0.279236987453177	-0.616690201013069	0.153859365972984	-0.0771878247625153	-0.101403985996615	0.0452037322942681	-0.0122382092136929	-0.0163528769911168	0.568359375	0.41845703125	0.06982421875	0	0	0	-0.586552235189229	-0.431169544953237	-0.533099960214	0.431107563514223	0.0597945118493	0.0461600707609143	0.997142850458274	0.965453770590462	-0.256478184371298	-0.0460212754523813	0.253621042512969	0.965447144492618	-0.0599014022013237	-142.465511775262	-85.6678092173282	37.6673646373374
20165	1649158896660	9.69181049507196	-0.318997457302738	-0.627155791993265	0.107539991936637	-0.0749982420296696	-0.0962536172829438	0.0416264237679931	-0.0037265698135227	-0.0157558201884857	0.57275390625	0.429931640625	0.08837890625	0	0	0	-0.586341479098327	-0.431459619124585	-0.533141911631524	0.431052165074644	0.0592045982535049	0.046341391895815	0.997169640002542	0.965589293099026	-0.25607325609866	-0.0454291158130253	0.253243228138807	0.965545940340587	-0.059907466092693	-142.826177894435	-85.6881766865536	38.0514585998269
20166	1649158896661	9.67190540771062	-0.302878612148438	-0.573268701155187	0.134399869754641	-0.0271596090622467	-0.12004450906127	0.030609650874842	-0.00962505493772283	-0.0166948010390998	0.57275390625	0.423583984375	0.067138671875	0	0	0	-0.58626511343171	-0.431610775125991	-0.533083759042355	0.431076630558091	0.0590676892808265	0.0464767787687355	0.997171458234894	0.965676581381615	-0.255770154763648	-0.0452809905291016	0.252942183619381	0.965619768318494	-0.0599892888639101	-142.953840611411	-85.6895625274168	38.1970590112379
20167	1649158896662	9.65523096307914	-0.295521851567235	-0.603686872632425	0.126832274397072	-0.0572355088829794	-0.135089858065164	0.0241342714181843	-0.0082724935046959	-0.0147302030718258	0.57763671875	0.427978515625	0.071044921875	0	0	0	-0.58608238321197	-0.431875136242669	-0.533163177063723	0.430962102054543	0.0584417866373867	0.0466825711472748	0.99719872398921	0.965775065249117	-0.255511066576211	-0.0446387522243948	0.252711457828278	0.965678431160273	-0.0600173864320939	-143.359469192045	-85.7103978434738	38.6174242440552
20168	1649158896663	9.65361629152828	-0.290105167225269	-0.562082605949797	0.141602361638444	-0.0178584332199541	-0.139423426348587	0.0185813811466619	-0.00175266926479218	-0.00891739295673562	0.5791015625	0.426025390625	0.076904296875	0	0	0	-0.586027594109405	-0.431954360411663	-0.533137545500754	0.430988917538636	0.0583595761975653	0.0467216019250769	0.997201710678233	0.965827096463378	-0.255327966960451	-0.044560621909523	0.252531541798567	0.965724971822411	-0.0600258210726127	-143.411374929167	-85.7126862843213	38.6801209542099
20169	1649158896663	9.65476823357075	-0.275398563547256	-0.619891785890635	0.135049875749254	-0.0763003415114628	-0.135363376518827	0.0134943277736506	0.00786451876343615	-0.00940653451579421	0.568603515625	0.42626953125	0.070068359375	0	0	0	-0.585832329811103	-0.432159210037159	-0.533283531729641	0.430868394424694	0.057694183932039	0.0467956355518283	0.997236957615248	0.965895711909752	-0.255181687731889	-0.0439064910993602	0.252421977757028	0.965760050291792	-0.0599222029436943	-143.768837761913	-85.7397856366128	39.045438469482
20170	1649158896664	9.61717214442415	-0.267841745661733	-0.535537559867276	0.160438399730193	0.000258218795421566	-0.178228435436296	0.0115021013976513	0.0211596095517406	-0.00631183110788423	0.58056640625	0.424560546875	0.066162109375	0	0	0	-0.585737310853958	-0.432162501860275	-0.533334730505387	0.43093089921261	0.05757927444523	0.0466065733871096	0.99725245272773	0.965928233379115	-0.255068264179359	-0.0438500692089783	0.252323750597253	0.965799155065711	-0.0597052506811165	-143.704860600942	-85.7517535411588	38.9878558504353
20171	1649158896665	9.61680136700318	-0.249067037141623	-0.549407686645376	0.16929516100421	-0.0184512224347185	-0.178490461586565	0.000680443859533285	0.0254927268363627	-0.00382420178847015	0.579345703125	0.420166015625	0.064453125	0	0	0	-0.585568677240484	-0.43226317116461	-0.533530015323899	0.430817360186454	0.0569885472063902	0.0465315611531136	0.997289887296547	0.965947532281437	-0.255089906033381	-0.0432955508024152	0.252383974068697	0.965797056144062	-0.0594842498209097	-143.9510375758	-85.7808065598328	39.2318867700318
20172	1649158896666	9.65241060781264	-0.283426633050471	-0.513585851727304	0.146240774952529	0.0243001327998864	-0.143604971050584	-0.005109267294334	0.0248991599672321	-0.00261650150596036	0.576171875	0.416748046875	0.068603515625	0	0	0	-0.58550744340838	-0.432203462008116	-0.533619923873439	0.430849135994129	0.0568998885470089	0.0462973218449973	0.997305851117559	0.965936054445494	-0.255138378882622	-0.0432659952320487	0.252447898398086	0.965795509210479	-0.0592375977168356	-143.856330669948	-85.7932570185557	39.1339664568347
20173	1649158896667	9.68598650053196	-0.244490601049898	-0.542447005789513	0.173382382397615	-0.0125194067072065	-0.11000008842298	-0.00954142234750812	0.0219818773404165	-0.0035110263987605	0.56787109375	0.43310546875	0.070068359375	0	0	0	-0.585387807651405	-0.432266415675714	-0.533811556586443	0.430711135898192	0.0563819358672581	0.0462498150016172	0.997337471430898	0.965924142573333	-0.25526732658432	-0.0427684787251866	0.252609635805591	0.965763711572769	-0.059066278936096	-144.092602374302	-85.8180274707685	39.3618546645821
20174	1649158896668	9.69047212560693	-0.289674483230307	-0.591684840267133	0.116628795588837	-0.0507308903822272	-0.10068058579369	-0.0123106272890265	0.0313214929749584	-0.00107905060435379	0.570068359375	0.419921875	0.070556640625	0	0	0	-0.58532849833279	-0.432169114536843	-0.533932060358658	0.430740014859405	0.0562928227231992	0.0459499904497226	0.997356363837683	0.965893604900926	-0.255385792078722	-0.0427509206429315	0.252746240568181	0.965746703635065	-0.058759189040157	-143.961808436979	-85.8328973858969	39.2236375225403
20175	1649158896669	9.66968695850067	-0.238001217952105	-0.566397578747072	0.166210379961512	-0.0423051510649822	-0.125020969143177	-0.0123446169696792	0.0344516194530445	-0.00226013559882908	0.574462890625	0.42138671875	0.07666015625	0	0	0	-0.585164417008411	-0.432193896679158	-0.534180501490967	0.430630041412987	0.055719255000289	0.0457406362115759	0.997398194715217	0.965877322127837	-0.255532406211869	-0.0422396493206613	0.252935492213673	0.965717859198293	-0.058417918519017	-144.130820190153	-85.8660117927736	39.3830025626516
20176	1649158896669	9.65207086448773	-0.245838879283926	-0.534280224710928	0.164747344150767	-0.0135828755689134	-0.144128183395093	-0.0208852017164452	0.0416353532307118	0.0019653851514227	0.5732421875	0.420654296875	0.0703125	0	0	0	-0.585102363086108	-0.432042835973544	-0.534343209679833	0.430664076588754	0.0556326443059834	0.0453337186086162	0.997421607368037	0.965823418521561	-0.255734882039787	-0.0422468264301909	0.253160291362706	0.965683449203315	-0.0580115748100203	-143.936087220059	-85.8846619538808	39.1757721614331
20177	1649158896670	9.63564765308329	-0.239984631737622	-0.560530531961677	0.15775284185187	-0.0436520026222617	-0.159154296373385	-0.0267095605893345	0.030449004017162	0.00351954924545464	0.572509765625	0.42333984375	0.069091796875	0	0	0	-0.584983690994753	-0.432018326939186	-0.534593105754842	0.430539728408673	0.0551407529361173	0.0451202098188484	0.997458602665565	0.965774492062204	-0.255991414900904	-0.0418094006059077	0.253454390073698	0.965625477171629	-0.0576915070823562	-144.068918470505	-85.9143050820389	39.29254890328
20178	1649158896671	9.63674358870254	-0.276820432610143	-0.525756746060336	0.130562336407037	-0.00310095584512003	-0.15852659310001	-0.0325876771741677	0.0239542392247061	0.00330270881849291	0.574951171875	0.434326171875	0.076171875	0	0	0	-0.58499695549716	-0.4318699360011	-0.53472644995513	0.430504987376272	0.0551119641935798	0.0448803882874105	0.9974710131878	0.965690002638177	-0.256307628445123	-0.0418236584424898	0.25378236780242	0.965552769323359	-0.0574661591250807	-143.953010558266	-85.9242974406535	39.1576239745793
20179	1649158896672	9.67433759188171	-0.265174761043764	-0.622128780438113	0.113062300584004	-0.0986962879813022	-0.115902072429117	-0.0429285787626822	0.0313973855672396	-0.000523774678696695	0.572021484375	0.421630859375	0.0732421875	0	0	0	-0.584876315869845	-0.431847628773582	-0.535054449791556	0.430283692946185	0.0544487225617785	0.0447044911012428	0.997515335765205	0.965605309435642	-0.256727138214455	-0.0412014914039977	0.254247365770205	0.965449473032947	-0.0571453586856967	-144.208602286399	-85.9601852684922	39.3873091029777
20180	1649158896673	9.65847767846858	-0.276998843896151	-0.631950102240612	0.0968249589586669	-0.109357675039259	-0.130696637718273	-0.0480887909782286	0.0488531096081315	-0.00396589070203602	0.5830078125	0.423583984375	0.07763671875	0	0	0	-0.584840342715767	-0.431625625642387	-0.535309773375804	0.430237770714366	0.0542855316343263	0.0442431905735653	0.997544796559558	0.965485124728839	-0.257189559879102	-0.0411339788560828	0.254738208721263	0.965347642239347	-0.056677814358156	-144.029694983165	-85.9842167027772	39.1803399547209
20181	1649158896674	9.6910614680034	-0.251878681285082	-0.599282650662702	0.124430976086131	-0.0869299637756837	-0.101033968583158	-0.0441709637995263	0.0671004730777471	-5.89073579768079E-05	0.58056640625	0.4267578125	0.0712890625	0	0	0	-0.584640235813164	-0.431508711936685	-0.535717502487998	0.430119499347674	0.0536139781015302	0.0437096222803487	0.997604636252378	0.965399798128044	-0.257594895607298	-0.0405967921318603	0.25520339168291	0.965263869973996	-0.0560079476178573	-144.063903263907	-86.0334759151016	39.1891706926662
20182	1649158896675	9.67448565466666	-0.227101280469665	-0.638508788839366	0.135398893748344	-0.138147566316836	-0.116424176927758	-0.042037712569621	0.0703175306851788	-0.00208904750022603	0.5771484375	0.4267578125	0.083984375	0	0	0	-0.584537712060049	-0.43125087274924	-0.536018302067329	0.430142683050031	0.0534141292037535	0.0430360957311541	0.997644638769549	0.965293498191806	-0.257999913943078	-0.04055251846667	0.255647008881446	0.965185960771075	-0.055323304134756	-143.758222385994	-86.0667489111902	38.8586088994659
20183	1649158896676	9.67263284646118	-0.204129942417536	-0.606312015033485	0.158078095510978	-0.117696653278423	-0.120924597170067	-0.0324870203310707	0.0604863345271947	0.000483247142129954	0.57421875	0.433837890625	0.069091796875	0	0	0	-0.584308126919309	-0.431209492989579	-0.536396720033017	0.430024353623768	0.0526738637869825	0.0425911166809175	0.99770309253486	0.965245727953347	-0.258274856892261	-0.0399347338177602	0.255980758537754	0.965132164564602	-0.0547152280565635	-143.875599467674	-86.1158808607049	38.9583661310505
20184	1649158896677	9.67208261684137	-0.167377765888332	-0.633598648632494	0.185272394607211	-0.158251444671153	-0.121491664902699	-0.0266387707509562	0.0410879539493078	0.00315897283717642	0.57373046875	0.42333984375	0.07470703125	0	0	0	-0.584261968582107	-0.431040213679547	-0.536567611199812	0.430043584850395	0.0525990656048364	0.0421858894949681	0.997724255004867	0.965175725634888	-0.258533698640224	-0.0399517873514147	0.256259940183137	0.965080658491778	-0.0543154274806972	-143.663608044453	-86.1338221822346	38.7305668511007
20185	1649158896679	9.72468887757911	-0.15768600655944	-0.657308970876174	0.185465374452176	-0.182390493978032	-0.0680052544538796	-0.0222026866406627	0.0287054669937532	0.0061721070683512	0.575927734375	0.42041015625	0.066162109375	0	0	0	-0.584161539047531	-0.431070303226573	-0.536800413126472	0.429859286791642	0.0520474202867991	0.0421320980690344	0.997755457190684	0.96512666901305	-0.258798774470262	-0.0394170913750036	0.256557164782557	0.965011958809316	-0.0541326200524605	-143.939471606828	-86.1604277617627	38.9899779484723
20186	1649158896679	9.74053621182311	-0.127682971765026	-0.656780507755088	0.215263809426447	-0.191993004457914	-0.0534605191650748	-0.0212682816940678	0.032311170213026	0.0106152318606526	0.575927734375	0.42138671875	0.06884765625	0	0	0	-0.584143257300717	-0.4309130034245	-0.536917885926442	0.429895129307213	0.0520663345039141	0.0417930828718379	0.997768728230843	0.965066618862652	-0.259008322555222	-0.0395108846286645	0.256779122921503	0.96497047989625	-0.0538187231404291	-143.715836674593	-86.1717997170433	38.7536351740483
20187	1649158896681	9.72662403476971	-0.145087829529961	-0.70847837120821	0.18037196862416	-0.238946325245636	-0.0638117466769632	-0.0299094209709873	0.0504708287778988	0.0107119361510732	0.580078125	0.429931640625	0.083740234375	0	0	0	-0.584079054999659	-0.430835156848507	-0.537174275699029	0.429740064063443	0.0516497303010927	0.0415929672411433	0.997798742450551	0.96497419784968	-0.259409089924141	-0.0391372143757887	0.257210230831108	0.964871467678885	-0.053534549731944	-143.830783940086	-86.1976441572591	38.8441161031873
20188	1649158896682	9.67417476912502	-0.137604861627047	-0.69219238182378	0.188563560864575	-0.23275773405599	-0.117431432419172	-0.0363163698881753	0.0608747663937646	0.0129012852567538	0.57568359375	0.42578125	0.0732421875	0	0	0	-0.584021545940936	-0.430569714796593	-0.537401818119528	0.429799767867044	0.0516180131636117	0.0409736275835071	0.997826008159584	0.96487433429991	-0.259763760482831	-0.0392467546317412	0.257590954278963	0.964802544867325	-0.0529428908465209	-143.450327289404	-86.2212749220157	38.4420346486513
20189	1649158896683	9.69178781795058	-0.181468358748055	-0.624402053282685	0.158071468368472	-0.158875101114295	-0.101697260668608	-0.0399708892537535	0.0635008281394075	0.0120632430228178	0.57958984375	0.4169921875	0.06640625	0	0	0	-0.583841089748667	-0.430500970571045	-0.537762676190896	0.429662426044544	0.0509604368667869	0.0405754794153416	0.997876076647076	0.964801143768889	-0.260118227965811	-0.0386944500176774	0.257995710926733	0.964723866165932	-0.0524030074830448	-143.557790932673	-86.265057264267	38.5273398639934
20190	1649158896684	9.63930236959742	-0.173899704940575	-0.607824732012526	0.166292317571649	-0.152700878918737	-0.155313543193671	-0.0488079228311276	0.0561158060749246	0.0108100953222425	0.56982421875	0.426513671875	0.0673828125	0	0	0	-0.583818409027951	-0.430218181040869	-0.538007729797311	0.429669715782136	0.0509199987604593	0.0400073312791527	0.997901080854288	0.964669844681565	-0.260592504083169	-0.0387767659521842	0.258494186565737	0.964619593549491	-0.051863236036084	-143.215509680104	-86.2871151837754	38.156364464813
20191	1649158896685	9.63998418215158	-0.192990864321513	-0.586461642878528	0.148953530824578	-0.1284626550323	-0.154955457284537	-0.0444883063134785	0.0562694617732616	0.0091226703778607	0.56787109375	0.431640625	0.076416015625	0	0	0	-0.583797625653712	-0.430104313673789	-0.538301263515873	0.429444247065322	0.0504840581128272	0.0398469926025828	0.997929645344295	0.964528515822126	-0.261175836043395	-0.0383656725863071	0.259106352763545	0.964468454563219	-0.0516187767194254	-143.378411126659	-86.3124751049688	38.2839801489595
20192	1649158896686	9.60417487092309	-0.20965006312717	-0.524719711888173	0.146207099088134	-0.0710564348376838	-0.193278269207003	-0.0497162772613613	0.0525402596664707	0.00635039009065353	0.568359375	0.42578125	0.072265625	0	0	0	-0.583777023397994	-0.429840381840059	-0.538546366148459	0.429429207903306	0.0504101152957653	0.0393267984250203	0.997954018580768	0.964396956162366	-0.261655603078263	-0.0384038581722412	0.259609959787044	0.964359760827559	-0.0511167338156588	-143.082565135328	-86.3342524986289	37.9591125114202
20193	1649158896687	9.58804786777598	-0.203831505359424	-0.549853609092263	0.138917874664725	-0.0991612638337531	-0.208239668712887	-0.0468281610226679	0.0459699293341558	0.00650838867219466	0.57373046875	0.422607421875	0.089111328125	0	0	0	-0.583715965182841	-0.429760785376945	-0.538861572206521	0.429196394838042	0.0498677467026146	0.0391615750524824	0.997987764894045	0.964271351483674	-0.262192244020438	-0.037894430769906	0.260180645987845	0.964220720693626	-0.0508373213142879	-143.298942742679	-86.3646197531626	38.1428553643654
20194	1649158896688	9.63907072549145	-0.208365940275381	-0.514564527873909	0.14546216776154	-0.0658757326653305	-0.158963860833284	-0.0556794100650105	0.0401538283128599	0.00465384798388952	0.57373046875	0.425537109375	0.0771484375	0	0	0	-0.583737291116984	-0.429513089072771	-0.539086972889253	0.429132283725744	0.0498074839525343	0.0387663666237281	0.99800620406945	0.964124861834782	-0.262727978758987	-0.0379112116567166	0.260734472853862	0.964090855674926	-0.0504614374508583	-143.082800433738	-86.3813201082833	37.8944830922401
20195	1649158896690	9.67817204491438	-0.233155654238942	-0.577548829175462	0.101733610140763	-0.120302843446784	-0.115774716053288	-0.0615802403942236	0.0368046340969805	0.00321816487414787	0.581298828125	0.4208984375	0.070556640625	0	0	0	-0.583679885184989	-0.429421089852002	-0.539404862576361	0.428902918443945	0.0492798436385916	0.0385842652779458	0.998039453871398	0.963993544405373	-0.263279628281171	-0.0374203644677168	0.261319619155784	0.963947660303759	-0.0501693615584867	-143.281448740043	-86.4116306144387	38.0596089305719
20196	1649158896690	9.67838641879568	-0.233118671051285	-0.573960414763998	0.101726082012868	-0.120270714305774	-0.115774238525413	-0.0622683788311477	0.040332677256282	0.00338594269206173	0.572265625	0.416259765625	0.08447265625	0	0	0	-0.583711807699864	-0.429158555441878	-0.539647946968178	0.428816456279173	0.049206055248142	0.0381899918592308	0.998058259145581	0.963829672888132	-0.263878762230425	-0.0374213909962547	0.26193725543968	0.963799524468409	-0.0497930803144044	-143.073747327923	-86.4288872411886	37.8158907596915
20197	1649158896692	9.6626167549029	-0.245317369587544	-0.583699714389245	0.0823748636751634	-0.128150857665633	-0.130547171425359	-0.0672870062584057	0.046861993415266	0.00405951078638859	0.580810546875	0.422119140625	0.07763671875	0	0	0	-0.583719287676893	-0.429003785444276	-0.53995996924079	0.428568287307807	0.048797967383934	0.0380161296358437	0.998084932391381	0.96365500656505	-0.264569950377068	-0.0370374091910918	0.262655262085703	0.963616892361786	-0.049544909463076	-143.219964659309	-86.4535077221995	37.9204270264432
20198	1649158896693	9.66262336786471	-0.226838473744395	-0.594538564844886	0.0959748659163184	-0.148395934534366	-0.130746093468829	-0.0700726913138857	0.0625167690742729	0.00416475564664908	0.57470703125	0.427001953125	0.0751953125	0	0	0	-0.583709876801869	-0.428670036566206	-0.540282202918486	0.428508950529417	0.048674281919751	0.0374063489407821	0.998114011192367	0.96346938799007	-0.265244158133011	-0.0370442300817728	0.2633582212228	0.963455396806324	-0.0489504410514515	-142.88265326522	-86.4805446032507	37.5423986379637
20199	1649158896694	9.66355569836796	-0.263933670729792	-0.556865936686352	0.0643223519112114	-0.104321824205455	-0.130278245967611	-0.0765085120047948	0.0607574992757281	0.00724898962843487	0.57666015625	0.422119140625	0.082763671875	0	0	0	-0.583683327915615	-0.428502687534545	-0.540668984553248	0.428224553979783	0.0481249918356639	0.0371642798398618	0.99814968890683	0.96327521888393	-0.266018356288976	-0.0365388396289199	0.264168199912355	0.96325129141948	-0.0486015610219501	-143.064014492356	-86.514003118689	37.6769316895755
20200	1649158896695	9.62915599200417	-0.247464604588572	-0.568818109876896	0.0740124334697436	-0.126868773080169	-0.164689546519227	-0.0802529183725127	0.0590655835111408	0.00437646474895818	0.570556640625	0.42236328125	0.078857421875	0	0	0	-0.583705328208541	-0.428148414441238	-0.541001777877385	0.428128603769852	0.0480120230899266	0.0365883499474732	0.998176406396652	0.963061693146083	-0.266789667691062	-0.036543787541706	0.264966074872639	0.963060001174078	-0.048045949935172	-142.743352601307	-86.5392702971285	37.3098077457589
20201	1649158896696	9.6484637616712	-0.294897831632365	-0.543842691132168	0.0312156619481107	-0.0920682909080421	-0.144899133572029	-0.0779326743453049	0.0572118722997889	0.00789168081560287	0.574462890625	0.427001953125	0.080810546875	0	0	0	-0.583704110768902	-0.427932338609146	-0.541367493568295	0.427883934673382	0.0475903009601778	0.036286823849679	0.998207608501068	0.962856636858754	-0.267578504041864	-0.036177908062345	0.265786117228814	0.962852538340955	-0.0476731507120143	-142.806087598915	-86.5690139039033	37.3249261762106
20202	1649158896697	9.66945081492583	-0.309257869533313	-0.592746030384724	0.00415212039397644	-0.139766866204542	-0.121159474132439	-0.0808913263777192	0.0594873564592745	0.00570157080670811	0.57470703125	0.424072265625	0.081298828125	0	0	0	-0.583728867321151	-0.427571488591998	-0.541699691000139	0.427790458483524	0.0474881338271536	0.0357037231225854	0.998233500389964	0.962639559815916	-0.268355891547359	-0.0361965930612563	0.26658948783295	0.962657966064276	-0.0471135368016211	-142.465491034856	-86.5938924602599	36.9374981164897
20203	1649158896698	9.68625394042515	-0.334265136115276	-0.541425036132911	-0.0108679778620709	-0.085477975113999	-0.105939076203105	-0.0757715437525742	0.0620406183297595	0.00529681326889465	0.57275390625	0.423583984375	0.087158203125	0	0	0	-0.583691139405586	-0.427388403125442	-0.542086547114526	0.427534772960918	0.04696265662267	0.0354039502864922	0.998269036476166	0.962447345669601	-0.269106341566281	-0.0357335100760094	0.267375420890704	0.962459524984258	-0.0467123866934131	-142.585145515754	-86.628336271848	37.0117096024217
20204	1649158896699	9.66532617983134	-0.283265016709656	-0.513333918668987	0.0434143443152336	-0.0782486710342131	-0.130008450715483	-0.0735737993295453	0.0574130026329304	0.00620038511388779	0.576904296875	0.423583984375	0.08251953125	0	0	0	-0.583706516383732	-0.427050607513454	-0.54239563092436	0.427459309066634	0.0468695163531103	0.0348403215910931	0.998293243705603	0.962248568133845	-0.269812635429332	-0.0357608009843807	0.268106213208854	0.962282335779946	-0.0461710372928829	-142.241184330903	-86.6520021090878	36.6251624023676
20205	1649158896700	9.64962403448993	-0.295825072060935	-0.522327018284847	0.0239408904808645	-0.0865166710261329	-0.144827106655509	-0.0669208424527122	0.0493934028433223	0.01037823209736	0.57080078125	0.41943359375	0.093994140625	0	0	0	-0.583694840403605	-0.426879860132301	-0.542703460213478	0.427255043939747	0.0464930785714896	0.034589562183349	0.998319565987219	0.962080725142398	-0.270453424882944	-0.0354347749896007	0.268773272395942	0.962111483746583	-0.0458521634007257	-142.302976003438	-86.6779268007026	36.6482255239997
20206	1649158896701	9.6683158865082	-0.306647909241386	-0.530397693947802	0.0116807444612368	-0.0948343555126962	-0.125450628481396	-0.0612071492437907	0.0409300141842247	0.00892934617251388	0.565673828125	0.422119140625	0.086181640625	0	0	0	-0.583734061060635	-0.426602773138735	-0.542932075352071	0.427187759026278	0.046469671008469	0.0341772653017293	0.99833485575375	0.96191301159428	-0.271041384976896	-0.0354954328812787	0.269376925147623	0.961960748765926	-0.0454707601839992	-142.023651968731	-86.6930788271497	36.3335394479504
20207	1649158896703	9.71614093166075	-0.252392262253764	-0.500050424099126	0.0716020428468914	-0.0818679750431664	-0.0810217414456602	-0.0617883601020026	0.0503776011589409	0.0105617322789633	0.5703125	0.41943359375	0.0830078125	0	0	0	-0.583721754839168	-0.426367301408366	-0.543232580300112	0.42705760842972	0.0462185759804595	0.0337765256401195	0.998360150221362	0.961742951896408	-0.271665446744071	-0.0353324146207045	0.270026550013	0.961798851819354	-0.0450403255655395	-141.887170896258	-86.7182988517564	36.15932682613
20208	1649158896703	9.71894451378709	-0.275297891657227	-0.521239724368382	0.0431837469243469	-0.100903896118015	-0.0765015888044669	-0.0618058989826677	0.0566892352453208	0.00823829335892162	0.5810546875	0.42041015625	0.08203125	0	0	0	-0.58371748478968	-0.426056528659555	-0.543510452246507	0.427020047112752	0.0461444453707347	0.033213572725603	0.998382466166262	0.961573008423909	-0.272259427500785	-0.0353857825621893	0.270643750402667	0.961650488859516	-0.0445005353252418	-141.509102590725	-86.740710970298	35.7453589612271
20209	1649158896705	9.73554320869218	-0.301032470584058	-0.469722835323857	0.0300852440972632	-0.046477079941936	-0.0613288441869208	-0.0557978677487668	0.0675370611716762	0.0105838836806393	0.572265625	0.41943359375	0.091796875	0	0	0	-0.583698343531928	-0.425848398123088	-0.54380638408316	0.426877034056041	0.045855516892798	0.0328570964840247	0.998407573479455	0.961410921836662	-0.272858279223035	-0.0351766802388224	0.271267968886256	0.961492990442512	-0.044101228851834	-141.422914554229	-86.7661119627937	35.6229342105385
20210	1649158896706	9.73583483638918	-0.301866506741323	-0.46309697827976	0.0300973195114522	-0.0464245147844842	-0.0613286310546908	-0.0535207767192476	0.0719623519209106	0.0117879292304922	0.574951171875	0.419921875	0.084228515625	0	0	0	-0.583642531862533	-0.425517264169909	-0.544102749479498	0.426905904038933	0.0457745118044129	0.03213859450946	0.998434677288416	0.961261299135916	-0.273372813980113	-0.03527065862901	0.271811347909902	0.961371112172376	-0.0434070942111042	-140.904237271214	-86.7937584291811	35.072952710241
20211	1649158896707	9.75221835220011	-0.309243061686202	-0.426074583749593	0.0307271104262194	-0.0133513001265004	-0.046326400117886	-0.0520532783844833	0.0787244345604484	0.00998149128929169	0.57421875	0.424560546875	0.09375	0	0	0	-0.583557695604081	-0.425271210013555	-0.544438993572113	0.426838372353104	0.0454611604235847	0.0315656669207733	0.998467271153536	0.961115482368303	-0.273906803641121	-0.0351011747815997	0.272378986790253	0.961238093081497	-0.0427903723302764	-140.637785020673	-86.8273235666612	34.7739340514107
20212	1649158896708	9.71328055138797	-0.323134327033419	-0.320608745021712	0.0429582678209747	0.0833318437913497	-0.089198753203144	-0.0470453234598911	0.076931240280089	0.00755962395004569	0.574951171875	0.4189453125	0.090576171875	0	0	0	-0.58346540409562	-0.424959134249885	-0.544744809642434	0.426885170518667	0.0453256531704329	0.0308109440717293	0.998497005949483	0.960984867885206	-0.274357570817674	-0.0351568916526688	0.272861995998575	0.961134022423737	-0.0420442871177537	-140.098066342072	-86.8582568913385	34.2066249316202
20213	1649158896709	9.73439705746885	-0.318943066998061	-0.383682823166941	0.0269262149549316	0.016809222014446	-0.0655640931980912	-0.0426973375689577	0.069203945670055	0.00879204797953287	0.576416015625	0.42822265625	0.089599609375	0	0	0	-0.583341303996378	-0.42477531674407	-0.545054521263991	0.426842385648922	0.0449629982693145	0.0302732300198144	0.998529849494146	0.960882718680026	-0.274743016197024	-0.0349381738653359	0.273281411238885	0.961041001516132	-0.0414422933264381	-139.867235840381	-86.8927818149557	33.9520696793443
20214	1649158896710	9.70044158526916	-0.358601977126341	-0.347897419390942	-0.00408930057699515	0.0550474281711441	-0.0995444476150879	-0.0450579205186897	0.0604709143967379	0.0055270538852078	0.573486328125	0.41796875	0.08447265625	0	0	0	-0.583285024939575	-0.424509283198104	-0.545312546430543	0.426854395391812	0.0448521903681383	0.0296817010622177	0.99855259132468	0.960757930286931	-0.275174387226646	-0.0349750769150346	0.273737977653728	0.960936029731685	-0.040859103680257	-139.436730087322	-86.9169141837654	33.4952775053319
20215	1649158896711	9.66342241895866	-0.319946618540958	-0.333600912837247	0.0316395487221763	0.0540168935197378	-0.13841908643295	-0.0356292997064107	0.0599905326426612	0.00466332139525746	0.57470703125	0.425537109375	0.091064453125	0	0	0	-0.583195010561803	-0.424396096744874	-0.54557068339147	0.426760075624816	0.0444811649829601	0.0293558000413761	0.998578821608835	0.960666944452682	-0.275527581840833	-0.0346925565631944	0.274117580241958	0.960844830682288	-0.0404569345529308	-139.386311254232	-86.9449847988553	33.423224056877
20216	1649158896712	9.59475958994338	-0.324052127100366	-0.331855244661817	0.0239775789759806	0.0493173988031913	-0.206879769969188	-0.0217729127470516	0.0592514721674412	0.00593241660808153	0.563232421875	0.42236328125	0.096923828125	0	0	0	-0.583093130540439	-0.424195420175238	-0.545774345141266	0.426838389562755	0.0443772193759515	0.0287759859322623	0.998600322969147	0.960605756111323	-0.275734469395654	-0.0347431102938434	0.274348762939168	0.960803020926102	-0.0398787067621922	-138.936982100279	-86.9681883522251	32.9610085379717
20217	1649158896713	9.64529356227654	-0.329245362670792	-0.294856325440481	0.0277079461336157	0.083539691752154	-0.157674040498108	-0.0153969110829199	0.0488118187904874	0.00372792976726196	0.57470703125	0.424072265625	0.093017578125	0	0	0	-0.582945820301947	-0.424118079801901	-0.546005572297152	0.426820735201674	0.0440035388112145	0.0283827242858496	0.998628113731134	0.960568723454175	-0.275895828774101	-0.0344850574404269	0.274538551197655	0.960768396975653	-0.0394039500447237	-138.808638977154	-86.9984447104563	32.8224222774805
20218	1649158896714	9.61355401950146	-0.316321569097325	-0.349892967708331	0.0226351981193062	0.0215754299693144	-0.187619804908326	-0.00518208272336171	0.0507136982867309	0.00415585612143957	0.57568359375	0.420654296875	0.098388671875	0	0	0	-0.58282745376266	-0.423986240083393	-0.546153551940458	0.426924027273358	0.0439039318455375	0.0278894936682764	0.998646394331562	0.960553789284555	-0.275943086313288	-0.0345229055408137	0.274606741831997	0.960769269522514	-0.0389043452790364	-138.414817951383	-87.0185144200118	32.425308635048
20219	1649158896715	9.65086774087634	-0.337050705886359	-0.369194209783835	-0.00421835722752362	0.00565181311756729	-0.148883569237148	-7.49643844684985E-05	0.0532455787377531	0.00379302550260535	0.566650390625	0.4189453125	0.09619140625	0	0	0	-0.582631962423134	-0.42394824385382	-0.546340853455604	0.42698893983525	0.0435591167573268	0.0274485909533975	0.998673709577855	0.960574598176174	-0.275896663583262	-0.0343143171621688	0.27458886482522	0.960795298634572	-0.0383842342075422	-138.204271694086	-87.0487570770838	32.2169042016169
20220	1649158896716	9.65099807484442	-0.318725203679892	-0.379497710623905	0.0093709788403268	-0.0145844708285173	-0.148989062633973	0.0065031386272388	0.0593748723146648	0.00279609224932163	0.5771484375	0.417236328125	0.0849609375	0	0	0	-0.582461932132699	-0.423833371006693	-0.546492477212659	0.427140894304582	0.0434224919421492	0.0268750374630629	0.998695258602389	0.96059217925243	-0.27583186006757	-0.0343431234853925	0.274548998090692	0.96083011887275	-0.0377932575253063	-137.738252081805	-87.0728358147526	31.7541828100461
20221	1649158896717	9.66708287886727	-0.325640599256584	-0.344256770034705	0.0111851579256254	0.0178379046512515	-0.134020066436268	0.00640679590720178	0.0503050655225894	0.00248159284497526	0.5732421875	0.42578125	0.093994140625	0	0	0	-0.582342940922118	-0.423770400119114	-0.546626184790034	0.427194523891583	0.0432369241695562	0.0265279766461131	0.998712588707792	0.960590827678317	-0.275846973479859	-0.0342594366895828	0.274583011434869	0.960835424865812	-0.0374093057178711	-137.516552212997	-87.092344892405	31.5311603190873
20222	1649158896718	9.66729599137744	-0.344549110590337	-0.323574328586569	-0.00240266350487322	0.0381663771564775	-0.133918757269496	0.020936195431383	0.0507642013466566	0.00185882074305532	0.577880859375	0.4248046875	0.0927734375	0	0	0	-0.582163761212959	-0.423716112437621	-0.546723692792052	0.427367774792336	0.0431157196011435	0.0260401553768599	0.998730666912369	0.960648507436012	-0.275642882259593	-0.0342847870138621	0.274400218447867	0.960907337763415	-0.0368999776177379	-137.103989913043	-87.1128364904797	31.1302826862426
20223	1649158896719	9.65435185915599	-0.360402104543939	-0.375459744404648	-0.0359425924155801	-0.010510150765361	-0.144390406300058	0.0266290312285715	0.0375311179060911	0.00216182753557054	0.576416015625	0.41552734375	0.094970703125	0	0	0	-0.581951396148835	-0.423820836177999	-0.54680326596836	0.427451353569196	0.0427641742954327	0.0258226623130404	0.998751428288289	0.960749847009972	-0.275322478306487	-0.0340185891754637	0.274100267907832	0.961005058805749	-0.0365830573163929	-137.080243734633	-87.1365502020485	31.1252031557599
20224	1649158896719	9.67022980008671	-0.311155806461632	-0.389257144420934	0.00735893388220283	-0.0402848748168004	-0.129712329121405	0.0351505464973769	0.03346105477327	-0.00315456241234272	0.57373046875	0.416748046875	0.093505859375	0	0	0	-0.581778299033498	-0.423857232693688	-0.546830984699069	0.427615401079037	0.0426418409325907	0.0255151780500838	0.998764561391198	0.960848581428233	-0.274980230106527	-0.0339981855091543	0.273773039156951	0.961111257212002	-0.0362418858661215	-136.829594710799	-87.151652731439	30.8946206149066
20225	1649158896720	9.68616448738464	-0.280466029598161	-0.386945679957184	0.0370656990524523	-0.049163811117528	-0.11493617697039	0.0317381874875813	0.0448062689319544	6.61165183691944E-05	0.57421875	0.416748046875	0.096923828125	0	0	0	-0.581613108399031	-0.423852624214025	-0.546889036822414	0.427770413292872	0.042522668700674	0.0251505859306811	0.998778889781876	0.960922383158139	-0.274722852916261	-0.0339930526906893	0.273532440840669	0.961194466334931	-0.0358497098293959	-136.5227572108	-87.168221590046	30.6027449298677
20226	1649158896721	9.6519241622816	-0.263956428177934	-0.399803847811373	0.0468630751212303	-0.0717948719522667	-0.149261321971634	0.0261693841917043	0.0576659493833936	0.00352240515772948	0.578125	0.41796875	0.09130859375	0	0	0	-0.581407559313234	-0.423792550543697	-0.546991521252732	0.427978270189876	0.0424002995625816	0.0245914147849365	0.998798016075262	0.960993355082028	-0.274468948697899	-0.0340377391854482	0.273302005271074	0.961281466855335	-0.0352697518458077	-136.01838475191	-87.1904907207746	30.1129657183174
20227	1649158896722	9.59630787848263	-0.271092536512552	-0.326448729967299	0.0563747251608165	-0.00536233379471105	-0.207169398717411	0.0240192570571155	0.0576077073818396	0.00433601755137501	0.568359375	0.420654296875	0.090087890625	0	0	0	-0.58122490316033	-0.423745712909716	-0.54709057159533	0.42814610731431	0.0422629545242626	0.024113724747307	0.998815483937695	0.961052519054912	-0.27426096316448	-0.0340437909507691	0.273115174044007	0.961352928098159	-0.0347656345261971	-135.601037909882	-87.2109841284077	29.7075291061583
20228	1649158896722	9.60941251621686	-0.274780128110826	-0.249165762867646	0.0737679115737415	0.0650473765250056	-0.196621552928276	0.0248184414000509	0.0505378221019059	0.00908595313521737	0.574462890625	0.421875	0.090087890625	0	0	0	-0.581053876123664	-0.423680406801347	-0.547162832580175	0.428350488008537	0.0422154950709703	0.0236073525074438	0.998829587509052	0.961117217930849	-0.274021544630988	-0.034145079805355	0.272894751457003	0.961433765781938	-0.0342573881313764	-135.09407244354	-87.2276409713375	29.2143833819383
20229	1649158896724	9.59089919496439	-0.227982883447878	-0.264074954217701	0.112078773376644	0.034502043265354	-0.216161660946357	0.023132879709378	0.0445634744506846	0.00332861957289203	0.572021484375	0.422607421875	0.097900390625	0	0	0	-0.580897984434	-0.423707159361523	-0.547239103004583	0.42843802227282	0.0420032144970572	0.023345191723458	0.998844698637036	0.96117734773	-0.273826208353487	-0.0340193155351009	0.272715669118293	0.96149581883758	-0.0339404504273891	-134.933510133086	-87.2455994672247	29.0651022989671
20230	1649158896724	9.5909909914238	-0.22856564028722	-0.260207880903505	0.112108905880462	0.0345555201143113	-0.21616220532656	0.0209758898239493	0.035027079133102	0.00761856761319894	0.571044921875	0.419921875	0.0927734375	0	0	0	-0.58077448139603	-0.423669453753158	-0.54727707064367	0.428594217953715	0.041984003808369	0.0229932383806118	0.998853670170457	0.961232390766707	-0.273622380586289	-0.0341040141803482	0.272524557361608	0.961562324465276	-0.0335896085686541	-134.564616251614	-87.2563170600368	28.7080503406775
20231	1649158896726	9.61254543203547	-0.28047261478301	-0.279240336166163	0.0562827567927802	0.0279589084076305	-0.19220300628019	0.0115545723976008	0.0355240208296044	0.00843958915005343	0.56884765625	0.420166015625	0.08935546875	0	0	0	-0.580643824390761	-0.423642724607241	-0.547375872190973	0.428671489170201	0.0418129928610512	0.0226822030466564	0.998867954883403	0.961259924118423	-0.273535192519913	-0.0340272939996387	0.272453724349375	0.961594517516632	-0.033240817831549	-134.330147512373	-87.2734687692835	28.4784065521937
20232	1649158896727	9.62838127505547	-0.269090257448005	-0.26194711970227	0.0724225003730016	0.0387490671012437	-0.177335541421604	0.00554853300478055	0.0278286956403976	0.00489449682035261	0.575439453125	0.41748046875	0.0869140625	0	0	0	-0.580567129643904	-0.423586129931088	-0.547431648159969	0.428760060056789	0.0417867622457273	0.0224067145380126	0.998875270313882	0.961274019906234	-0.273479202860203	-0.0340790882544801	0.272408012279977	0.961616901237993	-0.0329668029859172	-134.049555391691	-87.2822943141197	28.2009043696181
20233	1649158896728	9.64999219236759	-0.28341403516011	-0.313474464620376	0.044887388384033	-0.00698710125181592	-0.153553088626506	0.00475709810338906	0.0238546996956647	0.00419472290898909	0.565185546875	0.423095703125	0.0966796875	0	0	0	-0.580538138786912	-0.423593467964279	-0.547454614606356	0.428762741219465	0.041724037688403	0.0223680444848179	0.998878759041808	0.961280609492285	-0.273462171279932	-0.0340298500291367	0.272394373093714	0.961622645045753	-0.0329119133763527	-134.043241542764	-87.2865133166703	28.1955327932326
20234	1649158896729	9.64716710943203	-0.261566191462367	-0.285030492064622	0.0733520858465682	0.0121500948020783	-0.158053036853857	0.00328217227043342	0.0218345220569639	0.00425183838486985	0.569580078125	0.40869140625	0.09765625	0	0	0	-0.580481681346804	-0.423546069082643	-0.547498180469189	0.428830371322223	0.0417089394951361	0.0221537725601573	0.998884164819697	0.961289164675532	-0.273426479992571	-0.0340749455801471	0.272366492512587	0.961637754250645	-0.0327005100291435	-133.820850603403	-87.2930636325214	27.9750800443624
20235	1649158896731	9.64721382784128	-0.26204985139187	-0.282997669797175	0.0729407598163176	0.0117049732472514	-0.158049370612101	0.00112251635144471	0.0201892664629164	0.00564538057258361	0.571533203125	0.42138671875	0.090576171875	0	0	0	-0.580447263061849	-0.423440982303049	-0.547597778196183	0.428853567811719	0.041668815641664	0.0218917966816445	0.998891615262171	0.961248840302459	-0.273564703762776	-0.0341030771685241	0.272514911188725	0.961604441593961	-0.0324425813795255	-133.570610551705	-87.3021175644244	27.7163596259519
20236	1649158896732	9.60990557535324	-0.260748049431197	-0.241519879019741	0.0840221592816122	0.0486989383387919	-0.19670196989483	-0.00693760313672638	0.015195620063642	0.00552856236768633	0.57763671875	0.41943359375	0.09130859375	0	0	0	-0.580433523888135	-0.423375610857314	-0.547641387794031	0.428881017128324	0.0416840050124479	0.0217368046390626	0.998894366312177	0.961228786313747	-0.273628330556342	-0.0341578260249514	0.272583315864936	0.961589854377131	-0.0322999670440035	-133.398686493293	-87.3054683821997	27.5405237520837
20237	1649158896733	9.609927367472	-0.261217491674975	-0.240141504165484	0.0831993190494056	0.0502244776605494	-0.196702662231644	-0.00262053113006482	0.0137504469896664	0.00448100764755308	0.556640625	0.419189453125	0.093505859375	0	0	0	-0.580412517195909	-0.42340076867566	-0.547658364985531	0.42886293174923	0.0416042086924716	0.0217534678500746	0.998897330287537	0.961234955868814	-0.273616749712632	-0.0340768820841185	0.272573750451053	0.961592772910233	-0.0322938020656603	-133.461091780144	-87.3090832120798	27.6035832830538
20238	1649158896734	9.59418079964792	-0.273796750070616	-0.253483765980771	0.0671279304415727	0.0395530308676992	-0.211570070634075	-0.015003363655091	0.00546410696088032	0.00714969491420233	0.572509765625	0.419677734375	0.095947265625	0	0	0	-0.580446424031348	-0.423329903414462	-0.547686621374827	0.428850914038143	0.0416623152842588	0.0216888408788073	0.998896313771599	0.961192473611034	-0.273757372807503	-0.0341457099360326	0.272714649695716	0.961554208048027	-0.0322525165913535	-133.366784574477	-87.3078429346024	27.5008789129293
20239	1649158896735	9.61277307675611	-0.303293829178939	-0.249125514959496	0.0396344014678956	0.051716419753689	-0.192125457754873	-0.0171599424211299	0.00697782901583498	0.00738297218695731	0.572265625	0.4267578125	0.103271484375	0	0	0	-0.580461187711952	-0.423257397197808	-0.547794082478592	0.428765237022318	0.0415496378375494	0.0216188637439051	0.998902523936141	0.961119102197332	-0.274027094477064	-0.0340473623626424	0.272990291012269	0.961478952563644	-0.0321640294452665	-133.370704237858	-87.31542905387	27.4885973379505
20240	1649158896736	9.62857443272966	-0.27345115938662	-0.250060345791213	0.0693596281069994	0.0422442444578557	-0.177327696638041	-0.0148968985491304	0.00665795675905592	0.0103444933442812	0.57421875	0.427001953125	0.08544921875	0	0	0	-0.580497910272148	-0.423175387875908	-0.547819159946144	0.428764428633772	0.0416335181839529	0.0215341184632574	0.998900861900538	0.961075594899024	-0.27416731166886	-0.0341465386497465	0.273130648322583	0.961440880634	-0.0321104654685121	-133.239858546007	-87.3133966716995	27.3493764462291
20241	1649158896737	9.61279947259664	-0.286371191238655	-0.264095786465164	0.0503399593396542	0.0325586351410556	-0.192184541892697	-0.016484547293687	-0.00129389734056644	0.00894383036045833	0.573974609375	0.41796875	0.087890625	0	0	0	-0.58047378794271	-0.423232856128198	-0.547873393145769	0.428671058141265	0.0414173891530191	0.0216362240226095	0.998907640217949	0.961066092691578	-0.274230146811234	-0.0339085838458772	0.273196935111452	0.961420667756801	-0.0321517379899794	-133.476602462769	-87.3216950557064	27.5823274953773
20242	1649158896738	9.66581644462961	-0.295679614905781	-0.274195750601396	0.0418006136466439	0.0267411234100241	-0.138590256693092	-0.0128570710304141	-0.00552453948552319	0.0103917974487154	0.575439453125	0.417724609375	0.096435546875	0	0	0	-0.580539154169689	-0.423183208289805	-0.547858907786934	0.42865006690306	0.0415331787601112	0.021669328646144	0.998902114953265	0.961028358551371	-0.274350184731099	-0.03400691397452	0.273312072770558	0.961385675124212	-0.0322194746050201	-133.453971634173	-87.3149287959341	27.5526425004407
20243	1649158896739	9.7030693759529	-0.31701927971789	-0.298655400116617	0.01712769212189	0.011092407253039	-0.0998692786144808	-0.0179597925289992	-0.00331312277075868	0.00899980160178468	0.571533203125	0.420166015625	0.096923828125	0	0	0	-0.580624788156783	-0.423147266504694	-0.547843330992325	0.428589466639967	0.0416281510736802	0.0217798218822928	0.998895758523863	0.960979346011346	-0.27451491986975	-0.0340625205836619	0.273469913478237	0.961336152512575	-0.0323575075450065	-133.529530858346	-87.3071657034889	27.6185354804483
20244	1649158896740	9.74027484643509	-0.356764075982886	-0.306932737408669	-0.0210917146341201	0.0148244822390495	-0.0610835070493003	-0.0157912264048708	0.00307283811644906	0.0058697680082823	0.578369140625	0.417724609375	0.095703125	0	0	0	-0.580663766343941	-0.42308432112907	-0.547868953880721	0.428566047469544	0.0416785331767969	0.0217434065838822	0.998894450951831	0.96093553496762	-0.274661600342173	-0.034116021660966	0.273616149941347	0.961295079342241	-0.0323415046599548	-133.470479001522	-87.3055715405207	27.5507421766358
20245	1649158896742	9.71887273686423	-0.287771551921418	-0.299383705816943	0.046289182973407	0.00169538748625575	-0.0850574075306536	-0.00535221151662923	0.0152516312669529	0.00983270135027222	0.574951171875	0.41259765625	0.099609375	0	0	0	-0.580642915595644	-0.423017664448931	-0.547922025326669	0.428592247123865	0.041675019452187	0.0215741559013419	0.998898267368006	0.960914684235006	-0.274729482538977	-0.0341567130357482	0.273689901850982	0.961279494851009	-0.0321802797344758	-133.293443933762	-87.3102270745187	27.3695165983733
20246	1649158896743	9.70018139242389	-0.297091372085385	-0.269872186963125	0.045060717549246	0.0303793408581852	-0.104357971621965	-0.00239510259765161	0.0208743127587042	0.00914201432077538	0.565673828125	0.42138671875	0.1025390625	0	0	0	-0.580611529658141	-0.422943378199831	-0.547963901320658	0.428654538427383	0.0417089233727181	0.0213571771598223	0.998901515012793	0.96090602994172	-0.274748371045044	-0.0342481273902185	0.273715120760126	0.96127894161469	-0.0319816990701037	-133.040065479705	-87.3141951317657	27.1148499702991
20247	1649158896743	9.66587502130686	-0.281102630048294	-0.286116733347848	0.0540550163555065	0.00633456855115289	-0.138646889483351	0.0040742509831349	0.0163325755760674	0.00844073155809088	0.573974609375	0.4228515625	0.095703125	0	0	0	-0.580556857867763	-0.422828445116682	-0.548073114796567	0.42870234617985	0.0416639336747964	0.021031446645334	0.998910303722385	0.960872367410879	-0.274860808760202	-0.034290368238045	0.273840117909986	0.961253979996802	-0.0316603184341636	-132.716309649575	-87.3249629024064	26.7840885581456
20248	1649158896744	9.697420312761	-0.257982097282665	-0.255436244320444	0.086297029398464	0.0278821401105071	-0.108897490128491	0.00498760618377574	0.0278218920794572	0.0100212379209454	0.576416015625	0.41796875	0.09619140625	0	0	0	-0.580492300149358	-0.422756002164151	-0.548118457663947	0.42880322814735	0.0416870380045606	0.0207432800895362	0.998915365380638	0.960883136303324	-0.274810308329192	-0.0343932086886685	0.273798811594013	0.961274680186232	-0.0313878957970159	-132.384171444922	-87.3311840570513	26.4547283690346
20249	1649158896745	9.64440828626781	-0.250410860490674	-0.24313282258209	0.0939355131501944	0.0341306303078985	-0.162483166847421	-0.000908497857890516	0.0260600431134682	0.00792549174528153	0.56689453125	0.4189453125	0.08740234375	0	0	0	-0.580415891774392	-0.422712451254036	-0.54819322631391	0.428854011003847	0.0415967403567012	0.0205083208977822	0.998923981074461	0.960887776537221	-0.274796841601432	-0.0343711615636227	0.273796260188215	0.961283571387669	-0.0311368477389181	-132.173442202572	-87.3418068449882	26.2445470772399
20250	1649158896745	9.68185129216796	-0.253102538541848	-0.280333869250548	0.0828901638283895	-0.00272575571928294	-0.123827078512299	-0.00375099178040122	0.0263719919402869	0.0100725576073662	0.568359375	0.41845703125	0.08984375	0	0	0	-0.580374229667939	-0.422618945687609	-0.548252577138295	0.428926674321449	0.0416246768142234	0.0202339808928603	0.998928411998247	0.960874599293231	-0.27483026960287	-0.0344721241452821	0.273838256482153	0.961279828628086	-0.0308820394335194	-131.85574475128	-87.3472865396987	25.9246376307658
20251	1649158896746	9.68190110754636	-0.254102926957935	-0.277696160604065	0.0820902157065551	-0.000771190834185365	-0.123819915094812	-0.00443078232998068	0.0283298723768822	0.0108283999014708	0.56787109375	0.419189453125	0.0947265625	0	0	0	-0.580334832773479	-0.42260883408167	-0.548286706597011	0.428946316681836	0.0415669214502695	0.0201381275499567	0.99893275392287	0.960880380671566	-0.274813661522436	-0.0344433662858223	0.273826742816721	0.961286589555588	-0.0307734895481789	-131.779253980158	-87.3526671647547	25.8490206363957
20252	1649158896746	9.71646532610088	-0.234677819352272	-0.288264652230083	0.0994779418333686	-0.0185346669946185	-0.0896411118682536	-0.004421463000019	0.0314929504732503	0.00966924872660818	0.5771484375	0.414306640625	0.100341796875	0	0	0	-0.580279719720302	-0.422504927223896	-0.548362363162416	0.429026516686077	0.0415766102769213	0.0198180924012232	0.998938751221244	0.960866070598492	-0.274851668903484	-0.0345391730298278	0.273875482382954	0.961282374390869	-0.0304699332942827	-131.418248368218	-87.3601171943304	25.4854783364271
20253	1649158896747	9.73518746480658	-0.245859878305914	-0.29742151911596	0.0868222521919207	-0.0271445582646308	-0.0702797508334925	-0.00374647031124618	0.0263780491248324	0.010070392399284	0.5732421875	0.413330078125	0.095458984375	0	0	0	-0.580237732066517	-0.422385055307634	-0.548457482386094	0.429079747079466	0.0415705101349487	0.0195034974488513	0.99894519683233	0.960831488753116	-0.274962871397977	-0.0346160305790568	0.273997706026146	0.961257006705201	-0.0301699213218566	-131.074079516196	-87.3681476275556	25.1344041175845
20254	1649158896747	9.78818943015385	-0.273889816737754	-0.288768033346619	0.0647061074263588	-0.0126625396017592	-0.0166316685658945	0.000569746399341254	0.024928995936477	0.00902767272487911	0.5712890625	0.41748046875	0.09228515625	0	0	0	-0.580188684220793	-0.422310302891536	-0.548504943840619	0.429158974456092	0.0415926693081177	0.0192476795695768	0.998949236293323	0.960830956300521	-0.274953165430911	-0.0347077834807759	0.273996210328631	0.961264939364122	-0.0299298024523906	-130.77241077302	-87.3731928005887	24.833102353553
20255	1649158896748	9.75383305981261	-0.276473639271192	-0.288793313386818	0.0612444241323626	-0.0144320373796303	-0.0508668863593353	-0.000222366921536048	0.0225332964257169	0.00774609490936006	0.572509765625	0.4111328125	0.09375	0	0	0	-0.580169691941983	-0.422247392269343	-0.54853258687021	0.429211217718223	0.0416382817264302	0.0190775998550421	0.998950598717795	0.9608229581298	-0.27496974061316	-0.0347977711618432	0.27401732906072	0.961263588684656	-0.0297794634526324	-130.556465668769	-87.3748966155417	24.6160447816024
20256	1649158896748	9.76947545432812	-0.28395727287806	-0.256668872463593	0.0638119207632331	0.0166861753561898	-0.0359388978351021	0.00850695714026137	0.0192436588462076	0.00943834267320295	0.568115234375	0.4228515625	0.1025390625	0	0	0	-0.580120447464602	-0.422205397005988	-0.548545291817612	0.429302844152257	0.0416813311274932	0.0188758598189062	0.998952635789874	0.960844075513428	-0.274883341483598	-0.0348971506796256	0.273936724785461	0.961292281510107	-0.0295942616550276	-130.299356009569	-87.3774461917979	24.3639299627688
20257	1649158896749	9.71963658428229	-0.261300736637969	-0.30282227135699	0.0702941773217725	-0.0373899602060156	-0.0851504178815254	0.0106773721209692	0.0224711084143284	0.0074693536834118	0.56884765625	0.419921875	0.098388671875	0	0	0	-0.580041183307696	-0.422146426237499	-0.548623439329428	0.429368073219546	0.041609433266514	0.0186018470719136	0.998960773178183	0.960847403343742	-0.274870905029285	-0.0349034820035342	0.273935982577735	0.961301179055708	-0.029310759036168	-130.022399173932	-87.3876556603116	24.0874325557914
20258	1649158896749	9.68206766511803	-0.279027131326235	-0.2449612958779	0.0678467672081339	0.0198875530945525	-0.12376084473749	0.00794608721454462	0.027139376124202	0.0116498366206726	0.5732421875	0.42041015625	0.092041015625	0	0	0	-0.579976078329704	-0.422079249561217	-0.548655714492837	0.429480805868541	0.0416520280883899	0.0183175390001909	0.998964251773356	0.960865932619246	-0.274790688960697	-0.0350248025298157	0.273864506805593	0.961329571492255	-0.0290462886897268	-129.669130733759	-87.3920322205311	23.7387141839314
20259	1649158896750	9.59463239113926	-0.273495557815641	-0.23485791694547	0.0712058095817466	0.0240955059642216	-0.21157925216766	0.00806640211721591	0.0330779340364285	0.0131056068347978	0.579345703125	0.4169921875	0.095458984375	0	0	0	-0.579861040489036	-0.422060679361284	-0.54872300912263	0.429568406565788	0.0415356843929947	0.0180449520183023	0.998974057034848	0.960901226717472	-0.274671534035243	-0.0349911543619791	0.273758323005645	0.961368778407841	-0.0287480866798721	-129.405893765914	-87.4044083026913	23.4822740636402
20260	1649158896750	9.63218399233342	-0.276448239482994	-0.271319772268646	0.0601569643949093	-0.0127250578345582	-0.172914292191052	0.00286299883676164	0.0325224980565548	0.00908757680848932	0.572021484375	0.417724609375	0.099609375	0	0	0	-0.579786496453089	-0.421975911712291	-0.548787018486603	0.429670521220409	0.0415382765503324	0.0177166623342693	0.998979825350324	0.960907079422801	-0.274639146257525	-0.0350845273315996	0.273737385638813	0.961384137178616	-0.028432103069535	-129.020916371888	-87.4117166281044	23.0989332546954
20261	1649158896750	9.63209962063512	-0.295991482547447	-0.251906748150468	0.0464861193454663	0.00761604692040146	-0.172864198945319	0.00810531213158392	0.0425706045153463	0.00962611241778709	0.576416015625	0.418212890625	0.09716796875	0	0	0	-0.579674663176809	-0.421877905896775	-0.548876658417789	0.429803130783299	0.0415068927205456	0.0172860536012194	0.998988673713362	0.960921678408584	-0.274576602570052	-0.0351740996404604	0.273690894662417	0.961409840636127	-0.0280073652259916	-128.528545121467	-87.4229675573409	22.6098841971584
20262	1649158896751	9.6664137625405	-0.313615251564647	-0.229584561979932	0.0367154346686015	0.0304215905616661	-0.138580494408831	0.00653906789404775	0.0425213203236425	0.00532363218481425	0.57275390625	0.415283203125	0.094482421875	0	0	0	-0.579557103042296	-0.421792242782968	-0.548969692118	0.429926907017	0.0414471621279651	0.0168716970692859	0.998998237530748	0.960939064182752	-0.27450831710182	-0.0352320701847614	0.273638900156969	0.961436700818067	-0.0275902635173284	-128.06452537436	-87.435183668684	22.1495275690136
20263	1649158896752	9.66666528603028	-0.29544001306793	-0.241494681315498	0.0504018605523777	0.0106796378829786	-0.138630987695077	0.0100570981843918	0.0370916405131497	0.0035855884356869	0.575927734375	0.41552734375	0.084716796875	0	0	0	-0.579450758718965	-0.421750603455841	-0.549027119365179	0.430037752884817	0.0413913013724134	0.0165626369560853	0.999005725322813	0.960972191694589	-0.274387919156821	-0.0352663665620383	0.27353099817095	0.961476442185585	-0.0272735065907005	-127.716840270291	-87.4447887544599	21.8087079225499
20264	1649158896752	9.68263501143446	-0.265042124948594	-0.239217347829939	0.0801547575488517	0.00123346325762302	-0.123803757819388	0.00928570103874713	0.0394402578163909	0.000563563779063614	0.569580078125	0.41943359375	0.096435546875	0	0	0	-0.579326018387472	-0.42169279783815	-0.549115113663574	0.430150137297423	0.0412955523953476	0.0161913360395443	0.999015774645035	0.96099910217745	-0.274292087268883	-0.0352785554666693	0.273450915095376	0.961510109930694	-0.0268869026584969	-127.312171401743	-87.4577366803921	21.4093639389531
20265	1649158896753	9.67059342978936	-0.243513760542994	-0.323297796423085	0.0764396917273318	-0.087347057648339	-0.13432366046259	0.0092887295536095	0.0394440986746075	0.0005621900812662	0.576171875	0.415283203125	0.0986328125	0	0	0	-0.579205308873702	-0.421746877367846	-0.549119032459329	0.43025465691137	0.0411957192428037	0.0160340189161405	0.999022433658757	0.96107810257331	-0.274021003273101	-0.0352330884154489	0.27318820155738	0.961590037387348	-0.0266984367940189	-127.153611827317	-87.4663528303139	21.2667666124265
20266	1649158896753	9.65201633048045	-0.233386873784421	-0.307551533423585	0.0888526661655622	-0.0789274452580369	-0.153683737736117	0.00134073263739826	0.0403968080606897	0.00187327833650914	0.572021484375	0.4208984375	0.094970703125	0	0	0	-0.579098136317801	-0.421662292671999	-0.549222528161176	0.430349711295463	0.041111050997678	0.0156521828214389	0.999031976794932	0.961083208545945	-0.27400007385301	-0.0352565707291062	0.273182993132621	0.961602292375319	-0.0263074810963149	-126.729285325266	-87.4787520710639	20.8432968634811
20267	1649158896754	9.66782432715966	-0.221488262392045	-0.28926617495515	0.10453090555289	-0.0676307389367345	-0.138802038535527	-0.00159692891371596	0.0411003224182703	0.000236754254540914	0.572265625	0.4228515625	0.102783203125	0	0	0	-0.57898167932262	-0.421603988456506	-0.549337194086701	0.430417168708771	0.0409574482210324	0.0153136510008876	0.999043532348938	0.961090289981762	-0.273982275596582	-0.0352018062276657	0.273181152237839	0.961612814365502	-0.0259394161473502	-126.385663174625	-87.493848072703	20.5003542098991
20268	1649158896754	9.67401497057364	-0.26600882280166	-0.337482700430004	0.0477456228560487	-0.105646671942892	-0.129827330389162	-0.00225862626876749	0.0462277753383207	-0.000172454758725005	0.571044921875	0.41845703125	0.09814453125	0	0	0	-0.578862048154985	-0.421502911647014	-0.549469209298417	0.430508551264522	0.0408377670121229	0.0148816909595132	0.999054959479031	0.961086463997608	-0.273995365522424	-0.0352043803071015	0.273212528091296	0.961615866625764	-0.02549195064219	-125.908787286951	-87.5088662047057	20.0222464688335
20269	1649158896755	9.68679356921186	-0.231823856054195	-0.292521092491228	0.0903840406682754	-0.0759468508604123	-0.119424660391799	-0.00658623034722854	0.0445227784163166	0.00201666060706486	0.56689453125	0.4111328125	0.106201171875	0	0	0	-0.578707986779223	-0.421412919573685	-0.549673694758537	0.430542734864753	0.040539961013764	0.0144340129293754	0.999073656359609	0.961066076227591	-0.274088209343125	-0.0350378455899049	0.273328572757231	0.961596231674103	-0.0249835654913558	-125.490583876889	-87.5336357106607	19.5979707417204
20270	1649158896756	9.65559595425125	-0.256030265564669	-0.316580884390502	0.0582659200319645	-0.0973500724492766	-0.149176918797853	-0.00281668240072685	0.0525581724194124	0.00261129421934707	0.5732421875	0.42041015625	0.093505859375	0	0	0	-0.578577614763606	-0.421288619821101	-0.549819649391189	0.43065321971052	0.0404285039051626	0.0139331250254396	0.99908528369655	0.961059534107138	-0.274107406324389	-0.0350671028156878	0.273368081483117	0.961598147785831	-0.0244723149926251	-124.910071665502	-87.5491656964589	19.0158039727335
20271	1649158896757	9.74324492094787	-0.263168959445234	-0.318617377639435	0.0529356606150194	-0.100910044611941	-0.0613484844050998	-0.000691884003712504	0.0447152686432476	0.00470731744841404	0.572509765625	0.421142578125	0.092529296875	0	0	0	-0.578470255651709	-0.421154217019436	-0.549979649347125	0.43072459195756	0.0403030215815198	0.0134708550760509	0.999096693275941	0.961029895276061	-0.274210902739479	-0.0350702324555114	0.273490780168332	0.96157522684516	-0.0239974223740135	-124.382570441994	-87.5645010372574	18.4816551109051
20272	1649158896757	9.72487903367517	-0.234747370426636	-0.318252961175804	0.0789403907928959	-0.112779252718145	-0.080744534464614	-0.00432411986656336	0.0442150354462092	0.00498026204481056	0.57080078125	0.422607421875	0.0927734375	0	0	0	-0.578371014697155	-0.42103657541185	-0.5500996113983	0.430819671165424	0.0402372394098016	0.0130432353094481	0.99910501879299	0.96101817007282	-0.274245226204755	-0.0351231076898223	0.273541662922792	0.961571333763941	-0.0235696569527109	-123.863919020687	-87.5757523459603	17.9605324199665
20273	1649158896758	9.74373750509041	-0.245679538870953	-0.325855542143504	0.0651461558713761	-0.118462920120059	-0.0613447949519248	-0.011505987105399	0.0428232353213051	0.00930123205919533	0.563232421875	0.421875	0.1015625	0	0	0	-0.578249534226296	-0.421080739603614	-0.55014980986825	0.430875473430404	0.0400523948736053	0.0128873635256497	0.999114468680264	0.961071602664165	-0.274074674261998	-0.0349921059771117	0.273381016563737	0.961622061305552	-0.0233630261961081	-123.729674122606	-87.5885867276888	17.8362345565683
20274	1649158896759	9.76232115805973	-0.275587036256087	-0.318155375588357	0.0392748079405921	-0.106358905034942	-0.0419540377263843	-0.0151850315359247	0.0344078890414138	0.0124750389829796	0.5732421875	0.414794921875	0.102783203125	0	0	0	-0.578216339215749	-0.420934081253805	-0.550247321259359	0.430938800469224	0.0400847693718305	0.0125360858576153	0.999117639627976	0.961027768197263	-0.274212498978323	-0.0351160099933304	0.273530327419458	0.961587412540032	-0.0230392713940927	-123.268489352071	-87.592908680837	17.3665189290225
20275	1649158896760	9.74337626184535	-0.285123248592841	-0.287657766200783	0.0362556001321313	-0.0780391530275176	-0.0612762833980032	-0.0211139735001187	0.0263149494788267	0.0126753628627257	0.56689453125	0.42529296875	0.10107421875	0	0	0	-0.578183036824277	-0.420782991657535	-0.550421995373686	0.430907967980683	0.0399546018811693	0.0122167288044209	0.999126809432034	0.960941623037812	-0.274519994124988	-0.0350709272627999	0.273851833848111	0.961503782812598	-0.0227079002792178	-122.922452452024	-87.6054508534972	17.0018112699514
20276	1649158896761	9.72777408031206	-0.298270714327763	-0.29964423849976	0.0202218138689734	-0.0886774504847809	-0.0761547418788364	-0.0189587856884186	0.0247977777460239	0.012452643481091	0.57568359375	0.4091796875	0.09765625	0	0	0	-0.578183951153458	-0.420646623774149	-0.550500305677037	0.430939844973141	0.040011662713797	0.0119572211739415	0.999127665370484	0.960887286718457	-0.274694535843869	-0.0351928146126929	0.274034102019656	0.961457194491423	-0.0224805269280291	-122.569696772188	-87.6066249313605	16.6384280944284
20277	1649158896762	9.69058550138007	-0.260382684407807	-0.289592314135042	0.0579409453379467	-0.0916738126644563	-0.114886144777905	-0.019666289905127	0.0220110871444361	0.0149440846001542	0.569580078125	0.4189453125	0.10498046875	0	0	0	-0.578193732587312	-0.420536916950882	-0.550572914724946	0.430941033842771	0.0400363341054495	0.011774697250389	0.999128844772315	0.960832541559974	-0.274877053663942	-0.0352623375349955	0.274222389732856	0.961407281995354	-0.0223185818436017	-122.330935975392	-87.6082436427081	16.3886247318424
20278	1649158896763	9.67130540721763	-0.288893183898054	-0.243797557895238	0.0431546954801676	-0.0426862714735979	-0.134187505550095	-0.0202183166473684	0.0299213673629487	0.0171498980521379	0.5712890625	0.41845703125	0.099853515625	0	0	0	-0.578193150502404	-0.420372552088929	-0.550658394032853	0.430992959621738	0.0401245010628006	0.0114532785845227	0.99912904413	0.960772842523612	-0.275063972413471	-0.0354310054785332	0.274418602655797	0.961357703193659	-0.0220408036753091	-121.884781534182	-87.6085173663348	15.9310516773435
20279	1649158896763	9.67133527485179	-0.290454776543338	-0.240738505670687	0.0416515096470875	-0.0426228675909974	-0.134180640417505	-0.0223461757261906	0.0346139394562367	0.0162098401159904	0.564697265625	0.418212890625	0.10205078125	0	0	0	-0.578150284974968	-0.420208709567697	-0.55082631534246	0.430995659738081	0.0400300214594009	0.0110800680068152	0.999137042389544	0.960695072735294	-0.275334763380775	-0.0354364966691237	0.274704522358275	0.96128455733306	-0.0216662232263707	-121.442026425963	-87.6195251457366	15.4717667887748
20280	1649158896764	9.63014441363168	-0.286452516466922	-0.156267725964292	0.067647431822622	0.0337284000518446	-0.177312881024449	-0.0267725668146011	0.0317146876923524	0.0151940737116578	0.568115234375	0.415771484375	0.103515625	0	0	0	-0.578154466377885	-0.420028031952351	-0.550935331136099	0.431026827804829	0.0400934265603823	0.0107463491439388	0.999138145166484	0.960617981564722	-0.275584652173482	-0.0355836055078815	0.274964744360376	0.961216736988332	-0.0213722692369263	-120.989921702219	-87.6210468597757	15.0044637228211
20281	1649158896765	9.64858576305504	-0.31696558772217	-0.149714414126711	0.0399702995266773	0.0456601207299338	-0.157926583991552	-0.0289876442717749	0.0237367843448835	0.018890332711292	0.573974609375	0.4140625	0.103271484375	0	0	0	-0.578162693020504	-0.41984923720491	-0.551100613200922	0.430978691523492	0.0400294642960462	0.0104570889397344	0.999143779082409	0.960507573640245	-0.275967970942308	-0.0355932577002206	0.275359479531576	0.961109946002481	-0.021090963164532	-120.649074242981	-87.6288362903781	14.6404650734196
20282	1649158896765	9.6173051610149	-0.342671359895101	-0.176447278194683	0.00783521124827525	0.0242534034034542	-0.187695643951837	-0.0311470137359776	0.0236791939228894	0.0196886216710039	0.57666015625	0.413330078125	0.101806640625	0	0	0	-0.578207421260846	-0.419660865620887	-0.551186422238783	0.430992417340284	0.0401565716118764	0.0101877167778237	0.999141461547481	0.960416390881165	-0.276260588123013	-0.0357832862761927	0.275658857799232	0.961028770577022	-0.0208781282695779	-120.261866166245	-87.6256289833473	14.2355859449262
20283	1649158896766	9.63290405350253	-0.332528526379635	-0.159970125872145	0.0249494508835084	0.0349774659774739	-0.172813933025413	-0.0283145739599147	0.0201987306755932	0.0187143161072116	0.57861328125	0.409423828125	0.0966796875	0	0	0	-0.578299065914829	-0.419435741887717	-0.55125196964356	0.431004773469195	0.0403898487823913	0.00993413488858019	0.99913461209156	0.960303056091261	-0.276617087347736	-0.0360697580951115	0.276019384422762	0.96092887351316	-0.0207123024217269	-119.865693611989	-87.6161750221462	13.8179747063794
20284	1649158896766	9.62070155889769	-0.34985765931663	-0.214596280278386	-0.00593574174016726	-0.015013851279902	-0.183248687607957	-0.023905410785531	0.0199346607031808	0.020889011300505	0.57177734375	0.419189453125	0.102294921875	0	0	0	-0.578341462717772	-0.419271234655355	-0.55130877861957	0.431035282673055	0.0405405248151445	0.00969680778728249	0.999130841164684	0.960230948716975	-0.276840433763067	-0.0362753271518799	0.276248060579277	0.960866976304532	-0.0205344314159154	-119.512966721137	-87.6109861594472	13.4517358383575
20285	1649158896767	9.60224913109455	-0.322729880123266	-0.21696605483822	0.0210074219125873	-0.025957210690223	-0.202624835633554	-0.0269658142181175	0.0146973430850916	0.0177847507223432	0.572509765625	0.417236328125	0.101318359375	0	0	0	-0.578432137841074	-0.419144054502636	-0.551298959410467	0.43104985888019	0.0407754378560554	0.00961810570931565	0.999122042450376	0.960167460328026	-0.277028561468919	-0.0365188205955495	0.276434100275048	0.960813544957098	-0.0205309530246084	-119.344780488161	-87.5989225526544	13.2723172827801
20286	1649158896767	9.60187942714288	-0.343159354090555	-0.199935872812763	0.00748331604130707	-0.00555783312265884	-0.202602351280316	-0.0334507220404373	0.0145183679256998	0.020179564576157	0.580322265625	0.42138671875	0.107177734375	0	0	0	-0.578509028764882	-0.418966897613994	-0.551360833244738	0.431039759076685	0.0409359405347473	0.009435384594351	0.999117221496103	0.960069147498879	-0.277342929597638	-0.0367169092241745	0.276751659061535	0.960724660305832	-0.0204119153175641	-119.070857341626	-87.5923383296967	12.9795053346993
20287	1649158896768	9.63969725939244	-0.346750590943108	-0.238050590546726	-0.00454194835064342	-0.0422385297296601	-0.163912192107075	-0.0299184183471224	0.0122425853486736	0.0172953273424548	0.5732421875	0.414794921875	0.104736328125	0	0	0	-0.578550951520347	-0.41883838920861	-0.551441691408207	0.431004943355518	0.0409729294039842	0.00929050728125053	0.999117062976363	0.959986887158313	-0.277618285056486	-0.0367867406328463	0.277031398112468	0.960646539720387	-0.0202935995599239	-118.883556920431	-87.5921221367637	12.7756448751983
20288	1649158896769	9.65494019028545	-0.355207472957219	-0.206705701009124	-0.00198169842659628	-0.0110762644931234	-0.149010903943672	-0.0363897615452245	0.0136503898584721	0.0191106991732965	0.578125	0.417724609375	0.103271484375	0	0	0	-0.578634254068286	-0.418657945625716	-0.551509590763908	0.430981549348367	0.0411253917197622	0.00911874033796878	0.999112381431911	0.959880571969621	-0.277960857371472	-0.0369736301245786	0.277376981220809	0.960549119172968	-0.0201841508334146	-118.630420182916	-87.5857460602693	12.5019394219501
20289	1649158896769	9.65839665692053	-0.36029228957006	-0.24727334411735	-0.0169004397031455	-0.0502731774640899	-0.144555836196393	-0.0320229952837583	0.0185295866162185	0.0157800446761744	0.575927734375	0.411865234375	0.113525390625	0	0	0	-0.578691517385367	-0.41848268085643	-0.551600277849156	0.430958822866142	0.0412187585998993	0.00891074229958944	0.999110410620945	0.959778768037626	-0.278293477634089	-0.0371141041991063	0.277715196493927	0.960454756340972	-0.0200232529411267	-118.347093145881	-87.5830669225038	12.1985807240185
20290	1649158896770	9.67327783726152	-0.387337743555203	-0.199860673375972	-0.0279252131341778	0.00116752001894996	-0.12963529262573	-0.0269529001334018	0.0147118056639101	0.0177807862259163	0.5751953125	0.4208984375	0.103759765625	0	0	0	-0.57874889047583	-0.418329512572285	-0.551654240936448	0.430961412589179	0.0413560347357305	0.00873210063944435	0.999106315068301	0.959698864378576	-0.278545359540347	-0.0372903793090108	0.277970804404722	0.960383378186525	-0.0198997186319413	-118.086261220564	-87.5775088630941	11.9225717554302
20291	1649158896771	9.68923485684495	-0.358354857560135	-0.199707226292616	0.00114491212181477	-0.00939493105876557	-0.114776072907281	-0.02262658442083	0.0148335148642799	0.0161848641600004	0.567626953125	0.41455078125	0.10986328125	0	0	0	-0.578790860191744	-0.418114692609754	-0.551792865080817	0.430936048652529	0.041409475739508	0.00842705128364202	0.999106721089215	0.959576799093984	-0.278948451591192	-0.0374182842394144	0.278383947021958	0.9602691009095	-0.0196375120352968	-117.690964882267	-87.5780593033495	11.5029206280374
20292	1649158896771	9.70446103242164	-0.366611573456064	-0.168177971526494	0.0037175283798309	0.0217492521996709	-0.0998729052995912	-0.0234074936890494	0.014021554128527	0.0143189258677263	0.569091796875	0.416259765625	0.104736328125	0	0	0	-0.578835168639873	-0.41798200300308	-0.551845397454167	0.430937988601418	0.0415154049483727	0.00826307519774155	0.999103694688519	0.959507657589137	-0.279166990291394	-0.0375612374590129	0.278606400105562	0.960207015762706	-0.0195182145776336	-117.458064682582	-87.5739594311679	11.2568338519785
20293	1649158896772	9.67042211738942	-0.350883619220068	-0.185678953030436	0.0119444234770828	-0.00162129747160178	-0.134127839366148	-0.0242437291153073	0.00686782373002901	0.0147607214195631	0.57861328125	0.415283203125	0.10107421875	0	0	0	-0.578876351286122	-0.417823699041957	-0.551985886279977	0.430856249563901	0.0414698757332083	0.00808337921496533	0.999107055518647	0.959389654314152	-0.279572497461252	-0.0375594177038407	0.279019247726112	0.960090557001654	-0.0193489471188766	-117.255516656861	-87.5785127813555	11.029887737555
20294	1649158896772	9.67076379009049	-0.333632092594914	-0.200682245426635	0.0255905176206025	-0.0218160512828719	-0.134147959652859	-0.0161912244225381	0.00867371832353844	0.0161000909319463	0.572509765625	0.41259765625	0.10400390625	0	0	0	-0.578923163625021	-0.417717064869765	-0.552004752973613	0.430872576325678	0.0416064128222587	0.00796474927360513	0.999102331686336	0.959339589504645	-0.279722553374124	-0.0377206195988546	0.279171020023793	0.960047840424044	-0.0192791513300279	-117.071747280105	-87.5721152286987	10.8370692705557
20295	1649158896773	9.61720825431278	-0.345199788570871	-0.175105421371234	0.0213655548238324	0.0050984140113175	-0.187717924988711	-0.0183378037194103	0.0102021859075912	0.0163197303358048	0.576171875	0.425537109375	0.105712890625	0	0	0	-0.578993682026438	-0.41762292395708	-0.551983453134987	0.430896364598476	0.0418107217014294	0.00790674233235539	0.999094263308771	0.959297395429872	-0.279838832722712	-0.0379306580730381	0.279285464484404	0.960014432769674	-0.0192851808819858	-116.95026524715	-87.5612269000808	10.7086323977931
20296	1649158896773	9.65116395885857	-0.363710156163022	-0.155833220160306	0.0115819321450529	0.027942667824736	-0.153462769886579	-0.0293173783837988	0.00911594831566329	0.0133323781157478	0.57373046875	0.41650390625	0.1025390625	0	0	0	-0.579062115976039	-0.417487066257444	-0.552036422027719	0.430868198065185	0.0419206765251731	0.0077920111084574	0.999090557178156	0.959211764810199	-0.280114290807627	-0.0380627683576004	0.279562957362694	0.959935033556035	-0.0192167693017889	-116.787863735983	-87.5562417027734	10.5296923853883
20297	1649158896774	9.63589542821028	-0.358072001461849	-0.1853431050473	0.00714928205788386	-0.00210398428714675	-0.168362987787658	-0.0271681407097126	0.00759088941338538	0.0131113167363187	0.5712890625	0.418701171875	0.103515625	0	0	0	-0.579062197911051	-0.417473731237536	-0.552090959009581	0.430811127591794	0.0418225134129808	0.00779265559276554	0.999094666130609	0.959180369929376	-0.280234912139392	-0.0379659315752061	0.279685350553023	0.959899822136164	-0.0191946906459363	-116.820097958262	-87.5617693583031	10.5547056793101
20298	1649158896775	9.63545845690283	-0.377999596467279	-0.16941360882641	-0.00637918827540978	0.0182792354264799	-0.168348639414242	-0.0294794221685491	1.59829776772288E-06	0.0130141163208727	0.57763671875	0.415771484375	0.109130859375	0	0	0	-0.579155130490865	-0.41735856780988	-0.552118680629461	0.430762258330251	0.0419535767513371	0.00776693213429186	0.999089371459326	0.959094491071354	-0.280511405347815	-0.0380934202504072	0.279960094646273	0.959819267484778	-0.0192176785964094	-116.770402663124	-87.5546489110431	10.4885077107223
20299	1649158896776	9.70376820192488	-0.394824235187339	-0.14844632298716	-0.0135236717876647	0.0435921826971948	-0.0998630306569694	-0.0222398077368506	-0.00218213655357878	0.0136422140417159	0.57763671875	0.416748046875	0.103271484375	0	0	0	-0.579214001878761	-0.417282888256681	-0.552160630396486	0.430702646190975	0.0419872588166346	0.00775809397687288	0.999088025188427	0.959026272513847	-0.280740443464507	-0.0381236413731424	0.280188648458965	0.959752371907044	-0.0192277376084936	-116.764188104465	-87.5528417036117	10.4686184130485
20300	1649158896776	9.71974249215268	-0.365493431228732	-0.150155778462873	0.0162022866591988	0.0341733604560142	-0.0849900081716903	-0.0151241801806042	-0.00872896296157403	0.0122244205663322	0.56982421875	0.42333984375	0.10546875	0	0	0	-0.579298315609155	-0.417228408058478	-0.552135028874914	0.430674850589957	0.0421347307965721	0.00781808589275929	0.999081349037041	0.958980770157501	-0.280879257156613	-0.0382455927823694	0.280322219827159	0.959711269305578	-0.0193321659172308	-116.815426762103	-87.54389940547	10.5116673682573
20301	1649158896777	9.72359383155112	-0.351000062453656	-0.209473851518371	0.0130242889221555	-0.024499894484712	-0.0805454111300943	-0.00972797383900725	-0.0244335962909656	0.00617844557664621	0.5732421875	0.41796875	0.104248046875	0	0	0	-0.5793368415636	-0.41734646881094	-0.552078245339886	0.430581420872504	0.042063071986944	0.00813909953480835	0.999081804975841	0.958997640779797	-0.280843129940909	-0.038087548408605	0.280275262828894	0.959719173208369	-0.0196185020436963	-117.252527160121	-87.5445090722826	10.9512526241821
20302	1649158896778	9.70477555464729	-0.341497248420239	-0.199907508641976	0.0254319452331325	-0.0161002256259146	-0.0998944825459524	-0.0175585879377117	-0.0206775631092271	0.0100791903591397	0.571533203125	0.408935546875	0.106201171875	0	0	0	-0.579454551282952	-0.417317809942146	-0.552027888746726	0.430515363893551	0.0422221111018473	0.00832043379845065	0.999073602751824	0.958946383411191	-0.28100473391339	-0.0381860348931682	0.280426687525814	0.959670313128249	-0.0198434629948727	-117.458750444183	-87.5335643360489	11.1480593856802
20303	1649158896779	9.68635571195232	-0.313730117821147	-0.205458565889705	0.0512572183817314	-0.0280296927609787	-0.119250743448951	-0.0288972454844106	-0.0130516911502958	0.0162897932913001	0.57373046875	0.412109375	0.10888671875	0	0	0	-0.57959671199826	-0.417206362170919	-0.552030525411667	0.4304286256961	0.0424023007556539	0.00840339068756046	0.999065277104344	0.958842352268519	-0.28134009909095	-0.0383287377781731	0.280755032700753	0.959571327035384	-0.0199869943901718	-117.540345821039	-87.5225043242664	11.2097634154879
20304	1649158896779	9.6319629907459	-0.362768737119981	-0.15064430425488	0.0191816032237541	0.0387354554889613	-0.172815098558864	-0.0223032255791224	-0.0101038085432977	0.0165211518544222	0.575439453125	0.418701171875	0.101318359375	0	0	0	-0.579708902546841	-0.41712301565524	-0.552006838108072	0.43038869501945	0.0425936809852157	0.00846484587476437	0.999056617376836	0.958774856655347	-0.281547922020268	-0.0384908021686795	0.280956495895092	0.959509830064489	-0.0201080437627685	-117.583091394533	-87.5110526233102	11.2402119941918
20305	1649158896780	9.57567853044402	-0.333751837241086	-0.116456002672594	0.0558739303482027	0.0639057533619668	-0.230862627050355	-0.0273549519142597	-0.0145949171359381	0.0211696762175265	0.56982421875	0.408203125	0.10205078125	0	0	0	-0.579845248225236	-0.417037649125452	-0.551979769859014	0.430322461636528	0.0427958657566138	0.00857601167424349	0.999047028871967	0.958693185031423	-0.281804356445991	-0.0386481779954325	0.281204357804867	0.959433560342676	-0.0202818253549387	-117.689630536394	-87.4984338189592	11.3316074481769
20306	1649158896781	9.53692906977878	-0.371326726016542	-0.0477873984051676	0.0398735636452627	0.141435920196454	-0.269543826184662	-0.0282909929247404	-0.0229333634217538	0.0184025807608193	0.575439453125	0.41650390625	0.10693359375	0	0	0	-0.580009624822015	-0.416959904652723	-0.551927287553444	0.430243584821105	0.0430414143317792	0.008755166211733	0.999034926174719	0.958607865242064	-0.282069791264554	-0.0388277420412949	0.281457629756904	0.959353938815376	-0.0205334539483649	-117.87143581309	-87.4825964978845	11.4978160584507
20307	1649158896782	9.54030722346581	-0.376317706266752	-0.092805204176811	0.0251453798036022	0.10227404945598	-0.265091010015576	-0.0198757055298772	-0.0381638735129327	0.0171830921971562	0.57421875	0.4169921875	0.108642578125	0	0	0	-0.580208554575891	-0.41692940682208	-0.551821164690445	0.430141029342267	0.0433265438533382	0.00909016939925272	0.999019609125876	0.958533864570439	-0.282297129206727	-0.0390020680644113	0.281665832271835	0.959283951529438	-0.0209441941521124	-118.23589379415	-87.4626945742706	11.8491334919371
20308	1649158896782	9.52453437789561	-0.389583418006319	-0.111632336090257	0.00911690219962558	0.0916070614517366	-0.279979716280575	-0.0201529025309308	-0.0500463198618206	0.0142293113143404	0.579345703125	0.414306640625	0.098876953125	0	0	0	-0.580421576021686	-0.416944399905906	-0.551681881670255	0.430017747206291	0.043608937647743	0.0095410515528625	0.99900311755895	0.958473051274345	-0.282484208949461	-0.0391418149176107	0.281829151327683	0.959224499285471	-0.0214636770487869	-118.738456989524	-87.4414395138889	12.3410889705392
20309	1649158896783	9.59621788857311	-0.410090412575928	-0.137758277270193	-0.0120764822892939	0.0780919549024546	-0.207048266635757	-0.0245091738607585	-0.054906089956416	0.0175438305041952	0.576416015625	0.410400390625	0.108154296875	0	0	0	-0.580652537478794	-0.41699016650824	-0.551509114926849	0.42988315611044	0.0439137943760695	0.0100838386765703	0.998984431741076	0.958421754470286	-0.282639346255916	-0.0392777355015217	0.281956236358757	0.959173246158155	-0.0220763364902629	-119.338480014301	-87.4175676640036	12.9325220594125
20310	1649158896784	9.54637951418945	-0.405972049270197	-0.176195279126564	-0.0182182156105396	0.0446658207915257	-0.256177014589708	-0.022568605499641	-0.060384676618599	0.0114927380142899	0.572998046875	0.408447265625	0.106689453125	0	0	0	-0.580893534300042	-0.417028720373827	-0.551350418482668	0.429723706852161	0.0441995248447113	0.010641883355428	0.998966041626116	0.958355265774877	-0.282849164305213	-0.0393895266969318	0.2821375312947	0.959105364686536	-0.0227005036164505	-119.955196223975	-87.3942869683394	13.5373965481629
20311	1649158896785	9.59630732690467	-0.393981360845212	-0.165027653102591	0.00249433264049564	0.0567267288632718	-0.207046193939782	-0.0188709988065931	-0.0634562573826697	0.016141687396755	0.567626953125	0.410400390625	0.10205078125	0	0	0	-0.581197196572845	-0.416934392934836	-0.551225564971377	0.429564788135518	0.0446321770200921	0.0110680145934343	0.99894217441622	0.958216386720676	-0.283279609564294	-0.0396739086185355	0.282540837746366	0.958973493824548	-0.0232489386321485	-120.370332974697	-87.364379026859	13.9274164088069
20312	1649158896785	9.58080005060779	-0.388359691534967	-0.201321486362227	6.46709830735837E-05	0.0257711975062684	-0.221941001394015	-0.0138595569412814	-0.0637123714744804	0.0132059082498836	0.578857421875	0.41748046875	0.10595703125	0	0	0	-0.58143235104967	-0.416998141200954	-0.551035370123134	0.429428681227819	0.0449451422164195	0.0116516346399048	0.998921505225193	0.958173203847347	-0.283407115947772	-0.0398060053142463	0.282637657823683	0.958928905623553	-0.0239020572243941	-120.983283627728	-87.3387498884221	14.5334879595319
20313	1649158896786	9.56524027958443	-0.38261808557382	-0.238252366378079	-0.00314900319785304	-0.0051942404841375	-0.236835404027808	-0.0119010467471753	-0.0775084193056095	0.0137856368779483	0.580322265625	0.406494140625	0.1142578125	0	0	0	-0.581684686853565	-0.417105377636203	-0.550829107461209	0.429247391838923	0.0452207966408957	0.0123637064971347	0.998900504711463	0.958131537403878	-0.283539561092886	-0.0398657036478257	0.282734922822147	0.958880835170308	-0.0246679419459401	-121.748229061415	-87.3129600917561	15.2913901917009
20314	1649158896787	9.61548224155943	-0.351867022611285	-0.244564237103058	0.0302873161136933	-0.0121431914280594	-0.187717210773959	-0.00694029584485328	-0.0840979074201479	0.0131352811236261	0.569580078125	0.417236328125	0.102783203125	0	0	0	-0.581960716692762	-0.417232082458308	-0.550565334277925	0.429088483049111	0.0455904041178808	0.0131428752598181	0.998873755728057	0.958107851678785	-0.283600926164232	-0.0399982403394752	0.282755830362228	0.958852324140008	-0.0255217728120991	-122.54082324383	-87.280464725112	16.081298865182
20315	1649158896788	9.63489159261816	-0.307265531821175	-0.311516848032179	0.0583547255459648	-0.0829525347088147	-0.168398973520214	-0.0140961375055546	-0.0854511368382375	0.017441380482597	0.575439453125	0.413818359375	0.1005859375	0	0	0	-0.582283282650791	-0.41719228242882	-0.550422139509052	0.428873229014739	0.0459721356402184	0.0137255428335619	0.998848423044559	0.957970824003356	-0.284036705832605	-0.0401876859012212	0.28315801790345	0.958715160625765	-0.0262064435454979	-123.108424273136	-87.2500436600581	16.6236374988284
20316	1649158896788	9.63136150982006	-0.305617968198088	-0.277945276006095	0.0732826324592236	-0.0435390811521559	-0.172847736744281	-0.0148955611660668	-0.0894075816185818	0.016714557844882	0.57373046875	0.40673828125	0.10009765625	0	0	0	-0.58259819385304	-0.417297027643301	-0.550152225078963	0.428689939793212	0.0463914399214639	0.0145435407180527	0.998817460663056	0.957922437702863	-0.284176252480317	-0.0403541927393885	0.283253310037884	0.958661745846587	-0.0271149295215153	-123.898080211816	-87.2133127200333	17.4060104785486
20317	1649158896790	9.57864413491662	-0.260943675844152	-0.308920419679448	0.109806260892	-0.0778328917802176	-0.226456447278311	-0.0230118277190573	-0.102246215702558	0.0193932643133154	0.583251953125	0.41064453125	0.099365234375	0	0	0	-0.582992734325872	-0.417403578043606	-0.549821862284021	0.428473621725036	0.0469403455818524	0.0155181772892111	0.998777147380874	0.957854835834965	-0.284369217044453	-0.040598791424078	0.283391456159545	0.958589241839874	-0.0282125504807226	-124.795865458063	-87.1662015676308	18.293554657899
20318	1649158896791	9.62784947980686	-0.28715745909055	-0.271265660700491	0.102505795012905	-0.0239465137829672	-0.177313019861897	-0.0217044346764288	-0.114052661466025	0.0207160479002365	0.570068359375	0.41259765625	0.0986328125	0	0	0	-0.583398255110264	-0.417530478818376	-0.549485082694898	0.428229983872893	0.0474688863069567	0.0165611293943242	0.998735417328314	0.95778508179765	-0.284574760339839	-0.0408037113923722	0.283539136484976	0.958510790116996	-0.0293704496160055	-125.746282473298	-87.1182452288781	19.2330564522255
20319	1649158896792	9.57752375731378	-0.283443197453581	-0.315094388353094	0.0968210142794122	-0.0567645318470471	-0.22644839223568	-0.0327091061554465	-0.121399333862002	0.0200502885577509	0.56982421875	0.413818359375	0.097412109375	0	0	0	-0.583855432018919	-0.41767647264964	-0.549105457831118	0.427951393124306	0.0480591207500664	0.0177444634640132	0.998686865303186	0.957706246067961	-0.284807938635841	-0.0410266295522467	0.283705951920548	0.958420352510514	-0.0306816026060875	-126.790831890753	-87.0634337440162	20.2652330492477
20320	1649158896793	9.56150060095226	-0.278019691495474	-0.357302510478136	0.0943973799528417	-0.0877281097290107	-0.241342989531288	-0.0329547696830355	-0.131635744207206	0.016492762665916	0.5859375	0.40869140625	0.1015625	0	0	0	-0.58432423188192	-0.417822175202744	-0.54874903443452	0.427626377988582	0.0485982542320601	0.018968119137222	0.998638282934313	0.957606367217084	-0.285120621514428	-0.0411858792855794	0.283951149233272	0.958303940116925	-0.0320203561110971	-127.863622080792	-87.0095925577096	21.3209271900729
20321	1649158896794	9.5951381947442	-0.296845537515592	-0.352048608462187	0.0850465728493305	-0.0647765339777034	-0.207100964935963	-0.0386936207303702	-0.130545026827401	0.0169968852816766	0.572509765625	0.408203125	0.09521484375	0	0	0	-0.584819846230744	-0.417939005146455	-0.548392013163497	0.427292564094354	0.0491863757513582	0.0201903905801699	0.998585523913033	0.95748570831415	-0.285496105293728	-0.0413895184347745	0.284256607336745	0.958167168082028	-0.03337452913632	-128.881044850448	-86.9521987701251	22.3175353100548
20322	1649158896795	9.57317919664912	-0.284841182980017	-0.310578109092849	0.112354608426731	-0.0170673698894612	-0.230911711780953	-0.0452357440731181	-0.131838901460344	0.0162114428540612	0.573974609375	0.4091796875	0.093994140625	0	0	0	-0.585314498280052	-0.418051712993787	-0.548060490383249	0.426930207700279	0.049724928287665	0.021416299308875	0.998533311227372	0.957350615275425	-0.285926726031913	-0.0415416269835099	0.284617692595791	0.958012134299239	-0.0347205932677379	-129.888959965102	-86.896443118234	23.3013237441976
20323	1649158896796	9.59123476138737	-0.296351950070696	-0.335705555202178	0.100506969443113	-0.0242356834923421	-0.211562261461887	-0.0555295687975576	-0.136368973430487	0.0130834474569954	0.57958984375	0.4111328125	0.09228515625	0	0	0	-0.585845496481185	-0.418211652917918	-0.547680781381199	0.426532330922353	0.0502895501386846	0.022807706308033	0.998474220838883	0.957221947443627	-0.286338368083214	-0.0416711206433502	0.284951056287004	0.957857060054583	-0.0362318647672475	-131.006039319871	-86.8345263332902	24.3956104983971
20324	1649158896797	9.59071627481351	-0.297406500304757	-0.349312612405909	0.100594866000636	-0.0241429839767326	-0.211562948437647	-0.0577917499272626	-0.143870179988993	0.0129529949623875	0.577392578125	0.408447265625	0.098876953125	0	0	0	-0.58639260977982	-0.418325012785397	-0.54734613281929	0.426098699553845	0.0508327891317307	0.0241584411665604	0.998414942430997	0.957052342767062	-0.286888163833239	-0.0417851008909979	0.285423966676184	0.957659412929667	-0.0377042182525813	-132.061086231268	-86.7736050277345	25.4195494269551
20325	1649158896798	9.57439907726254	-0.291226224509092	-0.393269021602527	0.098952773287938	-0.0546471202883127	-0.226457855712724	-0.0585533264736666	-0.146196309529875	0.0116390850028865	0.57958984375	0.4140625	0.09228515625	0	0	0	-0.586966387701157	-0.418455034575587	-0.546964733302796	0.42567055837866	0.0514499291226898	0.0255845132435185	0.998347803861641	0.956891646997263	-0.287399919535888	-0.0419483272328157	0.285851850965035	0.95746891277621	-0.0392683125052019	-133.110019874471	-86.7059647317935	26.4397868383291
20326	1649158896799	9.64251539764818	-0.308197134329467	-0.387016275723625	0.0929106112425506	-0.0293033511950341	-0.15798045523432	-0.0654552880766587	-0.130525714214456	0.013497563706356	0.583251953125	0.407958984375	0.101806640625	0	0	0	-0.587494024237897	-0.418516878704814	-0.546683040089858	0.425243515414465	0.0519625518345813	0.0268054949929931	0.998289215931446	0.956699166134107	-0.288023149674256	-0.0420638891452961	0.286402860888548	0.957248207462361	-0.0406112125521164	-133.993364724735	-86.648052841151	27.287479932147
20327	1649158896800	9.5889231787539	-0.319314545521369	-0.37405367173123	0.0885561100296092	-0.00334082623207817	-0.211569789682613	-0.0697148022931346	-0.130578533538652	0.0151133842331357	0.579345703125	0.411865234375	0.091796875	0	0	0	-0.588055786473829	-0.418527653591221	-0.546407867560849	0.424809883879461	0.0525460908940673	0.0279962914485667	0.998225984432824	0.956474142525958	-0.288742331475493	-0.0422502153051353	0.287047248743106	0.956997426161233	-0.0419500096518508	-134.795719737748	-86.5866519990704	28.0484653061997
20328	1649158896801	9.55381056320351	-0.34067915899597	-0.373276914923356	0.0713490322779658	0.0145523704044317	-0.245797679217057	-0.0762438706433778	-0.13027404895191	0.0137809487960405	0.5771484375	0.41455078125	0.09521484375	0	0	0	-0.588605826279997	-0.418557832582139	-0.546148103908196	0.424352177620036	0.0530631787632481	0.0292128833929554	0.998163767376581	0.956249432178943	-0.289469140266551	-0.0423631950021953	0.287700056511968	0.956741461564834	-0.043294955893231	-135.623219863558	-86.5272944781796	28.8341123411081
20329	1649158896802	9.5531373057792	-0.360580766881778	-0.371011624993488	0.05703765705285	0.0357269902582801	-0.245788444386873	-0.0872208207427588	-0.140710734863399	0.0142792975459106	0.57373046875	0.4140625	0.09228515625	0	0	0	-0.589173520731761	-0.418660125512437	-0.545858046234271	0.423836354193168	0.0535253853344314	0.0306179518304483	0.998096976325702	0.956035888722205	-0.290172888340309	-0.042368317731379	0.288323451352721	0.956484310325032	-0.0448034764510962	-136.600151077284	-86.464680875773	29.770710979259
20330	1649158896803	9.57092668254008	-0.371623660188835	-0.397888411826414	0.0447837756459417	0.0275379518693518	-0.226432961151264	-0.0861203792580011	-0.15636130052624	0.009684424956828	0.577880859375	0.40869140625	0.09375	0	0	0	-0.589806277488659	-0.418730498028401	-0.545549966071221	0.423283072630536	0.0540800090811535	0.0320956208019835	0.998020652964215	0.955783884450429	-0.290992420890679	-0.0424332087995973	0.28905452572591	0.956186844769116	-0.0464133498882826	-137.56501683199	-86.3944604505674	30.6884535799997
20331	1649158896805	9.57035685465523	-0.334570158429996	-0.44472114800213	0.0710993022922141	-0.0124234341759663	-0.226436160595259	-0.0781732227165421	-0.16991881813605	0.0127849319115593	0.57763671875	0.416748046875	0.09326171875	0	0	0	-0.590435415865148	-0.418896097880457	-0.545184023347932	0.422713211952073	0.0546008797333766	0.0337492042839539	0.997937741115417	0.955575162741387	-0.291679199243376	-0.0424187821667961	0.289646081078465	0.955920622195663	-0.0481758422546467	-138.636113114811	-86.3196943723548	31.7205152367376
20332	1649158896806	9.59020862473818	-0.32953749962898	-0.531682641439332	0.057586745167753	-0.0802298382568234	-0.202609085222779	-0.0739665432162455	-0.178793981173439	0.0107191252168369	0.577880859375	0.40478515625	0.088623046875	0	0	0	-0.591104648046887	-0.419043552280968	-0.544781197876886	0.42215073467772	0.0552318954631449	0.0354376171300457	0.997844483381901	0.95535674881939	-0.292382517005618	-0.0424964261403937	0.290246309552412	0.95564461963724	-0.0500044073017721	-139.640333118907	-86.2373713369799	32.6848429062558
20333	1649158896807	9.60752128900618	-0.35932440153429	-0.54604013269877	0.0313023640374735	-0.0674575849056558	-0.183243770238764	-0.0745668629767005	-0.176760162252437	0.0114703622975755	0.580810546875	0.41162109375	0.093994140625	0	0	0	-0.591752181018111	-0.419240676899576	-0.544361426925874	0.42158895617452	0.0558157834160237	0.0371796383349645	0.997748602011016	0.955166701372369	-0.293000013728928	-0.0425154624139963	0.29075964457105	0.955389274823686	-0.0518667778138115	-140.658351916125	-86.1545667105542	33.6681137918412
20334	1649158896808	9.58819155400847	-0.368645940551793	-0.535643974736814	0.0301680721447367	-0.0387884243892946	-0.202599415777309	-0.0761184645172935	-0.1829905866923	0.00940196466451415	0.578125	0.40869140625	0.091064453125	0	0	0	-0.592433483163484	-0.419394471275266	-0.5439522754306	0.421006849759473	0.056448399035227	0.0389113870771591	0.997646972732385	0.954941922671295	-0.29372301983869	-0.0425759549709923	0.291375192099827	0.955098262783768	-0.0537383090189555	-141.610808939175	-86.0686989182828	34.5795316824219
20335	1649158896809	9.58922273696144	-0.39108688232231	-0.580616300206454	0.00145545033747706	-0.0580217510823919	-0.19812241458731	-0.073088708172684	-0.191519799633519	0.0137633742863445	0.5869140625	0.414306640625	0.083984375	0	0	0	-0.593141252605653	-0.41953637361304	-0.543537057967397	0.420404748176282	0.0571133956635324	0.0406775403584218	0.997538669799908	0.954699780275465	-0.294498157852914	-0.0426516654214033	0.292038335801586	0.954785930317173	-0.0556546286539665	-142.534768830795	-85.9792072403945	35.4593880662819
20336	1649158896810	9.56988018726119	-0.400517569867351	-0.570890727821157	0.000324152104666693	-0.0293560161003001	-0.217477686333618	-0.0702212816134113	-0.183867453741422	0.0087564965996023	0.5849609375	0.407958984375	0.088134765625	0	0	0	-0.593810007694324	-0.419708926391114	-0.543113292611396	0.419835733660789	0.0577447369928527	0.0424179862905034	0.997429826999717	0.954491456948233	-0.29516474769825	-0.0427063265695867	0.292594606858134	0.954504314372275	-0.0575318162606299	-143.413206142935	-85.8912296292867	36.3001675460709
20337	1649158896811	9.53446922508757	-0.440343296225829	-0.559715925880521	-0.0294517278260988	0.00999826021936337	-0.251709789662437	-0.0722819606670939	-0.188555249862458	0.0112335546376173	0.58203125	0.408935546875	0.08447265625	0	0	0	-0.59450681130072	-0.419959327858701	-0.542565892659744	0.419306649582204	0.0585128301336059	0.0443343885050699	0.997301714981799	0.95434033502001	-0.29563219312123	-0.0428501031997241	0.292934760080894	0.954272533601493	-0.0596083714769636	-144.289134564337	-85.7900276473408	37.1507222399327
20338	1649158896812	9.54936120860755	-0.391447247630826	-0.595041020068662	0.0139372794743511	-0.0196631187695896	-0.236832685899067	-0.0680657842592167	-0.197397372483178	0.00911407872672933	0.58349609375	0.413818359375	0.081298828125	0	0	0	-0.595207595168747	-0.420164417309946	-0.542094814505627	0.418715885972984	0.0591901490254077	0.0462026837308931	0.997176934287197	0.954137525879229	-0.296277738520906	-0.0429078473708625	0.293458869294171	0.953983654824862	-0.061620437839938	-145.149543201623	-85.6937390160137	37.9749086914744
20339	1649158896813	9.58071142009203	-0.3689181185542	-0.586241114660103	0.0464620186552403	0.00370172409501143	-0.207084526585968	-0.0673126659871614	-0.202391756241328	0.00940203089770567	0.58642578125	0.406494140625	0.0888671875	0	0	0	-0.595897017217834	-0.420517933378521	-0.541494152453579	0.418157261609225	0.0598975011312743	0.0483113404389431	0.99703475553424	0.954030188308531	-0.296618344541064	-0.0429413259891629	0.293664245617708	0.953773333694495	-0.0638571748441075	-146.080789488785	-85.5865800236226	38.8884978445482
20340	1649158896814	9.5976258509498	-0.379426845843046	-0.618676787606115	0.0342329882578218	-0.00446191162258233	-0.187723809629151	-0.0731466388853882	-0.20238312087388	0.00676816995652499	0.580078125	0.398193359375	0.08349609375	0	0	0	-0.596615757169091	-0.420726334202364	-0.541021977581254	0.417533483424098	0.0605691429654194	0.0502343390652482	0.996899137375047	0.95381350269923	-0.297310283856758	-0.0429697240116839	0.294229809823989	0.953458497414382	-0.0659220199876145	-146.902622935452	-85.4867313932365	39.6713549082157
20341	1649158896815	9.67989846930581	-0.34362946037848	-0.59487340117002	0.08878781699591	0.0298630756932122	-0.108895142709283	-0.0681607916725027	-0.197832357999489	0.00203484593270704	0.583984375	0.40478515625	0.087890625	0	0	0	-0.597404813044794	-0.420811508119887	-0.540547640621174	0.416933342638442	0.0614518457054976	0.0520449713518993	0.996752221776489	0.953534309989935	-0.298168524860405	-0.0432186355012326	0.294950826971897	0.953093306943004	-0.0679496720304366	-147.542052258767	-85.380995088261	40.262024796549
20342	1649158896816	9.6765424725339	-0.283825618649136	-0.617457190313803	0.144563127700292	0.00850109239328918	-0.113394300337021	-0.0686265592147714	-0.18678148229555	0.00323101442292889	0.578857421875	0.4033203125	0.075927734375	0	0	0	-0.598063772585716	-0.421008428408072	-0.540118174093721	0.416345992107012	0.0620485224460606	0.0538277038720743	0.996620569303143	0.953331852064386	-0.298815836131586	-0.043214302221254	0.295479882059253	0.952791516740594	-0.0698567457401869	-148.258519595438	-85.2882549379296	40.9419601128123
20343	1649158896818	9.69346291264734	-0.293558838328723	-0.64839205743594	0.133935100467105	0.000627396484621789	-0.0940533691194858	-0.0796021564929077	-0.181368856891067	-0.00176635780177133	0.57861328125	0.40869140625	0.07666015625	0	0	0	-0.598773843961037	-0.421148157702601	-0.539686034648584	0.41574402828798	0.0627464265379861	0.0556025104182541	0.996479426175925	0.953087494640528	-0.299582264413178	-0.0432977413835337	0.296120099818563	0.952448858303826	-0.0717917738963426	-148.905749674195	-85.1908108992216	41.545637045852
20344	1649158896819	9.67583006298543	-0.304351508724209	-0.680321325921359	0.118011884983315	-0.0100425264337394	-0.108920092060377	-0.0903501002466033	-0.184240321071329	-0.000224731804034812	0.57861328125	0.40185546875	0.075439453125	0	0	0	-0.599463028999019	-0.421290397224851	-0.539315423435113	0.415087162068949	0.0633065505022639	0.0573702180698293	0.996343785418529	0.952821852364607	-0.300434098183347	-0.043241997007982	0.296854843854675	0.952075632881852	-0.0736830438611023	-149.592820491458	-85.0989867118777	42.1837757714922
20345	1649158896820	9.72618788998066	-0.329127935870471	-0.652347368896359	0.111664895197311	0.0456720177973206	-0.0598398618995013	-0.095109190497515	-0.170160187556613	0.00158339782707466	0.58154296875	0.402587890625	0.087158203125	0	0	0	-0.600128480055415	-0.421499532203255	-0.5388686109456	0.414493150626611	0.0639175289799941	0.0591930505611623	0.996198139053851	0.95262244385967	-0.301067144872126	-0.0432325540926799	0.297363462691572	0.951764023823033	-0.0756320964423716	-150.247002404438	-85.0022625830969	42.8023017335764
20346	1649158896821	9.70982475992632	-0.34241343306108	-0.724469708762995	0.0809395195299786	-0.00434230045618517	-0.0701922539058106	-0.100740212234639	-0.152157514669326	-0.000103175073725693	0.577880859375	0.39892578125	0.0791015625	0	0	0	-0.600752076455951	-0.421546613252734	-0.538614081515923	0.413872283055742	0.0643866480958162	0.0606551272631737	0.996079974240861	0.95232488567504	-0.302016372346756	-0.0431673830400643	0.298214137275562	0.951371150693142	-0.0772092090219724	-150.790605895847	-84.9251400313682	43.2906755678858
20347	1649158896822	9.63862849692091	-0.341861989063918	-0.698821558809208	0.0898593387596015	0.0289093680684194	-0.143175879004882	-0.110074805141906	-0.146766806823208	-0.000784333409042416	0.5849609375	0.406494140625	0.08349609375	0	0	0	-0.601471828394454	-0.421383639918618	-0.538454774366623	0.41319961715684	0.0650045679414521	0.0619221634656004	0.995961872673089	0.951879389963845	-0.303403808780755	-0.0432637929380943	0.299499637910974	0.950847923954757	-0.078665064686461	-151.190320542241	-84.8492094815327	43.6088504856889
20348	1649158896823	9.63834897480812	-0.37910218259768	-0.683295617279301	0.0628433958631239	0.0695797230579886	-0.143169683137497	-0.105885871775967	-0.154020840377366	-0.00353122020879348	0.59033203125	0.40771484375	0.08251953125	0	0	0	-0.602103213538959	-0.421429434155587	-0.538211447426109	0.412549863813882	0.0654513397735875	0.0634099144925415	0.995838995453528	0.951566151847396	-0.304399683788899	-0.0431589060051064	0.300396372781333	0.950431488984486	-0.0802620954532799	-151.731985603038	-84.7713757573675	44.0923938307312
