// Start Time : 05/04/2022 11:41:04																																
// Update Rate : 100Hz																																
// Filter Profile : 46.1 human																																
// Firmware Version : 4.4.0																																
PacketCounter	Time_Of_Arrival	Acc_X	Acc_Y	Acc_Z	FreeAcc_X	FreeAcc_Y	FreeAcc_Z	Gyr_X	Gyr_Y	Gyr_Z	Mag_X	Mag_Y	Mag_Z	VelInc_X	VelInc_Y	VelInc_Z	OriInc_q0	OriInc_q1	OriInc_q2	OriInc_q3	Mat[1][1]	Mat[2][1]	Mat[3][1]	Mat[1][2]	Mat[2][2]	Mat[3][2]	Mat[1][3]	Mat[2][3]	Mat[3][3]	Euler_X	Euler_Y	Euler_Z
20126	1649158896623	6.18480777567789	2.60295229487224	7.42134819049588	1.12757025938492E-15	-8.02309607639273E-16	0.192492132470146	0.00341803942343013	-0.00810620453647476	-0.01231896493935	0.580810546875	-0.304443359375	0.468505859375	0	0	0	0.298276696889396	-0.200352058311072	0.512219274347607	0.780077867786338	0.394980935434656	0.679621138408257	0.618146559378784	-0.918662539080329	0.297324854159126	0.26010972759537	-0.00701426643683573	-0.670606471283956	0.741780129646537	19.3235287040214	-38.1809123891079	59.8357828757503
20127	1649158896624	6.19599998283891	2.62684327331991	7.44435885956921	0	-4.33680868994202E-17	0.222709984766602	0.00764413868768897	-0.0113090818562871	-0.0166294067882794	0.569580078125	-0.2890625	0.474365234375	0	0	0	0.300162416282324	-0.197420944755385	0.517762623162367	0.776433745067454	0.385893673255832	0.68550004951078	0.617394327040539	-0.922533440720843	0.283648779815164	0.26167808555768	0.0042571930758229	-0.670546830452644	0.741854988846896	19.4295204289914	-38.126103109034	60.6232087858552
20128	1649158896624	6.20846043994705	2.58832846095605	7.40082217948701	0.0312672604083785	0.0264898191380037	0.188058339351548	0.00973646322223378	-0.00854364573893715	-0.0131829094017265	0.5732421875	-0.30322265625	0.468017578125	0	0	0	0.299236548377316	-0.198929320029772	0.514825213149969	0.778356996276652	0.390764251075163	0.682381766836282	0.617785095620686	-0.920489459223304	0.290824976040639	0.26099806277011	-0.00156701641823509	-0.670653381114533	0.741769227495445	19.3848721570803	-38.1545702144692	60.2024957187954
20129	1649158896626	6.18965397484131	2.60416913718465	7.39510936833246	0.0105737892148354	0.0209732582715218	0.176336809847159	0.00540268286569107	-0.00932809244395451	-0.0157335872633986	0.568603515625	-0.30078125	0.47021484375	0	0	0	0.29929723414166	-0.198928174546829	0.514755396299841	0.778380131418327	0.39090892670332	0.682273441170896	0.61781321003721	-0.920428050909757	0.290896095230693	0.26113533824054	-0.00155374454906543	-0.670732743536768	0.741697494013237	19.3960425916478	-38.1566187503856	60.1894252488294
20130	1649158896626	6.20080270398213	2.62822942579769	7.41808619956171	-0.00618599658091696	0.0190808427322144	0.206551348662765	0.00904161710725074	-0.00946919730389405	-0.0143334725022236	0.57568359375	-0.30078125	0.468505859375	0	0	0	0.299364780038078	-0.198924382039623	0.514699496893961	0.778392090530223	0.391027036254515	0.682174127017283	0.61784813453325	-0.920377942511293	0.290930312739713	0.261273795218448	-0.00151652783976952	-0.670818912641392	0.741619637405814	19.4074431117042	-38.1591635777956	60.1783600515368
20131	1649158896628	6.19023159743697	2.60699426354918	7.39363032704924	0.010407666392748	0.021037190662121	0.176336849874596	0.00545856959274782	-0.00733798257285571	-0.0123043289542142	0.56884765625	-0.297607421875	0.467529296875	0	0	0	0.299417146117728	-0.198920475572279	0.514646052975486	0.778408284363397	0.391140169109703	0.682089100101618	0.617870397115283	-0.92032990450255	0.290977625534937	0.26139029881841	-0.00149498734459119	-0.670884849255529	0.741560034017628	19.4168934792863	-38.1607858216146	60.1681265903848
20132	1649158896628	6.19089403192566	2.57755686513478	7.42208522437819	0.0388655036805772	-0.00703372348856007	0.190150094736648	0.00723385439322192	-0.00579666861726129	-0.0148047355400222	0.57373046875	-0.302490234375	0.47216796875	0	0	0	0.299475310338939	-0.19890262172393	0.51458687066297	0.778429597401098	0.391276199225279	0.682006452380128	0.617875501077436	-0.920272149852138	0.291029782077376	0.261535535158264	-0.00145124992489015	-0.670946245876573	0.741504571137487	19.4282184691132	-38.1611577454225	60.1565316724252
20133	1649158896629	6.17573080646356	2.59019005245169	7.39267761867157	0.0225857258509891	0.00521610671980242	0.162275314053039	0.00519828933653441	-0.00657370968712171	-0.0148217065392886	0.57421875	-0.310302734375	0.469482421875	0	0	0	0.299527195862454	-0.198892638329226	0.514524506976695	0.778453408418001	0.391412500277657	0.681919203868325	0.617885469987751	-0.920214220814077	0.291095981318328	0.261665659710749	-0.00142913887878665	-0.671006206421305	0.741450354714431	19.4384749167955	-38.1618841816499	60.144752617493
20134	1649158896629	6.17210919813757	2.59500454475418	7.41578713061944	0.0181441671123758	-0.012560113356845	0.178428285034776	0.014667431113099	-0.0108322038246441	-0.0163501481695969	0.576416015625	-0.296142578125	0.4697265625	0	0	0	0.299628063321533	-0.198873921330849	0.514459552879178	0.778462301936346	0.391561063731695	0.681798319787895	0.61792474016154	-0.920151151361979	0.291108784243087	0.261873126501625	-0.00133866221574097	-0.671123481090414	0.741344374169358	19.4553021711007	-38.1647458764573	60.1309777714321
20135	1649158896630	6.20568024633096	2.63267816987975	7.39064436528499	-0.0018028003941269	0.0368267827822416	0.190398466688006	0.0104403527381177	-0.00762952220073371	-0.012038897106779	0.574462890625	-0.298828125	0.46240234375	0	0	0	0.299700295756294	-0.19885872539622	0.514411643222817	0.77847003884169	0.391671737301184	0.681712066130634	0.617949762595128	-0.920104141390501	0.291120788080782	0.262024914356008	-0.00127247613768916	-0.671205889157065	0.741269880114761	19.4675403146371	-38.1665693690047	60.1208533388343
20136	1649158896631	6.19108967057911	2.61464941381596	7.3902079067288	0.0103402860126043	0.0209926962300789	0.176337013459186	0.00862992602294857	-0.00395545150387963	-0.0125095371880134	0.571044921875	-0.296142578125	0.46826171875	0	0	0	0.299756473215916	-0.198835242031943	0.514365923668563	0.77848461761286	0.39178448618937	0.681647616995357	0.617949385165065	-0.92005622060547	0.291147506667484	0.262163461005699	-0.0012113242797237	-0.671259752708188	0.741221206582509	19.4782418591465	-38.166541863711	60.1113891205351
20137	1649158896632	6.1833913214909	2.62232549193245	7.43749628018032	0.00151313709027718	-0.0145405254572084	0.208642700483484	0.010232838555653	-0.00487023872506331	-0.0111261250661208	0.5673828125	-0.302978515625	0.466064453125	0	0	0	0.299819889556503	-0.19881120570312	0.514325488280336	0.778493050976303	0.391886793184132	0.681582529659461	0.617956306376808	-0.92001274460548	0.291154651863042	0.262308060230721	-0.00113626200758976	-0.671322742026159	0.741164276626396	19.489559948918	-38.1670462500944	60.1025614133856
20138	1649158896632	6.216638803071	2.65953460450897	7.41275566609708	-0.0184794039105384	0.0348179256441684	0.220612941126955	0.00798753071471318	-0.0028854407097479	-0.0102286648165364	0.568115234375	-0.306640625	0.473388671875	0	0	0	0.299868504026443	-0.1987890562687	0.514289686792635	0.778503634840247	0.391978058333067	0.68153162721759	0.61795456377276	-0.919973934898083	0.291169996703354	0.262427117744921	-0.0010774477138194	-0.671367763689852	0.741123582801486	19.4987286197354	-38.1669192567208	60.0949465164365
20139	1649158896634	6.19160967757386	2.58789967498364	7.41788798710136	0.0387547820375338	-0.00709568613525173	0.190150480564659	0.00868433347329752	-0.00196193945349949	-0.00908027277171772	0.57470703125	-0.30615234375	0.4697265625	0	0	0	0.29991637765334	-0.198760747033417	0.51426003077375	0.778512011855052	0.392061572374601	0.681492015808757	0.617945269304712	-0.919938428888493	0.291173574327763	0.262547589338325	-0.00100524689848064	-0.671406420882398	0.741088663708035	19.5078538620595	-38.1662419202123	60.0882315899323
20140	1649158896634	6.22096574319184	2.62795485177901	7.41717086421752	0.0143311365975274	0.0244714731790843	0.218273748419374	0.00760689279374755	-0.00257923860651485	-0.00543039123932596	0.574951171875	-0.30126953125	0.477783203125	0	0	0	0.299958461028402	-0.198746884152822	0.514243001516554	0.77851058636878	0.392107622861579	0.681455622284047	0.617956185300627	-0.91991886030273	0.291158114097434	0.262633286265377	-0.000950027982498991	-0.671450063260617	0.741049195394034	19.5147010759402	-38.1670374265839	60.084000099016
20141	1649158896636	6.18773420959922	2.59314664957644	7.44106889827609	0.0342782764620416	-0.0249152972867635	0.206303337436434	0.00798885792243738	-0.00288782419593647	-0.0102294934142685	0.575927734375	-0.30224609375	0.466552734375	0	0	0	0.300007148016209	-0.198722241601245	0.514206789226902	0.778522035491043	0.392201697211873	0.681406446524129	0.617950712710557	-0.919878818324838	0.291174178104282	0.262755699467385	-0.000887863404418487	-0.67149300267438	0.741010363664315	19.5240548353813	-38.1666386089085	60.0762705765672
20142	1649158896637	6.19152927457157	2.59114770725564	7.41682115757218	0.0385801336201643	-0.00719960035401096	0.190151081440975	0.0073452634340438	-0.00181548206122981	-0.00794795958463317	0.57275390625	-0.30126953125	0.469970703125	0	0	0	0.300047415710927	-0.198704166810967	0.514181597911082	0.77852776879618	0.39226787692313	0.681367960870292	0.617951142594363	-0.919850647840787	0.2911776653896	0.26285043816807	-0.000835703957021872	-0.671530542177883	0.740976404834306	19.5313890422006	-38.166669936822	60.0706915516488
20143	1649158896638	6.19449095715048	2.61976466305722	7.36376273091228	0.0145344763175194	0.0386274571191501	0.160185003649703	0.00666263854681318	0.00447302460101932	-0.00863894518741984	0.572998046875	-0.3046875	0.463623046875	0	0	0	0.300070433677137	-0.198656665203791	0.514161298799211	0.778544425848668	0.392347376374436	0.681372842973364	0.617895286525551	-0.919816809695585	0.291191787299847	0.262953189010054	-0.000756870882833938	-0.671519464995257	0.740986528405848	19.5381991417511	-38.1625995215385	60.0658484042148
20144	1649158896639	6.20553555312713	2.61278455825346	7.41645066960046	0.0262286314465102	0.00852395471158166	0.204213079979029	0.0100787273340551	-0.00011561396365162	-0.00678431247704687	0.574951171875	-0.3046875	0.47314453125	0	0	0	0.300115674609167	-0.19862988309054	0.514146432394977	0.778543638759473	0.392399231197911	0.681346985941458	0.617890870707585	-0.919794751386488	0.291168055818804	0.263056607201884	-0.000677257083125216	-0.671555990234014	0.740953502794646	19.5461062330283	-38.1622777360657	60.0616335398176
20145	1649158896640	6.2006396789212	2.64787608402261	7.41123246781794	-0.00664492851789912	0.0188173416648939	0.206551553153888	0.00843758739078591	0.00601160770185282	-0.0111418460176195	0.5732421875	-0.296142578125	0.469482421875	0	0	0	0.300144130128698	-0.198568071335349	0.514120459546601	0.778565588291082	0.392501748243503	0.681354913994199	0.617817010774025	-0.919751078163325	0.291187308449758	0.263187966319106	-0.000576058326100581	-0.671539598663953	0.740968444390894	19.554761953015	-38.1568956926444	60.0554486523776
20146	1649158896641	6.20821417096559	2.611942039888	7.39272815841301	0.0304530178359618	0.0261726160945129	0.188061687099488	0.00511248880752527	0.00738201139079791	-0.00659384194981052	0.572265625	-0.301513671875	0.472412109375	0	0	0	0.300151329561465	-0.198526723679392	0.514112623171044	0.778578531712633	0.392550701362629	0.681377982435182	0.617760464834283	-0.919730222698586	0.291194780117346	0.263252573562389	-0.000514115277798266	-0.67151295228385	0.740992638695223	19.5586077842129	-38.1527755579421	60.0531969840369
20147	1649158896643	6.16984358157244	2.61079166896446	7.41213032821204	0.0175271287288751	-0.012920487512604	0.178428927005537	0.00575760320096023	0.0063076104887333	-0.00887585239321292	0.57470703125	-0.301513671875	0.46826171875	0	0	0	0.300166339207473	-0.198474047625729	0.51409325084818	0.77859896651498	0.392632363702821	0.681394490998428	0.61769035495961	-0.919695404212447	0.291216596478269	0.263350066273232	-0.00043639848614091	-0.671486739684862	0.741016442451687	19.5647203235918	-38.1476674307292	60.0486421127078
20148	1649158896644	6.22980593964346	2.5962398447143	7.37434824646487	0.0553111593561029	0.0493241034587498	0.183635119196754	0.0044172987154182	0.00645584616569288	-0.00774287422797313	0.56787109375	-0.308349609375	0.468505859375	0	0	0	0.300173365466265	-0.198439023382912	0.514079611622902	0.778614190454514	0.392688213824965	0.681407142288499	0.617640893368614	-0.919671580243249	0.291236207156604	0.263411571754016	-0.000388864814866163	-0.671465396040077	0.741035809326985	19.5684699792396	-38.1440639296002	60.0455768358642
20149	1649158896645	6.19839717102255	2.62088944517129	7.44133855126864	0.0213742061693927	-0.00949414167707156	0.220366075969393	0.00575847262867956	0.00630633433675958	-0.00887634578248166	0.580322265625	-0.2978515625	0.460205078125	0	0	0	0.30018838000882	-0.198386348915825	0.514060233188373	0.778634618884779	0.392769866436328	0.681423634111086	0.61757077561558	-0.91963674089871	0.291258026323992	0.263509064153495	-0.000311141104484769	-0.671439195293731	0.741059586143058	19.5745817341497	-38.1389558384039	60.041023047097
20150	1649158896646	6.21620096810675	2.63823286628563	7.41751697219866	0.0132544902376389	0.0238958939393698	0.218276616499928	0.00346077886377377	0.00629242035946849	-0.0114096711755526	0.574951171875	-0.299072265625	0.466064453125	0	0	0	0.300195190253688	-0.198354343981271	0.514032096783952	0.778658722065197	0.392853115399307	0.681421111106365	0.617520606182196	-0.919601191222778	0.291307702448892	0.263578207740314	-0.00028075381995335	-0.671420205111907	0.741076803944623	19.5789071351688	-38.1353012054077	60.0356773592588
20151	1649158896647	6.190006934921	2.59712809042648	7.39422721025935	0.0420337329281476	0.010045053543976	0.174003196963632	0.00640475852602037	0.00523080261093022	-0.0111585970503627	0.57470703125	-0.3095703125	0.4677734375	0	0	0	0.300217747032969	-0.198300777647492	0.514002853712894	0.778682972926626	0.392955735918802	0.681423715043421	0.617452435564826	-0.919557365844284	0.291340741482899	0.263694564361339	-0.000201320724018239	-0.671403226778527	0.741092211901696	19.5865163157514	-38.1303355548633	60.0292964165285
20152	1649158896648	6.20373173548623	2.61753463349701	7.39451277206223	0.0294304626286174	0.0256275262039368	0.188066160258362	9.53172093186865E-05	0.0128755992789472	-0.00983745097717804	0.576904296875	-0.302001953125	0.466552734375	0	0	0	0.300192778865591	-0.198257863354769	0.513988053662712	0.778713295011055	0.393020200620038	0.681467503863173	0.617363072335139	-0.919529819592863	0.291401152417944	0.263723869319807	-0.000181063804234938	-0.671332562555989	0.741156230269913	19.586964119203	-38.1238267140976	60.0268223298143
20153	1649158896649	6.17966906271053	2.63576698945066	7.41404339889905	0.00432281804324868	0.00234380459929575	0.192490924087165	0.00255580500305417	0.00812660591486069	-0.011646944785417	0.574951171875	-0.29248046875	0.468994140625	0	0	0	0.300193386121489	-0.198202180055808	0.51395743712005	0.778747442743171	0.39312729730023	0.681488112536919	0.617272128471944	-0.919484046807375	0.291463367515808	0.263814694554868	-0.000125634986382961	-0.671284632527226	0.741199653500079	19.5921356658753	-38.1172033423525	60.0208158275319
20154	1649158896649	6.17864535722598	2.63636937228378	7.41468239180975	0.00389603169021341	0.00207222732309903	0.192491159314693	-0.00328144875203058	0.0122459139529267	-0.00872088962215448	0.578369140625	-0.3056640625	0.470703125	0	0	0	0.30015741506233	-0.198173405717619	0.513942278801197	0.778778634471961	0.393181270653825	0.681528097775811	0.617193600379272	-0.919460966553007	0.291537720487465	0.263812980193135	-0.000139256794429554	-0.671211747122365	0.74126565489876	19.5904064152656	-38.1114846849148	60.0188662800995
20155	1649158896651	6.21137229427117	2.64206975790154	7.42019587344537	0.0124043921744181	0.0233958008193386	0.218278882623723	-0.000386163400731497	0.00918504055298855	-0.0118995157422396	0.566650390625	-0.29638671875	0.468994140625	0	0	0	0.300144125243767	-0.198120755250225	0.513909323250852	0.778818899293401	0.393290747629863	0.681555025387265	0.617094105625802	-0.919414148496118	0.291621423115009	0.263883627998282	-0.000106648498827577	-0.671148041008645	0.741323340841469	19.5938443918697	-38.1042398136277	60.0129413594609
20156	1649158896651	6.21480789386366	2.60865669783323	7.42608636737123	0.0448299941897428	0.0128379729352376	0.215947189187103	-0.00531691334440132	0.0114670724212242	-0.00873757075387781	0.574462890625	-0.300537109375	0.468017578125	0	0	0	0.300101467907222	-0.19810068278328	0.513891704966371	0.778852068115304	0.39334287009511	0.681590623007344	0.617021562973129	-0.919391845794085	0.291708849053374	0.263864702586952	-0.000142942950117242	-0.671073893108961	0.741390456881458	19.5909075536218	-38.0989579559551	60.0109498188522
20157	1649158896652	6.19441794608588	2.6233123508455	7.42202627047403	0.0241404368218744	0.00732335675595048	0.204219279832447	0.000580956605800599	0.0165575898907942	-0.00777844859008932	0.57275390625	-0.30029296875	0.475341796875	0	0	0	0.300068894860834	-0.198022994179354	0.513886839758632	0.778887583696214	0.393414419398259	0.681679075784905	0.616878215085092	-0.919361239866634	0.291757948519767	0.263917051564357	-7.23907254940315E-05	-0.670962694277838	0.741491104226482	19.5920411005933	-38.0885218649823	60.0096570397747
20158	1649158896653	6.15891500468004	2.64928042884298	7.3889098383875	-0.0133536005815211	0.0137757773561884	0.164613938635746	-0.00215965657317218	0.00764396110977552	-0.00939820649710857	0.579833984375	-0.307373046875	0.468994140625	0	0	0	0.300047708147093	-0.198012640040192	0.513864984125895	0.77891279698647	0.393467544947215	0.681685546461388	0.616837180152795	-0.919338501774246	0.291828301849943	0.263918474902504	-0.000101137016727482	-0.670925523426423	0.741524734439982	19.5913178175747	-38.085534691797	60.006543030614
20159	1649158896654	6.17356163134111	2.60715054035301	7.44794426268551	0.0313745505289524	-0.0265401898988073	0.206308678700344	-0.015651050897957	0.0195500968994937	-0.00402309967486991	0.57080078125	-0.303955078125	0.4619140625	0	0	0	0.29994050175414	-0.197970591844091	0.5138631736015	0.778965967798702	0.393504567162189	0.681805051380649	0.616681463589047	-0.919322645981773	0.291960668447338	0.26382729325234	-0.000167951097011176	-0.670746479671429	0.741686680344749	19.5811132733319	-38.074200280735	60.0085574007602
20160	1649158896655	6.16140855107397	2.58442273609067	7.42540069030574	0.0473522168538926	-0.0248536727737483	0.176101927250485	0.00144295603273707	0.0127192654719375	-0.0109722217190857	0.57861328125	-0.303466796875	0.464599609375	0	0	0	0.299918738295552	-0.197932722237185	0.513846998402701	0.778994640623102	0.393567799400625	0.681840651070382	0.616601746529206	-0.919295580353504	0.292020025303478	0.26385590909485	-0.000152372777627308	-0.670684449923862	0.741742775773963	19.5817072127596	-38.0683984568622	60.0058668083139
20161	1649158896656	6.19597631916991	2.68059470121004	7.44423344312307	-0.0264994821027865	0.0150918375842577	0.236759985195906	-0.00285147287487679	0.00671632667909762	-0.0105481041284352	0.57470703125	-0.304443359375	0.469482421875	0	0	0	0.299900760679273	-0.197898126798427	0.513813200636825	0.77903264373517	0.393664652522031	0.681854914628568	0.616524141256104	-0.919254109683973	0.29211105719067	0.263899625039662	-0.000152262383961377	-0.670630304760989	0.741791730307334	19.5835105290563	-38.0627507712368	60.0002814560646
20162	1649158896657	6.15927445472738	2.58532745038847	7.42685612306336	0.0467494047794491	-0.0251147759617025	0.176104113634965	-0.00370129445159976	0.0177589220931211	-0.00690034242807361	0.57421875	-0.300048828125	0.4697265625	0	0	0	0.299842053918416	-0.197858689513448	0.513814860092629	0.779064163746478	0.393692457064027	0.681936776898519	0.616415834939491	-0.919242200295792	0.292178064499957	0.263866928243028	-0.000162623003582163	-0.67051786772488	0.741893363372014	19.5787902767608	-38.0548695608741	60.0015076202047
20163	1649158896658	6.17302440764273	2.6053235995592	7.42727243657281	0.0345599734900301	-0.00930839338775273	0.190164038904699	0.00350822344051149	0.00107690692362712	-0.00843457486775868	0.5771484375	-0.296142578125	0.470947265625	0	0	0	0.29986123324873	-0.197832985406547	0.513787110930381	0.779081610180535	0.39376982905389	0.681919293384723	0.616385755056483	-0.919209065309865	0.292212090872726	0.263944668822759	-0.0001264082129383	-0.670520820897808	0.741890701359368	19.5841846674031	-38.0526808651052	59.9959960325946
20164	1649158896659	6.18700503972271	2.62559032847234	7.42740192038481	0.0218263757039935	0.00631502561366994	0.204225275794457	0.000315910657875655	0.0101034263130449	-0.0107530122516184	0.56689453125	-0.30908203125	0.47021484375	0	0	0	0.299840317080466	-0.197802612712875	0.513766947133667	0.779110669090084	0.393835300873825	0.681944223645016	0.616316340545033	-0.919181016105708	0.292278616572075	0.263968691184376	-0.000124163208946038	-0.670466469058603	0.741939821314092	19.5846334360526	-38.0476303223562	59.992777908233
20165	1649158896660	6.15319875405061	2.59023986987647	7.45192774744849	0.0417786732093745	-0.0430699641498507	0.192252625042567	-0.000563338477680164	-0.000478237218015311	-0.00846831694488347	0.57080078125	-0.296630859375	0.48193359375	0	0	0	0.299847748204175	-0.197793275855821	0.513732649473337	0.779132795348915	0.393913169782658	0.68191617374174	0.61629761208462	-0.919147647242921	0.292340185523983	0.264016701167951	-0.000131299590439893	-0.670468155781636	0.741938295846217	19.5879615417003	-38.0462677146693	59.9868512925131
20166	1649158896660	6.20903000602429	2.6093940168256	7.40892932336488	0.046292820987945	0.0297484132867303	0.199814642073985	0.00373136684514949	0.00552323340792266	-0.00889259497309439	0.57275390625	-0.3037109375	0.465087890625	0	0	0	0.299835382884907	-0.197768315257695	0.513724938114742	0.779148974593049	0.393948762878276	0.681940640454369	0.616247787114373	-0.919132394565545	0.292370862258531	0.264035831209347	-0.00011613304573721	-0.670429893276611	0.741972873300789	19.588429388239	-38.042642773081	59.9854994040946
20167	1649158896662	6.18087294627135	2.66151604620197	7.42284909815248	-0.0116901980312887	0.0167613228886276	0.206550587249509	0.00234401217057274	0.00367097972516424	-0.0111912295876894	0.57666015625	-0.29931640625	0.46875	0	0	0	0.299846025642269	-0.197731006888534	0.513689345147212	0.779177814432374	0.39405141119415	0.681932969374462	0.616190644700184	-0.919088395621547	0.292431235177528	0.264122118964614	-7.98104714985204E-05	-0.670411364740094	0.741989619642764	19.5939348863677	-38.0384856826542	59.9787542280788
20168	1649158896662	6.18477857266803	2.62843906036241	7.4282485990894	0.0204584280456554	0.006250779152462	0.204228203378046	0.00238952236304402	0.00567070253218745	-0.00776065703018922	0.580078125	-0.298583984375	0.476806640625	0	0	0	0.2998380758749	-0.197725451113843	0.513677709597048	0.77918995431191	0.394079713289917	0.681933784516997	0.616171642570203	-0.919076259770883	0.292464677837538	0.264127319569465	-9.10983085858352E-05	-0.670395946998272	0.74200354847493	19.5939515011386	-38.0371033367003	59.9770012443701
20169	1649158896663	6.16490508648162	2.64318273495078	7.42368824186798	-0.000228141475504002	0.000739862000670487	0.192492102513443	-0.00280323231039354	0.00871051641853587	-0.00712021152722533	0.569091796875	-0.300537109375	0.46728515625	0	0	0	0.299811713751769	-0.197687953227514	0.513660388986832	0.779221030409113	0.394144955869226	0.681971627082889	0.616088024243908	-0.919048283263771	0.292531882166248	0.26415024313104	-8.24182097392545E-05	-0.670328126942461	0.742064818891887	19.5940278026327	-38.0310206730918	59.9742695458822
20170	1649158896664	6.18326653498852	2.62913248716462	7.42926190518903	0.0198576461458696	0.00611744941449552	0.204229494704629	-0.00120205758815594	0.00780140650464479	-0.00573368467588284	0.5771484375	-0.305419921875	0.468017578125	0	0	0	0.299782731163225	-0.197678607570855	0.513656581529786	0.779237061783062	0.394160168719965	0.681999224973336	0.61604774046369	-0.919041756453873	0.292574460694903	0.26412579359704	-0.000106248899829353	-0.670281464822693	0.742106964410331	19.5913243506134	-38.0280904827763	59.9743159798283
20171	1649158896665	6.1826355759131	2.6291694286259	7.42977392392604	0.0198596567085608	0.00612094748748812	0.20422948858174	-0.00432235039136303	0.00641173037744789	-0.00209948878089435	0.580810546875	-0.3076171875	0.459228515625	0	0	0	0.299751442626285	-0.197661368946224	0.513653856786683	0.779255267083856	0.394179397268942	0.682036385731684	0.615994294865428	-0.919033507704152	0.292617576103254	0.264106731971107	-0.000120356535974531	-0.670224829958961	0.742158111739531	19.5887708067704	-38.0242030996389	59.9744575701689
20172	1649158896665	6.17823170255361	2.6318622624724	7.45422446863175	0.0143889380907512	-0.0120272134547529	0.220375808794946	-0.00904340803916668	0.00593032411817898	0.00014766879221065	0.5751953125	-0.308837890625	0.46630859375	0	0	0	0.299687455249478	-0.197714318421068	0.513661532275197	0.779261386004774	0.394121757103978	0.682048193248223	0.616018102545784	-0.919058197064202	0.292678518853577	0.26395324398608	-0.000266432677378192	-0.670186202997727	0.742192954914769	19.5774033004127	-38.0259347336111	59.9785171578827
20173	1649158896667	6.17773729106292	2.63168910311268	7.45469534949972	0.014382446410049	-0.0120290133023317	0.220375815945163	-0.000987515815188913	0.00504060448013825	-0.00664549990969037	0.568359375	-0.293701171875	0.4658203125	0	0	0	0.299677119787551	-0.197687577583094	0.513642236049359	0.77928486376381	0.394182550031085	0.682062352150368	0.615963525730297	-0.919032127621887	0.292730554444104	0.263986308155622	-0.000256222128259764	-0.670149065711469	0.742226491090331	19.5788517721575	-38.0219651900379	59.9752040512574
20174	1649158896667	6.18109414032496	2.6283631806879	7.43134156117416	0.0181815543321927	0.00564664563905799	0.204232953641236	-0.00995024845839942	0.00776345708749629	-9.04293386217547E-05	0.571533203125	-0.30517578125	0.466796875	0	0	0	0.299606261438936	-0.197709454805896	0.513652722245106	0.779299647450921	0.394143704821093	0.682108789504585	0.615936960435475	-0.919048751926685	0.29279393807355	0.263858108477614	-0.000362673276320558	-0.670074107176192	0.742294119173878	19.5684187774578	-38.0200330903376	59.9793400631163
20175	1649158896668	6.16598297284282	2.6083973034922	7.43204108528613	0.0303653043835516	-0.0101613448385968	0.190176821917365	-0.00709486700504185	0.00270682403379521	-0.00669785232683371	0.577880859375	-0.303955078125	0.475341796875	0	0	0	0.299578137342254	-0.197707502102981	0.513623696710764	0.779330085019124	0.394204883578738	0.682107108013671	0.615899669556576	-0.919022488888074	0.29288727560743	0.26384599429445	-0.00041794813476298	-0.670035026684787	0.742329366477491	19.5667300699009	-38.0173210025008	59.9754264577199
20176	1649158896669	6.15719075338336	2.64497743729284	7.45119898969075	-0.00777997949009974	-0.0176395937533162	0.208634818947532	-0.0074424349676935	0.00501997281282822	0.0015339316790569	0.57177734375	-0.3076171875	0.4677734375	0	0	0	0.299513194056829	-0.197741816332175	0.513643336615813	0.779333396826868	0.394137393647655	0.682146246548078	0.615899515545355	-0.919051378581072	0.292924738672102	0.263703737178888	-0.000527690122118452	-0.669978802496205	0.742380041319058	19.5557473927805	-38.017309801794	59.9811003887624
20177	1649158896670	6.16140814065134	2.61050823772523	7.4568268668623	0.0250850131361685	-0.0279325619567404	0.206322615126895	-0.00882868920343791	0.00316783668462879	-0.000765464950413446	0.570556640625	-0.30224609375	0.466064453125	0	0	0	0.299471144634067	-0.197751420620824	0.513636514589667	0.779351615161082	0.39414381304525	0.682165205929668	0.615874408022516	-0.919048583074992	0.292989128823482	0.263641939643726	-0.00059714822243484	-0.669931341415067	0.742422818348015	19.5504711168758	-38.0154838408417	59.9813859645852
20178	1649158896671	6.19034480824499	2.64877618724417	7.45709422350355	-0.000115401226421629	0.00377480043646167	0.23443282200893	-0.0117273621878001	0.0062225667231927	0.00241041620846148	0.572021484375	-0.293701171875	0.47998046875	0	0	0	0.299382809125549	-0.197789500894309	0.513658625633058	0.779361317521491	0.394068259297477	0.682221773672758	0.615860096565001	-0.919080879245873	0.293049499825707	0.263462194738708	-0.000737847470626218	-0.669847327514785	0.74249849387215	19.5363113790793	-38.0144430511266	59.9882015563554
20179	1649158896672	6.20605761362409	2.60459264670428	7.39140728040383	0.0460334154508454	0.0467980756080948	0.183694293598803	-0.0144911187432609	0.00972390551920307	-0.00173374169041414	0.567626953125	-0.303466796875	0.46826171875	0	0	0	0.299302604965987	-0.197786818398029	0.513652394896902	0.779396909376241	0.394083183369325	0.682281958203771	0.615783869628888	-0.91907439810163	0.293158335754503	0.263363704659124	-0.000833870270246007	-0.669738396455869	0.74259665025712	19.5271747799584	-38.0088997549241	59.9894508486698
20180	1649158896672	6.14523373448133	2.58822889103748	7.45919555320734	0.0361953400715823	-0.0434233308765684	0.192272854580722	-0.0126767609464344	0.00605527687748274	-0.00125941407080373	0.5830078125	-0.30322265625	0.474853515625	0	0	0	0.29922552780217	-0.19779522668817	0.513656726310446	0.779421515822423	0.394067631630823	0.682339446261507	0.615730120894223	-0.919080970671578	0.293241702055097	0.263247931663708	-0.000933300736711107	-0.669643326145621	0.742682263621776	19.5171597841404	-38.0049913471358	59.9925208453405
20181	1649158896674	6.17844809434236	2.59274592190294	7.46478724966089	0.0446730382449261	-0.0220956062482339	0.218071181164575	-0.00791185221051023	0.00853687639970143	-7.33741642137218E-05	0.57861328125	-0.2998046875	0.466064453125	0	0	0	0.299172391135518	-0.19778218418552	0.51366182885091	0.779441860296584	0.394067466400687	0.682397124952222	0.615666302294907	-0.919081000819373	0.293294811927591	0.263188653306367	-0.000972552005428118	-0.669561287077814	0.742756176002123	19.5113018780577	-38.0003509668191	59.9946286241099
20182	1649158896675	6.16717624075225	2.56937181236612	7.44175165344651	0.0605174891647971	-0.0204274678579141	0.187878731694873	-0.0156613056346627	0.00511026488792475	-0.00494786158736122	0.577880859375	-0.30419921875	0.47998046875	0	0	0	0.299093160468627	-0.197835823734783	0.51363638922878	0.779475418386038	0.394077293014402	0.682391195235294	0.615666584927093	-0.919076562334296	0.293441882041819	0.263040176458899	-0.00116606098257427	-0.669502889111842	0.742808536416137	19.4998545514955	-38.0003715169335	59.9937942813782
20183	1649158896676	6.15835155070032	2.60584478197603	7.46098180979487	0.0232045154167453	-0.0279046486407069	0.206327224710535	-0.00250620207850559	0.00274125381942612	-0.00162472177581165	0.57275390625	-0.296142578125	0.46435546875	0	0	0	0.299077768238311	-0.197829289638453	0.513631828067199	0.77948598826604	0.394091834714986	0.682404941337228	0.615642040352599	-0.919070311086184	0.293469667483879	0.263031020122815	-0.00117859701459311	-0.66947669885175	0.742832121413473	19.4986545841509	-37.9985869086202	59.9933785113534
20184	1649158896677	6.15579593517672	2.54615118944775	7.41875175271511	0.0765638881983246	-0.018368900760371	0.1576881363182	-0.00709094445800754	0.00270547248590953	-0.0067000042352185	0.57177734375	-0.304931640625	0.47119140625	0	0	0	0.299031641547514	-0.197846742781205	0.513612556064441	0.77951195371028	0.394117617247639	0.682409381518461	0.615620613519914	-0.919059126593231	0.293564439212701	0.262964335710032	-0.00127499048245672	-0.669430620785548	0.742873487448533	19.4930803725938	-37.9970290232971	59.9919166535691
20185	1649158896678	6.19986203698834	2.57400664727484	7.44774937041854	0.068417336068581	0.000986868559221948	0.213682282750231	-0.005055204891904	0.00348377730296667	-0.00668155118125304	0.576904296875	-0.307373046875	0.458740234375	0	0	0	0.29900954300377	-0.197836066937167	0.513586807497507	0.779540104790015	0.394178963566703	0.68241328354166	0.615577009908078	-0.919032771399843	0.293643768714391	0.262967872920502	-0.00130758349769799	-0.669391849024993	0.742908367623018	19.4924765857467	-37.9938588283157	59.9881963054184
20186	1649158896679	6.14270657488746	2.58632778361285	7.46193601972261	0.0334671269301567	-0.0436582365109942	0.192281330278361	-0.00189899130241845	-0.000329817219592313	-0.00733871948958648	0.573974609375	-0.30419921875	0.461669921875	0	0	0	0.298975913092346	-0.197887094956505	0.513572023553646	0.779549791651108	0.394168948545377	0.682382978110541	0.615617016648843	-0.919036877725792	0.293714360027223	0.262874669935746	-0.00143435792630286	-0.669391773103605	0.742908202080547	19.4860925577875	-37.9967675080638	59.9877247410374
20187	1649158896680	6.1650436526763	2.59998647871087	7.41405173557617	0.0301269329780029	0.00768966700585988	0.174048305635775	-0.00189882506382886	-0.000330077993317213	-0.00733882812311649	0.579833984375	-0.295166015625	0.478515625	0	0	0	0.298976360368738	-0.197882762847584	0.51354116883776	0.779571046163989	0.394235760153108	0.682359116046499	0.615600684019066	-0.919008188910023	0.293777207698819	0.26290473741073	-0.00145400578458155	-0.669388518713105	0.742911096216939	19.4880832110022	-37.9955800345039	59.9826507422394
20188	1649158896681	6.14242015638266	2.58722708650759	7.4618600439428	0.0327682618680871	-0.0437082187183033	0.192283425378688	0.00303634144731316	-0.00260386449765564	-0.0104965316462375	0.57275390625	-0.30322265625	0.46728515625	0	0	0	0.298988792889933	-0.197898853839837	0.513505025310192	0.779586001898622	0.394297265260115	0.682303580425098	0.615622847811455	-0.918981738120595	0.293836581414799	0.262930843423349	-0.00149385716981931	-0.669419067222884	0.742883490750199	19.4905421413748	-37.9971914708663	59.976758741332
20189	1649158896682	6.16953281791955	2.56714709902431	7.4188652300209	0.0623119950030807	-0.00265695885889469	0.171753076497668	-0.00549803209292587	-0.00540863588323422	-0.00577031126749917	0.580322265625	-0.30859375	0.4609375	0	0	0	0.298986952381775	-0.197925813130901	0.513468903746518	0.779603655511747	0.394350114763642	0.682249997373405	0.615648380221935	-0.918958940036175	0.293912974381614	0.262925141471374	-0.00156636952600514	-0.669440142637221	0.74286434960386	19.4906156682843	-37.9990478692053	59.9714823886595
20190	1649158896683	6.15824199970012	2.57701005211408	7.48992491971078	0.0475032920770991	-0.0561084137364055	0.220183396691661	0.00847883456075062	-0.0136034928687989	-0.00907427879511227	0.568603515625	-0.304931640625	0.461669921875	0	0	0	0.299028561376406	-0.198009191679587	0.513434076867893	0.779589461320744	0.394355617442422	0.682114783363805	0.615794664890948	-0.918956398272813	0.293934736383943	0.262909697083166	-0.00166885142123174	-0.669568363248632	0.742748558983108	19.4923663387805	-38.0096847712994	59.9662153979158
20191	1649158896685	6.14811132434556	2.55529471274482	7.46537993090543	0.0641251590771096	-0.0541537369392676	0.18999511367001	0.000780440457557111	-0.00783041471036811	-0.0100601986395656	0.56640625	-0.295166015625	0.466796875	0	0	0	0.29906152917892	-0.198023789667639	0.513383741652809	0.779606255937826	0.394447425064457	0.682031758674979	0.615827824167385	-0.918916948082215	0.293998671143456	0.262976089964755	-0.0016945168302453	-0.669624866268121	0.742697560981665	19.498155303848	-38.012096120125	59.9574135370638
20192	1649158896686	6.12495236551924	2.60444071751805	7.45445059275884	0.00982873607577716	-0.0489267271774446	0.180535133677754	0.00683892880887333	-0.0146980106383782	-0.0138955281503645	0.56884765625	-0.304443359375	0.4619140625	0	0	0	0.299104064473902	-0.198058848957993	0.513334049030102	0.779613753772333	0.394521692911591	0.681924156350301	0.615899406403434	-0.918884983263734	0.294049825443105	0.263030583182426	-0.00173820441243872	-0.669711986709817	0.742618901929254	19.5038005348072	-38.0173018642783	59.9488201218206
20193	1649158896687	6.13046678008351	2.57213528180601	7.45825506775653	0.0426850330248058	-0.0592290079153447	0.178245569670766	0.013198314497454	-0.020327841121527	-0.0117801319568849	0.5732421875	-0.302490234375	0.478759765625	0	0	0	0.299219083205956	-0.198087721904933	0.513270735497596	0.779603967895019	0.394628813024542	0.681752550911141	0.616020745800817	-0.918839057082143	0.294042184654288	0.26319950764417	-0.00169915015266625	-0.669890030504923	0.742458389351802	19.5192801871396	-38.0261269913295	59.9358255009021
20194	1649158896688	6.14196352062237	2.62714906229798	7.45123511205297	-0.00343267620870119	-0.0323114407336549	0.194583806921948	0.0102537094264834	-0.0264843751551827	-0.012493917053806	0.576171875	-0.30224609375	0.46630859375	0	0	0	0.299283008080015	-0.198161663391005	0.513225953390279	0.779590121155551	0.394662151857499	0.681598928955803	0.616169364653511	-0.918824603779001	0.294057603682434	0.26323273581929	-0.00177013603200527	-0.670039570296298	0.742323272473376	19.5248426639129	-38.0369376270853	59.9281279852032
20195	1649158896689	6.18601458389738	2.59708439282578	7.43527570515575	0.0423318647291581	-0.00351410073451133	0.201959076622861	0.011380736411771	-0.0310835024850548	-0.0131724883317814	0.581787109375	-0.304931640625	0.4560546875	0	0	0	0.299419618411763	-0.198234843294514	0.513139647846982	0.779575872395772	0.39478129742295	0.681351774992022	0.616366356901699	-0.918773379532658	0.29407118783526	0.263396305113221	-0.00179004670054089	-0.670284935829815	0.742101678028308	19.5414482943975	-38.0512694362379	59.911614772404
20196	1649158896690	6.18790764806134	2.59845758132967	7.43322039448559	0.0408460511047062	-0.0038985370489199	0.201965104651794	0.00415449011625647	-0.0288335596041532	-0.0125498149686246	0.56884765625	-0.310302734375	0.473876953125	0	0	0	0.299494333931898	-0.198393706023692	0.513050673442983	0.779565319798524	0.394837887779773	0.681077442947162	0.616633245196983	-0.918748606314547	0.294164300844781	0.263378743454323	-0.00201016633251189	-0.67052284138354	0.741886162705748	19.5454902792794	-38.0706908813352	59.8980415714329
20197	1649158896691	6.17054359657359	2.61371980277595	7.42638393202871	0.0201395048709025	-0.00942625427845648	0.190203356817735	0.00350713470305708	-0.0277631672843354	-0.01026870323235	0.580322265625	-0.3017578125	0.463623046875	0	0	0	0.299588964083524	-0.198479478332388	0.512972427465689	0.779558617385648	0.394930370681723	0.680859630013347	0.616814531712155	-0.918708675235101	0.29421148251864	0.263465317645323	-0.0020910191207304	-0.670723316854478	0.741704698560529	19.5558483371945	-38.0838860313551	59.8842653944279
20198	1649158896692	6.18077126112297	2.57766572494318	7.4058522337771	0.0560294107524525	-0.00128942839437039	0.171790579112612	0.00121588955195189	-0.0277883349239061	-0.0128065205042243	0.57568359375	-0.298828125	0.461181640625	0	0	0	0.299616054233359	-0.198602588041783	0.512915711183278	0.779554170850295	0.394948970488916	0.680682116315915	0.616998514777332	-0.918700211474364	0.29429538653397	0.263401114086066	-0.00228738862120681	-0.670866664839228	0.741574464137478	19.5546173879325	-38.0972798881168	59.8766093785287
20199	1649158896693	6.12126217672138	2.62425216072164	7.41299787143356	-0.0104708011451088	-0.0356099828011	0.152637976048425	0.00199680373864929	-0.0300700399921951	-0.00525027000032147	0.576171875	-0.302734375	0.46923828125	0	0	0	0.299705329709002	-0.19870891489006	0.512852391392009	0.779534416899428	0.394994383573424	0.680463938052007	0.617210066311467	-0.918680421464981	0.294318279975032	0.263444554488158	-0.00239168609469786	-0.671077923257272	0.741382964974467	19.5622658704648	-38.112683747683	59.8657753213835
20200	1649158896694	6.21048536597831	2.6207812756704	7.42543356957096	0.026277981473875	0.0126807542889808	0.21601316046811	-0.00682884657203993	-0.0413390778780759	-0.00692605023626647	0.570556640625	-0.303466796875	0.46533203125	0	0	0	0.299763325235957	-0.19890919986019	0.512764170037331	0.779519072877879	0.395016072273811	0.680167534524763	0.617522815468285	-0.918670267205219	0.294429709538817	0.263355437183246	-0.00269124477930016	-0.671329480299647	0.741154158108922	19.5617296178652	-38.1354621387893	59.8535695407829
20201	1649158896695	6.18520449314797	2.51995867240378	7.48186317162411	0.107508896758268	-0.0750786114968066	0.215673784546796	-0.00998903470448999	-0.0303148265785066	-0.00580642564164149	0.576416015625	-0.29931640625	0.46630859375	0	0	0	0.299807159314522	-0.199046560833306	0.512686211063129	0.779518430077136	0.395066631212332	0.679945532790733	0.617734918343188	-0.918647868689768	0.29453703241898	0.263313558111935	-0.00290693210893989	-0.671507266507032	0.740992267688379	19.562803761045	-38.1509142276886	59.8422608285365
20202	1649158896696	6.17151838273132	2.56216228349905	7.42190909283626	0.0619559296369819	-0.0342421132600779	0.173905505022047	0.00603556663267309	-0.0377413943774508	-0.00912249583055867	0.57861328125	-0.30224609375	0.46533203125	0	0	0	0.29989347268559	-0.199185839309885	0.512620630543236	0.77949278098033	0.395090181119744	0.679699095659204	0.617991009758903	-0.918637227900946	0.294567988364065	0.263316052958445	-0.00306468550335076	-0.671743135127713	0.740777812917988	19.5682083263875	-38.1695753271187	59.8317541216822
20203	1649158896698	6.23686797362826	2.6070259713824	7.42417686752633	0.0459462543638614	0.0186877997188835	0.227783132140196	-0.00703767289687176	-0.0313794371764507	-0.00555756191104043	0.57568359375	-0.30224609375	0.4697265625	0	0	0	0.299951175786503	-0.199320131954738	0.512545053457215	0.779485949404081	0.395138106348173	0.679470719337436	0.618211467440267	-0.918615951088414	0.29465372064167	0.263294358689944	-0.00325750172807576	-0.671936549441306	0.74060155428368	19.5710215222073	-38.1856436630188	59.8203678604116
20204	1649158896699	6.12659267036422	2.56880735444104	7.38454115734963	0.0362048192982917	-0.0429010851194154	0.120197684454315	0.00373549991171651	-0.0233394821111538	-0.0107410099454661	0.576171875	-0.30224609375	0.46240234375	0	0	0	0.299993278393643	-0.199414579618724	0.512492545449983	0.779480114699739	0.395170432587369	0.679309429221606	0.618368036511694	-0.918601563218851	0.294710847553663	0.263280619085579	-0.0033907610643204	-0.672074561120132	0.740475716708243	19.5731508521888	-38.1970575497514	59.8124191595849
20205	1649158896700	6.15043968050058	2.61431099262479	7.42997022069988	0.00283104678566312	-0.0468278052000099	0.180549622012711	-0.0140305222127047	-0.0463362664491075	-0.00676262792810229	0.57177734375	-0.306884765625	0.474609375	0	0	0	0.300063211302426	-0.199623254571932	0.512382858820994	0.779471892657722	0.395228724441071	0.678976883826157	0.618695924187646	-0.91857526309614	0.294851750418602	0.263214610732277	-0.00370694005106592	-0.672348746191147	0.740225250913971	19.5747344861509	-38.2209663632906	59.7965495747958
20206	1649158896701	6.17917646898964	2.65544536633018	7.3261144847286	-0.0256802899374253	0.0513614643211933	0.132274471977016	0.00541862244323335	-0.0511295870896974	-0.00778035669697888	0.56494140625	-0.30419921875	0.46875	0	0	0	0.30015491562282	-0.199813199567839	0.512324739561338	0.779426117819597	0.39519609302374	0.678688737525239	0.619032830805579	-0.91858839375168	0.29486077572173	0.263158670397705	-0.00392567490751289	-0.672635652115748	0.739963423811842	19.5772889276227	-38.2455410041583	59.7880316607246
20207	1649158896702	6.18211364579798	2.53554706832715	7.46315492329945	0.0835171380323636	-0.0786465882920155	0.20395115711454	-0.0109288335421451	-0.0486151098321055	0.00332221209620694	0.57421875	-0.304443359375	0.462158203125	0	0	0	0.300232230129383	-0.200037757691787	0.512254452153679	0.779384936817432	0.395160543492752	0.678371243448715	0.619403423407037	-0.91860237185626	0.294911968480542	0.263052491466979	-0.00422223715181896	-0.672933419372805	0.739691006978358	19.5766496214661	-38.2725823671118	59.7786139596255
20208	1649158896703	6.20632169836947	2.64276755855653	7.44881924754869	-0.00789735963998899	-0.0252244992607093	0.236534247405471	0.0220394533447026	-0.0653180853730772	-0.00312443133596418	0.58154296875	-0.302978515625	0.463623046875	0	0	0	0.300414338576579	-0.200240531688547	0.51221619701324	0.779287830114123	0.395076593972764	0.678017443672638	0.619844198948818	-0.918637951206387	0.29477158538978	0.263085588830191	-0.004335838813045	-0.673351363347857	0.73930990929337	19.5882498878051	-38.3047579481916	59.7709078758668
20209	1649158896704	6.22200668520208	2.48242164874615	7.41789581675071	0.144684891162914	-0.0466672561128421	0.181203240453247	-0.00624277132216488	-0.0501594933298111	-0.00237397567048169	0.57568359375	-0.30517578125	0.4677734375	0	0	0	0.300518878424151	-0.20045037140844	0.51212669287695	0.779252399903797	0.395091798090273	0.677673667367578	0.62021034467217	-0.918630150549054	0.294829308307216	0.263048142866114	-0.00459538725436615	-0.673672086047555	0.739016104625817	19.5928676459329	-38.3314965832152	59.7573066735301
20210	1649158896705	6.17644903195231	2.67265608581846	7.43143726772196	-0.0506139921251179	-0.0357795663495502	0.212981046848967	0.0202950339747695	-0.0668970601468118	-0.000641529173026037	0.579345703125	-0.302001953125	0.45947265625	0	0	0	0.300718202615187	-0.200696755307242	0.512071623880049	0.779148270255339	0.395006928851989	0.677253104932577	0.62072357617389	-0.918665775039353	0.294702429265483	0.263065908008562	-0.00476654280009714	-0.674150361599107	0.738578750050073	19.604808435048	-38.3689931128764	59.7471850264225
20211	1649158896706	6.2508585993708	2.58996735012683	7.39943298906812	0.0530955348610017	0.006026730852694	0.213773364579755	-0.0142517109282252	-0.0565307603243876	0.00397919449887033	0.57861328125	-0.301025390625	0.470458984375	0	0	0	0.300801299281291	-0.200961625317033	0.511989247108287	0.779102056438124	0.394962871990852	0.676884714590459	0.621153292595741	-0.918682786594633	0.294771178392355	0.262929439211175	-0.00512516960285198	-0.674490204186077	0.738266007001247	19.6030813688575	-38.400403006305	59.736398010835
20212	1649158896707	6.19490484294315	2.60443189906505	7.43420215761792	0.0142809595074817	-0.0559945514580446	0.208486750952144	0.0027458422304331	-0.063812446497597	0.00428026190061631	0.57666015625	-0.305419921875	0.4677734375	0	0	0	0.300936575138561	-0.201231828638196	0.511927196501489	0.779020843346907	0.394872593250106	0.676487878063118	0.621642812178822	-0.918719947340113	0.294735446451997	0.262839637353504	-0.00541234323704831	-0.674903820879983	0.737885857773601	19.6062225775578	-38.4362008178775	59.7274725106392
20213	1649158896709	6.24188496359095	2.57212097674527	7.41619487790037	0.0599939405765288	-0.0271800592665946	0.215898758064966	-0.00983228421601823	-0.0609805141996615	0.00947892423894065	0.583251953125	-0.294921875	0.464599609375	0	0	0	0.301042783448249	-0.201510931101044	0.511863804701076	0.77894931325309	0.394777580167458	0.676105095114221	0.622119411815543	-0.918758741489847	0.294737375941339	0.262701835089151	-0.00574779376105183	-0.675286442618097	0.737533174361043	19.6053833020371	-38.4710708754708	59.7193559574498
20214	1649158896710	6.22710471645425	2.58528203559001	7.40800519715807	0.0389303659835864	-0.0321979824779743	0.204123646497656	-0.00443340909813856	-0.0523417799313205	0.00882365544790211	0.576171875	-0.31201171875	0.457275390625	0	0	0	0.301121430828246	-0.201741219665589	0.511827671769442	0.778883045517659	0.394665829397826	0.675810582090515	0.622510192880571	-0.918805000981467	0.294716636614044	0.262563276705546	-0.00602106943775366	-0.675590231751011	0.737252728367581	19.6027166121639	-38.4996746673966	59.7155489941176
20215	1649158896711	6.22513041174164	2.52805494579909	7.38609513693803	0.0884338727571376	-0.0405311776190112	0.171712758159007	0.000351755987441031	-0.0570934695470638	0.00951729748275265	0.578857421875	-0.301025390625	0.46484375	0	0	0	0.30125749838475	-0.201978780756762	0.511780344188267	0.778799955761114	0.394570902853103	0.675453774391292	0.622957463461387	-0.918844263261628	0.294649597939003	0.262501112960651	-0.00624679861081184	-0.675976192698339	0.736896983581949	19.6071691488451	-38.5324272390555	59.7083737193152
20216	1649158896711	6.24748352788087	2.57619917525211	7.45385202620706	0.0487488342623187	-0.0615908894469934	0.248206754853463	0.00527278865755447	-0.0521532123141051	0.00679369677675313	0.569091796875	-0.30126953125	0.46826171875	0	0	0	0.301334761009295	-0.202234265944494	0.51177309843776	0.778708520051488	0.394379194786613	0.675163715780716	0.623393140492129	-0.918924572565813	0.294571315045773	0.262307777785834	-0.00653304325721493	-0.676300005356633	0.736597326970726	19.6011920220962	-38.5643451839095	59.7097826895901
20217	1649158896713	6.25712407715202	2.6314676598722	7.34441098757884	0.000758863018604332	0.0300522627696074	0.188097118270649	0.00480669763828922	-0.0558715403658787	0.00471986852121283	0.5771484375	-0.300537109375	0.46533203125	0	0	0	0.301489334407521	-0.202448986988312	0.511713715799026	0.778631916870269	0.394326961461119	0.674800842165642	0.623818940781203	-0.918945683519974	0.294506508603327	0.262306589948263	-0.0067140304474122	-0.676690283514415	0.736237177811833	19.6099671186147	-38.595553256557	59.6996716824368
20218	1649158896713	6.33141847305096	2.54932533766799	7.43747072967071	0.102662109070537	-0.00978687281745784	0.281432389515714	-0.00828106302670984	-0.0422503538104659	0.00881428160827078	0.5771484375	-0.305419921875	0.46826171875	0	0	0	0.301494589969078	-0.202602630468641	0.511725540478383	0.778582145678073	0.394178290698589	0.674673544608262	0.624050545507062	-0.919007932607461	0.294475966882969	0.262122728379097	-0.00692061749412243	-0.676830490694726	0.73610637269313	19.6004862682244	-38.6125339007074	59.7043744822202
20219	1649158896715	6.18935353594858	2.6254753812574	7.37777225908655	-0.0253126382113078	-0.0464905000745	0.16879238433947	-0.00302117479703143	-0.0432961328384761	0.0115718101127226	0.574462890625	-0.30615234375	0.46630859375	0	0	0	0.301579227155956	-0.202797689320986	0.51170444663933	0.77851244450145	0.394063312991213	0.674417418402019	0.624399912804563	-0.919055700059766	0.294417058075107	0.262021403900623	-0.00712218660554226	-0.677111321475542	0.735846133908171	19.5998881833463	-38.6381561916328	59.7021790359061
20220	1649158896715	6.28188972457137	2.52742075377154	7.35128778746379	0.0979891696665688	0.0025593373571835	0.181401678707189	-0.00530187807252377	-0.0505725372374376	0.00857006273558227	0.58203125	-0.307861328125	0.457275390625	0	0	0	0.30159339713671	-0.203005320188079	0.511730680437506	0.778435593660671	0.393841101348605	0.674248623736802	0.624722322538219	-0.919148880346195	0.294346267005011	0.261773969023948	-0.00738394520930818	-0.677310171553066	0.735660525557748	19.587352861729	-38.6618095675935	59.710008653699
20221	1649158896716	6.25922683084658	2.54657404233288	7.39158751548787	0.0683456059683429	-0.0384320047433366	0.201920756350892	-0.0124728062844438	-0.046306771441605	0.0126732890238606	0.58056640625	-0.29833984375	0.4619140625	0	0	0	0.301647130093479	-0.203237328643956	0.51170054004504	0.77837404534687	0.393714291126566	0.673976924895443	0.625095322067913	-0.919200752548701	0.294343132447964	0.261595292187422	-0.00768332458043458	-0.677581895485116	0.735407194304073	19.5812302360799	-38.6891841816929	59.7079870907598
20222	1649158896717	6.27099420538341	2.50861670685668	7.37008813505524	0.1045312417226	-0.0309712558779866	0.183553817163606	0.00443122419384439	-0.0411204299039516	0.0104378197105176	0.583251953125	-0.3017578125	0.4658203125	0	0	0	0.301727080839299	-0.2034512325224	0.511690947896943	0.778293478395933	0.393559939650889	0.673717962440564	0.625471566889274	-0.919264948369129	0.294266285057047	0.261456130504961	-0.00790750288592024	-0.677872746585714	0.735136729346623	19.5782584688374	-38.7168075846855	59.7081820322375
20223	1649158896718	6.25691112989733	2.61269188389431	7.37610170128134	0.00134630959617923	-0.0178191946750123	0.206377019039854	-0.00536046906631267	-0.0453679565162314	0.00559472938760098	0.580810546875	-0.3115234375	0.46826171875	0	0	0	0.301813350406598	-0.203651118140533	0.511641631396218	0.77824017155289	0.393498126204654	0.673430889422698	0.625819512195633	-0.919289394542875	0.294263085077122	0.261373766552593	-0.0081384122788728	-0.678159327836939	0.73486984719291	19.579127385804	-38.742362779198	59.7014658851872
20224	1649158896719	6.29664439065568	2.49331121820303	7.36970826806535	0.123867503916841	-0.024167174399964	0.195359561291033	0.0018346425644778	-0.0331418853721561	0.00586753254758167	0.578369140625	-0.308349609375	0.46337890625	0	0	0	0.301827901888628	-0.203788929021397	0.511679596906942	0.77817348975596	0.393308125034922	0.673332625374679	0.626044642487703	-0.919369364873314	0.294167815501316	0.261199669325255	-0.00828792579313825	-0.678298217548318	0.734739980099641	19.5702726763365	-38.7589025747939	59.7098769862829
20225	1649158896720	6.28285217059332	2.5673176458586	7.40515852277414	0.0490974459770427	-0.0390500568253133	0.232101707163034	0.011103248045376	-0.0346308629150204	0.00519366775872417	0.576416015625	-0.308837890625	0.4619140625	0	0	0	0.30195078981854	-0.203903954290579	0.511662131808411	0.778107165386554	0.393250080595876	0.67311802194384	0.626311825407879	-0.919393862124495	0.294055166802465	0.261240282430905	-0.00832468612872972	-0.678560010176835	0.734497795905251	19.5790473835978	-38.7785368541775	59.705605297935
20226	1649158896720	6.29245747896651	2.56150929121013	7.3550577230206	0.056031838091481	-0.00217296221187413	0.199808834569012	0.00674209885126974	-0.0281879655172998	0.00314110064651862	0.58349609375	-0.30419921875	0.458984375	0	0	0	0.301950247449838	-0.204030431904244	0.511717958898473	0.778037506462722	0.393032626795496	0.673057450705556	0.62651338559042	-0.919485608308691	0.293941557211524	0.26104516286892	-0.00845992833473996	-0.678669307537774	0.734395261843898	19.5680590152842	-38.793352340305	59.7171616729063
20227	1649158896722	6.25684638792072	2.55941738576873	7.37305619091857	0.0430653813213583	-0.041211303494988	0.190169648560682	0.000823127994488688	-0.0188155950098803	0.00315471457935357	0.5751953125	-0.30322265625	0.456787109375	0	0	0	0.301993896806097	-0.204107247417205	0.51170676088981	0.778007781904075	0.392992844822861	0.672945398022624	0.626658691153491	-0.919501970078176	0.293911754303053	0.261021086705374	-0.0085294161809325	-0.678793320505346	0.73427983568728	19.5692334397175	-38.8040347954999	59.7155330640859
20228	1649158896722	6.26219678759206	2.55655322047145	7.34751494673761	0.0462635114506357	-0.0232550994723722	0.17402215810972	0.0101131348369453	-0.0275578957420992	0.0020008837226037	0.580322265625	-0.3056640625	0.4599609375	0	0	0	0.30205977056451	-0.204238198363847	0.511699040318989	0.777952919830134	0.392901700931432	0.672771238304285	0.626902794949669	-0.919539811657455	0.293847974286283	0.260959580749242	-0.00864801608233462	-0.678993541146282	0.734093306671211	19.5695661305531	-38.8219842245056	59.714862226502
20229	1649158896723	6.31978723418586	2.60736343088547	7.39756392641694	0.0211593939436555	-0.00569845334365427	0.260123883064043	-0.00240282642395586	-0.0169934847082233	0.000408430689293479	0.577880859375	-0.301025390625	0.466064453125	0	0	0	0.302088913200028	-0.204312407993343	0.511676588143911	0.77793688536217	0.392887018170736	0.672663156018853	0.627027965474957	-0.919545209154812	0.293858715334064	0.260928464799544	-0.00874066778578697	-0.679095968149546	0.733997456923176	19.5697710744258	-38.8311900128022	59.7117857951536
20230	1649158896724	6.2843861351006	2.54228380895863	7.34970440660903	0.066139444061386	-0.0166116727111826	0.18582354263568	-9.04516722085902E-05	-0.0169749088313838	0.00292795067885557	0.574462890625	-0.3056640625	0.4599609375	0	0	0	0.302075999321788	-0.204375248435156	0.511701497371835	0.777909008848871	0.392784670828981	0.672640694478638	0.627116176232973	-0.919588124109392	0.293823336442329	0.26081704115887	-0.00882521154076221	-0.679133523758909	0.733961696921623	19.562929555955	-38.8376782741836	59.7174532764994
20231	1649158896725	6.2630800854565	2.55980659615689	7.36762647362923	0.0409324158984153	-0.0398258896667831	0.190184216110362	0.00736501044988196	-0.0220270172919121	0.00132103390440905	0.57421875	-0.301513671875	0.4580078125	0	0	0	0.302154915475663	-0.20444495046725	0.511685265138088	0.777870721086032	0.392760903338017	0.672501878868407	0.627279918160598	-0.91959806577984	0.29376119298892	0.26085198658953	-0.00884704600883374	-0.679297861333442	0.733809338564677	19.5691053182435	-38.8497237299468	59.7138133768061
20232	1649158896726	6.33693457895353	2.53685001019301	7.37995605822706	0.0895497392911067	-0.00626422164382207	0.239578081361836	0.00349899744260454	-0.0191211420562329	0.000866130621835725	0.58154296875	-0.30712890625	0.453857421875	0	0	0	0.302149434208218	-0.204518488988017	0.511707338343149	0.777838998093746	0.392655575095657	0.672461555282407	0.627389078653323	-0.919642138213803	0.293722638586848	0.260740003074183	-0.00894074761102104	-0.679354449642266	0.733755814139424	19.5626607890093	-38.8577551087409	59.7190092318972
20233	1649158896728	6.28517541286378	2.5459321934526	7.36975735048694	0.0604059494448375	-0.0330812000318001	0.201990898456474	-0.000367650314912119	-0.0162142984067879	0.000411947460290308	0.573486328125	-0.302001953125	0.464111328125	0	0	0	0.302183850056683	-0.204583800963419	0.511688972084991	0.777820535210331	0.39263972845993	0.672360538988031	0.62750725035384	-0.919648221525456	0.29371863322305	0.26072305832559	-0.00901067588908283	-0.67945615760644	0.73366077829656	19.5638275097917	-38.8664505010875	59.716267961284
20234	1649158896729	6.28992345227416	2.54311549599711	7.34467817545063	0.0635382620339189	-0.0145541772492368	0.185843617550544	0.00728396370096017	-0.0167894120610409	-0.00164215599528601	0.57763671875	-0.317138671875	0.463623046875	0	0	0	0.302195270263765	-0.204655452088962	0.511705414138721	0.777786431934623	0.392547430142765	0.672303237219215	0.627626379554648	-0.919686875839123	0.29367117554266	0.260640156278087	-0.00908655587031698	-0.679533367745806	0.733588329120944	19.559863913549	-38.8752174255222	59.7200071595947
20235	1649158896730	6.282752758358	2.58063207672779	7.36250032670163	0.0260726028153569	-0.0219309259157153	0.204193106354513	0.00383308872600098	-0.0121833674082108	-0.00346316486604779	0.57958984375	-0.306884765625	0.457275390625	0	0	0	0.30223930869771	-0.204688565912514	0.511682698665658	0.777775550624239	0.392566813741815	0.67221872407971	0.627704774352757	-0.919678446718605	0.293664432328318	0.260677493901065	-0.00910227388360696	-0.679619885069539	0.733507982525217	19.5644333114466	-38.8809872246649	59.7156386557962
20236	1649158896731	6.27582224344318	2.55527129557649	7.31431683984485	0.044224576059436	-0.000906767289754147	0.157900904877769	0.00107882005672984	-0.0066430219007716	-0.00413644053085389	0.580810546875	-0.30517578125	0.458984375	0	0	0	0.302146266277927	-0.204770618272313	0.511768243419858	0.777733818663967	0.392324517838656	0.67229758494295	0.627771797696061	-0.919780295960557	0.293601797602522	0.260388539700344	-0.00925634190036773	-0.679568938169223	0.733553255333366	19.5432762055551	-38.8859204646737	59.7339668488204
20237	1649158896732	6.31003453691206	2.5613180448174	7.31805147799364	0.0524723477164865	0.0205684381549964	0.183691324243956	0.0100644448313292	-0.00736630875614926	-0.00733527166690126	0.56591796875	-0.305419921875	0.458740234375	0	0	0	0.30220497960428	-0.204763871312466	0.51174512668507	0.777727993980922	0.392377364638426	0.672235698505231	0.627805040896127	-0.91975834471994	0.293578151232916	0.260492718586718	-0.00919733860632121	-0.679640371648012	0.733487814615016	19.5521144126514	-38.8883674509742	59.7283110159706
20238	1649158896733	6.29997522579764	2.50878987544277	7.3232880694007	0.096181660945321	-0.00411326236352308	0.167542833347463	-0.000427721798133444	0.00399236638209052	-0.00891305085136872	0.576416015625	-0.307861328125	0.46484375	0	0	0	0.302117359223523	-0.204744462312981	0.511781619689704	0.777743132503114	0.392318557799903	0.6723555675707	0.627713421843509	-0.919782992649252	0.293609350007176	0.260370497602073	-0.00924097608434565	-0.679508307782213	0.733609612815946	19.5406371503839	-38.8816237022764	59.736496713721
20239	1649158896735	6.2958421348305	2.51275264770473	7.34746009225103	0.091559846530516	-0.0217360910127173	0.183705389790212	0.00630534047995782	0.00526457702952734	-0.0111931043530493	0.58056640625	-0.30126953125	0.469482421875	0	0	0	0.30213234077103	-0.20469222743845	0.511759513326694	0.77776560814048	0.392406585091823	0.672369614581194	0.627643348857065	-0.919746181835653	0.293636498359688	0.260469898126057	-0.00916695016411678	-0.67948267690869	0.733634281373008	19.5469241839675	-38.8764663139002	59.731422068166
20240	1649158896735	6.26415489336231	2.56823985178897	7.38580086269983	0.0286726135844507	-0.0505018101369717	0.206403122408231	0.00469020975845433	0.00617669903761247	-0.0125651353261999	0.579833984375	-0.298583984375	0.4521484375	0	0	0	0.302072651064745	-0.204581251197739	0.51180388778399	0.777788792402075	0.392406584215122	0.672553853837506	0.627445923050696	-0.919747457467281	0.29361778785582	0.26048648551725	-0.00903809421808421	-0.679308404440114	0.73379725027417	19.5440622278063	-38.8619377400371	59.7382554786212
20241	1649158896737	6.25583791612748	2.54365264094939	7.33854276814438	0.0497398833980508	-0.0307029723794336	0.160099100392125	0.00672268230071284	0.00696079407256225	-0.0125619244699499	0.580322265625	-0.30419921875	0.4541015625	0	0	0	0.30208591663936	-0.204518136986899	0.511780157838232	0.777815852663496	0.392506803372965	0.672577341928282	0.627358054408025	-0.919705537452528	0.293650338022465	0.260597780801082	-0.00895174201443194	-0.679271078512826	0.733832861223132	19.5509025703548	-38.8554724373307	59.7327574751104
20242	1649158896738	6.28891830051318	2.55017737170046	7.3430901412599	0.0569340015143441	-0.0102643052596443	0.185888728992095	0.00329769772236222	0.00430641360976102	-0.014860465232277	0.580810546875	-0.3056640625	0.463134765625	0	0	0	0.302097623003988	-0.204558734203843	0.51169469454226	0.777856857020342	0.39264852767645	0.672457038965882	0.627398329977658	-0.919643868436624	0.293811131505287	0.260634177057623	-0.00907132627778451	-0.67932065311517	0.733785500872524	19.5545923080198	-38.8584358077669	59.7192894628173
20243	1649158896739	6.2699508509241	2.53502610927208	7.36768087725244	0.0645723211234353	-0.0437061540895914	0.188076733518622	0.00644325321007421	0.00772227507894816	-0.0150783787789931	0.57763671875	-0.3056640625	0.46142578125	0	0	0	0.302110772669696	-0.20449044351806	0.511661444871754	0.777891576878459	0.392772448683071	0.672476724568779	0.627299656040676	-0.919591788148019	0.293863293737336	0.260759099102166	-0.00898591821868017	-0.679278602273832	0.733825479093413	19.5622684535676	-38.8511758584241	59.7121465870468
20244	1649158896740	6.264393855032	2.57029241212387	7.36285733638103	0.0303170888623539	-0.0322797165828642	0.190249220141634	0.00805978200377781	0.00680864744322979	-0.0137069247115166	0.584228515625	-0.307861328125	0.46142578125	0	0	0	0.302067252681299	-0.204433262039512	0.511692639435022	0.777902988153071	0.392755368239809	0.672589278822969	0.627189670459591	-0.919599654106774	0.293852035211185	0.260744046085323	-0.00892731121407303	-0.67917202785056	0.733924832458913	19.5587778345824	-38.8430845263707	59.717407456489
20245	1649158896741	6.31646721879317	2.56283909973458	7.37224458174022	0.0591648255122289	-0.00520574305088184	0.227848711601872	0.00454928489884995	0.00939383625932438	-0.0189677066475333	0.583740234375	-0.310546875	0.4638671875	0	0	0	0.302072292796993	-0.204357285895232	0.511645317440205	0.777952118557057	0.392914337686091	0.672609769504524	0.627068115285549	-0.919532465105098	0.293942798131758	0.260878663451447	-0.00885261873351589	-0.679112457103787	0.733980859251803	19.5667285168068	-38.8341431219478	59.7080701617308
20246	1649158896742	6.28239033938747	2.52836400016584	7.39757864404821	0.076863062583464	-0.0539169762144867	0.216091590377113	0.00474431842845397	0.0138692148616221	-0.0194151453390383	0.570068359375	-0.3037109375	0.470947265625	0	0	0	0.30199851285911	-0.204321688248963	0.511676808008773	0.777969401768433	0.392878983714094	0.672728108458633	0.626963313317016	-0.919547492442831	0.293967484753679	0.26079786626753	-0.00886077298443266	-0.678984543268303	0.734099091883959	19.5582172099649	-38.826434958192	59.7147053075512
20247	1649158896743	6.26392878202249	2.57179572943331	7.34071601773305	0.0321342073944734	-0.0135945425679873	0.174095439899764	0.00725115095694599	0.0183670556529704	-0.0173432289415777	0.581298828125	-0.3037109375	0.45751953125	0	0	0	0.30198891764648	-0.204206892920643	0.511652462110954	0.778019277729159	0.393022605798991	0.67281452090171	0.626780545162956	-0.919487395177933	0.294028903269011	0.260940480093301	-0.00872705218678044	-0.6788723182648	0.734204477004809	19.5655046715602	-38.8129943934647	59.7087901816957
20248	1649158896743	6.25127154212549	2.55078061210267	7.31796066366881	0.048229249503254	-0.00978155260078022	0.143968888241226	0.00538818722903199	0.0127794345663201	-0.0217083204114057	0.58251953125	-0.30615234375	0.461181640625	0	0	0	0.301919329870208	-0.204069980568142	0.511665970953795	0.778073322669241	0.393106754397657	0.673001940674085	0.626526509810922	-0.919452627793125	0.29408530483727	0.260999422840527	-0.00859912153988512	-0.678662081840208	0.734400322563285	19.5647661440965	-38.7943171302052	59.71039816741
20249	1649158896744	6.29130928346851	2.5835381061379	7.37032130974535	0.0351904792024661	-0.00788001933407841	0.21605020219801	0.00344442247503227	0.00675278694714609	-0.0187498425987498	0.572265625	-0.30078125	0.4541015625	0	0	0	0.301925545555793	-0.204007148799339	0.511615464253226	0.778120597925898	0.39326139995144	0.673007122508667	0.62642388552867	-0.919387001302757	0.294181163355585	0.261122547786051	-0.00854477289092753	-0.678615396361855	0.734444096359202	19.5722164172842	-38.7867733448782	59.7007748434103
20250	1649158896745	6.26489423973181	2.54307640376034	7.34721526221912	0.0627201935788796	-0.0214863577558017	0.171966542837616	0.0129397578137598	0.00248830340721061	-0.020352392152269	0.57470703125	-0.30615234375	0.458740234375	0	0	0	0.301939688501252	-0.203984240667721	0.51157908100187	0.778145036576255	0.39335454688099	0.672983569222942	0.626390705553651	-0.919347321568447	0.294238536778097	0.261197599145946	-0.00852659210780377	-0.678613880664575	0.73444570813396	19.5773744430775	-38.7843344962996	59.6939901122492
20251	1649158896746	6.23682941968987	2.59645955325637	7.36100726349234	0.00454571780560539	-0.0343701070985096	0.178452160834929	0.0127491471812746	-0.00199083490532394	-0.0199058168415487	0.57470703125	-0.306396484375	0.461181640625	0	0	0	0.302005397953615	-0.20393027122817	0.511520492755838	0.778172197893569	0.393518459935259	0.67292596679672	0.626349634709626	-0.919278137664929	0.294279050195407	0.261395382949642	-0.00842183480500186	-0.678653434255504	0.734410368167368	19.5919413785844	-38.7813157557445	59.6814525819885
20252	1649158896746	6.25599954759275	2.58442402235311	7.36504745294271	0.0230575061124364	-0.0273631175643592	0.190283245951232	0.015789653652795	-0.00828950822558237	-0.0167125292413653	0.58251953125	-0.310302734375	0.465087890625	0	0	0	0.302005447614732	-0.20392584276158	0.511549461139128	0.778154296443368	0.393462798924494	0.67295539121056	0.626352989378311	-0.919302252904249	0.294219716838587	0.261377363267354	-0.00839009342472197	-0.678649983175469	0.73441392053001	19.5906060687357	-38.7815623218377	59.6860758505525
20253	1649158896747	6.25306424066211	2.58985067260776	7.38765244249807	0.0183837891976736	-0.044926689986363	0.206453834488753	0.0192812578757378	-0.0201505996110896	-0.0153619585189771	0.58056640625	-0.31103515625	0.458740234375	0	0	0	0.302137497502962	-0.203932844980761	0.511488614208991	0.778141198546425	0.393581584545237	0.672789207724575	0.626456876629349	-0.919252245489162	0.294184660274426	0.261592612323732	-0.00829731703589776	-0.678829925407358	0.734248654681401	19.609585821495	-38.7891983932265	59.6723723508953
20254	1649158896747	6.28149434181318	2.5409024662478	7.37204320044779	0.0732051749391505	-0.030862741508255	0.200007850872277	0.0121795933526622	-0.0154312520320076	-0.0185649807017692	0.576171875	-0.30517578125	0.45458984375	0	0	0	0.302137820123482	-0.204008990236463	0.511525263551856	0.778097021136782	0.393444473301806	0.672754904420537	0.626579831311524	-0.919310230803088	0.294109284798469	0.261473570626376	-0.00837531904093397	-0.678896580616994	0.734186139107458	19.6028842856645	-38.7982370436284	59.6797994957713
20255	1649158896748	6.25938799132063	2.56069389838353	7.38979819004394	0.0478858845476941	-0.0539921641432701	0.204348098108767	0.020760042058306	-0.0178533783245946	-0.0203967980574564	0.579345703125	-0.31103515625	0.459228515625	0	0	0	0.302273928166344	-0.20399648380372	0.51145051662154	0.778096572408699	0.393607607286557	0.672590150896812	0.626654243106001	-0.919241424862703	0.294097682796896	0.261728400808711	-0.0082616162184056	-0.679064828930272	0.734031813893213	19.6243407792913	-38.803707763832	59.6633310046214
20256	1649158896748	6.29017095006328	2.53944736094374	7.32114879313859	0.0788424270013254	0.00537362982033095	0.167694272925683	0.011073810823714	-0.0180715483736552	-0.0183445071568646	0.572509765625	-0.30224609375	0.46875	0	0	0	0.30228690543451	-0.204105654108167	0.511449080224619	0.778063845131809	0.393521440596936	0.6724831427733	0.626823179593941	-0.919277009021478	0.294084930280437	0.261617725826208	-0.00840574060023397	-0.679176322075274	0.73392701752781	19.6192631484525	-38.8161294547811	59.6648252706795
20257	1649158896748	6.2270789112594	2.56001929869626	7.38256092335565	0.0361986911474909	-0.0746246917124279	0.178585649632751	0.0189228505161155	-0.0141706555494055	-0.0208533192978009	0.573486328125	-0.30615234375	0.46337890625	0	0	0	0.302406044627595	-0.20408387788805	0.511376811004489	0.778070762929534	0.393687055906109	0.672342294396698	0.626870274600228	-0.919207087534243	0.294088682679144	0.26185907841215	-0.00829651967966455	-0.679314129019433	0.733800709917737	19.6391002898785	-38.8195926784847	59.6490823347314
20258	1649158896749	6.23041696545762	2.59032392083305	7.32771340980019	0.0115613550829347	-0.0258713250538702	0.148359426507353	0.0217304712963119	-0.0269743373016447	-0.0206494299346196	0.57421875	-0.29833984375	0.456787109375	0	0	0	0.302461637590501	-0.204022678598142	0.511393667350395	0.778054124979506	0.393702527223104	0.672365837791955	0.62683530550573	-0.919201971689534	0.293986949559971	0.261991237888781	-0.00812744118488018	-0.679334861212601	0.733783408807422	19.6486810388004	-38.8170211414009	59.6489753712472
20259	1649158896749	6.27314376467286	2.62426748032493	7.3773158319588	-0.00164724900146504	-0.0238702481645519	0.220424212944415	0.0184197569778385	-0.0255917420815406	-0.0160710235291007	0.583740234375	-0.31103515625	0.45947265625	0	0	0	0.30260219638505	-0.204052627938669	0.511323477995778	0.778037747557641	0.393821651763248	0.672164387401584	0.626976509058768	-0.919151480971114	0.29396042318649	0.262198063739281	-0.00806607903970824	-0.679545661386395	0.733588871548534	19.6678176518878	-38.8274054564218	59.633928414322
20260	1649158896750	6.23480749482075	2.56457611741876	7.35239391998283	0.0377226318573638	-0.0531769201906994	0.16244769909118	0.0141210406715849	-0.0336773311616526	-0.0190649192212501	0.57666015625	-0.3056640625	0.46533203125	0	0	0	0.302697837780529	-0.204179016887034	0.511266507734303	0.778004823979393	0.393834974264429	0.671926524849053	0.627223053028516	-0.91914471257649	0.293961154144325	0.262220970169853	-0.00818598734541298	-0.679780541835681	0.733369896132074	19.6748262305705	-38.845540291475	59.6242369014376
20261	1649158896750	6.34194481727725	2.5799623094492	7.33866320496208	0.0668588800288461	0.0290162065898318	0.223603470218304	0.0196746787504258	-0.0354721101134494	-0.0138055801229556	0.582763671875	-0.30029296875	0.45703125	0	0	0	0.302865783788571	-0.204248190783198	0.51119170112156	0.777970461056441	0.393931442532473	0.67166451004163	0.627443068759885	-0.919103663597433	0.293910723429161	0.262421306709503	-0.00815316785430814	-0.680061227099358	0.733109987143849	19.6951457772881	-38.8617277144213	59.6083638308022
20262	1649158896751	6.30638354420555	2.57984695766281	7.35604890949552	0.0529930135791042	-0.00917250951478809	0.214009309193173	0.011825686535462	-0.0244297435835626	-0.0176794891449807	0.57666015625	-0.306396484375	0.460693359375	0	0	0	0.302934091389305	-0.20429399729312	0.511148595991607	0.777960160779422	0.393982150971615	0.671531254947053	0.627553852944125	-0.919081720732174	0.293916098179891	0.262492129113801	-0.00817651097757949	-0.680190488657366	0.732989797888271	19.7030335919554	-38.8698799377497	59.6001838318303
20263	1649158896752	6.31848961449826	2.60469122947229	7.37787305080283	0.0359298086639632	-0.010847558766852	0.24411774275304	0.015433748301876	-0.0172887912429283	-0.0158389485842515	0.58447265625	-0.3076171875	0.45068359375	0	0	0	0.303040871265566	-0.204300091751167	0.511089356755324	0.777955893521285	0.394098283843787	0.671387398799796	0.627634848780902	-0.919032510015432	0.293907799508071	0.262673658601429	-0.00811099291813655	-0.68033606851406	0.732855405706143	19.7189460621501	-38.8758407317388	59.5874543580795
20264	1649158896752	6.31146886011499	2.58081824645926	7.32929899139944	0.0540074009658511	0.00885163919911113	0.197851592448249	0.00983881725441901	-0.00824060088011349	-0.020630954291733	0.576416015625	-0.3017578125	0.457763671875	0	0	0	0.303042865430922	-0.204389264807486	0.511083122193772	0.777935789349955	0.394038141280244	0.671302287233343	0.627763635751302	-0.919057121115663	0.293918127840166	0.262575974250353	-0.0082432604593729	-0.680415588653152	0.732780100285744	19.7140477176357	-38.8853196880168	59.5881007517277
20265	1649158896753	6.27884883701813	2.54705353618922	7.35343345675635	0.0738377824381558	-0.0403164667873217	0.186179073321764	0.0156526800694995	-0.00512532986401647	-0.023150391875025	0.58349609375	-0.30908203125	0.4619140625	0	0	0	0.303126225762535	-0.204337667180835	0.511014391774335	0.777962017341182	0.394220818341202	0.671219362562982	0.62773761533537	-0.918979785897572	0.293957565308935	0.262802402784478	-0.00813015977980491	-0.680480357628482	0.73272121805211	19.7311990669168	-38.8834044359349	59.5734151463594
20266	1649158896753	6.27588199003145	2.61092402195563	7.29458488490703	0.0148876990545368	0.0166078114284203	0.157974078444738	0.0158374385418068	-0.000647991651965105	-0.02360318003123	0.577392578125	-0.299560546875	0.456787109375	0	0	0	0.303130692072303	-0.204305037775158	0.511022610116115	0.777963448378888	0.394230686979608	0.671251568941742	0.627696978355668	-0.918976078920309	0.293935350947759	0.26284020970063	-0.00807042847929668	-0.680458184355562	0.732742470126915	19.7332902581095	-38.8804134240688	59.5739893043853
20267	1649158896754	6.2504078750886	2.60316355068148	7.36643240576059	0.0134037139373052	-0.0521715613582068	0.192585425724784	0.0100275924218687	-0.00376930565056125	-0.0210852162611105	0.57958984375	-0.295654296875	0.463134765625	0	0	0	0.303185986835441	-0.204266010339588	0.510958715971302	0.777994116288501	0.394393175185811	0.671184565540507	0.62766655347171	-0.918906933227494	0.293998895919156	0.263010831078799	-0.00800446333599347	-0.680496824517586	0.732707308813134	19.7459841930911	-38.8781741375745	59.561179842615
20268	1649158896754	6.28781082906763	2.60764452638933	7.34589337484105	0.0265686748804432	-0.0123342593001492	0.202184872659117	0.0153486620768881	-0.0120654009335301	-0.018812216780158	0.575927734375	-0.300537109375	0.4609375	0	0	0	0.303275112601086	-0.204218011751311	0.510868230881792	0.77803140067021	0.394617308704099	0.671074569443649	0.627643291939901	-0.918811531479843	0.294075713505013	0.263258132535698	-0.00790881095992907	-0.680572110046055	0.732638419506281	19.7648276980116	-38.8764621249356	59.5428564532359
20269	1649158896755	6.2590291361459	2.57060599847903	7.34587859362359	0.0509009468084141	-0.0437713073090751	0.174348532985688	0.0148885114958031	-0.00649482269389584	-0.0169729240139556	0.572509765625	-0.312255859375	0.467529296875	0	0	0	0.303352308517757	-0.204182796499863	0.51082108836057	0.778041501602946	0.394742402599238	0.671001367921328	0.627642891967948	-0.918758658632707	0.294078385206143	0.263439614602622	-0.007807866393021	-0.68064312793288	0.732573525060887	19.7790125488918	-38.8764326879813	59.5321894183635
20270	1649158896755	6.25478849989998	2.60659007644844	7.33940389611082	0.0159464042484079	-0.0303481008108594	0.176424934850376	0.0173064392658496	-0.0210008531065907	-0.0153924182907623	0.57666015625	-0.30029296875	0.456298828125	0	0	0	0.303338313136665	-0.204154442099732	0.510915824121279	0.777992192902232	0.394571968866842	0.671121316621351	0.62762181268736	-0.91883277296491	0.293901776891753	0.263378208790106	-0.00770043571224927	-0.680601148923725	0.732613663108699	19.7737603309897	-38.8748813219076	59.5474767449479
20271	1649158896756	6.29721443246205	2.64014340016397	7.3893500485572	0.00258519118150665	-0.0282545526654158	0.248473371935304	0.0160227599692233	-0.0188184231796153	-0.0108085064912367	0.579345703125	-0.300048828125	0.456298828125	0	0	0	0.303443770863958	-0.204173022655654	0.510876625658928	0.77797193271921	0.394636900350003	0.670985287883241	0.627726421561484	-0.918805415496537	0.293853902558418	0.263527024051469	-0.00763710261668471	-0.680755923511086	0.73247050948703	19.787632484391	-38.8825805257588	59.5382823809113
20272	1649158896757	6.24777747745632	2.55679457652041	7.34157301298006	0.0597086892203752	-0.0559089002086205	0.160472842085442	0.00656466370412149	-0.0311266104147045	-0.0135627627119639	0.578125	-0.298828125	0.456787109375	0	0	0	0.30352072232757	-0.20430003612446	0.5107934634467	0.77796317654335	0.394703065879338	0.67073842168906	0.627948612113699	-0.918775599833238	0.293930417635749	0.263545644508779	-0.00780300817152435	-0.680966136645974	0.732273332714589	19.7938366749073	-38.8989364994366	59.5248698039807
20273	1649158896758	6.26728352207318	2.63800565415798	7.38062798121876	-0.00717141070920093	-0.0491958681426287	0.222705626354134	0.0184542367762875	-0.0426411412689495	-0.0131390565163107	0.570556640625	-0.298828125	0.46484375	0	0	0	0.303698728992961	-0.2044018227992	0.510711548943194	0.777920748290254	0.394787217224817	0.670433073052805	0.628221734479839	-0.918739368204651	0.293881591568207	0.263726341968824	-0.00781194129554108	-0.68128782808319	0.731973953688849	19.8138231880849	-38.9190468480172	59.508124583568
20274	1649158896759	6.26074402465007	2.58625994262749	7.38313085719377	0.0380205991130136	-0.0732482283762974	0.206766947167683	0.00817910463337322	-0.0490417870942123	-0.00924041682050303	0.5791015625	-0.304443359375	0.462646484375	0	0	0	0.303792667194955	-0.204497445863728	0.510657802463079	0.777894220814994	0.394818806837582	0.670225857673232	0.628422954285988	-0.918725155727223	0.293877248284309	0.263780687645689	-0.00788657094929562	-0.681493552902024	0.731781619987575	19.8223911828216	-38.9338665661815	59.4983749444254
20275	1649158896760	6.27950299477838	2.54464423398117	7.31290690574339	0.0841131633498197	-0.0300565471966898	0.156164044916677	0.017369416780469	-0.0546126623624346	-0.0168310350506898	0.5751953125	-0.293212890625	0.455322265625	0	0	0	0.304000405279546	-0.204642055971021	0.510542805107319	0.777850516918884	0.394935346162207	0.669829433819031	0.628772297371166	-0.918674505628751	0.293859595486044	0.263976686183741	-0.00795141871044203	-0.681890803377238	0.731410765035651	19.8452438054155	-38.9596028334534	59.4761502760559
20276	1649158896760	6.30871171051556	2.5896080730397	7.33174377713771	0.0546114860911584	-0.014863162269129	0.200163061546787	0.0235836971037136	-0.0575021007418571	-0.0138777016806933	0.5830078125	-0.31298828125	0.4580078125	0	0	0	0.304198969498716	-0.204761742815799	0.510454830660416	0.777799126696863	0.395016989068967	0.669486020697079	0.629086676411191	-0.918639265326387	0.293797705622732	0.264168144126834	-0.00796734256103165	-0.682254627145914	0.731071231269913	19.8670136707257	-38.9827712770458	59.4581104662368
20277	1649158896762	6.27867133326104	2.58659509532723	7.32346966315524	0.0460429613801125	-0.0360343205022918	0.174403023838876	0.0146129633652299	-0.0584192452254632	-0.0214243517598133	0.578369140625	-0.302490234375	0.4609375	0	0	0	0.30441019127438	-0.204920720819246	0.510313570458571	0.777767313168303	0.395175115969492	0.669050517496431	0.629450580074605	-0.918570340779113	0.293828990508242	0.264372943732621	-0.00807197370178347	-0.682668242541474	0.730683867254432	19.8909226694247	-39.0095989531981	59.431750110585
20278	1649158896763	6.2489191770552	2.58377310557539	7.31491099477452	0.0344549540657529	-0.0558585828006804	0.148662221829298	0.0279692039408928	-0.0660349845706446	-0.0152960275928306	0.5771484375	-0.300048828125	0.456298828125	0	0	0	0.304577861063418	-0.205135783788816	0.510344735068526	0.777624516169094	0.394935123194368	0.668753518866284	0.629916644859789	-0.918672791882145	0.293561155875738	0.26431448922896	-0.00815781361119478	-0.683074358152071	0.730303273518763	19.8964203181355	-39.0439730128876	59.435851570834
20279	1649158896763	6.33915910260118	2.61405315357331	7.29353673408437	0.0427625471390441	0.0208995916494312	0.197888040095153	0.0217219822844805	-0.072918391163651	-0.0148377188740413	0.572998046875	-0.29833984375	0.4609375	0	0	0	0.304845856307003	-0.205343553350708	0.510215138141358	0.777549703749638	0.3950290758174	0.668238996304148	0.630403579524478	-0.918631521737426	0.293499033407691	0.264526831643092	-0.00825569677448629	-0.683604389400167	0.72980605797951	19.9236471268898	-39.0799041813931	59.4105692946883
20280	1649158896764	6.26775767408953	2.64216520413933	7.29938966220735	-0.0116738838071764	-0.027426385750865	0.164587859630377	0.0151085235027552	-0.0624369957996847	-0.0125178568394328	0.576904296875	-0.3017578125	0.45947265625	0	0	0	0.304990622873121	-0.20548110612615	0.510153760925624	0.777496865072832	0.395041310477231	0.66794627855743	0.630706058301102	-0.91862552074172	0.293447720345815	0.264604588142098	-0.00833760507801679	-0.683912424499749	0.72951646996928	19.9363304606095	-39.102233467749	59.3987936440854
20281	1649158896764	6.34970441685516	2.5876916724681	7.31339137138669	0.0703054540440943	-0.00460223842951932	0.212062989669976	0.0179148094170027	-0.0680115770655521	-0.0118586499830385	0.580810546875	-0.306884765625	0.456298828125	0	0	0	0.305227670422688	-0.205683321569236	0.510039926095396	0.777425053767364	0.395107290033699	0.667475151761673	0.631163331589342	-0.918596116111188	0.293390685993884	0.264769863914834	-0.00845013773071102	-0.684396688443749	0.72906088087317	19.9592824551414	-39.1360032754803	59.3768827241901
20282	1649158896765	6.34084665108822	2.66048884912105	7.32237590686599	-0.00244664857752558	-3.06727242747188E-05	0.2322973031494	0.0162329372437465	-0.0598367408607909	-0.0127647308968679	0.58349609375	-0.302001953125	0.457763671875	0	0	0	0.305343290114657	-0.205870335003443	0.510051194195067	0.777322751273699	0.394930368931512	0.667226544270375	0.631536809945891	-0.918671045978206	0.293226508964284	0.264691752274087	-0.00857397089616502	-0.684709393145465	0.728765760695054	19.9613013256894	-39.1635968156993	59.3787751717977
20283	1649158896765	6.38046505265253	2.57397899754049	7.2857826614634	0.0926135598710375	0.0209341695124336	0.207757425037046	0.0059497762841473	-0.049219791427882	-0.0117903245320959	0.58935546875	-0.30810546875	0.45263671875	0	0	0	0.30548490934638	-0.206030218018947	0.509954804916907	0.777287988050026	0.394995292410448	0.666885243672347	0.631856621984496	-0.918641733568879	0.293250134207586	0.264767301857304	-0.00872263258132711	-0.685031700404665	0.728461038849398	19.974240497733	-39.1872339560535	59.3617941962159
20284	1649158896766	6.32551554198462	2.61822456664159	7.26845684460791	0.027974626351512	0.00401274147152091	0.172146657843674	0.0240100282555374	-0.0486615228137285	-0.0148636016340166	0.58154296875	-0.297607421875	0.458740234375	0	0	0	0.305655183930657	-0.206232847230441	0.509936406887343	0.777179375813826	0.394865747308104	0.666551839113373	0.632289243445904	-0.918696394524428	0.293079538934285	0.264766535925302	-0.00883041848554644	-0.685429084320652	0.728085842519083	19.9836658634197	-39.2192214383736	59.3574717049096
20285	1649158896767	6.33941678802191	2.64350528214814	7.28849779060849	0.0107396794133799	0.0024666200503689	0.202221648073687	0.0143595572800045	-0.0391378161797069	-0.0161782639163176	0.5849609375	-0.29833984375	0.455078125	0	0	0	0.305807872181168	-0.206326394340169	0.509847110267151	0.777153066302158	0.394970686301641	0.666266018922862	0.632524899898091	-0.918650961434781	0.293074938928525	0.264929219277514	-0.00886386018403296	-0.685708882982218	0.727821928621223	20.0016475508386	-39.2366517103921	59.3400166200414
20286	1649158896767	6.31299867286361	2.60607251978877	7.28696288060445	0.0353337399779415	-0.0285886229958443	0.174470743232758	0.0140191901676765	-0.0387952445396409	-0.0113671489321726	0.589111328125	-0.296142578125	0.458984375	0	0	0	0.305945108694585	-0.206413767868728	0.509762977688643	0.777131040094334	0.395070126024487	0.666002700812206	0.632740071462084	-0.918607831398833	0.293078594087734	0.265074687173805	-0.0089021129923752	-0.685963074952584	0.727581893800187	20.0178364948003	-39.2525706055121	59.3237522771985
20287	1649158896768	6.34969826829289	2.61360174512074	7.28771548754971	0.0431750000353293	-0.00678728170795729	0.200227637364858	0.0207248880205678	-0.0472821863491164	-0.0102770465434575	0.583984375	-0.302734375	0.457763671875	0	0	0	0.306137289450261	-0.206531442463929	0.509690644097837	0.777071535060285	0.395120421185801	0.665678230465624	0.63305003455186	-0.918586134394263	0.292990814654358	0.265246859032827	-0.0089087855827823	-0.686315434776409	0.727249446563632	20.0382328831059	-39.2755087544011	59.3082981464845
20288	1649158896768	6.32493782835374	2.6665031151065	7.29866225478836	-0.0152077935836487	-0.0193433604505728	0.206541213283492	0.00997038044894311	-0.0403965455889247	-0.0113526289668267	0.5859375	-0.3037109375	0.457275390625	0	0	0	0.306262513798873	-0.206638808571887	0.509623674808433	0.77703757020387	0.395168225733479	0.665422042059765	0.633289490921543	-0.918564925906285	0.292973965432687	0.265338901168728	-0.00897497996854313	-0.686571017098493	0.727007350867173	20.0507759428186	-39.2932343486176	59.2955738543483
20289	1649158896769	6.35519331088735	2.61656081578596	7.28186140525383	0.0424205071965933	-0.00587170200384452	0.200231441026998	0.00573239147823846	-0.0371335317751313	-0.00697010785871234	0.587158203125	-0.30712890625	0.46337890625	0	0	0	0.306367235518096	-0.206760101798944	0.50956416158501	0.777003051817209	0.395189251064514	0.665176775689295	0.633533987191424	-0.918554858903625	0.292966964458332	0.265381478103905	-0.0090789331758408	-0.686811629793544	0.72677875461018	20.0595416637466	-39.3113376492066	59.2849611092076
20290	1649158896769	6.35773798819231	2.61787491315547	7.27916733170798	0.0402456063424281	-0.00413204301499324	0.200241287986348	0.01334442023125	-0.0397782706104686	-0.0125266568433671	0.58642578125	-0.29638671875	0.456298828125	0	0	0	0.306436972204465	-0.206862292212991	0.509620734247113	0.776911244192013	0.394989398571642	0.665079648441894	0.633760551189816	-0.918640666397991	0.292766178583187	0.265306032192358	-0.00909401208860966	-0.686991285174859	0.726608748253094	20.0586115199786	-39.3281173678881	59.2940130763058
20291	1649158896770	6.37128094879632	2.64223514650312	7.299846388827	0.0229962910165629	-0.00565693885587267	0.230311344273284	0.0065401761196929	-0.0337515052195643	-0.0097247627223671	0.579345703125	-0.302001953125	0.46142578125	0	0	0	0.306538355261641	-0.20696420536951	0.509557212202732	0.776885771488599	0.395034530375895	0.664850561615394	0.633972752198698	-0.918620430063402	0.292771368491336	0.26537036620889	-0.00917743323736808	-0.687210780264254	0.726400108898511	20.0683903744905	-39.3438369911302	59.2824715027822
20292	1649158896771	6.36693449833041	2.58641743066805	7.27991789187108	0.0725958515784573	-0.012256135167731	0.198266327581505	-0.00179613381771985	-0.0243659208423647	-0.0121757480538621	0.581787109375	-0.2998046875	0.45751953125	0	0	0	0.306544262004542	-0.206992944079172	0.509530380152784	0.776893382797722	0.395065425605593	0.664796562784416	0.634010125787513	-0.918606559916005	0.292818814266901	0.26536603040067	-0.00923566837619827	-0.687242804343088	0.726369073067055	20.0688776752733	-39.3466059526821	59.2784600055497
20293	1649158896772	6.35540831623518	2.5950203086195	7.22585277477045	0.0606567984564314	0.0178294200829451	0.15397185471963	0.00998570402039532	-0.021317212177974	-0.0108782651923872	0.588623046875	-0.29736328125	0.451904296875	0	0	0	0.306628301924786	-0.207035342329851	0.509485417568908	0.776878407969818	0.395121952621994	0.664650649255505	0.634127871174591	-0.91858223108358	0.292807387486716	0.265462838398741	-0.00923727739621205	-0.687388789752524	0.726230902970168	20.0791288071429	-39.35533027572	59.2693356732771
20294	1649158896772	6.37578781549827	2.64523676249228	7.29482257684484	0.0217505150382102	-0.00327026733725978	0.230315180318286	0.000932959196585479	-0.0226323030284664	-0.0110471873690927	0.58349609375	-0.302978515625	0.458984375	0	0	0	0.306671899713405	-0.207122226226177	0.509421380940461	0.776880033190452	0.395180480087653	0.664481465486599	0.634268689265419	-0.918555731845204	0.29288440513377	0.265469570240656	-0.00936779867486992	-0.687519532271061	0.726105458658567	20.0827891191594	-39.3657655973753	59.2592001417768
20295	1649158896773	6.28190481102149	2.62276162172191	7.23403779913018	0.00580858047977547	-0.0320249908234727	0.120663022228342	0.00312076095468693	-0.0173399014645377	-0.011513168764532	0.587158203125	-0.29541015625	0.45263671875	0	0	0	0.306719849070293	-0.207165712430852	0.50937287137701	0.776881316344044	0.395243290996314	0.664360861551973	0.63435588320778	-0.918528205749295	0.292924424182873	0.265520652605617	-0.00941680229074698	-0.687619027772684	0.726010603558629	20.0887590914297	-39.3722278843458	59.2506297595041
20296	1649158896773	6.34815543204278	2.63809606508848	7.26379620173015	0.0169994363094152	-0.00603011081574316	0.188364430871776	0.00234306415460722	-0.0398610905407474	-0.00925676942544998	0.58447265625	-0.300537109375	0.45458984375	0	0	0	0.306800057448614	-0.20730261329482	0.509312846303637	0.776852480114953	0.395252102222453	0.664120988274575	0.63460151955533	-0.91852280294697	0.29294829867923	0.265513003009998	-0.00957267753423774	-0.687840539103466	0.72579870254133	20.0936223551101	-39.3904361798151	59.2409759915834
20297	1649158896774	6.38922006433285	2.61070894058298	7.27067053466674	0.0577422238293568	0.00563932720956623	0.212142695629405	0.00311148657967898	-0.0271042826243254	-0.00809571997749258	0.5849609375	-0.300048828125	0.452392578125	0	0	0	0.306869233469925	-0.20738918297248	0.509262699166468	0.776834926849503	0.395282460047383	0.663943384090889	0.634768429823686	-0.918508822525764	0.292965553574529	0.265542326872957	-0.00966021331153116	-0.688004627266931	0.725642000671177	20.0996562801684	-39.4028114556407	59.2323064566746
20298	1649158896774	6.33965956896939	2.58931055671145	7.28962711533737	0.0559708618189836	-0.0488826815357177	0.188760186965037	-0.0020933736213675	-0.033398823740156	-0.0112789100055949	0.5888671875	-0.30224609375	0.4580078125	0	0	0	0.306906025320376	-0.207542883570796	0.509213852326109	0.776811364296617	0.395254408156645	0.663733891727878	0.635004939984333	-0.918518537648847	0.293019888442505	0.265448753948038	-0.00988174216240167	-0.688183599011854	0.725469286202337	20.0975409969661	-39.4203508574158	59.2261457194811
20299	1649158896775	6.34686641328792	2.55648337266	7.292652278694	0.0885238753220431	-0.0587097366260341	0.186803295922253	0.0072066661051628	-0.0348961482661746	-0.0120442414636703	0.588623046875	-0.29638671875	0.45166015625	0	0	0	0.307014813371824	-0.207643480305538	0.509140794059297	0.776789380257954	0.395319673822545	0.663491075054967	0.635218032498481	-0.918489572470489	0.293035112389866	0.265532160330227	-0.00996296902609195	-0.688411226106216	0.725252178913736	20.1088861586883	-39.4361574059449	59.2127691232945
20300	1649158896776	6.38437988398499	2.5909215197088	7.24070309969742	0.072013394768284	0.00842726436988715	0.18209647640874	0.0098207490428136	-0.0372750245162429	-0.0178036268783106	0.58154296875	-0.2919921875	0.455322265625	0	0	0	0.307146036974159	-0.20776151037325	0.509042721825636	0.776770219649828	0.395421324327548	0.663192204593472	0.635466817413386	-0.91844470278111	0.293073638654833	0.265644819747975	-0.0100649987762527	-0.688682758671993	0.724992933556988	20.1233503288094	-39.4546160463705	59.1949374678839
20301	1649158896777	6.36690391955459	2.60671150747588	7.23383332787567	0.0510766151507378	0.00310976150260601	0.170204789808924	0.00909669518319316	-0.0288604053919476	-0.0150330502955838	0.5869140625	-0.294677734375	0.4580078125	0	0	0	0.307250018916092	-0.20782939334623	0.508969084965938	0.776759190281218	0.395514827620546	0.662981658558731	0.635628304551491	-0.918403998706528	0.293095792849993	0.265761079493391	-0.0101052606175286	-0.688876024135219	0.724808738274797	20.1361553874403	-39.4666002327175	59.1809744357384
20302	1649158896777	6.37387132150172	2.5748516300127	7.2367180646743	0.0856138243372239	-0.00601196682681066	0.168235322864723	0.0131928692432195	-0.0366543787457783	-0.0189827681778208	0.58056640625	-0.305908203125	0.45458984375	0	0	0	0.307407154932257	-0.207829034929281	0.508812510432025	0.776799692690902	0.395833842936449	0.662714538801912	0.635708273382321	-0.91826706816162	0.293221340648632	0.266095540958659	-0.0100578484789278	-0.689079592970789	0.724615866673638	20.1643913363875	-39.4725355955914	59.150481677648
20303	1649158896778	6.37244233012235	2.58046722272542	7.25830596366807	0.0807518870462279	-0.0233498772334243	0.184450760933755	0.017556294328451	-0.0260588367302906	-0.0199190781770408	0.58544921875	-0.301025390625	0.458740234375	0	0	0	0.30754231954401	-0.20785594337936	0.50873285266178	0.77679116441549	0.395973582848967	0.662509372075323	0.635835083648358	-0.918207367906911	0.293217212624195	0.26630601897509	-0.0100075575049769	-0.68927860704744	0.724427256982732	20.1838847713032	-39.4819486127216	59.1337659607053
20304	1649158896779	6.38004867643248	2.6396662289912	7.27408856355938	0.028696580481776	-0.0126573877908705	0.216482022508321	0.0171666581691905	-0.0277651053748762	-0.0185461437601288	0.5888671875	-0.2958984375	0.45263671875	0	0	0	0.30757855055061	-0.207876384575054	0.508802588182314	0.776725672445664	0.395814669989967	0.662523430773411	0.635919374368295	-0.918276699018596	0.29303072300033	0.266272228025031	-0.00993232401023542	-0.689344398000109	0.724365687954381	20.1831072892892	-39.4882061453549	59.1444282992656
20305	1649158896780	6.37333422730234	2.61585799276976	7.22486351865776	0.0497106661135121	0.00724350632350476	0.170209541563157	0.015684009528907	-0.0223562675002698	-0.0203593047246666	0.58251953125	-0.30322265625	0.450927734375	0	0	0	0.307696581009856	-0.20789285617595	0.508725906626651	0.776724742951287	0.395957024555796	0.662344155991065	0.636017494829667	-0.918215840237919	0.293041531923475	0.266470132105112	-0.00988460626902832	-0.689512059062369	0.724206748771702	20.2009707043023	-39.4954910728445	59.1285278232038
20306	1649158896780	6.35359599168626	2.60518081865705	7.27181731558369	0.0514461649956077	-0.0435868360790023	0.188808966472735	0.0191066896295126	-0.0196634863642035	-0.0180944012639257	0.587158203125	-0.298828125	0.4580078125	0	0	0	0.307787197615922	-0.207940447753187	0.508692320922854	0.7766980969502	0.395985785644649	0.662197899818014	0.636151867908915	-0.918203530557829	0.292998327235715	0.266560043345231	-0.00987593228657685	-0.689670879270456	0.724055622343882	20.211112044504	-39.5054688050985	59.1211217729664
20307	1649158896781	6.35474202258028	2.60763170687408	7.26993720642935	0.0510641940173423	-0.0432173270135702	0.188812527484616	0.0139076481322661	-0.0259720418073707	-0.0212708109007398	0.5849609375	-0.295654296875	0.45556640625	0	0	0	0.307908250909087	-0.207974412977489	0.508604789694222	0.776698345864643	0.396135622893531	0.661990922241187	0.636273987481036	-0.918139073176159	0.293027353844406	0.266750093169937	-0.00985954268610761	-0.689857223466717	0.723878305137551	20.2289074328718	-39.5145379087819	59.103681598348
20308	1649158896782	6.37037946969629	2.62984437738983	7.26714783980593	0.0386868812681323	-0.0259847783937453	0.202654911609658	0.0186639681772715	-0.0234371026093895	-0.0201665194419311	0.590576171875	-0.300048828125	0.450439453125	0	0	0	0.308015493453736	-0.207939273052678	0.508553094030069	0.776699082700127	0.396270018549534	0.661888407679469	0.636296949684885	-0.918082478870396	0.29300041268979	0.266974381083282	-0.00972802086450048	-0.689967023808494	0.72377542902955	20.2471799202718	-39.5162433090914	59.0912067453729
20309	1649158896783	6.37309789924248	2.65976578281622	7.21158649309578	0.0143753952608168	0.019923735957624	0.172156426382363	0.0247659576950274	-0.0308292640586326	-0.0168006247055474	0.589599609375	-0.300537109375	0.456787109375	0	0	0	0.308186340079528	-0.207970780144927	0.508486928919238	0.776666194392789	0.396378395448384	0.661661708811664	0.636465199923918	-0.918036723117061	0.292924445813334	0.267214977225154	-0.00963029751632183	-0.690216670428482	0.723538668788591	20.2700345690283	-39.5287405131584	59.0756490451494
20310	1649158896783	6.39622508399787	2.61797837686516	7.24286609333746	0.0616790185835356	-0.00205641351768916	0.1983468310937	0.0151078495460382	-0.0306643967358739	-0.0219847981219825	0.586181640625	-0.30322265625	0.458740234375	0	0	0	0.308304547149891	-0.208065964541003	0.508429730674706	0.776631231391301	0.396415526731336	0.661429449669451	0.636683448250609	-0.918020181569928	0.292895030345492	0.267304035564804	-0.00967865675778284	-0.690451724821425	0.723313721212645	20.28203240422	-39.5449548014071	59.0644137425909
20311	1649158896784	6.38134478864183	2.63144820324877	7.21211997427173	0.0452535481322775	0.0103181754930456	0.170228036695718	0.0260070968503257	-0.0236787990093173	-0.0174968878781603	0.5791015625	-0.3017578125	0.451904296875	0	0	0	0.308462618887146	-0.208065876777452	0.508373164293741	0.776605517296963	0.396530633493599	0.661249717968823	0.636798450993183	-0.917971898976115	0.292815077150505	0.267557327097446	-0.00954198047321231	-0.690657759733065	0.723118807340227	20.3047084630582	-39.5535002061109	59.0502109109929
20312	1649158896785	6.42769090679424	2.66284207279628	7.23683687007728	0.0340771858342912	0.0324847451743712	0.226014184301647	0.0176493952431123	-0.0240506543859193	-0.0164990889610604	0.58935546875	-0.297607421875	0.45556640625	0	0	0	0.308481506195985	-0.208075909882578	0.508464409982928	0.776535588265152	0.396336719014499	0.661306279268618	0.636860432246122	-0.918056559603329	0.292606208231538	0.267495346265426	-0.00945296409177693	-0.690692125265851	0.723087152123187	20.3012048831053	-39.558106227528	59.0647316851377
20313	1649158896786	6.38367883915079	2.63642530661153	7.20823563658926	0.042449994996929	0.0131765285280317	0.170236988254327	0.0168520325441649	-0.0176839210318978	-0.017171145063949	0.592529296875	-0.302001953125	0.465087890625	0	0	0	0.308587502795056	-0.208076210681697	0.508409810442918	0.776529141959562	0.396447510387484	0.66117063124348	0.636932310287887	-0.918009504224771	0.292586435528214	0.267678403869053	-0.00937665508353425	-0.690830351190503	0.722956087334114	20.3173445031426	-39.5634480934357	59.0524862323174
20314	1649158896787	6.41513438491141	2.64764487898794	7.23440471727676	0.0456722852730455	0.0187226123380576	0.212189054042209	0.0152725657134556	-0.0147140641350431	-0.0150877948272146	0.582763671875	-0.29833984375	0.457763671875	0	0	0	0.308645390140624	-0.208012692526042	0.508446704139107	0.776498996743131	0.396425337596293	0.661212394044932	0.636902756842076	-0.918021028600539	0.292439944390044	0.267798935719239	-0.00918383138316009	-0.690852407455108	0.722937485786017	20.3262249999274	-39.5612516768281	59.0554956213874
20315	1649158896787	6.36230074810207	2.6578299694748	7.22512714014231	0.0166116102326958	-0.00812056970627632	0.174557048357405	0.0127484908576307	-0.0098834515133207	-0.0132207584122228	0.59130859375	-0.294921875	0.452880859375	0	0	0	0.308711314928063	-0.207998682461141	0.508415555285905	0.776496938354003	0.396500342475508	0.661143150650345	0.63692794942987	-0.917989337713878	0.292421894357422	0.267927250469323	-0.00911341102109842	-0.690926313038193	0.722867744259632	20.3369681242928	-39.5631239894267	59.0480683840289
20316	1649158896788	6.39957124715158	2.66207728269945	7.20385705469362	0.0289374726446773	0.0321723783018845	0.18405467087973	0.0131396442749118	-0.00818650295023845	-0.0145995250865623	0.582763671875	-0.302001953125	0.453369140625	0	0	0	0.308755029850131	-0.20794994085726	0.508397592859458	0.776504372952539	0.396577419344341	0.661134727714395	0.636888704779882	-0.91795708850126	0.292404438233907	0.268056762965241	-0.00900744894365574	-0.690941760433632	0.722854307279414	20.3463402911577	-39.5602073498191	59.0428339449924
20317	1649158896789	6.39670851221548	2.66693451394662	7.22702965380172	0.0240455255317492	0.0149037699640473	0.200283057544318	0.0101395717814772	-0.00749552708055536	-0.00745709849746086	0.5947265625	-0.299072265625	0.452880859375	0	0	0	0.308798697137232	-0.207941833487865	0.508389952350695	0.776494182129468	0.396599700469126	0.661099345984024	0.636911557696432	-0.917948015029544	0.292366041990412	0.268129705915216	-0.0089509380022158	-0.690991861189664	0.722807117064106	20.3526425741052	-39.5619057503953	59.040061264726
20318	1649158896790	6.3630112483054	2.66258934315038	7.22274870658995	0.0137903857650916	-0.00609129771913981	0.174562786204691	0.0129479959519197	-0.00330407374831485	-0.0102343062825657	0.5810546875	-0.300048828125	0.45068359375	0	0	0	0.30880676108757	-0.207953126367562	0.508453135036609	0.776446579625415	0.396461813410803	0.661138732374787	0.636956518971962	-0.91800805802119	0.292227587556098	0.268075068738791	-0.00890145579005813	-0.691012744907794	0.722787763081123	20.3493355678821	-39.565247338367	59.0503553172798
20319	1649158896791	6.3816681298168	2.622886499379	7.27980068074858	0.0578691687322134	-0.0454588634547478	0.217033676246357	0.00533368009702478	-0.0121147143088903	-0.0120000738363005	0.5791015625	-0.299072265625	0.452392578125	0	0	0	0.308847890400306	-0.207968580162028	0.508415961018408	0.776450423943731	0.396524560494237	0.661058262439827	0.637000978480324	-0.917980891450184	0.292252382354018	0.268141059781466	-0.00890819045480579	-0.691079241960311	0.722724100521342	20.3555798179913	-39.5685517926142	59.0432795862632
20320	1649158896792	6.34616131137206	2.64843537763519	7.24620503514132	0.0190590684227251	-0.0372819998675936	0.176992688305447	-0.000166683485231994	-0.00621633290997068	-0.0103285282547762	0.593994140625	-0.303955078125	0.456787109375	0	0	0	0.308758751701779	-0.207989857552467	0.508487421559172	0.776433380605812	0.39636152254282	0.661175837864379	0.636980419535699	-0.918050593002502	0.292217150727329	0.267940749996258	-0.00898065338903459	-0.690981655505512	0.722816504805728	20.3392325019818	-39.5670237288859	59.0581664604285
20321	1649158896793	6.36000560446873	2.57858762354369	7.23222462206849	0.0890507359870441	-0.0394452768909474	0.156985261684625	0.00464089242848673	-0.0130727632961679	-0.0131420329635089	0.58203125	-0.299072265625	0.4541015625	0	0	0	0.308800039166667	-0.208009079495875	0.508444398272487	0.77643998642733	0.396433033425215	0.661086699596786	0.637028433922311	-0.918019547178181	0.292253659351987	0.268007293919664	-0.0089978335198444	-0.691051498957641	0.722749517315887	20.3456008869813	-39.5705924977924	59.0502009082427
20322	1649158896794	6.37507400617763	2.59972387466877	7.23022261272257	0.0745667916123145	-0.0222345421395308	0.170808860879353	0.00919962164104628	-0.0171153170293237	-0.0150325750917339	0.58544921875	-0.302001953125	0.4501953125	0	0	0	0.308813130920871	-0.208039738482025	0.508504146575422	0.776387435690958	0.396286000255864	0.661101654802636	0.637104393344157	-0.918083266789009	0.292115966172901	0.267939130305549	-0.00897336298335116	-0.691095408987854	0.72270783476636	20.3419273394666	-39.5762387146464	59.0601461632589
20323	1649158896795	6.37082471076698	2.63518719885041	7.2234348839675	0.0411818909079206	-0.0116840830102563	0.172691827027426	0.0107861197433781	-0.0200951990179913	-0.0171196545961602	0.590576171875	-0.29443359375	0.449951171875	0	0	0	0.308899753799095	-0.2080645969422	0.508441715526554	0.776387202054847	0.396392290823389	0.660953076311747	0.637192422027933	-0.918037487390762	0.292135928030547	0.268074189915755	-0.00896233903856419	-0.691229072354288	0.722580131204276	20.3546419985247	-39.5827826394427	59.0476897003098
20324	1649158896796	6.39455830366003	2.61979541853408	7.2022552210216	0.0643868470736854	0.0115918715891112	0.168389908232252	0.0140684163465403	-0.0219055408572303	-0.0144068554585029	0.5869140625	-0.30126953125	0.45751953125	0	0	0	0.308986161537952	-0.208161697975823	0.508404077688826	0.776351436698123	0.396388002570393	0.660762304200264	0.637392915528727	-0.918038640347352	0.292105691534834	0.268103188720578	-0.00903361762747568	-0.69142421299873	0.72239251894773	20.3615160448952	-39.5976893428201	59.0406672381775
20325	1649158896798	6.36802830726512	2.67277466127798	7.21456060342477	0.00596729211899648	-0.00126036034890781	0.174572302411386	0.0143225742161669	-0.0247266435052248	-0.0153326853256805	0.592041015625	-0.294189453125	0.451416015625	0	0	0	0.30909631895195	-0.208198832832956	0.508345053636439	0.776336278980131	0.396477104900722	0.660586429078618	0.637519784011996	-0.918000400433654	0.292089544107441	0.2682516785162	-0.00900944466617615	-0.691599065890251	0.722225423234698	20.376192698619	-39.6071236793624	59.0282564133387
20326	1649158896798	6.39118439513703	2.63041982948372	7.24626362944063	0.0540896792811407	-0.0226523347444016	0.200865615110517	0.0141899120849891	-0.02924783396378	-0.0148799897587712	0.59326171875	-0.30029296875	0.459716796875	0	0	0	0.309202035018733	-0.208257008144167	0.508308291152678	0.776302647969565	0.396503399408569	0.660415163363239	0.637680849843677	-0.917989126263596	0.292033565371436	0.268351189224581	-0.00900101767846567	-0.691786244945903	0.722046240198229	20.3877717771494	-39.6191028897626	59.0200238119195
20327	1649158896800	6.40189839126919	2.68596211878839	7.2378538024183	0.00824937782452724	0.00373427764954932	0.216526976585653	0.0210275405707026	-0.0238325023056449	-0.0103659629757263	0.58837890625	-0.2939453125	0.449462890625	0	0	0	0.309330700559161	-0.208281266750761	0.508276969551126	0.776265388791875	0.396546872289244	0.660260058450398	0.637814419163362	-0.917971219079847	0.291938079831005	0.268516290912947	-0.00891173488601327	-0.691974575226333	0.721866863224555	20.4039333106755	-39.6290386303182	59.0113118086534
20328	1649158896801	6.37997496572138	2.61488552141534	7.24288553211292	0.0654697859230347	-0.037588830525849	0.187082511077181	0.0176138522277494	-0.0265488965159489	-0.0126257981330239	0.584228515625	-0.297119140625	0.45654296875	0	0	0	0.309451869192579	-0.208322526543523	0.50824386151873	0.776227700366505	0.396579804326106	0.660094337236525	0.637965457332088	-0.91795751817178	0.291855435763498	0.268652934931307	-0.00885740552158731	-0.69216751625858	0.721682531175485	20.4182438125819	-39.6402755348762	59.0028627855117
20329	1649158896802	6.39073747974661	2.67080025607766	7.23426255055645	0.0196276280017082	-0.0112055139988493	0.202737837846394	0.0262363116804143	-0.0290091077496302	-0.0145688484258154	0.585205078125	-0.294189453125	0.4521484375	0	0	0	0.309618308194347	-0.20834708028801	0.508193596924071	0.776187648324622	0.396661524361672	0.65989104474824	0.638124943997765	-0.917923326812262	0.29175154255249	0.268882508750852	-0.00874077713844212	-0.692405117311621	0.721455994732664	20.4401358204161	-39.6521429709977	58.9898588938994
20330	1649158896803	6.42922623183895	2.67567501372374	7.21154614198519	0.031853556148334	0.0297069001740761	0.212215954332626	0.0173684459657753	-0.0237420413246105	-0.0117061975941835	0.5859375	-0.298583984375	0.453857421875	0	0	0	0.309691928116387	-0.208336969116382	0.508179423780385	0.776170271400026	0.396698761091271	0.659826967223907	0.638168054882686	-0.917908077878214	0.29168916581158	0.269002213957558	-0.00865179256419751	-0.692492457628417	0.721373233917908	20.4506343100483	-39.6553512107217	58.9850270384095
20331	1649158896804	6.40796336007355	2.69504036104518	7.22910686807475	0.00639811651816377	0.00674247506935353	0.216526757236412	0.0200941593489559	-0.0219924084472665	-0.0105923897558468	0.590087890625	-0.2890625	0.454833984375	0	0	0	0.309812317630607	-0.208355564886319	0.508149405202484	0.776136887680013	0.396744281146531	0.659684754763282	0.638286769180148	-0.917889236557941	0.291601019673429	0.269162023206281	-0.00856298946656542	-0.692665048676722	0.721208572850511	20.4660613003558	-39.6641864992765	58.9766694275176
20332	1649158896805	6.43200656032878	2.67956925844734	7.20761989567417	0.0317317521851462	0.0310244734468756	0.212212349654212	0.0150153575242765	-0.0241658793815031	-0.00686218755316288	0.58642578125	-0.302978515625	0.452392578125	0	0	0	0.309911912189037	-0.20836744175212	0.508100559162953	0.776125916123992	0.396833661991942	0.659548919304244	0.638371574989574	-0.917851128549594	0.291576856923258	0.269318106199696	-0.00850591149153429	-0.692804560862122	0.721075231802023	20.4804166496322	-39.6704988469977	58.9657568015355
20333	1649158896806	6.42181125547323	2.72153307408866	7.24858741897135	-0.0106651557711022	0.00624745218467267	0.246550604927858	0.0136377734100297	-0.0142283633638167	-0.00913222320531174	0.5908203125	-0.297607421875	0.453857421875	0	0	0	0.309986108650177	-0.208374119429157	0.508081502527992	0.776106967875526	0.396866826282043	0.659465023870779	0.638437627719367	-0.917837353571786	0.291523598465638	0.269422686361017	-0.00844479633621759	-0.692906829111071	0.720977677592088	20.4902506025621	-39.6754157470041	58.9604216088937
20334	1649158896807	6.41965737432797	2.66265912392702	7.20575186721754	0.0414656907898891	0.0167144116513239	0.198437218704793	0.0103321492060273	-0.0127818905611976	-0.00450081748140108	0.585693359375	-0.29638671875	0.455810546875	0	0	0	0.309984327818273	-0.208419632709766	0.508181995935013	0.776029659365985	0.396624631417265	0.659514962903413	0.638536541992413	-0.917942241902085	0.29132155102912	0.269283854766233	-0.00842272431536062	-0.692944274536198	0.72094194641636	20.4814997713579	-39.6827794824446	58.9777881224867
20335	1649158896809	6.3978731756753	2.68082380625467	7.22424082305642	0.0160117131599343	-0.00624725238956374	0.202748591463159	0.00766539841003955	-0.0124566805128087	-0.0021725820675864	0.593505859375	-0.294921875	0.4443359375	0	0	0	0.310023118640754	-0.208445679235808	0.508186881067757	0.776003968177231	0.396592985437097	0.659464113480629	0.638608711914659	-0.917956031656131	0.291263519637773	0.269299621378021	-0.00840998503088253	-0.693017059789602	0.720872129432367	20.4844183658361	-39.6881527133243	58.9778561222053
20336	1649158896809	6.42085672628657	2.66394888864614	7.20420636609783	0.0399420057033375	0.0169673580425478	0.198442988285256	-0.0010042190227038	-0.000219976833206653	-0.00365894339919665	0.588134765625	-0.300537109375	0.453857421875	0	0	0	0.310001402245574	-0.208493839610644	0.508177631940131	0.776005762765915	0.396571626480264	0.659430776510828	0.638656399060656	-0.917964307066282	0.291309250002997	0.269221937841275	-0.00851328509555221	-0.693029560591045	0.720858898900377	20.4793446142603	-39.6917033698465	58.9779397469901
20337	1649158896811	6.39503121238215	2.68465162936551	7.24786255237186	0.00997945998096024	-0.0236606765039036	0.218993989136194	-0.00259220090394888	0.00276439681361996	-0.00157109809967219	0.592041015625	-0.298583984375	0.44873046875	0	0	0	0.309961160920356	-0.208488128663319	0.508197590847231	0.776010301210263	0.396535817727075	0.65948668629819	0.638620901517443	-0.917979575892569	0.291318574755951	0.269159778284684	-0.00853484057370058	-0.692972437112468	0.720913557854745	20.4735850800695	-39.6890603009614	58.9823699836498
20338	1649158896811	6.40012347398636	2.58767166849637	7.18776590235055	0.0996703957822077	-0.00637753560267904	0.15283464722504	0.00204839490990909	0.00115190601332869	-0.00736835045169093	0.592041015625	-0.2919921875	0.449462890625	0	0	0	0.309918163288528	-0.208524424481699	0.508262947222499	0.775974917725528	0.39637268175055	0.659547584035495	0.638659284403521	-0.918049610580158	0.291239017089128	0.269006965409037	-0.0085796081202773	-0.692947919628813	0.720936592916882	20.462325520179	-39.6919182105683	58.9951166738369
20339	1649158896813	6.3998714056366	2.65207747965012	7.25319588862149	0.0402661638618453	-0.0329795628260963	0.21716859102751	0.00591962747266074	-0.00385805712170893	-0.0104049831977008	0.596435546875	-0.299560546875	0.45849609375	0	0	0	0.30993670599103	-0.208509581528617	0.508247392537781	0.775981688359163	0.396416684778615	0.659531793798123	0.638648279570658	-0.918030885264315	0.291247652515952	0.269061514536667	-0.0085501888838978	-0.692959319060922	0.720925985380381	20.4664070043205	-39.6910988015784	58.9917027668245
20340	1649158896814	6.41387302644162	2.60930404719098	7.18663776320517	0.0864885152506895	0.00967715708119277	0.16661236759483	0.00155991258309055	0.00714834101709	-0.0128655765525531	0.584228515625	-0.309326171875	0.45361328125	0	0	0	0.309941262863208	-0.208473089980558	0.508214232218009	0.776011390702339	0.396514529850036	0.659531240673298	0.638588106837063	-0.917988891799575	0.291309415491639	0.269137918135865	-0.00852186308224212	-0.692933883586204	0.720950768657436	20.4710912708172	-39.6866185712085	58.9854376897007
20341	1649158896815	6.41014223023936	2.61394372608011	7.21075760558324	0.0815308527590919	-0.00754925580481961	0.182858943912938	0.00840981824499737	0.00107215562944741	-0.0157116162827365	0.590576171875	-0.298828125	0.4560546875	0	0	0	0.309962752219283	-0.208424620237935	0.508188015160515	0.776032996181564	0.396608237851778	0.659533598218735	0.638527476690515	-0.917949073895572	0.291336066967726	0.269244858480229	-0.00845005339448174	-0.692920434757429	0.72096453983064	20.4781915098181	-39.6821045776447	58.9795490499482
20342	1649158896816	6.37619677018537	2.70037354945758	7.21958004109077	-0.0127188340120074	-0.0087159135764374	0.190812044687803	0.00931043406648218	0.00898589851148535	-0.0189312597649363	0.585205078125	-0.3017578125	0.446533203125	0	0	0	0.309869156222317	-0.20835600189445	0.508354449239681	0.77597979125416	0.39632706082556	0.659819361806485	0.638406822208734	-0.91807175581004	0.29111371992058	0.269067005145322	-0.00831336521769199	-0.692741807500662	0.721137764993259	20.461277664733	-39.6731225716512	59.0084486226686
20343	1649158896817	6.42275171295113	2.63730143028588	7.21000259643988	0.065279425795091	0.010831536352774	0.19665111857776	0.00437833075212269	-0.000171660932816585	-0.023006571664896	0.584716796875	-0.2998046875	0.447509765625	0	0	0	0.309884863420804	-0.208311605781881	0.508294638564347	0.776024617345342	0.396485670606629	0.659793077767799	0.638335497629035	-0.918003531794545	0.29121586365882	0.269189220375166	-0.00828423903287662	-0.692723909853806	0.721155292638488	20.4693445628231	-39.6678134316526	58.9973207353323
20344	1649158896818	6.37386554704021	2.61339679413687	7.20748594646941	0.0661917021291445	-0.0261546259330941	0.157206959456321	0.00317459569806063	0.00450846328631172	-0.0223009015046226	0.583984375	-0.30322265625	0.451171875	0	0	0	0.309816101745382	-0.208355298677489	0.508337895990906	0.776012007711123	0.396361306025106	0.659848969698594	0.638354957898641	-0.918056275355611	0.291213133197667	0.269012241976792	-0.00838989667723328	-0.692671818569878	0.721204105224619	20.4557323349556	-39.6692619422433	59.0073982687223
20345	1649158896819	6.39784167783229	2.56791067570337	7.21734743584279	0.119164806155263	-0.0300154497262618	0.167370032148467	0.0101052590935328	0.000865898476472536	-0.0290486690724933	0.5888671875	-0.2998046875	0.457275390625	0	0	0	0.309857090546796	-0.208283812775719	0.508262592364797	0.776064155837712	0.396573981076451	0.659812326905591	0.638260738880753	-0.917965191844302	0.291315441280982	0.269212221553035	-0.00830566646504111	-0.692663704069079	0.721212873546968	20.4694496894821	-39.6622491026093	58.992424902615
20346	1649158896820	6.39693780473524	2.5709097258861	7.21708097029227	0.116630233375279	-0.0281268634215638	0.167405475091376	0.0151387257554384	0.000942347028516443	-0.0362306895096599	0.582275390625	-0.30810546875	0.4560546875	0	0	0	0.309842578639665	-0.208194145881309	0.508306782032367	0.776065067776263	0.396558825921305	0.65994345246307	0.638134576037876	-0.91797309653326	0.291243583603646	0.269263010922117	-0.00815423969812129	-0.692568996245738	0.72130554816535	20.4705788555263	-39.6528597583449	58.9984184018591
20347	1649158896821	6.42223692912477	2.64473399019824	7.18525149641579	0.0626648378463593	0.0317361238535837	0.1804426911812	0.0247972679104002	-0.000949422967733314	-0.0418676940081564	0.59228515625	-0.295166015625	0.45849609375	0	0	0	0.309957836596032	-0.208072631663927	0.508194867388664	0.776124923092264	0.396887513424531	0.659857919205033	0.638018673825537	-0.917832890266609	0.291328232585051	0.26964911726856	-0.00794274716554588	-0.6926148910912	0.721263838970311	20.4985794572437	-39.6442351588555	58.9741769603839
20348	1649158896822	6.3932008701648	2.70004245378626	7.1986917174571	0.00250477849985404	0.020738341521563	0.186511159596092	0.0248545434598087	0.00112669592627007	-0.0384285480309687	0.5927734375	-0.296142578125	0.45849609375	0	0	0	0.309977690768596	-0.207918698392308	0.508260771148551	0.776115091076122	0.396881606740657	0.660037393390235	0.637836679376138	-0.917838025371275	0.291169639474497	0.269802891442715	-0.00763867878056229	-0.692510563367025	0.721367292169234	20.5065997970044	-39.6306946260681	58.9814353135772
20349	1649158896824	6.40574412281155	2.63326349537098	7.18514884019806	0.0724580201325213	0.0187540239606173	0.16671117326427	0.017566472718872	0.00340806061967596	-0.0376495258614798	0.585693359375	-0.293701171875	0.454833984375	0	0	0	0.310048688238328	-0.207805044472977	0.508165193195818	0.77617975420487	0.397170399831682	0.659995706604094	0.637700039800615	-0.917714432396709	0.291275894691898	0.270108448113385	-0.00747623356565419	-0.692505610400088	0.721373748826553	20.5277194136621	-39.6205302737851	58.9614280585825
20350	1649158896824	6.38207480779621	2.65454785474287	7.20407870333125	0.047408632891804	-0.00344336074674396	0.170998930062463	0.0260779806222626	-0.00357393312530274	-0.0391412148755782	0.591552734375	-0.286865234375	0.4453125	0	0	0	0.310156629303742	-0.207652275638935	0.508074463914557	0.77623690767629	0.397481743079815	0.659962841717801	0.637540046953913	-0.917581761235496	0.291326408833753	0.270504408400297	-0.00720939430173362	-0.692515682903856	0.721366795441826	20.55547840141	-39.6086306140369	58.9403285356561
20351	1649158896826	6.40976891216764	2.6986209947221	7.20117512759799	0.0218832752783668	0.0287172599916144	0.19847194083316	0.0304488108586023	-0.00272200695046034	-0.0366763005790645	0.59619140625	-0.295654296875	0.44970703125	0	0	0	0.310292128830617	-0.207530755622134	0.507986644335608	0.776272728770835	0.397761109295108	0.659882037235447	0.637449446518169	-0.917462677074721	0.291336727924824	0.270896930837066	-0.00695241736450025	-0.692588339416751	0.72129956051334	20.5845644827391	-39.6018930049528	58.9194324221117
