// Start Time : 21/06/2022 10:26:31																																
// Update Rate : 100Hz																																
// Filter Profile : 46.1 human																																
// Firmware Version : 4.4.0																																
PacketCounter	Time_Of_Arrival	Acc_X	Acc_Y	Acc_Z	FreeAcc_X	FreeAcc_Y	FreeAcc_Z	Gyr_X	Gyr_Y	Gyr_Z	Mag_X	Mag_Y	Mag_Z	VelInc_X	VelInc_Y	VelInc_Z	OriInc_q0	OriInc_q1	OriInc_q2	OriInc_q3	Mat[1][1]	Mat[2][1]	Mat[3][1]	Mat[1][2]	Mat[2][2]	Mat[3][2]	Mat[1][3]	Mat[2][3]	Mat[3][3]	Euler_X	Euler_Y	Euler_Z
21164	1655807246202	5.41097078027985	0.726674827074818	8.19882675673946	8.67361737988403E-16	-9.54097911787244E-16	0.0375624317704961	0.0163610809908218	-0.00328164067256836	-0.00833979654492594	0.6328125	-0.30126953125	0.348388671875	0	0	0	0.142182815689361	-0.252196312444873	0.355055113378842	0.888885219460528	0.620665772905491	0.559490521132898	0.549312620559611	-0.702922448372441	0.707439826772366	0.0736812260374255	-0.347381677579175	-0.431855587272787	0.832362133823707	5.05867328750175	-33.3198686397423	42.0326393332768
21165	1655807246202	5.42728347947762	0.730775870373517	8.15941455407575	1.73472347597681E-16	6.07153216591882E-16	0.0140865238010495	0.0171891971192321	-0.00510683150496501	-0.000971631348832246	0.627685546875	-0.29443359375	0.33740234375	0	0	0	0.141844570183257	-0.254376587391208	0.350353398382326	0.890182658749701	0.625090096058317	0.551593163941564	0.552274708186731	-0.695920914754322	0.714265228302965	0.0742917495070633	-0.353491799363593	-0.430778556952697	0.830345339393461	5.11269184367643	-33.5232078416472	41.4258856985402
21166	1655807246203	5.42767206935974	0.732310762719773	8.15901845175186	0.00932456019585009	0.0167001059602372	0.0140679092835683	0.0168806921949124	-0.00489740882808836	-0.00437056750752043	0.630615234375	-0.298095703125	0.34521484375	0	0	0	0.142048241818515	-0.253291013951401	0.352670714268307	0.889544448886744	0.622934059097905	0.55547346592414	0.550819740632114	-0.699391638725043	0.7108913285875	0.0740598043515953	-0.350434721021341	-0.431373095583533	0.831331918495478	5.09079697458966	-33.4232687930011	41.7235501645173
21167	1655807246204	5.41043520769663	0.714011977188212	8.18082600704084	0.0046639010102727	-0.0167271874112988	0.0213471406521286	0.0181529842291468	-0.00137782512661243	-0.00428335897321753	0.631103515625	-0.306640625	0.344482421875	0	0	0	0.142136834903626	-0.253262088679841	0.352673672886093	0.889537360122742	0.622959189781115	0.555437072555705	0.550828018802606	-0.699428559299841	0.710836801233225	0.0742343077577013	-0.350316340331143	-0.431509791827792	0.831310869202207	5.10285743359423	-33.423837079619	41.7205372864547
21168	1655807246205	5.41684828885936	0.698967605527051	8.19720903519074	0.0142738989986397	-0.032334681609323	0.037377995044956	0.0170915442779831	-0.00630292196291269	-0.00379940527606172	0.642578125	-0.29931640625	0.34716796875	0	0	0	0.142225406751983	-0.253257086354133	0.352677929687608	0.889522939443897	0.622958252245356	0.555391033146341	0.550875499781985	-0.699469401624495	0.710780423170991	0.0743891539670732	-0.350236451772915	-0.431661893543438	0.831265563771296	5.11372238610175	-33.4270966645847	41.7182209895323
21169	1655807246205	5.41249565014695	0.735266551665289	8.19705407415735	-0.012644231057336	-0.0107134394689819	0.0375484902682785	0.0282066618343247	-0.00211596772499506	-0.00481917709412397	0.63134765625	-0.3125	0.3427734375	0	0	0	0.142360691374156	-0.253213328373991	0.352690705186203	0.889508690435623	0.622984553618049	0.555347645613046	0.550889497508681	-0.699538143582936	0.710685400053463	0.0746501696139332	-0.350052326982496	-0.431874119001007	0.831232887770475	5.13177035870488	-33.4280576365212	41.7147960373253
21170	1655807246206	5.42546067004345	0.791746384971204	8.17482995926029	-0.0349026561244964	0.0443452031649951	0.0304394595055761	0.0215961249390142	-0.00315962077644895	-0.00549553411076987	0.639892578125	-0.29736328125	0.343017578125	0	0	0	0.142468797743536	-0.253185237335791	0.352691489993379	0.889499066975891	0.623011896962939	0.55529550981961	0.550911129871978	-0.699579495298179	0.710622709111524	0.0748591681315305	-0.349920999657045	-0.43204428253268	0.831199754529461	5.14626480133704	-33.4295427624572	41.7108750604174
21171	1655807246206	5.40238434532988	0.703402989028448	8.12886842804224	0.0295256037950799	-0.0128271630191363	-0.027085803513609	0.0134439735040052	-0.00311735365777506	-0.00315974936987368	0.631591796875	-0.305908203125	0.34814453125	0	0	0	0.142538086716918	-0.253173142419321	0.35269223459691	0.889491113754176	0.623023095225128	0.55525958647099	0.55093467348513	-0.69960684778523	0.710582162980236	0.0749883203328569	-0.349846368207698	-0.432157125692026	0.831172507585213	5.15526377451964	-33.4311591302462	41.708522381606
21172	1655807246207	5.41925218463722	0.724310105056413	8.21285594142996	-0.00299754242981537	-0.0263917287795644	0.0535792143108082	0.023238504004134	-0.00304876729144654	-0.00568067824797328	0.643798828125	-0.311767578125	0.356201171875	0	0	0	0.142654188777664	-0.253141664510358	0.352694156095846	0.889480698142996	0.623052259889529	0.55520585079707	0.550955846404457	-0.699652725983281	0.710513229360052	0.0752131233796011	-0.349702651506555	-0.432339466328315	0.831138160226224	5.17084730762536	-33.43261276567	41.704435960502
21173	1655807246208	5.41048644090573	0.707871389578441	8.16188692649891	0.0219008758400809	-0.0225793013466021	0.00514610166477603	0.0168863836138598	-0.00489885982420673	-0.00437069246983988	0.636474609375	-0.305419921875	0.350341796875	0	0	0	0.142743459767761	-0.253130554547419	0.352692595441312	0.889470156986123	0.623065710950775	0.555153614211993	0.550993270798082	-0.699684538728115	0.710464475628802	0.0753775505990901	-0.349615025567026	-0.432486639674401	0.831098454096092	5.18233630756931	-33.4351822122542	41.7011439479846
21174	1655807246208	5.41085530167645	0.709486121642741	8.16150218892929	0.0218912607427525	-0.0225539161205672	0.00514618145745871	0.0168870725220042	-0.00489899782499603	-0.00437088130148538	0.635986328125	-0.305419921875	0.342529296875	0	0	0	0.142831410279049	-0.253119421476394	0.352691428180485	0.889459669235859	0.62307862991893	0.555102794226493	0.551029861967832	-0.699716409980455	0.710415889451415	0.0755394573651326	-0.34952820564643	-0.432631658408043	0.831059493418307	5.19364901027331	-33.4376945257474	41.6979486659511
21175	1655807246210	5.39040615038809	0.743096495195247	8.20046859274587	-0.0269595550101831	-0.0284236005460268	0.0287973303873272	0.0214406530747034	-0.00115664681795739	-0.00465611771552657	0.6396484375	-0.305419921875	0.34814453125	0	0	0	0.142934694848413	-0.253083429025228	0.352697028123287	0.889451098888761	0.623107168611667	0.555064713080294	0.551035952291538	-0.699762323875938	0.710348958723185	0.0757432962356031	-0.349385383936562	-0.432790389373399	0.831036901922847	5.20772760811412	-33.4381126884053	41.6946929448441
21176	1655807246211	5.41889828149072	0.71406715276828	8.19455225364431	0.0142593470784585	-0.0322394836255945	0.0373783281667936	0.0184796937467073	-0.00538740197102922	-0.00596898300011078	0.63525390625	-0.30419921875	0.350341796875	0	0	0	0.14303098360889	-0.253069658906834	0.352690863680493	0.88944198245021	0.623129804834174	0.555002517498088	0.551073000516365	-0.699789726438131	0.710302584808363	0.0759248100834315	-0.349290115948006	-0.432946236368147	0.830995770937305	5.22039566864758	-33.4406564692197	41.6904703364099
21177	1655807246212	5.41302323338849	0.732482676828704	8.17748035660084	0.00461342460657318	-0.0165546564737938	0.0213474564143841	0.0164696399608107	-0.00209007984554379	-0.00551585742197589	0.6376953125	-0.301513671875	0.348876953125	0	0	0	0.143114892217333	-0.253045964813171	0.352685677269414	0.8894372829865	0.623161105481573	0.554954289116986	0.551086176206267	-0.699812873038058	0.710261881349272	0.0760920668165307	-0.349187885450229	-0.433074816738232	0.830971734634785	5.23198255784415	-33.4415611477414	41.6865680263502
21178	1655807246213	5.41789578495601	0.699913904628444	8.17703308539216	0.0315091990854213	-0.0380708164680414	0.0211776889621529	0.0166802418182254	-0.00349483052722869	-0.00494353173636447	0.63232421875	-0.31494140625	0.34765625	0	0	0	0.143196335234436	-0.2530276812703	0.352683805634628	0.889430118294562	0.623182251508103	0.554909924590819	0.551106937894909	-0.699840471273914	0.710217885637006	0.0762487356511942	-0.349094824041258	-0.433203797896454	0.830943604172805	5.2428714128335	-33.4429867206093	41.6833274579714
21179	1655807246214	5.39747963334415	0.733696908564894	8.2159454256802	-0.0173416842339779	-0.0439400951032866	0.0448287991310234	0.0231954056515772	-0.0036493937330474	-0.00709669756183788	0.641357421875	-0.306396484375	0.350341796875	0	0	0	0.143314901268387	-0.252997924430139	0.352678975423668	0.889421401587901	0.623219181056308	0.554843712142183	0.551131842175525	-0.699877202385432	0.71015675873709	0.0764805831644493	-0.34895523200641	-0.433388778253793	0.830905778616949	5.25896208141973	-33.4446967697764	41.6782456452535
21180	1655807246215	5.41842540978331	0.703718882640427	8.17635554829221	0.0314728652582835	-0.0378841805384829	0.0211785260852011	0.0133497096433051	-0.00431763258909668	-0.00598698510948635	0.632568359375	-0.310791015625	0.343994140625	0	0	0	0.143380362166502	-0.252987591214391	0.352668802261374	0.889417824393053	0.623243989206136	0.554792932773329	0.55115490713881	-0.699886742581131	0.710133575313061	0.0766084379964984	-0.34889178476656	-0.433491761118776	0.830878700873086	5.26787493009014	-33.4462805525282	41.6745086099407
21181	1655807246216	5.39360022476794	0.684841151883877	8.16454822845682	0.0344388070279826	-0.0615637025477423	-0.0037729499939676	0.0246284656779221	-0.00213376931386731	-0.00785543843233403	0.63671875	-0.311279296875	0.34228515625	0	0	0	0.14350358499089	-0.252948018095501	0.352663489305172	0.889411313480676	0.623291526905318	0.554727899653093	0.551166608054684	-0.699923689305273	0.710070368811727	0.076856362683092	-0.34873270801193	-0.433678485380641	0.830848042472641	5.28502066391411	-33.4470840206944	41.6690026366147
21182	1655807246217	5.41419008435435	0.742530630244837	8.17580154373639	0.00444378652460272	-0.0159675539051746	0.0213485053388815	0.0299244773283388	-0.00520880788387794	-0.0086782069856117	0.634765625	-0.3037109375	0.34521484375	0	0	0	0.143641470032655	-0.252911908274638	0.352663599705435	0.889399280516093	0.623327904191372	0.554660227097791	0.551193574284224	-0.699974780271124	0.709991027059325	0.0771235922376261	-0.348565102729438	-0.433894888159645	0.830805389479477	5.30356279832291	-33.448935742291	41.6638706086676
21183	1655807246219	5.41304288933613	0.727291619719754	8.15848375797505	0.0217162700506932	-0.0219049331634056	0.00514803950200004	0.0146836342781602	-0.00400360557432306	-0.0095712577005567	0.63916015625	-0.301513671875	0.345947265625	0	0	0	0.143725930241077	-0.252896945258627	0.352636727955192	0.889400545396869	0.623380946351821	0.554574898915785	0.551219445609509	-0.699966293765476	0.709980390146786	0.0772983389164407	-0.348487278559391	-0.434021344059903	0.830771984110384	5.31572337072527	-33.4507123159773	41.6570718818004
21184	1655807246220	5.41805683401981	0.695003941012423	8.15796993488262	0.048494726889161	-0.0431936585698513	0.00498170773294504	0.0217703019649601	-0.00516547821203188	-0.00634003679808976	0.635009765625	-0.311279296875	0.352783203125	0	0	0	0.143822291647707	-0.252877330105068	0.35263763749337	0.889390184883569	0.623399505084054	0.554526112971338	0.551247537041078	-0.700003701457196	0.709923690096592	0.0774801405901004	-0.348378924458959	-0.434176397645629	0.830736408688269	5.32838066452586	-33.452641384697	41.6537217124907
21185	1655807246221	5.40758778459595	0.748357980032386	8.14085316403236	0.0119311802981413	-0.00588906611628742	-0.0108835592073984	0.0318807893684719	-0.00530045131669684	-0.00546612754652707	0.635498046875	-0.314697265625	0.348388671875	0	0	0	0.143980318856429	-0.252840754790872	0.352649822994733	0.88937018324237	0.623419310117131	0.554464290405051	0.551287324757884	-0.700080660383811	0.709815540247568	0.0777751102835629	-0.348188788920104	-0.434432099974986	0.830682440997566	5.34889405022332	-33.4553737232968	41.6496455498931
21186	1655807246222	5.39339309415267	0.765857505670312	8.19640952589539	-0.027492188313826	-0.0270514324266301	0.0287997242463565	0.0166874047166386	-0.00349592145090202	-0.00494515093153051	0.642333984375	-0.311279296875	0.34912109375	0	0	0	0.144045507771519	-0.252826170397247	0.352653006819779	0.889362511034773	0.623429568686462	0.554435779152804	0.551304398388618	-0.700109675524004	0.709773496943628	0.0778975306032752	-0.348112072650586	-0.434537167376552	0.830659638506215	5.3574106269894	-33.4565462457346	41.6477142853951
21187	1655807246223	5.42048448490695	0.719084123628832	8.17365342601384	0.0310049613386772	-0.0368676946469138	0.0211838758540015	0.0182799714005833	-0.00398553638239628	-0.00654353366351146	0.645751953125	-0.3076171875	0.345458984375	0	0	0	0.144142092146862	-0.252806946213832	0.352644146848749	0.889355840432208	0.623461507278709	0.554372018915295	0.551332398454454	-0.700132507461379	0.709730325929687	0.0780854432758298	-0.348008938013958	-0.434689002735888	0.830623410435124	5.37049172986478	-33.4584691695696	41.6429845886497
21188	1655807246224	5.39866229332687	0.735421079779142	8.19558254095288	-0.000787219634080034	-0.0482119334580941	0.0286360486564625	0.0234663482995138	-0.00445406412707274	-0.00511384012011755	0.641357421875	-0.3125	0.3505859375	0	0	0	0.14423611377569	-0.252783074893073	0.35265529336071	0.889342962301474	0.623469922224549	0.554342109835727	0.551352955323711	-0.700183903239111	0.709660375095115	0.078260166526172	-0.347890439256611	-0.434841324258328	0.830593321060979	5.38263203562414	-33.4598809538952	41.6410655538968
21189	1655807246224	5.41647907491654	0.757029629619018	8.17295521101238	0.00387378312100943	-0.0147860907879893	0.0213505937660621	0.0138774209243245	-0.00592600840771598	-0.00201381479486182	0.633056640625	-0.310791015625	0.352294921875	0	0	0	0.144310817262912	-0.25278350631642	0.352659601114032	0.889329012625462	0.623463409352937	0.554302040929047	0.551400602665526	-0.700219618477476	0.709611187526005	0.0783865322436882	-0.347830221656012	-0.434972654266709	0.830549773910573	5.39155314284232	-33.4631533192914	41.639306186447
21190	1655807246225	5.42767772446483	0.707864164417993	8.18927835822158	0.0402307692436477	-0.0515479232470874	0.0372243691120904	0.0196635060088023	-0.00307260164490313	-0.0087168057961008	0.630859375	-0.3046875	0.345703125	0	0	0	0.144386569007628	-0.252755791794198	0.352651980846882	0.889327616128873	0.623502180238517	0.554257207751424	0.55140183069465	-0.700235374047306	0.709578198189952	0.0785442651396697	-0.34772899242175	-0.435083587726653	0.830534056809387	5.40243977384668	-33.4632376605718	41.6352357408977
21191	1655807246226	5.40158429415855	0.671669016891322	8.16050921341127	0.0604727821613487	-0.0811726222660665	-0.00392004409691538	0.0254834454242541	-0.00775187494000368	-0.005564711566879	0.63623046875	-0.304931640625	0.344970703125	0	0	0	0.144520579401913	-0.252741301629082	0.352653849176278	0.889309225883397	0.623514194223984	0.554184004531056	0.551461819823583	-0.70028928193197	0.70949812958098	0.0787865834536335	-0.347598865378501	-0.435307354914907	0.830471273160346	5.41941510905926	-33.4673578256002	41.6309297492862
21192	1655807246226	5.44588325938813	0.732276385345414	8.16613303338447	0.0445487916902592	-0.0174271053729164	0.0299399895656549	0.0232598234752043	-0.00305083619173624	-0.0056901682626551	0.635986328125	-0.303466796875	0.346923828125	0	0	0	0.14459883309729	-0.252712907917501	0.352666481943242	0.889299564911937	0.623525077371315	0.55416831471531	0.551465281640366	-0.700336281089285	0.709435059961358	0.0789366143665652	-0.347484634594288	-0.435430103074211	0.830454727277566	5.4297810540147	-33.4675955955974	41.6296276997921
21193	1655807246227	5.42246447367252	0.731087459435857	8.17127496364881	0.0302435458130093	-0.0351722382800497	0.021192457217813	0.0197659286095143	-0.00187053147066971	-0.00589328319660262	0.634521484375	-0.30615234375	0.34130859375	0	0	0	0.144697470899841	-0.252682109861281	0.352663891355509	0.889293299764049	0.623559862180083	0.554118346825214	0.551476160853439	-0.700368195779467	0.709381643298359	0.0791332704488657	-0.347357868226084	-0.435580695007264	0.830428786542482	5.44339622324274	-33.4683428232304	41.6254752733664
21194	1655807246228	5.40384746427448	0.695652352084147	8.17630549873751	0.0424053495742517	-0.0738003158032441	0.0122923387083667	0.0217814213631589	-0.00516835443935361	-0.0063423366140803	0.640869140625	-0.2998046875	0.345947265625	0	0	0	0.144769817864302	-0.252669342917104	0.352671814551292	0.889282010504247	0.623561588741877	0.554091611076703	0.551501071241145	-0.700407190092711	0.709328582113272	0.0792636780852852	-0.347276133807291	-0.435701100677516	0.830399805970752	5.45250178900917	-33.4700537920198	41.6240238133739
21195	1655807246228	5.39947668943504	0.732086848510656	8.17593906106883	0.0154870500279869	-0.0521793868141629	0.0124495932589141	0.0251166275183552	-0.00434323615427352	-0.0053024626272561	0.6328125	-0.3017578125	0.34423828125	0	0	0	0.144895864508904	-0.252640544570857	0.352676799176269	0.889267686925562	0.623583661123445	0.554035022640395	0.551532964806039	-0.700461303102773	0.709248527541998	0.0795015033510259	-0.347127325970525	-0.435903337756624	0.830355887374316	5.46905011095619	-33.4722444493129	41.6201112216227
21196	1655807246229	5.4233498443515	0.737442762318271	8.17011621673157	0.0293004161268427	-0.0335430637069201	0.0212010045476081	0.0182880912669359	-0.00398877910801211	-0.00654565658620659	0.63623046875	-0.30517578125	0.347412109375	0	0	0	0.144943191058688	-0.252627675717963	0.352682058799583	0.889261544332123	0.623589245724455	0.554019861596098	0.551541880163099	-0.700486507469302	0.709213673533224	0.0795903142786215	-0.347066428036861	-0.43597930940648	0.830341457654129	5.4752170377399	-33.472856823875	41.6190779437586
21197	1655807246229	5.42217420210261	0.722008510394356	8.15288749847731	0.0465765970324517	-0.0394885447168212	0.00500659681297399	0.0248085447895506	-0.00414499528157941	-0.00870268247595181	0.642822265625	-0.3134765625	0.343505859375	0	0	0	0.145071850721191	-0.252596066352262	0.352671622814422	0.889253682507491	0.623635907449611	0.553939920946005	0.55156941441838	-0.700518236268467	0.709153769179541	0.0798444256900088	-0.346918514344244	-0.436178284237976	0.830298770783384	5.49287191988004	-33.4747481133653	41.6128441550783
21198	1655807246230	5.41916473665367	0.77613668448924	8.16938198088913	0.00168429606108005	-0.0109081395850922	0.0213562786272643	0.0215748653150369	-0.00376589755256085	-0.0069185476430087	0.6337890625	-0.305419921875	0.34912109375	0	0	0	0.1451253002168	-0.252582836801229	0.352685709097398	0.889243132325965	0.623629402303819	0.553934369327969	0.551582344767675	-0.700559009409526	0.709102875670899	0.0799386392829194	-0.346847867107936	-0.436268066895214	0.830281115580855	5.49942982574132	-33.4756362952213	41.6128557887149
21199	1655807246230	5.43040251887764	0.727147765951879	8.18578167477036	0.0382424510903255	-0.0482058537599584	0.0372492126426245	0.0172204076937372	-0.00509911861992854	-0.000973002421293703	0.637451171875	-0.302001953125	0.34033203125	0	0	0	0.145212090320459	-0.252574506003928	0.352699396254879	0.889225901345141	0.623618509596632	0.553905133120288	0.551624018686163	-0.700612621034239	0.709033169412414	0.0800869522489255	-0.346759152346424	-0.436418455356764	0.83023913548327	5.50984725744529	-33.4784989262776	41.6118511879773
21200	1655807246232	5.40569691437689	0.707960090111331	8.17402621225891	0.0406056340897146	-0.0709147665891154	0.0123211926006768	0.0199837928418702	-0.00327546351239115	-0.00532098722341953	0.636474609375	-0.2998046875	0.34326171875	0	0	0	0.145257639278526	-0.252560074191785	0.352714638716539	0.889216515135955	0.623611585118603	0.553906803447701	0.551630169588479	-0.700651924060133	0.708985203732582	0.080167712946697	-0.346692186552709	-0.436494254237808	0.83022725431094	5.51544765684507	-33.4789214470883	41.6122528512476
21201	1655807246232	5.42482453815988	0.747410159142737	8.16823121694933	0.0279897338853552	-0.0315460281899253	0.0212114314659431	0.0218388663774588	-0.00456714186509652	-0.00493195353392564	0.6396484375	-0.307373046875	0.348388671875	0	0	0	0.145369029255687	-0.25253835302449	0.352716927783129	0.889203573114823	0.623630298213818	0.553851794507682	0.551664246503582	-0.700696815423682	0.708917228376981	0.0803762164163606	-0.346567776928056	-0.436674424521198	0.830184451169875	5.52998699915515	-33.4812623126549	41.6085739249664
21202	1655807246233	5.39032629681728	0.709395357976101	8.21243714613876	0.0179639682696315	-0.0972855407059882	0.0358250086441512	0.0134647705069981	-0.00311932758364058	-0.00316381021261647	0.636962890625	-0.304443359375	0.346923828125	0	0	0	0.145376007736607	-0.252537954872793	0.352736904370471	0.889194621001707	0.623602515287607	0.553877596627285	0.551669748020816	-0.700729435352782	0.708884985339405	0.0803762153284295	-0.346551816265822	-0.436694041079945	0.830180795446465	5.53001112526493	-33.4816402375437	41.6111665452042
21203	1655807246235	5.4315900003922	0.734269304941129	8.18435800325853	0.036929628244377	-0.0461163303824607	0.0372642267396301	0.0234337175043476	-0.00505918845345442	-0.00653082000217046	0.641845703125	-0.30224609375	0.35205078125	0	0	0	0.145497396815723	-0.252514438013513	0.352733706961302	0.889182713556615	0.623630781136116	0.553809042658766	0.551706618674218	-0.700769816216172	0.708818878986373	0.0806068326685437	-0.3464192741461	-0.436888247795569	0.830133932229135	5.54609031025584	-33.4841730973191	41.6063559667888
21204	1655807246235	5.42431959392052	0.735477138159377	8.15025607994126	0.0438501344096395	-0.0350481260303398	0.00503600892677092	0.0234350246769612	-0.00505945024917776	-0.00653117839425316	0.635498046875	-0.298583984375	0.3466796875	0	0	0	0.145545460106714	-0.252498898375531	0.352754947264523	0.889170834284319	0.623616506999093	0.553818684833224	0.551713074457955	-0.700818958195244	0.708760932445457	0.0806890852171428	-0.346345550039816	-0.436970027540386	0.830121650722936	5.55179591782359	-33.4846165902972	41.6075023747724
21205	1655807246237	5.40864255196329	0.735095197796867	8.18902878470901	0.0219070427867094	-0.0625188002927271	0.0285312091152505	0.0132052818846701	-0.00232037930990483	-0.00515220657225006	0.637451171875	-0.314697265625	0.348388671875	0	0	0	0.145614844273935	-0.252482146266714	0.352746931965616	0.889167411083243	0.623644735610798	0.553771855705694	0.551728171813992	-0.700832449348	0.708731838231845	0.0808273432533347	-0.346267413548866	-0.437076553140044	0.830098165887262	5.56140549985858	-33.4856537422362	41.603809229434
21206	1655807246239	5.3886105846433	0.681628598651792	8.17737320937317	0.0509542932932781	-0.106430830977786	0.00348551743238268	0.0202009606577417	-0.00467931322477205	-0.0047465734142503	0.636962890625	-0.310302734375	0.340087890625	0	0	0	0.145640250927471	-0.252476632070265	0.352774593415282	0.889153841474534	0.623611272998277	0.553800249723558	0.551737495187334	-0.700883289915702	0.708678007100931	0.080858494720058	-0.34622477396398	-0.437127859621848	0.830088935136478	5.56359694162331	-33.4862942416962	41.6067941869929
21207	1655807246240	5.40914974506347	0.73908247750835	8.18833489003224	0.0210562015422222	-0.0611037641498227	0.028541953982872	0.0298477940761536	-0.00260639755864066	-0.00644417667727251	0.6357421875	-0.3017578125	0.34912109375	0	0	0	0.145785677053458	-0.252430824837093	0.352781729612139	0.889140183711206	0.623647459847865	0.553743226338511	0.55175382654724	-0.700946421170665	0.708583175235865	0.0811418413686507	-0.346031733332858	-0.437353773342445	0.830050430076259	5.58322744746273	-33.4874161890052	41.6022142664375
21208	1655807246240	5.42670186721154	0.761083688289569	8.16572120110768	0.0248006788808111	-0.0262273674893037	0.0212356145516246	0.0148006609687939	-0.00281376905789186	-0.00675100911314902	0.64306640625	-0.315185546875	0.34375	0	0	0	0.145782566238728	-0.252427826949815	0.352794114285157	0.889136630944872	0.623633010214292	0.55376518757975	0.551748117890605	-0.700963493190988	0.708567512613205	0.0811311363326259	-0.346023192552969	-0.437351342851373	0.830055271124491	5.58246315339581	-33.4870240086253	41.6040015362785
21209	1655807246241	5.4019554734241	0.741766666762839	8.15404424673001	0.0277821870378446	-0.0499350541597451	-0.00368574596332749	0.0169180133523668	-0.00490316702077963	-0.00437307908008156	0.631591796875	-0.302001953125	0.345458984375	0	0	0	0.145871867852549	-0.252416630596358	0.352792518405937	0.88912579634402	0.623646567110357	0.553712886979507	0.551785282627479	-0.700994828508057	0.70851767425201	0.0812954837459132	-0.345935268130364	-0.437498278928434	0.830014485535181	5.59397302861874	-33.4895772297089	41.6006963704401
21210	1655807246242	5.43821002931947	0.713452525949813	8.18194832212054	0.0602825024713469	-0.0619904193414551	0.0371829014847513	0.0151130246401957	-0.00300806061626078	-0.00335177590423483	0.638427734375	-0.3056640625	0.34130859375	0	0	0	0.145861745422151	-0.252421451641322	0.352826107923837	0.889112759744796	0.623594296637208	0.553767122015563	0.551789930839758	-0.701041656089149	0.70847617757944	0.0812533213487781	-0.345934603110657	-0.43749683470515	0.830015523947382	5.5910832549366	-33.4898965676465	41.6058668785016
21211	1655807246243	5.43222935123337	0.73181224869245	8.16479464998799	0.0506432559908733	-0.0463242635659149	0.0211229612344024	0.0232799599718031	-0.00305384016593185	-0.00569843837410413	0.631103515625	-0.306640625	0.347412109375	0	0	0	0.145977586801983	-0.252389984827478	0.352828122163814	0.889101881631465	0.623623223538283	0.553713732780478	0.551810816488793	-0.701086856452896	0.708405720723652	0.0814773254040623	-0.345790825171397	-0.437678463002593	0.829979679420509	5.60663960641289	-33.4913314521229	41.6018046175975
21212	1655807246244	5.38060282349593	0.761432526502172	8.17531280798648	-0.00588136495882231	-0.0587193967547301	0.00377447162929023	0.0186131531434528	-0.00418722675714433	-0.00314906150247918	0.6337890625	-0.302978515625	0.34326171875	0	0	0	0.145985426483995	-0.252392580756756	0.352859795299503	0.889087287781365	0.623575900080275	0.553755039653504	0.551822845574032	-0.701137593826188	0.708356440230958	0.0814691850146377	-0.34577329475062	-0.437705962538406	0.829972480866462	5.60613132941742	-33.4921578843308	41.606085424564
21213	1655807246245	5.40915821560728	0.732022949863508	8.16961570556927	0.0353271792547171	-0.0625794199428441	0.0123982165699061	0.0132098571689002	-0.00232264177986401	-0.00515358630817433	0.640869140625	-0.30810546875	0.34521484375	0	0	0	0.146054411734575	-0.252376093845319	0.352852157165645	0.889083669432634	0.623603324877861	0.553708897475208	0.55183815567435	-0.701151465164999	0.708326927992838	0.0816062863828812	-0.345695698697934	-0.437812082904321	0.829948832136493	5.61566440948442	-33.4932097429708	41.6024638997417
21214	1655807246246	5.41419536755463	0.699486955957803	8.16934844218483	0.0612287218646541	-0.0826850777696949	0.012304308217141	0.0221136887377292	-0.00536604720841925	-0.00294641864723931	0.638427734375	-0.309326171875	0.34375	0	0	0	0.146079182991157	-0.252377619417337	0.352890661743568	0.889063884300819	0.623547436142849	0.553750452026971	0.551859612364961	-0.701218917825922	0.708258106301645	0.081624041440316	-0.345659694154124	-0.437870861942117	0.829932819027748	5.61698607750364	-33.4946839158471	41.6071482879359
21215	1655807246247	5.4159140264733	0.718708514196253	8.18582244552249	0.043929054346027	-0.0767164842000174	0.0284782441873421	0.0116170153084972	-0.001829951693282	-0.00355558793603466	0.641357421875	-0.30517578125	0.348388671875	0	0	0	0.146138147883953	-0.252363043905954	0.352888492481841	0.88905919244866	0.62356521188883	0.553717780639116	0.551872309439539	-0.701237251962207	0.708226707213882	0.0817388992430988	-0.345590426636112	-0.437962955731502	0.829913071607139	5.62497238716321	-33.4955562748206	41.6046589142304
21216	1655807246248	5.37516692164742	0.69704200155358	8.21337881000075	0.0237305511377956	-0.126115765523645	0.0270997243101903	0.0167105978585816	-0.00350209385799726	-0.00495110785045624	0.638671875	-0.3095703125	0.35595703125	0	0	0	0.146124911054626	-0.252368307600631	0.35292533920526	0.889045247799528	0.623507884531292	0.553778598294647	0.551876056735686	-0.701287784299242	0.70818243063226	0.0816889743872682	-0.345591321534516	-0.437957656645708	0.829915495376142	5.62154244146122	-33.4958137363901	41.6103986640994
21217	1655807246248	5.4211429396706	0.687891757204412	8.18530015806891	0.0695990581510635	-0.0965575131917672	0.0283977742286847	0.0251414672280563	-0.00434546771520148	-0.00531041816080435	0.6396484375	-0.305908203125	0.3466796875	0	0	0	0.146250567729888	-0.252339877432721	0.352930645891827	0.889030548904987	0.623529090895233	0.553722551014354	0.55190833415117	-0.701341952356057	0.708101461258126	0.0819254931599467	-0.345443104827347	-0.438159396866326	0.829870715391849	5.63801636342707	-33.4980314188247	41.6065518758591
21218	1655807246249	5.40578218614707	0.775360187006966	8.16777906975838	0.00496041911362006	-0.0353563295345572	0.0125354879370576	0.0302864127294834	-0.0054125341331727	-0.00529529294816922	0.63720703125	-0.2998046875	0.3427734375	0	0	0	0.146279840129559	-0.252315820247235	0.352993559073476	0.88900758291326	0.623464548211211	0.553810465775872	0.551893037753606	-0.701445337167568	0.707995511248622	0.0819560554058044	-0.345349672201478	-0.438219493004264	0.829877870449272	5.64005774848881	-33.4969804430802	41.6140129676738
21219	1655807246250	5.43599503565963	0.764364789955506	8.1786760264793	0.0288702939336844	-0.0332350423343459	0.0373430314543217	0.0187823385067413	-0.00619551937144256	-0.00398315152066124	0.632080078125	-0.306396484375	0.350341796875	0	0	0	0.146378715403677	-0.252307568537071	0.352995573007902	0.888992850349486	0.623470032591468	0.553756165679926	0.551941326077202	-0.701485996756253	0.707934794227185	0.0821323534144751	-0.345257171996875	-0.438386172334371	0.829828325071361	5.65244704051976	-33.5002982518043	41.6109733285887
21220	1655807246251	5.41139765678692	0.74517457754824	8.16694320720162	0.0310823148034276	-0.0552399068544024	0.0124565688548479	0.0185705034212636	-0.00479365918698522	-0.00456155640059076	0.636962890625	-0.302001953125	0.345947265625	0	0	0	0.146380914669281	-0.252298525747322	0.353015025544213	0.888987330318229	0.623451691291494	0.553788392304334	0.551929710356996	-0.70151514817875	0.707906039121208	0.0821312160598532	-0.34523106103235	-0.438391898105685	0.829836163452626	5.6523162284461	-33.4995001437766	41.6134657337269
21221	1655807246252	5.39440982638035	0.72702205006109	8.18891105088952	0.0264042250306899	-0.0886393641362832	0.0198061321032554	0.0152836801154943	-0.0050174446463438	-0.00418644326920905	0.638916015625	-0.31298828125	0.353271484375	0	0	0	0.146462410853259	-0.252290950252373	0.353012617624494	0.888977013440566	0.623462736437315	0.553737923424475	0.55196786902468	-0.701542486666163	0.707861708009908	0.0822796556601476	-0.345155552869068	-0.438527210666392	0.829796077255612	5.66273736268358	-33.5021220268188	41.6103690799603
21222	1655807246253	5.38862535444225	0.745466581718882	8.17157233749565	0.0156420649088111	-0.0708166400423912	0.00374467368911091	0.0253108330619407	-0.00635466442686901	-0.00614539545711372	0.64111328125	-0.306396484375	0.337646484375	0	0	0	0.146478388902875	-0.252280271289659	0.35306190162143	0.888957839228551	0.623403916682952	0.553807074977641	0.55196492675628	-0.701621505739599	0.707782750415755	0.0822851195393645	-0.34510117262631	-0.438567328831753	0.829797492604869	5.66310136276548	-33.5019198606554	41.6166054897215
21223	1655807246254	5.41869267656416	0.734145624651816	8.18261301303616	0.0395493512029329	-0.0686794665913475	0.0285561899530045	0.0149090040792859	-0.0016078460492677	-0.00393314106740825	0.640380859375	-0.313720703125	0.346923828125	0	0	0	0.146551724830388	-0.25225825280514	0.353062862121461	0.888951619173698	0.623424778564601	0.553773841803359	0.551974707397021	-0.701649370008532	0.707738414679682	0.0824287447030595	-0.345006821727207	-0.438680827619626	0.829776731681873	5.67306265542343	-33.5025918999505	41.6139463172065
21224	1655807246255	5.42363766820595	0.701484725415723	8.18249337910284	0.0647959452802119	-0.0885905645647114	0.028505514785607	0.0167168939237763	-0.0035042840966081	-0.00495312311308463	0.635009765625	-0.30322265625	0.33984375	0	0	0	0.146535937642214	-0.252283595526364	0.353111033940071	0.888927895904601	0.623331170276128	0.553843270397682	0.552010764385436	-0.7017177232865	0.707679633378182	0.0823515229205357	-0.345036938584556	-0.438688007970268	0.829760412815215	5.66789331762193	-33.5050694629858	41.6217846878767
21225	1655807246256	5.41451553165432	0.771961203211449	8.18175222892302	0.0109313676337829	-0.0453369572684425	0.0286436734283217	0.02717147638081	-0.00764511656611888	-0.00575514072829092	0.638916015625	-0.3017578125	0.348388671875	0	0	0	0.146676451390397	-0.252266030729499	0.353115061460525	0.888908106452649	0.623343206219426	0.553770708898085	0.552069967691233	-0.70177665367306	0.7075915439545	0.0826059034423647	-0.344895311101105	-0.438921643224164	0.829695736695008	5.68572696348928	-33.5091376194088	41.6175079410393
21226	1655807246256	5.41826103985783	0.722073417514534	8.16468643476919	0.0543003711829242	-0.0714220396343211	0.0124333731486015	0.0150744267635736	-0.00361668030858545	-0.00476574862971428	0.638427734375	-0.300537109375	0.343505859375	0	0	0	0.146669240974816	-0.252265116174589	0.353125269483531	0.888905500582303	0.623329710427208	0.553790922649537	0.552064929233606	-0.70178905510454	0.707581355608109	0.0825878158765976	-0.344894468256899	-0.438912564398382	0.829700889826585	5.68445508476703	-33.50879139424	41.6191622872243
21227	1655807246257	5.3949171517968	0.720550448396727	8.16987455085212	0.0399862681189557	-0.089176455734469	0.00370823510161777	0.0217013175063567	-0.00256254150851302	-0.00410773265740087	0.638427734375	-0.309326171875	0.343017578125	0	0	0	0.146774457478118	-0.252235953407452	0.353133312556731	0.888893214060805	0.623347774742687	0.553752019945274	0.552083555388012	-0.701839200816692	0.707508244389429	0.082787802954152	-0.344759753916154	-0.439079474044867	0.829668564881276	5.69835011088632	-33.510071325267	41.6163393348787
21228	1655807246257	5.39520216146583	0.722212955503386	8.16953952890856	0.038762354515868	-0.087563839062356	0.00372766155379267	0.0136447008703529	-0.00513058676958288	-0.00399860437830678	0.632080078125	-0.304931640625	0.349365234375	0	0	0	0.1467539453211	-0.252258560132697	0.353158223855144	0.88888028850681	0.623289775526516	0.55379088993684	0.552110048764798	-0.701870645698813	0.707485096912343	0.0827190084156244	-0.34480059807146	-0.439067748610502	0.82965779674494	5.69371946507781	-33.5118918998062	41.6209832919574
21229	1655807246258	5.39263898673937	0.688330607712361	8.13571011043921	0.0733365648996266	-0.0995178366441715	-0.0285751924627871	0.0203215074756707	-0.00346908821370817	-0.00193076590217402	0.6328125	-0.30615234375	0.346435546875	0	0	0	0.14685181932259	-0.252237788618827	0.353173495203259	0.888863951029764	0.623289160557195	0.553763220369557	0.552138495395716	-0.701929533011883	0.707406050895118	0.0828951738202691	-0.344681814167249	-0.439229979535677	0.829621282308659	5.70601483973784	-33.5138467409078	41.6195899136359
21230	1655807246258	5.41933792057223	0.729265019943076	8.16333245439916	0.0521391219228723	-0.0675257827901259	0.0124726305358411	0.0281824110975018	-0.0033301341988787	-0.00768262572628467	0.64208984375	-0.303955078125	0.350830078125	0	0	0	0.146872988870828	-0.252197026699062	0.353203068403721	0.888860268734349	0.623288504388698	0.553814486407001	0.552087814521068	-0.70197821078951	0.707351835220692	0.0829456013702753	-0.344583853181859	-0.43925265605989	0.829649969728604	5.7092669325667	-33.5103640022181	41.6222534645915
21231	1655807246259	5.40376401349557	0.729384371555832	8.20206635713967	0.0301347255139148	-0.0949220643778808	0.0359999146890271	0.0152417847360884	-0.00562684078612539	-0.00559693438473046	0.632080078125	-0.31005859375	0.343017578125	0	0	0	0.146956468856579	-0.252191825063033	0.353194433995027	0.888851377580928	0.623305950332618	0.553752278249274	0.552130515923265	-0.701997158592311	0.707314976112275	0.0830994217525764	-0.344513688564436	-0.43939041739782	0.829606159265164	5.72008452681493	-33.5132983902948	41.6182614557175
21232	1655807246259	5.41523850971838	0.767860388907408	8.16229464655615	0.0238891076382027	-0.0437037545498421	0.0125347785926095	0.0316877362182175	-0.00450808061654055	-0.00748107734259583	0.63232421875	-0.3037109375	0.353515625	0	0	0	0.146995533255403	-0.252168295005713	0.353246972533592	0.888830715374263	0.623255454779527	0.55381829261271	0.552121306286135	-0.702088744590592	0.707217779197623	0.0831529164009903	-0.344418397892407	-0.439463663519893	0.829606928393743	5.72373707657542	-33.5126655068901	41.6239575273601
21233	1655807246260	5.42172311788548	0.75353677270453	8.17884200723755	0.0334714013820158	-0.059306670258828	0.0286396853712425	0.0115274213167946	-0.00304884658511867	-0.00637973496170749	0.639404296875	-0.301513671875	0.34130859375	0	0	0	0.147058701217309	-0.252157656872386	0.353232325943083	0.888829105276006	0.623286879978935	0.553762389401801	0.552141903255073	-0.702090299488413	0.707201324610236	0.0832796363692831	-0.344358354930437	-0.439560578934847	0.829580508953813	5.73258299689996	-33.5140809306027	41.6196513162322
21234	1655807246261	5.39412223976048	0.698707897184039	8.13384201253091	0.0703498289292323	-0.0931663577534707	-0.0284907200165474	0.0201782122782659	-0.00529164854493204	-0.00616248360161014	0.639892578125	-0.30224609375	0.34130859375	0	0	0	0.147064121625023	-0.25214218446104	0.353248948747798	0.888825991493527	0.623278998047581	0.553791556464861	0.55212154692697	-0.70211583199437	0.707174648678473	0.0832909042412993	-0.34432056147674	-0.439566750624642	0.829592925891751	5.73326821554053	-33.5126820435947	41.6215094539914
21235	1655807246262	5.42243244219793	0.757259296708901	8.17802793284225	0.0326850274383606	-0.0573832753244985	0.0286537314619455	0.0237318467019856	-0.00586111246847164	-0.00454984261518913	0.6357421875	-0.307861328125	0.3486328125	0	0	0	0.147184211062042	-0.252123642203973	0.35325577567707	0.888808659952545	0.62328805198519	0.553736346464307	0.552166698431614	-0.702170823935828	0.707094329929672	0.0835089372138677	-0.344192007847057	-0.439765468387037	0.829540954111695	5.74853370110301	-33.5157848858608	41.6182598792942
21236	1655807246263	5.42130640754019	0.741214094531601	8.16094882508344	0.0486843378915702	-0.0615952228182262	0.0125293257923484	0.0135359494105881	-0.00251462547468162	-0.00175876169740023	0.63916015625	-0.3076171875	0.33642578125	0	0	0	0.147147870628157	-0.25213640505877	0.353299672900533	0.888793608517757	0.623213148744833	0.553818312106343	0.552169039703633	-0.702223652555289	0.707053690595951	0.0834087549754489	-0.344219861459881	-0.439727592709767	0.829549474827279	5.74162494433673	-33.5159457827093	41.6258897083149
21237	1655807246264	5.40429096925005	0.723010904645186	8.18304011124298	0.0439762826110183	-0.0949675798945971	0.019926636753107	0.0204937088399053	-0.00547725193665807	-0.00276295685481853	0.633544921875	-0.304931640625	0.350830078125	0	0	0	0.147250508366788	-0.252123432175361	0.353310703217432	0.888775905234746	0.62321064388024	0.553777473044393	0.552212824645484	-0.702278687280398	0.706977669555452	0.0835895935009984	-0.344112102004707	-0.439901221978876	0.829502125467677	5.75431616477849	-33.5189548257308	41.6239060994289
21238	1655807246265	5.4220865869701	0.744547591759873	8.1601270421328	0.0471517374353586	-0.059773680390243	0.0125480509095901	0.0187507245359867	-0.00680617644454303	-0.00539411046595266	0.6357421875	-0.302978515625	0.346435546875	0	0	0	0.147245009056442	-0.252152060783177	0.353342390094776	0.88875609753907	0.623136987209817	0.553814142484284	0.552259169915241	-0.702326672378761	0.70693612534016	0.0835377756133148	-0.344147556197121	-0.439921822911118	0.829476491101532	5.75094946464987	-33.5221399368148	41.6291524924654
21239	1655807246266	5.38140684839147	0.723070279017359	8.18780797744571	0.0281496561780024	-0.110920667183014	0.0112361851817173	0.0112014244032416	0.000967519414563048	-0.00472226467050418	0.6474609375	-0.301025390625	0.355224609375	0	0	0	0.1472971447655	-0.252125800775798	0.353337954623419	0.888756671732838	0.623169740811402	0.553788107944017	0.552248318817574	-0.702337750247979	0.706911681932939	0.0836514107672471	-0.344065631404328	-0.439993869782897	0.829472263454187	5.75874900360332	-33.521394177021	41.6263197139812
21240	1655807246266	5.43486268844722	0.714783517552246	8.19351850759006	0.065615923738847	-0.0889214152374973	0.0448062651121788	0.0199199558873933	-0.00450121162307437	-0.00815403301012458	0.639404296875	-0.312744140625	0.3544921875	0	0	0	0.147303045833836	-0.252096848758773	0.353370523667473	0.888750957544883	0.623152903697745	0.553847515220649	0.552207740345046	-0.702386049889766	0.706862171382101	0.0836642551465847	-0.343997522568581	-0.439998636989814	0.829497983067943	5.75944991101016	-33.5186054107655	41.6301401523002
21241	1655807246266	5.40827973263645	0.76545853075909	8.21508636217219	0.00706376189920851	-0.0790554889212173	0.0522384041020381	0.0202339566608899	-0.00468469817438576	-0.00475409346522806	0.64111328125	-0.305419921875	0.347412109375	0	0	0	0.147405612058756	-0.252079356199887	0.353372965039637	0.888737942978991	0.623167091513891	0.553796100531385	0.552243293386483	-0.702427747683472	0.706798266225357	0.0838538618380425	-0.343886660599742	-0.44016597994059	0.829455167422867	5.77271035027185	-33.5210487980622	41.6268512588912
21242	1655807246267	5.3792291795368	0.692694249535263	8.15350213225964	0.0605821029254713	-0.118147632052299	-0.0209612761035824	0.00988659547035506	-0.00316433139313231	-0.00619173494833248	0.630615234375	-0.308837890625	0.344482421875	0	0	0	0.147327545306071	-0.252081335916911	0.353449716239402	0.888719805431791	0.623056596345265	0.553958477216178	0.552205109783482	-0.702512574968632	0.706735784968749	0.0836696615001466	-0.343913593452769	-0.440061968096472	0.829499188952867	5.75981126523958	-33.5184246278295	41.6402368956755
21243	1655807246268	5.4309342077787	0.754322324803109	8.19221487835985	0.0371517082150467	-0.0645253562187746	0.0448421885819972	0.0268162277253291	-0.00423646960616052	-0.00551089562447453	0.630859375	-0.305908203125	0.34912109375	0	0	0	0.147459132631623	-0.252049502389834	0.353457917405187	0.888703748823057	0.62307709793725	0.553904750493086	0.552235871170361	-0.702572754503635	0.706646609654235	0.0839171835403912	-0.343753479480965	-0.440272752331289	0.829453705097133	5.77705021729622	-33.5205386996143	41.6365412410867
21244	1655807246269	5.40623312460762	0.735068819557386	8.18068262074009	0.0390388676866171	-0.0858761883888212	0.0200310846055132	0.0101511890349621	-0.00395654175802634	-0.00420105778843579	0.638916015625	-0.311279296875	0.343017578125	0	0	0	0.14738420443245	-0.252054500177763	0.353487096455465	0.88870315508804	0.623030803159246	0.553992491841127	0.552200088100685	-0.702587899770401	0.706649537846598	0.0837655881457761	-0.343806430147783	-0.44015764181126	0.829492850447904	5.76641413678054	-33.5180795183241	41.6431616762453
21245	1655807246270	5.41607157569089	0.66782642888702	8.18096062689868	0.0928452615761511	-0.129052381590977	0.0200470157753152	0.0115824806001647	-0.00244392934635957	-0.00497157577603679	0.638916015625	-0.307373046875	0.34423828125	0	0	0	0.147443622650475	-0.252041867806561	0.353480595656652	0.888699467484089	0.623052730733597	0.553952102154067	0.552215866527301	-0.702599966350033	0.706623693267846	0.0838823187414483	-0.343742028286242	-0.440249956992162	0.829470550024568	5.77454978971454	-33.5191638775902	41.6400859918897
21246	1655807246270	5.38947779108729	0.718140558777619	8.20253877495457	0.0321737364061124	-0.117226123200149	0.0274885297455576	0.0240561432611344	-0.00604305326939497	-0.00115203512200754	0.637451171875	-0.309326171875	0.3466796875	0	0	0	0.147442556578656	-0.252082638397876	0.353575082300725	0.888650492096838	0.622878009188804	0.554073924410486	0.552290749476538	-0.702744759108389	0.706490707371171	0.0837895216830521	-0.343762693168827	-0.440310080155503	0.829430071855832	5.76848424407151	-33.5243103314485	41.6543221392702
21247	1655807246272	5.42783516468236	0.707241015848475	8.14079227778358	0.0857047194476004	-0.0780069121210383	-0.00347471263652466	0.0134430633258561	-0.00373311423916945	-0.00457973732230069	0.630126953125	-0.3115234375	0.343505859375	0	0	0	0.14751150158292	-0.252073472616485	0.353572084236591	0.888642843077246	0.622891491303317	0.554031131427747	0.55231847286762	-0.702766077247262	0.70645427629869	0.0839177941189468	-0.343694676613451	-0.440422366494011	0.829398642607636	5.77747290433998	-33.5262157447798	41.6515087203719
21248	1655807246272	5.41221317933778	0.707110345433836	8.1796300186158	0.0617946835524611	-0.102856702571718	0.0201151518478486	0.0233161337988348	-0.00306082995787708	-0.00571609169892283	0.6396484375	-0.31103515625	0.349365234375	0	0	0	0.147484910793769	-0.252079345052576	0.353645444085111	0.88861639910811	0.622781807351418	0.554154482731738	0.552318413327332	-0.702866081603861	0.706366201931998	0.083821596853075	-0.34368894623327	-0.440408444556283	0.829408409772037	5.7708272553302	-33.5262116525637	41.6628535999713
21249	1655807246273	5.39184677710324	0.741428374524911	8.21811534799918	0.0127943760940981	-0.108548809700739	0.0436405913751034	0.0185458511756002	-0.00540747157404907	-0.0059757189671026	0.645263671875	-0.301025390625	0.34716796875	0	0	0	0.147580433397466	-0.2520678962652	0.353642276941759	0.888605047988194	0.622797831263768	0.554096046192161	0.552358971111506	-0.702897203697784	0.706314311275328	0.0839977066442582	-0.343596249116579	-0.440565165760837	0.829363582701304	5.78318016300354	-33.5289992421378	41.6591208813164
21250	1655807246273	5.41287440356324	0.710768854680332	8.17887534262203	0.0602774950365915	-0.10069392548866	0.0201469556051581	0.0133954914011834	-0.00434358276028272	-0.00598929138613402	0.640869140625	-0.303955078125	0.35009765625	0	0	0	0.147546431063412	-0.252080588786609	0.353707592244053	0.888581097382992	0.622692631891824	0.554208578506176	0.552364678177196	-0.702982943369487	0.70624197973873	0.0838883030361923	-0.343611506674626	-0.440539575480891	0.829370854874893	5.77564846121942	-33.5293915034425	41.6697057262368
21251	1655807246274	5.40702125882531	0.729265517241426	8.16145991343542	0.050598700172245	-0.0850288064914031	0.00399966564719278	0.0285863924755798	-0.00674527226630369	-0.00794088292681457	0.6416015625	-0.30908203125	0.344970703125	0	0	0	0.147691362411519	-0.252056049022695	0.353707341876265	0.888564080932223	0.622717728907793	0.554130275738073	0.552414941519841	-0.703036280874978	0.706156755543714	0.0841583291983364	-0.343456864653191	-0.440774629612939	0.829310019240197	5.79453542292101	-33.5328463091258	41.6645384161912
21252	1655807246274	5.40265377005001	0.765680401421741	8.1606519280053	0.0221359480432431	-0.0613211840478951	0.00397824159894888	0.0169030488911394	-0.0055201405363294	-0.00578673312981062	0.642578125	-0.302490234375	0.352783203125	0	0	0	0.147671556560541	-0.25207216015992	0.353775728391499	0.888535576922141	0.622604720146752	0.554236865341996	0.552435389477234	-0.70313241836757	0.706071690768102	0.084068839271434	-0.343464939537586	-0.440776887542611	0.829305474910597	5.78844715748913	-33.5342518206051	41.6751755660665
21253	1655807246275	5.41264662638417	0.698607550231395	8.16092415388872	0.0759121541581975	-0.104459211661645	0.0040740486378148	0.00850976346724137	-0.00407056233233143	-0.00401142627110487	0.635498046875	-0.3056640625	0.347412109375	0	0	0	0.147717443903512	-0.252074383613322	0.35376971141197	0.888529714292138	0.62261099282691	0.554198233970353	0.552467075105142	-0.703141368454007	0.706053096108208	0.084150112564635	-0.343435245104104	-0.440855240345576	0.829276123785153	5.79420874289765	-33.5364298101181	41.6729054460437
21254	1655807246275	5.41439341386471	0.718101474264453	8.17722924537572	0.0577988772766854	-0.0962003273176151	0.0202068277755334	0.0268283798931872	-0.0042368387007904	-0.00551678605631058	0.64013671875	-0.300048828125	0.343017578125	0	0	0	0.147740944662189	-0.252033487823643	0.353828678352855	0.888513928231204	0.622568774781043	0.554292086693158	0.552420495000843	-0.703234749003444	0.705955759290792	0.0841864224101818	-0.343320562247144	-0.440893125999382	0.829303468571547	5.79650202432132	-33.5332280311205	41.6796534682698
21255	1655807246276	5.42101498544309	0.703691339314963	8.19379519636757	0.0673163807199992	-0.111706720903277	0.0363661256272216	0.0172685141222333	-0.00508900594835076	-0.00097764128114148	0.63916015625	-0.303955078125	0.349853515625	0	0	0	0.147823709389351	-0.252026637117554	0.35384653831881	0.888494992920829	0.622550403006023	0.554270730389981	0.552462626020978	-0.703292779844543	0.705881556524336	0.0843237450384886	-0.343234994625509	-0.441038757471198	0.829261450251179	5.8061847552828	-33.5361239880714	41.6793968081876
21256	1655807246277	5.39288058428283	0.73639394428196	8.19868294468091	0.0251364121301998	-0.106396518082914	0.027632075675303	0.0195034619685834	-0.00170780408137606	-0.00932370583796231	0.63427734375	-0.312255859375	0.34619140625	0	0	0	0.147838568921507	-0.252010796260537	0.35385161674174	0.888494991227653	0.622559183794773	0.554276947281832	0.552446493684879	-0.703304609169541	0.705865581736995	0.0843588006077174	-0.343194827166238	-0.441056511380374	0.829268632214742	5.80853207378128	-33.5350150893648	41.6793146236813
21257	1655807246277	5.36823720103318	0.717350863032522	8.18716499375831	0.02812972530468	-0.130152108030483	0.00283617530072533	0.0206289982797582	-0.00809679274294125	-0.00500160997156195	0.6318359375	-0.303955078125	0.339599609375	0	0	0	0.147946821142963	-0.252008526519399	0.353853354443645	0.88847692385576	0.622559012221004	0.554213358905329	0.552510478736179	-0.703348800503197	0.705799083325345	0.0845465481720971	-0.343104562973333	-0.441242798001255	0.829206881350427	5.82180130117884	-33.5394133544489	41.6760577796229
21258	1655807246278	5.40955938357663	0.742204158081676	8.15861108975489	0.0450970764113882	-0.0767516592164002	0.00409468517186973	0.0202492867036892	-0.00468622372383035	-0.00475872416498783	0.6455078125	-0.31103515625	0.345703125	0	0	0	0.147915765860803	-0.252039032846993	0.353901335516008	0.888454330200124	0.622460341283078	0.554289254864851	0.552545514388746	-0.703411441146366	0.705749541859597	0.0844389047143683	-0.343155166060701	-0.441226706021223	0.82919450426273	5.81452607912443	-33.5418217631582	41.6844647279012
21259	1655807246279	5.42241854985392	0.711263557793683	8.19221251980588	0.0641822836470795	-0.10782168457049	0.036430345061504	0.0166934323421252	-0.00412220765136022	-0.00637044880100919	0.6357421875	-0.307861328125	0.340087890625	0	0	0	0.148000435194638	-0.252025631735331	0.353895702890533	0.888446275025238	0.622481824848046	0.554234831607	0.552575903534896	-0.70343444431513	0.705707405315626	0.0845992945227697	-0.343069031369651	-0.441362446880392	0.829157904261211	5.82575012886968	-33.5439108176843	41.6806885041047
21260	1655807246280	5.38673418927681	0.742433905510078	8.16335348536872	0.0281200272949242	-0.0925422137553881	-0.00457345650363194	0.0171246502170676	-0.00692187592823013	-0.00520451825967485	0.633544921875	-0.30712890625	0.348876953125	0	0	0	0.147974597912375	-0.252098944819322	0.353985492878236	0.888394006747799	0.622280785705475	0.554348700709834	0.5526881053208	-0.703565660684927	0.705595578408847	0.0844407534006372	-0.343164661418917	-0.44139823034444	0.829099280787311	5.81531575490796	-33.5516243922102	41.6957263700311
21261	1655807246281	5.4170599218853	0.731051772607272	8.17431518606363	0.0518406775986682	-0.0902170112912311	0.0202967626455681	0.0188210775963512	-0.00619835116992396	-0.00398633315490348	0.63525390625	-0.3037109375	0.34521484375	0	0	0	0.148068787158561	-0.252093833358945	0.353991944351037	0.888377192855803	0.622276805033929	0.554302283321062	0.552739139759275	-0.703611195943508	0.705530675207929	0.0846034945116936	-0.343078508303439	-0.441560239430251	0.82904866690357	5.82679973322141	-33.5551331020584	41.6935254799002
21262	1655807246281	5.40793713505153	0.714415297609085	8.23005345921378	0.038371637870393	-0.130750594430392	0.0600723809796992	0.0136677428237035	-0.00513562133062868	-0.00399878888470627	0.6396484375	-0.30419921875	0.35546875	0	0	0	0.148016741092131	-0.252093569573384	0.354026604553549	0.888372129124107	0.622227990896069	0.55438659967056	0.552709530812665	-0.703642874144699	0.7055124152495	0.0844922339283581	-0.343102073748949	-0.441483555791754	0.829079753072429	5.81897293919614	-33.5530974161298	41.7000863521079
21263	1655807246282	5.42124408000666	0.682104177831269	8.15727004474829	0.0949512155094667	-0.115366749236843	0.00433268439600631	0.0186566174253264	-0.00418726642335827	-0.00316159974173186	0.633544921875	-0.30517578125	0.351806640625	0	0	0	0.148105178955016	-0.252080290083421	0.354038525417571	0.888356406988948	0.622224499743221	0.554355991803562	0.552744159870358	-0.703693577698911	0.70544315697371	0.0846481008899299	-0.343004403214601	-0.441632637641801	0.829040766636322	5.82990587507906	-33.5554782514638	41.6986748056236
21264	1655807246283	5.39464797956425	0.732753391158667	8.17866543295674	0.0362534387108118	-0.102516036684514	0.0116649508092213	0.0218513136354018	-0.0051865414113729	-0.00635986733588864	0.63720703125	-0.306396484375	0.34228515625	0	0	0	0.148086879817532	-0.252007462931703	0.35410123236633	0.888355127125003	0.622209111726745	0.554497292835247	0.55261973681963	-0.7037732883404	0.705365186525108	0.0846351715124417	-0.342868750256939	-0.441579784270955	0.829125029305269	5.82843321601025	-33.5469241575359	41.7066314923412
21265	1655807246284	5.40608796015537	0.684026647595244	8.19568379637588	0.0726663920620903	-0.13956540652476	0.0279504868825526	0.0151005271721387	-0.00362439059491988	-0.00477310091078282	0.64208984375	-0.310302734375	0.34716796875	0	0	0	0.148160367140591	-0.251995745515871	0.35410247115937	0.888345703974243	0.622219168321455	0.554459253695183	0.552646580162348	-0.703802382389177	0.705319891055185	0.0847706188795459	-0.342790771632896	-0.441699883714818	0.829093299701331	5.83791834897477	-33.5487695676842	41.7042191636988
21266	1655807246284	5.39528150392777	0.73644860574612	8.17791560346875	0.0338578618520685	-0.100301788769	0.0116963546590902	0.0234998275402976	-0.00507461926288228	-0.00655103788199187	0.64501953125	-0.30908203125	0.339111328125	0	0	0	0.148159483954194	-0.252030144779234	0.354194079793453	0.888299570683367	0.622054719923655	0.554579585655446	0.552710962976978	-0.703942210421014	0.705190642307392	0.0846848415577762	-0.342802114649663	-0.441755182398942	0.829059146873971	5.83229043402119	-33.5531958797493	41.7179174956328
21267	1655807246286	5.39906800584192	0.686487661216375	8.1612698971112	0.0780178112019246	-0.127817416820323	-0.00426737731980609	0.0185614025891242	-0.00541177472128499	-0.00597931203508793	0.634033203125	-0.313232421875	0.342041015625	0	0	0	0.148252482504486	-0.252020098652845	0.354193379418511	0.888287184013347	0.62206583970221	0.554525668667061	0.552752543065098	-0.7039760897323	0.705136502814703	0.0848538595673208	-0.342712351923308	-0.441909261260272	0.829014142612534	5.84416535968246	-33.5560546271787	41.71464170924
21268	1655807246287	5.44453927806169	0.765201915160742	8.18253333777488	0.0414669415373015	-0.0565325963333756	0.0451763839849608	0.0301383034442349	-0.00401338257570093	-0.00590665916005513	0.63427734375	-0.310546875	0.345458984375	0	0	0	0.148268420086065	-0.252089263340921	0.354318513856401	0.888214990670618	0.621818788093647	0.554668277366345	0.5528874178865	-0.704175784551218	0.704949732687547	0.0847486804347619	-0.342750432859576	-0.442028253019202	0.828934957826829	5.83752510510198	-33.56532829991	41.7332654526443
21269	1655807246289	5.39618591332596	0.742607648377226	8.17676181245566	0.0301701210801405	-0.0980943093891164	0.0117306607662986	0.006438472895342	-0.0013885141067296	-0.00498799709282334	0.642333984375	-0.309814453125	0.34912109375	0	0	0	0.148298297390208	-0.252085092941418	0.354310472225905	0.888214394264661	0.621834390375546	0.554639742778188	0.552898495817469	-0.704174903100846	0.704943408524444	0.084808588131478	-0.34272393670298	-0.442074141416218	0.828921441815765	5.84171763789947	-33.566090036419	41.7310870843297
21270	1655807246289	5.40618211553814	0.675555176050271	8.17728563429791	0.0820091058914171	-0.138429778050758	0.0120412139462438	0.0187799914921901	-0.00681157215476213	-0.00539526782894514	0.635986328125	-0.3115234375	0.349853515625	0	0	0	0.148253950538974	-0.25210921726575	0.354426851829048	0.888168517468272	0.621645098544401	0.554829168226034	0.552921301399511	-0.704333917933777	0.704804745704275	0.0846404305328589	-0.34274057755652	-0.4420575353032	0.828923417438477	5.83020080904765	-33.5676582064025	41.7494718282929
21271	1655807246290	5.39691338969278	0.745999962851332	8.17597288486232	0.0279338623033637	-0.095117256080873	0.0117665476444575	0.0271632631218912	-0.00441160670946277	-0.00212584931240442	0.638671875	-0.310546875	0.351318359375	0	0	0	0.148376826456348	-0.252084180946529	0.354456210776807	0.888143388045539	0.621628720716532	0.554808978368806	0.552959972422679	-0.704422781443581	0.704690224024982	0.0848541875626089	-0.342587621731459	-0.442265401862935	0.828875766174521	5.84515669496822	-33.5703173896773	41.7491859480622
21272	1655807246291	5.40192120199415	0.713644704224135	8.17613708702338	0.0532906471685158	-0.113207070574329	0.011955289265039	0.0111143370200193	-0.000266513527112048	-0.00755398865273571	0.63037109375	-0.30224609375	0.343994140625	0	0	0	0.148271446424089	-0.252056255518183	0.35457489991895	0.888121535926772	0.621488568803239	0.555065718262356	0.552859844134837	-0.70455670060604	0.70458443704555	0.0846204863158825	-0.3425665110282	-0.442111772613102	0.828966444458922	5.82853601262983	-33.5634323131807	41.7687734332928
21273	1655807246291	5.43184374617872	0.702105429804727	8.18741198793143	0.0769155377735718	-0.110750439992329	0.0368512903887641	0.0184494130587623	-0.0027880264007073	-0.00374829977024288	0.629150390625	-0.30908203125	0.34814453125	0	0	0	0.148353902869837	-0.252038008739351	0.354588377678121	0.888107563344434	0.621487849132601	0.555043595643895	0.552882863105043	-0.704606884715994	0.70451640383777	0.0847689491165142	-0.342464584141711	-0.442247943644957	0.828935923307979	5.8389048219372	-33.5650151076956	41.7676718449457
21274	1655807246292	5.39600659603571	0.733329289294334	8.15856232147046	0.0425624675917035	-0.0948708695979334	-0.00422235542655436	0.0202146080340436	-0.00530119646854796	-0.0061708505724831	0.638427734375	-0.3037109375	0.338623046875	0	0	0	0.148313189285687	-0.252022161105425	0.354588205081604	0.888118929543035	0.621504070257515	0.555076573282886	0.552831519041625	-0.704589415219754	0.704540805401829	0.0847113303167163	-0.342471088726665	-0.442167673305355	0.828976056391318	5.8346828807778	-33.5614847071251	41.7686201144987
21275	1655807246293	5.43237686707601	0.705816820238189	8.18673914119905	0.0757598818484755	-0.10792653373445	0.0368915949112125	0.0182348659782205	-0.00138926158464632	-0.00433385034774319	0.637939453125	-0.30322265625	0.343017578125	0	0	0	0.14839227303496	-0.251997412561725	0.354600702110986	0.888107752149541	0.621511292249184	0.555058327226946	0.552841719647473	-0.704636202622799	0.704476150731828	0.0848597372338001	-0.342361702823304	-0.442293574931958	0.828954074731427	5.84498795018256	-33.5621860858717	41.7673536184723
21276	1655807246294	5.40905984890205	0.704221580467081	8.19201171502983	0.0594434887172221	-0.124919406448205	0.0282360597950984	0.0169716450740222	-0.00491300135077851	-0.00438070433718174	0.639404296875	-0.309814453125	0.34423828125	0	0	0	0.148402331997555	-0.252067827065448	0.354611586331473	0.888081742440225	0.621424866795959	0.555033244241356	0.552964042876694	-0.704663057673631	0.704454741394327	0.0848144591275503	-0.342463297416923	-0.442359147202774	0.828877116832381	5.84242949390683	-33.5705972960928	41.7700258714707
21277	1655807246295	5.39693698367849	0.738676426753928	8.15746446855347	0.0400803258252227	-0.0936831741453727	-0.00420048271605111	0.0223465681454942	-0.00737355144142795	-0.00378453101700745	0.632568359375	-0.310546875	0.348388671875	0	0	0	0.148509523835512	-0.252063834071238	0.354626984249724	0.888058808258441	0.621407051190507	0.554991474070044	0.553025985321015	-0.704726993966336	0.704369246744191	0.0849931068745749	-0.342364047040414	-0.442547656134999	0.828817489766914	5.85506849035531	-33.574856905303	41.768699629293
21278	1655807246295	5.40502721347421	0.742077384501316	8.1906767457485	0.0300971480797049	-0.100227463111091	0.0281069129226186	0.016540457410113	-0.0021160239425061	-0.00555175052226005	0.635498046875	-0.30859375	0.35546875	0	0	0	0.148438032277175	-0.252076319894852	0.354737405587023	0.888023114901485	0.621237804051313	0.555194605945192	0.553012242492754	-0.704865457580646	0.704255047302137	0.0847910081263999	-0.342386152650964	-0.442474607044096	0.828847359043898	5.84103349674238	-33.5739118311729	41.7868711782068
21279	1655807246297	5.40108898506743	0.690335050249855	8.14055662625463	0.0820010533491242	-0.118200194814956	-0.0200221982821365	0.022299494277758	-0.00798756142412767	-0.00519245854037244	0.6318359375	-0.30419921875	0.34228515625	0	0	0	0.148546970542346	-0.252074433234614	0.354746973639381	0.888001611679753	0.621226129606296	0.55514198184421	0.553078182437586	-0.704921555476933	0.704176764472783	0.0849746138598126	-0.342291829464804	-0.442665183147179	0.828784555304279	5.85403438209203	-33.5784465186936	41.7847077120055
21280	1655807246297	5.4342112820876	0.715362702906563	8.18469289630489	0.0701827676417303	-0.100863013631595	0.0370077782780527	0.0266427365035947	-0.00284065087229598	-0.00611626043459957	0.633056640625	-0.308837890625	0.345703125	0	0	0	0.148534008148052	-0.252019283850031	0.354808057142175	0.887995029027858	0.621195046309425	0.555268713280874	0.552985868257077	-0.705002450724261	0.704097782020939	0.0849579768237241	-0.342181616854875	-0.442631866684491	0.828847857982384	5.85245228022855	-33.5720981426745	41.7926302992155
21281	1655807246298	5.37955702729426	0.70916947670498	8.16195335788744	0.0493111472428465	-0.126886418761517	-0.0126105325842154	0.0132479577688334	-0.00234182230269065	-0.00516966922710371	0.6328125	-0.30712890625	0.3525390625	0	0	0	0.148592166198716	-0.252007971038912	0.354811270896232	0.887987225539999	0.621201889155703	0.555242931434903	0.553004068701996	-0.705028572698963	0.704058660378748	0.0850653538389575	-0.342115367365234	-0.442726427760146	0.828824701354449	5.85996023926162	-33.5733497364856	41.7909948462805
21282	1655807246299	5.43454919837624	0.719313591265365	8.18412224325018	0.0688316684147452	-0.0973902592588664	0.0370522621542655	0.0282927653742756	-0.00272842757919669	-0.00630870239004678	0.63916015625	-0.3056640625	0.3466796875	0	0	0	0.14857073793859	-0.251951884729579	0.354897817759752	0.887972140643479	0.621135573461158	0.555413395013068	0.552907370199691	-0.705144104770237	0.703948549555498	0.085019004266654	-0.341997647490244	-0.442687700550591	0.828893967219191	5.85630350698888	-33.5667002581883	41.8027730330646
21283	1655807246299	5.40009638848208	0.7687211326044	8.17176537316416	0.0178521958403052	-0.0779249507561216	0.0119414461000371	0.0186255219422539	-0.00480187166978699	-0.00457303055515059	0.64404296875	-0.3056640625	0.341064453125	0	0	0	0.148655615117316	-0.251941996481609	0.354909637608018	0.887956016723744	0.621128759083612	0.555383111292851	0.552945444261842	-0.705193481136284	0.703881314454075	0.0851660103873234	-0.341908202303106	-0.442832581065437	0.828853477005907	5.86664364224166	-33.5693183622252	41.8015330331543
21284	1655807246300	5.44001908900942	0.688768747758905	8.18391693358476	0.0932727991118785	-0.117541237793438	0.0372969318465799	0.0101713104352621	-0.00396597644362518	-0.00420054822218803	0.635498046875	-0.299560546875	0.34033203125	0	0	0	0.148631288479321	-0.25201346630304	0.354980069391367	0.887911652824651	0.620956726273654	0.555467707844675	0.553053676994638	-0.705296052687718	0.703795780839754	0.0850233905186377	-0.342009096602168	-0.442862421541886	0.828795905773807	5.85729166590046	-33.5767612524886	41.8137557438021
21285	1655807246301	5.40564943838342	0.73747326767009	8.17155717362113	0.0422796782055226	-0.0980917081202022	0.0121713853087328	0.0221884249318148	-0.00536059752707052	-0.00296361989819492	0.63720703125	-0.30810546875	0.3466796875	0	0	0	0.148730834248772	-0.252001887309001	0.355002918450837	0.887889134761629	0.62093595336818	0.555445566338868	0.553099235806056	-0.705367370065799	0.703704133670105	0.0851901725674064	-0.341899714918289	-0.443035794366663	0.828748375472732	5.86903545570285	-33.5798944082287	41.8135732972097
21286	1655807246302	5.40597400986249	0.739213111236001	8.17118523461689	0.0406134369750805	-0.0966955753173633	0.0121922542299586	0.0131521078238392	-0.00357313073768398	-0.00798531791298691	0.63671875	-0.306396484375	0.3447265625	0	0	0	0.148708839784588	-0.252040966964262	0.354999845782877	0.887882954806418	0.620900920931707	0.555435184508164	0.55314898734115	-0.705358063609929	0.70372158092811	0.0851230793409885	-0.341982526580832	-0.443021096954109	0.828722063883283	5.86463030324024	-33.5833160345318	41.8146474818277
21287	1655807246303	5.38749167550443	0.703088114044125	8.1770588537477	0.0530924483967589	-0.135906784916985	0.00374790615264509	0.0116527293415207	-0.00184067138698734	-0.00357167982125324	0.636962890625	-0.30810546875	0.3515625	0	0	0	0.148755956871246	-0.252032559309892	0.355009347743438	0.887873649433186	0.620895904124969	0.555424201282018	0.553165646864544	-0.705389579373427	0.703680056620198	0.0852051596229696	-0.341926625977296	-0.443100817585826	0.828702508686051	5.87038338023855	-33.58446181168	41.8143145317956
21288	1655807246305	5.4098631055145	0.689766512822662	8.15464549991444	0.0832813554058963	-0.121464386529567	-0.00356149333674338	0.0172968444386643	-0.00508260619814572	-0.000981058362526061	0.635009765625	-0.306396484375	0.352294921875	0	0	0	0.14871044887692	-0.252032599361505	0.355116145664031	0.88783855195786	0.620744183895611	0.555611847121088	0.553147478976868	-0.705531371051753	0.703555450967095	0.0850600486498871	-0.341909553276309	-0.443063429717666	0.828729542507816	5.86026546545797	-33.5832122958611	41.8308900578645
21289	1655807246306	5.41660921293744	0.675110674707787	8.17129460407034	0.0925802332931555	-0.136739199005172	0.0126989558258828	0.0168832741716485	-0.00614555318864114	-0.00719660924544411	0.63232421875	-0.30322265625	0.3505859375	0	0	0	0.148792478534502	-0.252031288549169	0.355113546085548	0.887826220220124	0.620749197957586	0.555557514557244	0.553196421946122	-0.705558954923144	0.703510335436214	0.0852042784265303	-0.341843523213143	-0.443203176831352	0.828682055847611	5.87046696695175	-33.5865784419684	41.8278756349685
21290	1655807246306	5.43090586232804	0.748817826536395	8.16409664425826	0.0528020848616594	-0.0726820252262305	0.0209218109699822	0.0256075014015282	-0.00776390387406086	-0.0055769487855795	0.6396484375	-0.310791015625	0.34521484375	0	0	0	0.148789077872208	-0.251962190632452	0.355162388909759	0.887826865048331	0.620749463991218	0.555666976651927	0.553086172321386	-0.705623864663383	0.703442975619702	0.0852228940415123	-0.341709034958293	-0.443172868201344	0.828753729595268	5.8712363361812	-33.5789959988847	41.8334728977097
21291	1655807246307	5.38426148278413	0.744139393104116	8.17482445798761	0.0241232431110345	-0.108160992456142	0.00359957227366969	0.0134704476108463	-0.00374235617003395	-0.00458524637288774	0.6396484375	-0.3037109375	0.34912109375	0	0	0	0.148848048078441	-0.251957286394226	0.355169556646777	0.887815504734755	0.620744223728379	0.555643377843713	0.553115761270894	-0.705656778959398	0.703397689229139	0.0853240944619643	-0.341650580295861	-0.443274325272214	0.828723568832192	5.87837195050612	-33.5810309202265	41.8325040074848
21292	1655807246308	5.41790360540293	0.680406279582604	8.16999712305646	0.0903590441986892	-0.131289359184953	0.0127939671745398	0.0136881823162672	-0.00514040583434223	-0.00399845050855839	0.62744140625	-0.306640625	0.34033203125	0	0	0	0.148810907180723	-0.25198977043788	0.355275531884432	0.887770108723507	0.620560904077796	0.555808342457443	0.553155720195369	-0.705803647813935	0.703269220696568	0.0851681510506407	-0.341680223400024	-0.443271349937656	0.828712938997429	5.86777805609034	-33.583779092196	41.8493665649701
21293	1655807246308	5.41349077087476	0.716524481613086	8.1689589804773	0.0631303306089442	-0.109475969031273	0.0125459411575832	0.0252950212758896	-0.00759782162079693	-0.00897897547696804	0.635986328125	-0.306640625	0.346923828125	0	0	0	0.148934360547125	-0.251978083928726	0.355275542712583	0.887752719071199	0.620572667939775	0.555737268521553	0.553213929852017	-0.705850047728812	0.703195689997397	0.0853904660387713	-0.341562986764292	-0.443477068116591	0.828651202936054	5.88342268758309	-33.5877826134977	41.845185364984
21294	1655807246309	5.39180787129748	0.733373949940224	8.19060400456236	0.0294653224857054	-0.118856196192404	0.0199332514311212	0.0183675356687795	-0.00402093132333019	-0.00657012993765719	0.63427734375	-0.300048828125	0.353759765625	0	0	0	0.148883249924439	-0.252008815706603	0.355309560154527	0.887738954400949	0.620493346537904	0.555804491856466	0.55323536920046	-0.705884057824498	0.703177788709467	0.0852566383039212	-0.341636801020343	-0.443421204159026	0.828650669396185	5.87427021172211	-33.5892572075436	41.8522693965559
21295	1655807246310	5.39204473623393	0.734906830875349	8.19031066368848	0.0291834622593128	-0.11859462574588	0.0199372504088284	0.0135714972687743	-0.00251071596852561	-0.00177222291108987	0.6318359375	-0.305419921875	0.343505859375	0	0	0	0.14893578990716	-0.252001156013965	0.355331311349401	0.887723609592012	0.62047015308468	0.555808006167393	0.553257850745294	-0.705935971081222	0.70311557931889	0.0853398315716282	-0.341571652607014	-0.443515436483658	0.828627095704711	5.88012827879613	-33.5908035107187	41.8535138385094
21296	1655807246310	5.41442100601228	0.722072385743165	8.16785388225025	0.060583622959467	-0.104478958977753	0.0126163818887921	0.025179781362825	-0.00496887017656016	-0.00675329914095583	0.6328125	-0.313720703125	0.3447265625	0	0	0	0.148947651508413	-0.251944742656915	0.355331985292649	0.88773736205347	0.620526053751051	0.555829803096559	0.553173251889305	-0.705936114011115	0.703107554676226	0.0854047392836222	-0.341469793028657	-0.443500841652931	0.828676887515338	5.88421811190388	-33.5849848607275	41.8520651887263
21297	1655807246311	5.41624398750539	0.74199021141592	8.18392717482169	0.0429056173156538	-0.0981261575341951	0.0286256878579341	0.0152908854491646	-0.00564482105883081	-0.0055979532282618	0.640380859375	-0.305419921875	0.351806640625	0	0	0	0.149018045931164	-0.251944516456479	0.355336941944406	0.887723628334837	0.620519236634218	0.555793439717753	0.553217434047045	-0.705970557819419	0.703058559352912	0.0855232928081453	-0.341410967104202	-0.443624068877375	0.828635165228737	5.89262338026439	-33.5880236295993	41.8505150699043
21298	1655807246312	5.44013979789079	0.746828743067197	8.17794102163228	0.0550908672216285	-0.0771544216782296	0.0373179941596682	0.0150738408956847	-0.00424733869206157	-0.00618577303461107	0.64501953125	-0.309814453125	0.343017578125	0	0	0	0.148949041148856	-0.251953000046821	0.355471114024833	0.887679083904869	0.620319945722701	0.556032230161311	0.55320097971752	-0.706144861247518	0.702908940469561	0.0853138695739648	-0.341412653357062	-0.443561924008134	0.828667737816486	5.87806567482008	-33.5868919180779	41.8718939692304
21299	1655807246313	5.39825280666794	0.707635085101409	8.18942339666123	0.053373169941613	-0.134177254499479	0.0203022098051626	0.0151237269928685	-0.00363088615759366	-0.00477925671390903	0.634765625	-0.305908203125	0.346923828125	0	0	0	0.149013264540316	-0.25194488323396	0.355481892704154	0.887666292456087	0.620312799543397	0.556012328394096	0.553228995440775	-0.706184846533781	0.70285534190102	0.0854244162242905	-0.34134292617351	-0.443671792020831	0.828637645606528	5.88584106544844	-33.58881881901	41.8712027441934
21300	1655807246313	5.42200165631031	0.712270940286413	8.18355628542551	0.0649562480266262	-0.114461323733615	0.0289946331244	0.0116094469892437	-0.0024588296092321	-0.00498164763240368	0.63720703125	-0.30859375	0.34619140625	0	0	0	0.148967297233637	-0.252004935409931	0.355594982467457	0.887611663582623	0.620091441946012	0.556179519664036	0.55330908679652	-0.706341496134255	0.702721905597749	0.0852268398562973	-0.341420993004441	-0.443673602211525	0.828604513767884	5.87255623198395	-33.5943276812188	41.8899289940978
21301	1655807246314	5.39728219878287	0.69276677992015	8.17235678566725	0.0678723550966034	-0.138135013590787	0.00435435189092814	0.02358556127062	-0.00446502914800555	-0.00515583827181871	0.635009765625	-0.310791015625	0.343994140625	0	0	0	0.149070569753784	-0.251986031407547	0.355614387339171	0.887591917902672	0.620082894985722	0.556153509640481	0.55334480847	-0.706408314728153	0.702632745501336	0.0854079494671626	-0.341298251136828	-0.443847382175258	0.828562010417514	5.88524786493305	-33.5967848111056	41.8889896613742
21302	1655807246314	5.44469899986829	0.701238193785136	8.16074041896957	0.0935425239027582	-0.0996748035203398	0.0217155622828198	0.0169922144992233	-0.00491605376200824	-0.00438450803501874	0.63330078125	-0.309814453125	0.3427734375	0	0	0	0.149011497147273	-0.252036536837406	0.355747921841967	0.887533984657521	0.619842000408258	0.556364057832155	0.553403044518575	-0.706589424591978	0.7024779796461	0.0851825872294971	-0.341360922755765	-0.443828484062111	0.828546315633871	5.86993770274449	-33.6007907515652	41.9108360813122
21303	1655807246315	5.4042405972432	0.680206993186493	8.18874445015821	0.0743960245514929	-0.150605665974069	0.0207157377754221	0.0181564199776515	-0.00262585857254632	-0.00716054585971315	0.63525390625	-0.30419921875	0.3544921875	0	0	0	0.149089058158476	-0.252018268862933	0.355753758260909	0.887523807218706	0.619852111285138	0.556333527241162	0.55342241245071	-0.70662619261518	0.702423432441314	0.0853272844261304	-0.341266441428882	-0.443953069619717	0.828518489793498	5.88003508679986	-33.6021230738344	41.9088085313154
21304	1655807246316	5.40591289977226	0.700133263064949	8.20490664604722	0.0558096322534302	-0.141561763845591	0.0367501401629102	0.0199748767785214	-0.00452780060336359	-0.00817195893987468	0.63818359375	-0.312744140625	0.351318359375	0	0	0	0.149051470353883	-0.251990009474622	0.355823272816179	0.887510277592721	0.619781667294726	0.556474660408712	0.553359410517593	-0.706712586115437	0.702346915415457	0.0852416038822761	-0.341215482520063	-0.443897243435236	0.82856938862065	5.8738136900545	-33.5977892390635	41.9192700588657
21305	1655807246316	5.39837261701145	0.700446174525459	8.17098185899544	0.063350417702758	-0.131874019155933	0.0044706747481662	0.0198069906705492	-0.00251343089373908	-0.00735429208284828	0.631591796875	-0.3076171875	0.34619140625	0	0	0	0.149135806343131	-0.25196790666361	0.355831164537868	0.887499221194907	0.619792712710365	0.556444888942733	0.553376977150871	-0.706754636674207	0.702285387220017	0.0853997566550446	-0.341108306569389	-0.44403189127217	0.828541370555884	5.88483284590376	-33.5989976068514	41.9172386201789
21306	1655807246317	5.41088854759015	0.756470494458799	8.14724277409326	0.0390950482615438	-0.073486177528206	-0.00347750464170993	0.0284890159901521	-0.00474404637380818	-0.00714325451626455	0.6357421875	-0.307373046875	0.343994140625	0	0	0	0.149112014537616	-0.251941247892565	0.355983697909703	0.887449616346418	0.619602428865741	0.556700258234328	0.553333220243921	-0.706970126307853	0.702082427886135	0.0852848460265359	-0.341007434892457	-0.444032754349658	0.828582429461743	5.8766807171647	-33.5959877025753	41.939053564223
21307	1655807246318	5.4002888917959	0.722883229919339	8.18674880922743	0.0436834559128539	-0.121939956770901	0.0205093996206074	0.0149114215324554	-0.00223493325356283	-0.00536907257874742	0.635986328125	-0.309814453125	0.34619140625	0	0	0	0.149170689873209	-0.251928067434544	0.355995526443917	0.887438752406816	0.619598867981229	0.556687884464324	0.553349656263574	-0.707009018934865	0.702030580869339	0.0853891718487707	-0.340933263177913	-0.444130231818207	0.828560708242894	5.88397220777507	-33.5971182739592	41.9385841348935
21308	1655807246318	5.39901812756726	0.706864346699836	8.17000260003294	0.058580321958788	-0.125593072569288	0.00458265959166404	0.0230589793404938	-0.00290659712168269	-0.00914807390579147	0.633056640625	-0.311279296875	0.340087890625	0	0	0	0.149152045490936	-0.251953709809323	0.356100227615432	0.887392598195087	0.619423912011114	0.55684259002886	0.55338986904243	-0.70716023477722	0.701892590436214	0.0852712955253215	-0.340937559647913	-0.444154389171931	0.828545990878379	5.87601013410108	-33.5998844208169	41.9545437350713
21309	1655807246319	5.41782100217405	0.74686608244486	8.16336861630477	0.0454055706263648	-0.0858069968035615	0.012879053294883	0.0282753137719586	-0.00334729695780423	-0.00773334679029492	0.642822265625	-0.304443359375	0.34619140625	0	0	0	0.149274255400785	-0.251920505151971	0.35611819962089	0.887374263576138	0.619431773965504	0.556809758615794	0.55341410364407	-0.707230741922794	0.701794049146634	0.0854973114296864	-0.340776987311764	-0.444351218398906	0.828506511517034	5.89175415233298	-33.6015515075531	41.9525025957599
21310	1655807246319	5.40093784572541	0.728913132503266	8.18578598587805	0.0377728951512215	-0.117446303343979	0.0205885786184936	0.00390470977457285	-0.00458301552017762	-2.52556533585758E-05	0.63720703125	-0.306884765625	0.34814453125	0	0	0	0.14918755679731	-0.25202916770256	0.356234520152695	0.887311297220758	0.619156530557468	0.556982596840595	0.553548170880138	-0.707381059925413	0.701680079096857	0.0851886298600239	-0.340965140046368	-0.444314588344043	0.828448743048009	5.87103775870948	-33.610774511456	41.9740048451707
21311	1655807246320	5.40971558657156	0.643658933024484	8.17033900593748	0.1088119582011	-0.166242006912337	0.00537162593627727	0.016683472612744	-0.00475610846711237	-0.00778632331421423	0.632080078125	-0.31689453125	0.34619140625	0	0	0	0.149260374400292	-0.252023841267288	0.35623689024517	0.887299612360569	0.619158522922664	0.556943363435437	0.553585416550552	-0.707412055056858	0.701633237324671	0.0853169657309436	-0.340897210097793	-0.444437723653747	0.828410648133531	5.88008899363742	-33.6133369603833	41.9719064238066
21312	1655807246321	5.42516555319963	0.735356056116525	8.17941659961314	0.0489247675249386	-0.0955518641425164	0.0292891371756561	0.025198423042299	-0.00497024709029354	-0.00675885059662682	0.6328125	-0.314697265625	0.348388671875	0	0	0	0.149209376095172	-0.252031209881677	0.356416259066726	0.887234062468156	0.618895439036917	0.557238451757036	0.553582643715213	-0.707660130088861	0.70140802471634	0.0851112398343395	-0.340860053133128	-0.444423323810693	0.828433662661735	5.86584742424922	-33.6131461906479	41.9991050282899
21313	1655807246322	5.40043470956437	0.716098626777855	8.1682619856232	0.0518124475486695	-0.119184054042581	0.004700609470909	0.0166138361947339	-0.00150459694583276	-0.00415833805014234	0.6337890625	-0.31201171875	0.347900390625	0	0	0	0.149270384885834	-0.252014589061037	0.356438274005207	0.887219677374561	0.618880807449172	0.557241471521718	0.55359596149843	-0.707714730345663	0.701340218040448	0.0852159551418777	-0.340773248103232	-0.444526535738067	0.828413998192863	5.87315240032657	-33.6140624515731	41.999932998982
21314	1655807246322	5.40203233856305	0.736019927713521	8.18442776760889	0.0317730599332383	-0.108878098970928	0.0207083984863416	0.0233328235197256	-0.003687032809696	-0.00715527258908737	0.64111328125	-0.311279296875	0.34375	0	0	0	0.149187226410715	-0.252004810865532	0.356635969193917	0.887156994141184	0.618608721555486	0.557592391315035	0.553546723197842	-0.707975986415778	0.701107913905987	0.0849570227644633	-0.340724598868491	-0.444452942622698	0.828473493553011	5.85501317960661	-33.6106749145196	42.0303996341476
21315	1655807246323	5.39945152947932	0.702049724336967	8.15117767368012	0.0662630046906459	-0.120665532579568	-0.0111723317656551	0.0167361044335972	-0.00413903419241251	-0.00638077885214166	0.641845703125	-0.302490234375	0.34033203125	0	0	0	0.149254935628605	-0.251998126047245	0.356647817965206	0.887142740825757	0.618598556818668	0.557571117314936	0.553579510673973	-0.708018973641778	0.701050596262317	0.0850717017785227	-0.340653722224056	-0.444570028922806	0.828439817318356	5.86309820304076	-33.6129306394281	42.0297806770658
21316	1655807246323	5.41377134316298	0.689627294742401	8.20163137984027	0.0646472983121505	-0.144680184935322	0.0374979778042128	0.0232142808409872	-0.00105292525019189	-0.00493440254089736	0.63623046875	-0.310791015625	0.349365234375	0	0	0	0.149300635465136	-0.252078681051709	0.356780267033382	0.887058904393911	0.618328359229638	0.557699211031531	0.553752318448593	-0.708241240104465	0.70083432261059	0.0850035179639335	-0.340682236090573	-0.44475031452014	0.828331317617874	5.85919374024293	-33.6248205083181	42.0487752979073
21317	1655807246324	5.39982323402302	0.706019048096585	8.15058858706217	0.0625732725059488	-0.119552962505941	-0.0111344483450893	0.0203050350086073	-0.00469113683403664	-0.00477274757263699	0.63818359375	-0.31201171875	0.34619140625	0	0	0	0.149382963613085	-0.252070637520977	0.356803080850167	0.887038153281903	0.618303910391195	0.557685774099806	0.553793148893752	-0.708306009590698	0.700752583356002	0.0851376162315561	-0.340591942319044	-0.444895936468957	0.828290247763881	5.8686614664507	-33.6276300465574	42.0492154818234
21318	1655807246325	5.40929628804811	0.727994069828449	8.2002507488149	0.0347377750137535	-0.119554844321341	0.0371387016031033	0.0230695222673653	-0.0029111112743061	-0.00915242043057657	0.638671875	-0.30615234375	0.345947265625	0	0	0	0.149348499718094	-0.252067744593561	0.356981038923945	0.886973176379224	0.618052779968592	0.55797333303831	0.553783821351991	-0.708557090967799	0.70051912696147	0.0849694156764096	-0.3405254909876	-0.44490303705331	0.82831375553494	5.85698276819891	-33.6269882114059	42.0754826419042
21319	1655807246326	5.42521580985237	0.731237005817651	8.16074818795314	0.0563314267847116	-0.0918983631365125	0.0134953385134935	0.0135870769005178	-0.00250801147074659	-0.00177644970700693	0.638427734375	-0.303466796875	0.346435546875	0	0	0	0.149392488527294	-0.252064553321698	0.357011205231546	0.886954533597678	0.618012920595704	0.557992312270082	0.553809181419246	-0.70861851583108	0.700449767421483	0.0850289500143843	-0.340470011892569	-0.444988429924507	0.82829069066071	5.86122001317537	-33.6287332678474	42.0782900088094
21320	1655807246326	5.40692873566216	0.695314120664394	8.16678305588434	0.0677632982368864	-0.129972972962277	0.00531652947861794	0.0186091538089926	-0.00542397931940756	-0.00598475440282792	0.632568359375	-0.308837890625	0.346435546875	0	0	0	0.149413459535938	-0.252087343966952	0.357063562820545	0.886923447219144	0.617915166235173	0.558045607691637	0.553864556613464	-0.708706576360951	0.700362460430803	0.085014190827489	-0.340464147832483	-0.445059011542721	0.828255178242381	5.86045922787278	-33.6325438238123	42.0855201934645
21321	1655807246327	5.40242731350977	0.731530990472096	8.16557640040836	0.0402781980741158	-0.108070778749234	0.00488333162788734	0.0237789326293344	-0.00648137216991669	-0.00597668569674753	0.638427734375	-0.31201171875	0.33935546875	0	0	0	0.149515008382756	-0.252080745716766	0.357084886266937	0.886899624482338	0.617891363277216	0.558017193458982	0.553919736957968	-0.708776612694876	0.700271292536067	0.0851811607495675	-0.340361537903743	-0.445238058406991	0.828201119814367	5.87226955748166	-33.6363411392071	42.0851668947571
21322	1655807246328	5.43407025865623	0.738743819173166	8.19311911930135	0.0430633661398927	-0.0969792346101447	0.0458522450320871	0.0181726362686416	-0.00263221561277805	-0.0071666169560837	0.6318359375	-0.30126953125	0.343994140625	0	0	0	0.149462782223995	-0.252149895008488	0.357225929942057	0.886831969515141	0.617620130848482	0.55822470033387	0.554013138750214	-0.708972799715697	0.700101023413791	0.0849477855994373	-0.34044521326344	-0.445245708516234	0.828162614354142	5.85656337016267	-33.6427691005449	42.1082770352862
21323	1655807246329	5.3843834050574	0.697907460854185	8.17127462830358	0.0492858675725372	-0.144636437507547	-0.00325111435276071	0.0167917096352901	-0.00352156525305651	-0.00497647502834016	0.63671875	-0.312744140625	0.35302734375	0	0	0	0.149525927846888	-0.252144351311363	0.35724579076836	0.886814900631236	0.617597342160122	0.558217544719975	0.554045752373896	-0.709026017044708	0.700034883759633	0.0850486253466563	-0.340375719037759	-0.445358658034669	0.828130446006599	5.86369334178243	-33.6450137006242	42.108963356226
21324	1655807246330	5.42823085889416	0.758864156382959	8.1752346030062	0.0320363053021149	-0.0783579161658322	0.0295105080929012	0.0304320001001574	-0.00540936598225751	-0.00534899622780602	0.642578125	-0.304931640625	0.3486328125	0	0	0	0.149538374604883	-0.252099855689674	0.357321794178324	0.886794831224765	0.617533596332859	0.558345035006675	0.553988338580878	-0.709139445638512	0.699918819851427	0.0850581698444651	-0.340255057331569	-0.445381260832988	0.828167874563551	5.86408361437384	-33.641062292825	42.1184143456285
21325	1655807246331	5.4114691284037	0.741316668506945	8.19762313873723	0.0269586052224253	-0.111259822801205	0.0372602542304232	0.0104612938484218	-0.00475012569351704	-0.00220318221487337	0.6328125	-0.317138671875	0.348876953125	0	0	0	0.149571686281934	-0.252112866779673	0.357345654202767	0.886775899813087	0.617486371653063	0.558353134864693	0.554032812755261	-0.709188921335126	0.699864788170351	0.0850902587538107	-0.340237644416746	-0.44545600800308	0.828134826133827	5.86651293707988	-33.644123137291	42.121007647556
21326	1655807246332	5.43103087428352	0.691775561845856	8.14244242859593	0.0914326143282615	-0.108432674755466	-0.00178012964941843	0.0131761575983608	-0.00359338004010823	-0.0079900196796851	0.63525390625	-0.311767578125	0.341796875	0	0	0	0.149502689748993	-0.252115973573749	0.357514825049403	0.886718462363716	0.617241371477712	0.558645959524156	0.554010632789344	-0.709414024236001	0.699664191255423	0.0848631939781759	-0.340212920909238	-0.44540398671569	0.828172963253555	5.85069923517785	-33.6425966327116	42.147264856357
21327	1655807246333	5.38585541804486	0.705210426042518	8.16967738259205	0.0452135866724863	-0.137798543369398	-0.0031330609382838	0.0275745767058854	-0.00842718541434007	-0.0037792637142508	0.636474609375	-0.307861328125	0.342041015625	0	0	0	0.149619689864306	-0.252113665903621	0.3575513257649	0.88668466622205	0.6171914978168	0.558628218880098	0.554084080346571	-0.70951289289231	0.699541995697343	0.0850438185605807	-0.340097206460507	-0.445618120509735	0.828105295739093	5.86354108067509	-33.6476516598705	42.1486629966028
21328	1655807246334	5.40980169864357	0.710514254274398	8.16357155551622	0.0557989818716671	-0.117823557634738	0.00554513342738971	0.0148766363023632	-0.00286075855722714	-0.00677996535080527	0.63818359375	-0.304931640625	0.344970703125	0	0	0	0.149568603062729	-0.252204446464011	0.357680148025592	0.886615509603817	0.616915657784346	0.558805799946095	0.554212187818991	-0.709693266921419	0.699388289372509	0.0848026389624658	-0.340221307485159	-0.445636733938305	0.828044300323291	5.84745549089088	-33.6564693654963	42.1704671463023
21329	1655807246335	5.39139514760263	0.674759459573137	8.16976254774906	0.0681970906178448	-0.156800650465497	-0.00257908065947809	0.0182269441249064	-0.0020138603101241	-0.00576432255669354	0.640625	-0.303955078125	0.345947265625	0	0	0	0.149634462644099	-0.252190015690967	0.357701355674996	0.886599945704528	0.616899872268121	0.558803370075525	0.554232208724658	-0.709748640004024	0.699318535474964	0.084914391910855	-0.340134408150683	-0.445749233912284	0.828019447150003	5.85528229033462	-33.6578474967405	42.1710726566534
21330	1655807246336	5.4365434199519	0.753896062508603	8.19009766067185	0.0328421812622971	-0.0862623290617815	0.0459911909595245	0.0301717943114836	-0.00463449525055967	-0.00734894120266122	0.638916015625	-0.31396484375	0.341796875	0	0	0	0.149724742997126	-0.2521977039419	0.357759484576905	0.886559062136384	0.616808938643402	0.558829353419461	0.554307213525483	-0.709870299048126	0.699181305059424	0.0850274143128207	-0.340045425993238	-0.445931896607752	0.827957638921756	5.86345614222124	-33.6630106192447	42.1766008208113
21331	1655807246338	5.386969418632	0.713208508630945	8.16824843549185	0.0391060402157131	-0.133940400989047	-0.00305337397300853	0.0101961199784427	-0.00397577642008174	-0.00419943325657205	0.63818359375	-0.313232421875	0.33984375	0	0	0	0.149756641517837	-0.252207910345103	0.35777575896496	0.886544203397496	0.616775352512806	0.558828431218021	0.554345514093069	-0.709907669688078	0.69913890923669	0.0850640118344588	-0.340028329776718	-0.445999517997202	0.827928236561308	5.86616916390265	-33.6656472436253	42.1781061694553
21332	1655807246338	5.40792336908974	0.682084039759748	8.12949518502848	0.0833790841581361	-0.125840019328273	-0.0261262941299538	0.0233522640631968	-0.00369183958457752	-0.00716278883371454	0.63330078125	-0.305908203125	0.339599609375	0	0	0	0.149735493513993	-0.252325908563594	0.358028458593336	0.886412173137845	0.616294517409673	0.559157279163552	0.554548649776728	-0.710285856944098	0.698789809638801	0.0847750161908393	-0.340110378018618	-0.446134440615586	0.827821835699356	5.84712401495188	-33.6796325259451	42.2171144166098
21333	1655807246340	5.38263000617793	0.751466769540187	8.16665730193124	0.00663726394867555	-0.109715914317454	-0.00352749191997503	0.0270949837110268	-0.00625676840728446	-0.00636876855954488	0.638427734375	-0.30810546875	0.34912109375	0	0	0	0.1498480825946	-0.25231593639396	0.358055413489284	0.886385097604523	0.616265978225314	0.559131846713661	0.554606006163446	-0.710368083820445	0.69868374602748	0.0849600407619792	-0.339990337467502	-0.446332388503881	0.827764440768722	5.86020034497833	-33.6835817529004	42.2171379170814
21334	1655807246341	5.44138170115477	0.709810396858595	8.17293939693861	0.0693164159623404	-0.108712145224126	0.0307256998895564	0.0131815233321785	-0.00359788832370389	-0.00799101368024932	0.63232421875	-0.3046875	0.34423828125	0	0	0	0.149810241514446	-0.252357020619511	0.35810659580815	0.886359121191927	0.616151200365484	0.559210762693339	0.554653965257716	-0.710433427520839	0.698633115152163	0.0848299208639093	-0.340061822833976	-0.446312775193271	0.827745651362854	5.85141942032335	-33.686884076273	42.2264730198343
21335	1655807246342	5.42164239523151	0.656180699249275	8.16274693102504	0.0992097431665791	-0.15377524619873	0.00676919171736578	0.0234047068027963	-0.00307065502033594	-0.00575951369681122	0.63525390625	-0.304931640625	0.347900390625	0	0	0	0.149899640026618	-0.252340420490708	0.35813424070994	0.886337563086197	0.616128355635375	0.559204183945702	0.554685974259013	-0.710507136728592	0.698539927102011	0.0849798735116475	-0.339949199204509	-0.446466853083114	0.827708820212926	5.86194994758729	-33.6890881933559	42.2271947824895
21336	1655807246342	5.39638778806636	0.725475918092768	8.19985670437327	0.0220824368659713	-0.136119453432375	0.02936271707601	0.0256687496805236	-0.00776543965256047	-0.00558212369283167	0.6357421875	-0.305908203125	0.3515625	0	0	0	0.1499169599124	-0.252337095875967	0.358132708781919	0.886336199235952	0.616133905890817	0.559192747273987	0.554691338861441	-0.710511188421382	0.698531736062298	0.0850133215550848	-0.339930671078328	-0.446493992243976	0.827701790351014	5.86429059150495	-33.6894576015974	42.2263547630216
21337	1655807246343	5.41249484988819	0.729112107019005	8.16014587548157	0.0435632454532857	-0.108429845040404	0.00571528118632081	0.0234073041803516	-0.00307129043527385	-0.00576077940628826	0.64013671875	-0.302490234375	0.350341796875	0	0	0	0.150006169618864	-0.252320394563604	0.358160581702104	0.886314597238675	0.616110832404156	0.559186671625726	0.554723091704682	-0.710585135246553	0.698438293582174	0.08516287703371	-0.339817903826295	-0.44664775420253	0.827665135127088	5.87479331738594	-33.6916441450667	42.2271127850061
21338	1655807246344	5.4142701933737	0.74927692305445	8.17608072925789	0.0262704631238739	-0.100295102166013	0.021603873926173	0.0204984025069663	-0.0067105288184023	-0.00558951963450454	0.631103515625	-0.3076171875	0.3515625	0	0	0	0.15003109546979	-0.252259941430928	0.358189375834184	0.886315950088295	0.616130585977564	0.559244243195962	0.554643108201227	-0.710631584620071	0.698382082863304	0.0852362439099648	-0.339684930433055	-0.446663567786413	0.827711184682799	5.87949411258203	-33.6861364799152	42.2291341179302
21339	1655807246346	5.41329046922977	0.733011546827297	8.15926870876989	0.0432098633268378	-0.105933027498579	0.00574409891952143	0.017025623093235	-0.00491979048358688	-0.00438766373195162	0.635498046875	-0.301513671875	0.348876953125	0	0	0	0.150093700821668	-0.252263255206416	0.358213946116319	0.886294476939856	0.616092037760874	0.559239832900946	0.554690373365696	-0.710692335121954	0.69830929956286	0.0853260039081382	-0.339627745931568	-0.446782868338692	0.827670262092636	5.8859311695703	-33.689391117134	42.230693289062
21340	1655807246347	5.44217136302421	0.70362703003216	8.15407430791705	0.0845349613173519	-0.106730170337949	0.0149629319706612	0.0137240385173468	-0.00514645241394612	-0.00399707624011971	0.633056640625	-0.30126953125	0.349609375	0	0	0	0.150040579955476	-0.252206211006748	0.358204347917558	0.88632358460621	0.616163344525154	0.559287590999989	0.554563002207148	-0.710652255671291	0.698354938999163	0.0852862866162035	-0.339582249790654	-0.446651732033924	0.827759702992489	5.88257939244502	-33.68062073375	42.229828195528
21341	1655807246348	5.41411608788301	0.736360121991308	8.15841936482134	0.0428341681720054	-0.102783492962578	0.00577922087277649	0.0274242824864011	-0.00640783302867527	-0.00297032729789939	0.636474609375	-0.307861328125	0.34814453125	0	0	0	0.150149959407677	-0.252197808804861	0.358247612813118	0.886289965438853	0.616109826295459	0.55928754724787	0.554622503542403	-0.710757510266889	0.698227275207151	0.0854542787460686	-0.339459045455256	-0.446851330590231	0.8277025098478	5.89448947710551	-33.6847176999913	42.2323027345867
21342	1655807246348	5.42878976442401	0.72415683878504	8.20874674905323	0.044015626148484	-0.125145350372757	0.0545354345236753	0.0137254189276923	-0.00514708444855013	-0.00399720343491695	0.63427734375	-0.298828125	0.34716796875	0	0	0	0.150114945945733	-0.252170640756694	0.358258405915338	0.886299264094848	0.616121765062718	0.55933915882453	0.55455718913514	-0.710757487249698	0.698232835189421	0.0854090286903966	-0.339437424180798	-0.446778035794967	0.827750941888135	5.89104788233979	-33.6802204849696	42.2343814115363
21343	1655807246349	5.39633182414627	0.702099755384681	8.16419749280321	0.054893250669261	-0.139539476627562	-0.00223491350026173	0.0115843598784218	-0.00309360097556906	-0.00639273011655255	0.640625	-0.30615234375	0.34912109375	0	0	0	0.150152383204531	-0.252172943881101	0.35826926231672	0.886287878666617	0.616103884106745	0.559330671973379	0.554585614110563	-0.710788145987178	0.698194794994066	0.0854648452131273	-0.339405679847424	-0.446848103535197	0.827726136384677	5.89504611365898	-33.6821776540439	42.2347763119131
21344	1655807246350	5.42657162648503	0.691207693299098	8.17537358093362	0.0782180011299975	-0.135683517134528	0.0228427334193277	0.0271583621561453	-0.00563563146911323	-0.00496925040345913	0.638916015625	-0.30078125	0.341552734375	0	0	0	0.150223569793332	-0.252139295496085	0.358272511825214	0.886284075235326	0.616133165874379	0.5593079135413	0.554576036048884	-0.710816973759691	0.698147372698	0.0856123578112203	-0.339292133308054	-0.44695067272011	0.827717309490572	5.90521167141341	-33.6815181626175	42.2322608924494
21345	1655807246351	5.39843290802791	0.724241681098874	8.1797319161039	0.0365315410325417	-0.131736988460688	0.0136511526581611	0.0203821266050761	-0.00407116011548448	-0.00337622581763715	0.63720703125	-0.31005859375	0.345703125	0	0	0	0.150298157851298	-0.252132217190489	0.358306873073287	0.886259551999051	0.616091059526103	0.559315762058837	0.554614897640288	-0.710895793173612	0.6980532969099	0.0857249434020291	-0.339203445766793	-0.447087768772265	0.827679617602229	5.91318977031914	-33.6841939844866	42.2346097519061
21346	1655807246351	5.40007172330629	0.744086645099662	8.19576272108973	0.0166426783401213	-0.124562022351514	0.0295264754710267	0.0165894014509321	-0.00213185127157462	-0.00557645227080361	0.630615234375	-0.305908203125	0.338623046875	0	0	0	0.15030184348455	-0.252190012108212	0.358368772482902	0.886217454436045	0.615944041403916	0.559376075141826	0.554717355432421	-0.710994570054847	0.697962357508488	0.0856461841165093	-0.339263406826519	-0.447154284403182	0.827619107276012	5.90822438966723	-33.6912491335307	42.2444898236898
21347	1655807246352	5.40392723033826	0.693451046296301	8.18001098630615	0.0606513386297212	-0.151650560535016	0.0142758970189778	0.0153315534643811	-0.00565798660487755	-0.00559700168396345	0.6357421875	-0.30615234375	0.34228515625	0	0	0	0.150359566748097	-0.25219802873483	0.358385635299543	0.886198562061874	0.615911781426417	0.559360896661587	0.554768478544053	-0.711042442002759	0.697903474196535	0.0857285621899699	-0.33922164313453	-0.447265165187668	0.827576309979181	5.91417057211003	-33.6947696404333	42.2452095891064
21348	1655807246353	5.42640599340572	0.680454550391385	8.15759256062189	0.0891831541498789	-0.138305969540225	0.00709543771766974	0.0219876212736231	-0.00458132472667034	-0.00497696631581996	0.638671875	-0.311767578125	0.352783203125	0	0	0	0.150345490113042	-0.252289452462901	0.358420164330909	0.886160962568112	0.615770035953947	0.559374752892827	0.554911838626069	-0.711097078416371	0.697862438807346	0.0856093544512794	-0.339364417535158	-0.447311862494112	0.827492531557277	5.90659865679623	-33.7046426602877	42.2524793434867
21349	1655807246354	5.39328077798766	0.747529961676163	8.1610115846267	0.02041830211372	-0.112923545524365	-0.00273223171230263	0.0202394373632922	-0.00594230560484174	-0.00758906292500995	0.629150390625	-0.312255859375	0.35009765625	0	0	0	0.150427533397777	-0.252289323587066	0.358434388055587	0.886141322735295	0.615749773326394	0.559344524191196	0.554964791591159	-0.711149566790381	0.697792693310155	0.085741768216052	-0.339291188070584	-0.447458445467605	0.827443308799682	5.9160191911029	-33.708289748179	42.251876655706
21350	1655807246355	5.4222447300098	0.718439856400036	8.15578722222053	0.0602090829477268	-0.111913786802168	0.00655949854691329	0.0136334131453783	-0.00639589210288681	-0.0068050163110005	0.63623046875	-0.304931640625	0.349365234375	0	0	0	0.150316258465876	-0.2522471626078	0.358607656662163	0.88610210471503	0.615543835079172	0.559692299286859	0.554842605803676	-0.711359698054211	0.697611142048184	0.085475578234077	-0.339224360976989	-0.447306633763928	0.827552782794268	5.89700755318396	-33.6998745454196	42.2791413257629
21351	1655807246355	5.38842373059327	0.681802359438898	8.2012455155084	0.0505168020290493	-0.178038725925815	0.0222576025568504	0.0286469425361839	-0.00350376555037227	-0.00435927696963749	0.63916015625	-0.3046875	0.345703125	0	0	0	0.150426154968072	-0.252223096277194	0.358649860536074	0.886073224481657	0.615507574483599	0.559698175635952	0.554876903414715	-0.711461977904432	0.697484498877952	0.0856576197502886	-0.339075625413608	-0.447496732965459	0.827510963211734	5.90977444427968	-33.7022366137758	42.281120796645
21352	1655807246356	5.39930545176381	0.719399918099517	8.16072462921235	0.0445486122412199	-0.127836893853577	-0.00202301505088975	0.0181969329257078	-0.00264398592302761	-0.00717882357275448	0.631591796875	-0.3125	0.344970703125	0	0	0	0.150438199405503	-0.252209437413395	0.358691471258452	0.886058223981752	0.615461656252132	0.559759188686239	0.554866290528363	-0.711526923236424	0.697417553212154	0.0856632592263518	-0.339022694215434	-0.44752475591066	0.827517495678498	5.91011444963805	-33.7015056998651	42.2863572007979
21353	1655807246357	5.40458014180002	0.687001375574642	8.16133949141879	0.071012405612799	-0.148768536940856	-0.00138038425406961	0.0170373189793196	-0.00492175586031826	-0.00438980353930778	0.626953125	-0.314453125	0.34130859375	0	0	0	0.150499219357131	-0.252212450392928	0.358717820658812	0.88603633671621	0.615420810017174	0.559758493670143	0.554912295198023	-0.711589601255282	0.697343020229374	0.0857493528997429	-0.338965287283454	-0.447641755091623	0.827477729679378	5.91629444111156	-33.704674105609	42.2882146046809
21354	1655807246357	5.41988496574882	0.779089193187006	8.1695716661829	0.00955054431515997	-0.0776371031619968	0.0218392979405539	0.0337314418670275	-0.00580665961119149	-0.00716249192531732	0.63916015625	-0.302734375	0.34521484375	0	0	0	0.150436910248919	-0.252256092297479	0.358902457525716	0.885959720255705	0.615111779761615	0.560048987503739	0.554961827511168	-0.711843495970534	0.697115524033521	0.085491422937731	-0.338993120347518	-0.447632748743327	0.827471199867129	5.89867039365345	-33.7080855957411	42.3173373767368
21355	1655807246358	5.40035775966417	0.725523188792566	8.15948613727894	0.039491961412178	-0.12267730323213	-0.00193548240195085	0.00685639577863075	-0.00483328653384943	-0.00520984548220875	0.636474609375	-0.310302734375	0.343994140625	0	0	0	0.150452355682356	-0.252276972754993	0.358913759226289	0.885946573516293	0.61507448491126	0.560045500677961	0.555006680303508	-0.711868160019569	0.697090004215367	0.0854941446730298	-0.339008998053888	-0.44767685130392	0.827440835374413	5.89907180473581	-33.7111749053215	42.3188891947826
21356	1655807246358	5.38860926083873	0.673411519133686	8.18308228810586	0.0597876033610488	-0.176023529113733	0.00662368461446405	0.0184217121953251	-0.00403931845999386	-0.00658542312085552	0.6376953125	-0.3076171875	0.34375	0	0	0	0.150461401406914	-0.252324191588762	0.358994944269991	0.885898695683841	0.614910264655327	0.560136202821133	0.555097109261647	-0.711996408722381	0.696967993350506	0.0854209003195407	-0.339037579610207	-0.447753336709053	0.82738773805149	5.89442914488281	-33.7174036859526	42.3311247442609
21357	1655807246359	5.40897427476416	0.731218416558803	8.19221318979343	0.0285732589993525	-0.129927656405962	0.0303986255325732	0.027300156966743	-0.00827920745222467	-0.00718657005211544	0.631103515625	-0.30810546875	0.3515625	0	0	0	0.150575894715426	-0.252322681939832	0.359020709451879	0.885869230921815	0.61487478872672	0.56010337235411	0.555169529482505	-0.712078226714454	0.696862060230636	0.0856029675321594	-0.338930071294169	-0.447959240655517	0.827320328218679	5.90738175830105	-33.7223923438731	42.3310985373737
21358	1655807246360	5.43154456040266	0.718332689820703	8.16973085957481	0.0587618880404215	-0.115277584581007	0.0232385450729691	0.0118144877547974	-0.0044938436444591	-0.0057995119512263	0.63916015625	-0.307373046875	0.34326171875	0	0	0	0.150505598202988	-0.25232339027692	0.359097997516257	0.885849648534409	0.614763069797951	0.560261504189906	0.555133691046999	-0.712165835366841	0.69679338617875	0.0854330141912457	-0.338948655328281	-0.447868310891066	0.827361943257444	5.89544167301367	-33.7199235814604	42.3443337037691
21359	1655807246361	5.38480590043741	0.713356920919387	8.18081696084621	0.0300382303078944	-0.150778226310803	0.00602651185629099	0.020125426182118	-0.00330132432294844	-0.00537997562152504	0.63720703125	-0.302734375	0.34326171875	0	0	0	0.15057663711154	-0.252313991201522	0.359126985345697	0.885828501797413	0.61473091648094	0.560264654184969	0.55516611711586	-0.712235023350232	0.696708969505383	0.0855446276749294	-0.338861582118419	-0.447995679757903	0.827328652400276	5.90332524316658	-33.7221572769122	42.3459860317967
21360	1655807246361	5.41503590989544	0.702314803763305	8.19204719547392	0.0513045475444441	-0.147248677758118	0.031152474537782	0.0154397377780024	-0.00441055109661125	-0.00279105653368241	0.63232421875	-0.304443359375	0.35498046875	0	0	0	0.150587204371527	-0.252388040988133	0.359187398794061	0.885781114719261	0.614569378627458	0.560310009975412	0.555299173036314	-0.712335648012249	0.696615812854248	0.0854653956428249	-0.3389430681168	-0.44808381135985	0.827247541291481	5.89847031046056	-33.731323548137	42.3557920589562
21361	1655807246362	5.42172164516403	0.688030438345374	8.20901039733703	0.0601566614789877	-0.161999388064732	0.0476594985298888	0.0198564169723841	-0.002533432023022	-0.00737949290119173	0.64013671875	-0.3115234375	0.338623046875	0	0	0	0.150658167938742	-0.252374870971457	0.359207560974451	0.885764623968619	0.614553705281853	0.560302028957765	0.555324571462632	-0.71239137173511	0.696544089144256	0.085585427238324	-0.338854359278014	-0.448205274649919	0.827218081870964	5.90690473428054	-33.73307336634	42.3561132402702
21362	1655807246362	5.40272909927888	0.738189535620923	8.15677980192151	0.0298556983113596	-0.113778180752627	-0.00179418443231505	0.0238285933990409	-0.00648777269733071	-0.00598633992928691	0.630859375	-0.30810546875	0.346435546875	0	0	0	0.150661738716022	-0.252383509692224	0.359317384245803	0.885717010055274	0.614387162828379	0.560457961683185	0.555351498906436	-0.712556115257114	0.696384115731639	0.0855157644317972	-0.338809971460974	-0.448258894549337	0.827207209045001	5.90220775575041	-33.7349285647911	42.3717828574189
21363	1655807246363	5.41452264649597	0.689791238078321	8.17469668082985	0.0657770112605153	-0.149929180890797	0.0154217013966296	0.0116440322971224	-0.00247607569174415	-0.00499232796251321	0.6416015625	-0.310791015625	0.3486328125	0	0	0	0.150692829477984	-0.252386780780017	0.359338169925788	0.885702356136532	0.61435398504377	0.560467571268959	0.555378503920267	-0.712599083743282	0.696335501556609	0.0855535804051574	-0.338779761658036	-0.448322396080968	0.827185168062837	5.90495556305283	-33.736789147811	42.373812552333
21364	1655807246364	5.41630659118942	0.709899312814791	8.19055331449345	0.046276318907376	-0.140988379418377	0.0312690497424732	0.0290110740239818	-0.00754094040168358	-0.00598201618475829	0.637451171875	-0.3056640625	0.34228515625	0	0	0	0.15070750856083	-0.252384372159781	0.35948940918258	0.885639170451747	0.614138986750144	0.560683364413519	0.55539847841297	-0.712828244125078	0.696109223097893	0.0854859280560538	-0.338687465565325	-0.448403963394599	0.8271787511058	5.90036456528322	-33.7381653701401	42.3947801554705
21365	1655807246365	5.40371340754551	0.744393694845503	8.1555638472695	0.0266060951678157	-0.109897140271523	-0.00174059254694825	0.0229435501905623	-0.000914355992087436	-0.00837194693283707	0.633544921875	-0.30126953125	0.3486328125	0	0	0	0.150789573816102	-0.252357981417511	0.359511204209639	0.88562387484246	0.614134286525229	0.560677506508762	0.555409589230565	-0.712889316376915	0.696028396952188	0.0856346497150722	-0.338567424171025	-0.448536736880364	0.827155907286475	5.91071902361875	-33.738930903782	42.394700430809
21366	1655807246365	5.41046782599887	0.730370098885008	8.17247092753579	0.0350521976940939	-0.123945791821423	0.0147890259453618	0.0174936319156064	-0.00770997416491138	-0.00319897292109029	0.62890625	-0.30810546875	0.346923828125	0	0	0	0.150801340316139	-0.252388696017515	0.359504166291013	0.885615975635511	0.614113401083964	0.560644158669526	0.555466342777694	-0.712886373229861	0.696031420356519	0.0856345767763357	-0.338611502274009	-0.448573727748546	0.827117803762869	5.91098439071528	-33.7428413211212	42.3939737564254
21367	1655807246365	5.42235828088705	0.681694335073594	8.19040063544526	0.0709640794770997	-0.160070155233115	0.0320412050985563	0.0115976089543548	-0.00310360295227338	-0.00639594987624705	0.638671875	-0.29638671875	0.3515625	0	0	0	0.150834639965629	-0.2523939732544	0.359518633538353	0.885602927835049	0.614087268807146	0.560642000774999	0.555497410665419	-0.712921017116287	0.695990527050309	0.0856785247895379	-0.338585956062651	-0.448639870300487	0.827092387302593	5.91417688517003	-33.7449820277098	42.3950779844667
21368	1655807246366	5.41768046114073	0.717804426500521	8.18895554455408	0.04434119132911	-0.136806334108421	0.031336964605849	0.0270931676057679	-0.00688771813689732	-0.00778536532297886	0.634521484375	-0.305908203125	0.343505859375	0	0	0	0.150881885224646	-0.252325508870863	0.359463728189293	0.885636676295856	0.614235331378628	0.560565826027557	0.555410580000264	-0.712851219902373	0.696040969654622	0.0858493264152553	-0.338464320083943	-0.448656798959179	0.827132988568234	5.92559427078307	-33.7389991679953	42.3843236528182
21369	1655807246367	5.41802249812248	0.719991871560706	8.18853718493659	0.0436847570771691	-0.136254063565126	0.031347559172799	0.0165578096588196	-0.00276338953982995	-0.00698855371574155	0.6259765625	-0.3046875	0.33935546875	0	0	0	0.150937382938106	-0.252319317124072	0.359482112202892	0.885621521669378	0.614215146424378	0.56056135566122	0.555437413613933	-0.71289902522697	0.695981034875885	0.0859382273701732	-0.338400256698064	-0.448755351647585	0.827105737275675	5.93188081166741	-33.7408480295391	42.3850336636726
21370	1655807246367	5.41693917964195	0.703900546257829	8.17189253531674	0.058797788297384	-0.140513853299693	0.0156050539608792	0.0254918195451302	-0.00637493538544489	-0.00618579326286431	0.63916015625	-0.306884765625	0.34912109375	0	0	0	0.150923589712904	-0.252382710440449	0.359471156656078	0.885610255739648	0.614166910006148	0.560521676672143	0.555530788196433	-0.712883695236723	0.696005115201024	0.0858703480815331	-0.338520078753293	-0.44876756744963	0.827050075077807	5.92762489212583	-33.74728193786	42.3852547497682
21371	1655807246368	5.39029409433316	0.755118184395657	8.19228057336935	-0.000559057499623442	-0.13043573409729	0.0220429711451189	0.0205338777690805	-0.00671623031891053	-0.00559350457603465	0.6376953125	-0.302490234375	0.35107421875	0	0	0	0.15100161485416	-0.252388409841405	0.359498050056309	0.88558441432473	0.614122485166877	0.560509625306946	0.55559205641435	-0.712953855133049	0.695919328634295	0.0859830709158237	-0.338452912032652	-0.448915635695014	0.826997205778326	5.93572736327117	-33.7515038425456	42.3867050243842
21372	1655807246369	5.41782979236815	0.707694719414953	8.17097434796694	0.0579125367774368	-0.138157563916264	0.0156437151528568	0.0118719283139102	-0.00387159016745812	-0.00439709998784044	0.635498046875	-0.299072265625	0.3486328125	0	0	0	0.150992746426254	-0.252351467001951	0.359554147243227	0.885573680067794	0.614079104604318	0.560616896581007	0.555531770969257	-0.713029860850282	0.695844011453705	0.0859623711855553	-0.338371498244438	-0.44889843727941	0.827039855257241	5.93400474198243	-33.7473496576801	42.3941797719859
21373	1655807246371	5.39462924520513	0.706183736392352	8.17635056689515	0.0432289936552995	-0.155640307798751	0.00705477408372701	0.0253213277009622	-0.00435521657115128	-0.00538174305217491	0.6337890625	-0.308837890625	0.34423828125	0	0	0	0.151087510646811	-0.252337931362128	0.359589800483486	0.885546897634834	0.614041487568258	0.56061704469602	0.555573200164715	-0.713117484261099	0.695735479029594	0.0861138598634603	-0.338255088928582	-0.449066445435153	0.826996265044864	5.94469830981565	-33.750204463389	42.3959350151629
21374	1655807246372	5.44699515954052	0.680602819257266	8.16559169944055	0.0974115438776806	-0.139288683030711	0.0250447801220766	0.0151311486899813	-0.00427201640626896	-0.00619522302465202	0.641845703125	-0.29931640625	0.345458984375	0	0	0	0.151071119154422	-0.252339872245496	0.359585460511079	0.88555090334864	0.614045770928324	0.560619924958423	0.555565559537893	-0.713104992588067	0.695751627092932	0.0860868337407704	-0.338273647733626	-0.449037830407584	0.827004211665114	5.94278927418759	-33.7496779554288	42.3958825774651
21375	1655807246374	5.40018810030715	0.675664626415312	8.17679082939343	0.0687086457282134	-0.174812283636876	0.00786160477268538	0.0183128374769786	-0.00139690315818411	-0.00438365067322925	0.634521484375	-0.304443359375	0.34130859375	0	0	0	0.151128201217387	-0.25232654996383	0.359618975376639	0.885531349828567	0.614011009464814	0.560640438147637	0.555583278518734	-0.713175068609328	0.695668918691707	0.0861746893257619	-0.33818900302949	-0.449140350759022	0.826983157960296	5.94896105597545	-33.7508989576395	42.3985415961067
21376	1655807246374	5.42028805739913	0.733546561858808	8.18583438358247	0.0364472078658378	-0.129053187656911	0.0314740513913332	0.030508526554043	-0.00540722611721432	-0.00537886684451997	0.629638671875	-0.306640625	0.3466796875	0	0	0	0.151234051841521	-0.25236688375017	0.359609712458988	0.885505546145809	0.613983621382784	0.560539856900355	0.555715018242095	-0.71320572242098	0.69561823253752	0.0863300183444002	-0.338174082655147	-0.449344348342679	0.826878435099648	5.96035623494156	-33.7599775923979	42.3946953930217
21377	1655807246375	5.42041570012035	0.735610496499035	8.18556461349202	0.0357781268877618	-0.128503389127711	0.0314836981618285	0.0109342166128856	0.00107032558621858	-0.00819042130327217	0.64111328125	-0.302734375	0.3466796875	0	0	0	0.151259077175234	-0.25235350729974	0.359618439950934	0.885501539565501	0.613984570001553	0.560543847193207	0.555709945181698	-0.713226881737577	0.695590538438706	0.0863783422012951	-0.338127731732996	-0.449382240646412	0.826876797851234	5.96368027281198	-33.7596279726616	42.394854405491
21378	1655807246376	5.40195223355719	0.699569512914918	8.19229813836856	0.0476954647251742	-0.166127032474409	0.0236921040797373	0.0150082316040211	-0.00162460973489204	-0.00398849930969205	0.636962890625	-0.309814453125	0.34375	0	0	0	0.151231658250041	-0.252347983800022	0.359655759410673	0.88549263991167	0.613936459589591	0.560619047627723	0.555687238492646	-0.71327106381225	0.695553440531349	0.0863122291053974	-0.338121890913231	-0.449345852102795	0.826898961230013	5.95899001835507	-33.7580631148902	42.4009172140962
21379	1655807246377	5.39569754637514	0.717411932558817	8.17466799710473	0.0375462289084775	-0.150327679119259	0.0071609127987351	0.0253286502307623	-0.00435548591040168	-0.00538318818546194	0.632568359375	-0.30078125	0.34521484375	0	0	0	0.151326496813765	-0.252334867827579	0.359691082394149	0.885465827170444	0.613898879449128	0.56061842045131	0.5557293877975	-0.713358226740558	0.695445233216399	0.0864636798786392	-0.338006222062068	-0.449514086817385	0.826854811681024	5.96968716391773	-33.7609679057484	42.4026317312039
21380	1655807246377	5.40245098227232	0.70348221438317	8.19163417427029	0.0450922236826449	-0.163858210953355	0.0237424388502898	0.016838104506011	-0.00353200632850641	-0.00499116427139369	0.641357421875	-0.31005859375	0.352294921875	0	0	0	0.151302181043632	-0.252371730777818	0.35972932737026	0.885443939809511	0.613806641067898	0.560671519182616	0.555777702825871	-0.713409092384377	0.695404922082361	0.0863681726501464	-0.338066375559954	-0.449510224490037	0.826832319031297	5.96330167491075	-33.7642977390048	42.4096209004153
21381	1655807246378	5.4198080323063	0.724787393517892	8.16816367475272	0.0489514988996133	-0.13001267714024	0.0158035491750343	0.0252342476157209	-0.00561242998662694	-0.00818816024668464	0.639404296875	-0.3056640625	0.34033203125	0	0	0	0.151402170360647	-0.252362522741623	0.359751288988987	0.885420549793335	0.613784334372493	0.56064590084944	0.555828179152187	-0.713478835492519	0.695312785761696	0.0865337001436344	-0.337959675380295	-0.449684671538879	0.826781079851139	5.97501554656796	-33.7677766653846	42.4093541071092
21382	1655807246379	5.41507075255453	0.761251558372187	8.16660202184848	0.0195171624538974	-0.106964166290029	0.0150316571313862	0.0217531278707603	-0.00381940087919818	-0.0069884488824994	0.64013671875	-0.314697265625	0.346923828125	0	0	0	0.151428039050638	-0.25239378844831	0.359895037945761	0.885348793529424	0.613545874429458	0.560826282378434	0.555909471914427	-0.71370426819159	0.695090221302595	0.0864627192182594	-0.337916672473701	-0.449803807501775	0.826733849083977	5.97048844573729	-33.7733798172662	42.4296193564187
21383	1655807246380	5.39676768956153	0.725880593139923	8.17321383926017	0.0319094411330365	-0.145861182402232	0.0072482067049755	0.0197018877990486	-0.000520037971635526	-0.00658552848497834	0.64501953125	-0.3046875	0.34912109375	0	0	0	0.151492125833549	-0.25237364821116	0.359921047698927	0.885332997759786	0.613528762223793	0.560834719288514	0.555919846349017	-0.713765201176022	0.695013950467477	0.0865727800509158	-0.337819027756422	-0.44991113155396	0.826715354998044	5.97816621067518	-33.7740949076934	42.4308443986411
21384	1655807246380	5.40484395993884	0.730087631770989	8.2064506397241	0.0213823595244578	-0.152970043522847	0.0395885644076355	0.0186708957051171	-0.00543982070597629	-0.00599339633585413	0.6376953125	-0.30615234375	0.34521484375	0	0	0	0.151508570240709	-0.252404712711315	0.360131987918377	0.885235542340395	0.613193624558153	0.561120316988281	0.556001410667459	-0.714086225567913	0.694700208843149	0.0864435207951177	-0.33774908031763	-0.450039564589888	0.826674028289469	5.96960114417512	-33.7797171919974	42.4609622225167
21385	1655807246381	5.40238681614837	0.695439364337968	8.17367990940932	0.0559177158653515	-0.164725087486961	0.00811714047804024	0.0167941248085558	-0.00416159827204177	-0.00639399021892221	0.638916015625	-0.303955078125	0.345458984375	0	0	0	0.151565805217101	-0.252406474742693	0.360152596310519	0.885216857932366	0.613162157757517	0.561113918191591	0.556042569508689	-0.714138680537135	0.694635828119368	0.08652751732021	-0.337695296465356	-0.450146906136875	0.826637556393716	5.97562154296865	-33.7825544392007	42.462101185453
21386	1655807246382	5.39754884241747	0.731436420761289	8.17220263282308	0.0270346916928553	-0.1421164041668	0.0073177461246452	0.0218541886523795	-0.00256201562173363	-0.00418606398598003	0.643310546875	-0.30712890625	0.34033203125	0	0	0	0.151594747152273	-0.252428019386651	0.360225985974089	0.885175895906213	0.613034668115056	0.561193196180489	0.55610313094766	-0.714260243272763	0.694512543329669	0.0865137679082919	-0.33766966190198	-0.450238296592463	0.826598255328742	5.97496088705733	-33.7867293577054	42.4720665235856
21387	1655807246383	5.4328497803579	0.686416845965595	8.18465273070351	0.0768932589502931	-0.160100936075831	0.0333280795741135	0.0134873332501549	-0.00439003295154802	-0.00599712644046013	0.634521484375	-0.302978515625	0.341552734375	0	0	0	0.151637199746136	-0.252437378227463	0.360243919663565	0.885158657005752	0.612999376838152	0.561188253956441	0.556147019786458	-0.714303842539115	0.694460955997163	0.0865678989542943	-0.337641502973039	-0.450324021363315	0.826563059453591	5.97892504104235	-33.7897550458722	42.4734580524269
21388	1655807246383	5.40458728391969	0.719219728766677	8.18885790986706	0.0326587339605227	-0.156325593133236	0.0239141733381505	0.026994323601378	-0.00424172978952337	-0.00558529104152453	0.6357421875	-0.2998046875	0.345947265625	0	0	0	0.151702173101734	-0.252532310010872	0.360312831338438	0.885092394414088	0.612804191946903	0.561200892840814	0.556349332889846	-0.714439693669015	0.694322228498181	0.0865596160079611	-0.337708374847928	-0.450522142505775	0.826427766153569	5.97932873022846	-33.8037038553922	42.4831886399699
21389	1655807246385	5.42334097177099	0.758722884963691	8.18151633806468	0.0188215303911294	-0.1163329254021	0.0316820671493172	0.0170697283547651	-0.00492546219479246	-0.00439367107178177	0.63330078125	-0.305908203125	0.3388671875	0	0	0	0.15175935359873	-0.252539724041612	0.360341714624034	0.885068717715237	0.612755072965597	0.561203828046093	0.556400470831341	-0.71450488916032	0.694245894594215	0.0866337186381733	-0.337659568087335	-0.450636107325512	0.826385572752565	5.98471376183042	-33.8072300048075	42.4856253973373
