// Start Time : 05/07/2022 10:44:44																																
// Update Rate : 100Hz																																
// Filter Profile : 46.1 human																																
// Firmware Version : 4.4.0																																
PacketCounter	Time_Of_Arrival	Acc_X	Acc_Y	Acc_Z	FreeAcc_X	FreeAcc_Y	FreeAcc_Z	Gyr_X	Gyr_Y	Gyr_Z	Mag_X	Mag_Y	Mag_Z	VelInc_X	VelInc_Y	VelInc_Z	OriInc_q0	OriInc_q1	OriInc_q2	OriInc_q3	Mat[1][1]	Mat[2][1]	Mat[3][1]	Mat[1][2]	Mat[2][2]	Mat[3][2]	Mat[1][3]	Mat[2][3]	Mat[3][3]	Euler_X	Euler_Y	Euler_Z
36726	1657017918040	7.13899443678084	0.264292271938305	7.019215939926	1.04083408558608E-15	1.86482773667507E-15	0.202525285241247	0.000452684836047919	-0.00311567205492379	-0.00430570284030125	0.56494140625	-0.364990234375	0.218017578125	0	0	0	0.193657820199687	-0.334758663721172	0.431954067263805	0.81476927379067	0.402704641675742	0.574228537172509	0.712804712855865	-0.833543069609319	0.551824664899523	0.0263721503636537	-0.378199580485074	-0.604773615748281	0.700866571478241	2.15490430200375	-45.4635750967013	54.9581432138209
36727	1657017918041	7.15712697320731	0.273606229558304	7.04712712441665	-3.46944695195361E-16	-4.33680868994202E-17	0.235264048854487	0.000763736269327954	-0.00354038684752524	-0.00682060740783875	0.56396484375	-0.369873046875	0.227294921875	0	0	0	0.197082563010249	-0.332381235882569	0.439788113454591	0.810720415836766	0.392218258594455	0.582077312711444	0.712285644704256	-0.844103496168448	0.535489757242726	0.027203081522688	-0.365587370379964	-0.611912348228691	0.701362354780974	2.22116410990976	-45.4211872613775	56.0269242305767
36728	1657017918041	7.12378985804925	0.247276233124047	7.01316025114747	0.0158779471939435	-0.0133868425261303	0.186988275410354	0.000452801656368025	-0.0031159904004738	-0.00430592836928572	0.563720703125	-0.365234375	0.218505859375	0	0	0	0.195367418520249	-0.333586060478686	0.435831024949007	0.812775017902828	0.397543315892417	0.578121443230952	0.71255519706604	-0.838808833191195	0.543765778945264	0.0268052048765952	-0.371966468044753	-0.608353823465104	0.701103824070088	2.18951513274761	-45.4431953113623	55.4857689397627
36729	1657017918041	7.14435154820337	0.247513284429982	7.06348897093069	0.00515752357689754	-0.0326520165596189	0.236929819496416	-0.00196138070187776	-0.0079517870253712	-0.00788713786251326	0.56103515625	-0.365478515625	0.2265625	0	0	0	0.195389930772023	-0.333614944712774	0.435787932854787	0.812780856809108	0.397579892484888	0.578030177001686	0.712608829279504	-0.838770180809451	0.543823305062111	0.0268476564378264	-0.372014533152384	-0.608389124941203	0.701047687234393	2.19315473065354	-45.4475752264724	55.4790842548116
36730	1657017918042	7.16110698825534	0.243095093837226	7.03302373190229	0.0269706070873414	-0.0076195440687694	0.227391612867956	0.00240248890665384	-0.00451998898961959	-0.00574263487124799	0.56982421875	-0.36767578125	0.2255859375	0	0	0	0.195419510173318	-0.333621337350237	0.435764124850418	0.812783886283192	0.397612861515977	0.577971881140732	0.71263771789579	-0.838756354454135	0.543841685073939	0.02690723766475	-0.372010470578297	-0.608428078072159	0.701016036616519	2.19811622752129	-45.4499345780154	55.4741675392407
36731	1657017918042	7.15621046432898	0.284483046671174	7.02310030486611	-0.00583224968656194	0.0173808895680987	0.218059397398376	0.000594919476536596	-0.00580830846700758	-0.00609774047906194	0.56787109375	-0.359375	0.225830078125	0	0	0	0.195444754648976	-0.333637687238288	0.435734660841142	0.812786901270033	0.397642397991882	0.577903377674164	0.712676791674921	-0.83873432136992	0.543873306443713	0.0269548640160488	-0.372028576154314	-0.608464881986443	0.700974483068976	2.20213351632294	-45.453125915272	55.4690087832719
36732	1657017918042	7.16191347133999	0.244147079267512	7.03216602463793	0.0269649679869565	-0.00762062714546392	0.227391627192635	0.00148545658056364	-0.00764398381903306	-0.00645443968795066	0.56494140625	-0.360107421875	0.22314453125	0	0	0	0.195478133526857	-0.333659459528613	0.435703474601211	0.812786655033387	0.397667694575011	0.577821682650619	0.712728916033441	-0.838714196179552	0.543901563066576	0.0270108648625703	-0.372046908088596	-0.608517208263286	0.70091932875986	2.20687757393643	-45.4573834351999	55.4635238588485
36733	1657017918043	7.14599890280741	0.249639617717661	7.06174751983664	0.0051767117684889	-0.0326483643704199	0.236929821496195	0.00240263359709146	-0.00452080203635005	-0.00574340312827325	0.564697265625	-0.36279296875	0.22314453125	0	0	0	0.195507327881448	-0.33366698378556	0.435679723183235	0.812789276186075	0.397699045476854	0.577762932905747	0.712759049459877	-0.838700294514456	0.543920127103272	0.027068640773516	-0.372044735493145	-0.608556397297826	0.700886457352206	2.2116969959891	-45.4598448814551	55.4586934936107
36734	1657017918045	7.16276740665477	0.245319241016583	7.03125543053505	0.0269458642421904	-0.00760449807197857	0.227391690711357	0.000737393904685976	-0.0085016048360528	-0.00789001973262559	0.558837890625	-0.360107421875	0.2265625	0	0	0	0.195540939857646	-0.333692637623202	0.435641031077709	0.812791397885835	0.397732231275243	0.57766942128332	0.712816324110925	-0.838671709220991	0.543961265762278	0.0271275782671884	-0.372073697480969	-0.608608397136036	0.700825928871318	2.21669904588304	-45.4645236524756	55.4521288643384
36735	1657017918046	7.14238626297118	0.268845664769111	7.01559155774818	0.00501051944964276	0.0020143899962786	0.2025238293024	-0.000153095281760953	-0.00666672515438362	-0.0075337875458016	0.559326171875	-0.368896484375	0.216796875	0	0	0	0.195567408782648	-0.333712698135549	0.435603640011219	0.812796833491685	0.397770607824136	0.57758786321267	0.712860998947649	-0.838641173821612	0.544005714862034	0.0271802091337993	-0.372101498414515	-0.608646073237041	0.700778447450265	2.22114574763562	-45.4681734132021	55.4457677914307
36736	1657017918048	7.14502021753591	0.26035611551903	7.03779056801655	0.00504626226196046	-0.0152898341231651	0.219726904711866	0.00315118794707677	-0.00366467545232693	-0.00430921504426041	0.56689453125	-0.36474609375	0.224365234375	0	0	0	0.195593793415686	-0.333717630889769	0.435588487018268	0.812796580201786	0.397790425620913	0.577543470536585	0.712885907368697	-0.838635859958288	0.544011475908796	0.0272288169327387	-0.372092289192287	-0.608683048655119	0.700751221621164	2.22520031436038	-45.4702084371188	55.4423771181058
36737	1657017918048	7.14772189609831	0.251911748510658	7.0599228398365	0.00511973237629429	-0.0326131061755527	0.236929965167675	0.000737889674356146	-0.00850314143241642	-0.00789098751359399	0.563720703125	-0.366943359375	0.218017578125	0	0	0	0.195628478005941	-0.333742862729642	0.435549332876342	0.812798855068753	0.397824960415993	0.577448781613409	0.712943339602247	-0.838607214737992	0.544052554448105	0.027290243455871	-0.372119927253839	-0.608736168312417	0.700690400340204	2.23040855651751	-45.4749009442927	55.435664584373
36738	1657017918049	7.14593445107761	0.261399740094475	7.03682359434189	0.00500155596116422	-0.0152346623825188	0.219727011031761	-0.000463424070331577	-0.00624255967927943	-0.00501896810817534	0.560302734375	-0.368408203125	0.2177734375	0	0	0	0.19564535851645	-0.333764945938366	0.435523408249561	0.812799615785105	0.397840643458891	0.577387392764656	0.712984306341064	-0.838585642797996	0.544084509115311	0.0273160508460035	-0.372151772943898	-0.608765838083235	0.700647709107459	2.23265153146691	-45.4782483751226	55.4317633726505
36739	1657017918050	7.14415908410891	0.270811708940289	7.01371060489868	0.00492816186913707	0.00208851563824764	0.202523854983099	-0.000320801411804033	-0.00893576070489462	-0.00681127546077154	0.560791015625	-0.365234375	0.223388671875	0	0	0	0.195674879933375	-0.333795295947809	0.435486449998724	0.812799848445902	0.397864504541245	0.577295932204589	0.713045049548893	-0.83855735003224	0.544125786461135	0.0273623685918637	-0.372190014284445	-0.608815682426204	0.700584083532347	2.23663632961296	-45.4832121259378	55.425916920035
36740	1657017918051	7.14998105599991	0.230547657380292	7.02268110150228	0.0376782415935079	-0.0228460064006528	0.211856991909711	0.00254551108710654	-0.0072157194715473	-0.00753766139236886	0.566162109375	-0.3671875	0.21826171875	0	0	0	0.195709702975573	-0.333812408996057	0.435454613742772	0.812801493066785	0.397897109940765	0.577215665597533	0.713091835102313	-0.838536975254249	0.544153983062693	0.0274259703285609	-0.37220106264255	-0.60886658481625	0.700533975522924	2.24199011228104	-45.4870355977117	55.4200002710807
36741	1657017918051	7.14751854859084	0.263128664234501	7.03515012393192	0.00494883577728117	-0.0151687801590482	0.219727137005073	0.00179727429586117	-0.00807372703055843	-0.00897323221636447	0.56103515625	-0.362548828125	0.226806640625	0	0	0	0.195749562264694	-0.333832526178587	0.435413244921932	0.812805794445978	0.397942301223554	0.577117675163793	0.713145927500426	-0.838507958640495	0.544194830039469	0.0275025499702058	-0.372218119109552	-0.608922963905824	0.700475906676807	2.24843003751455	-45.4914565327647	55.4124136418797
36742	1657017918052	7.13237281505077	0.245764742784118	7.0290762423029	0.0157206896185501	-0.0304466685505803	0.204192437804089	-0.000462888544441191	-0.00624423341377609	-0.00501988476724707	0.560791015625	-0.3671875	0.221923828125	0	0	0	0.19576335608958	-0.333855629250243	0.435388623851742	0.812806172128974	0.397954330076821	0.57705972462002	0.713186108526081	-0.838486518345725	0.544226909266061	0.0275214422437438	-0.372253555692318	-0.608949214181427	0.700434254460938	2.25010662039322	-45.4947407254108	55.4089153359039
36743	1657017918053	7.13277825496614	0.246342403799891	7.02864460128958	0.0157206898651565	-0.0304466672407818	0.204192437807688	0.00196504588316853	-0.00580729386411164	-0.00969759132755172	0.56787109375	-0.35791015625	0.216064453125	0	0	0	0.195800171846146	-0.333865459729352	0.435346807760417	0.812815664512897	0.398014023545046	0.576971580909705	0.713224110559956	-0.838455238463704	0.544270899355668	0.0276043693524551	-0.372260191471312	-0.608993417811005	0.700392295009457	2.25701466675385	-45.4978469945934	55.4008080444212
36744	1657017918054	7.15115630043506	0.256009305222031	7.0562965595408	0.00479571999019521	-0.0322151659816158	0.236931408531214	0.00493421439157844	-0.00733790926170544	-0.00502614675580599	0.562255859375	-0.36376953125	0.221923828125	0	0	0	0.19583478792285	-0.33388115446583	0.435331559196815	0.812809045286189	0.398019616519668	0.576911767874918	0.713269371943708	-0.838453948179927	0.544270338812965	0.027654566890705	-0.372257117657981	-0.609050581130875	0.700344221063553	2.26126975867198	-45.5015468633748	55.3976552529017
36745	1657017918055	7.16567829579218	0.260679849766419	7.00313937034126	0.0265114202316296	0.0101347452080965	0.210189212664968	-0.00195925111510466	-0.00796126062093545	-0.00789084567772118	0.563720703125	-0.364501953125	0.218017578125	0	0	0	0.195857327090471	-0.333910047282851	0.435288423165436	0.812814847555511	0.398056137963425	0.576820327936841	0.713322942508145	-0.838415245334729	0.544327792166249	0.0276971310016453	-0.372305234209712	-0.609085842845039	0.70028797549708	2.26492824669916	-45.5059262761178	55.3909524474625
36746	1657017918056	7.14974041899132	0.266149699823232	7.03277836893758	0.00455679939665183	-0.0146973167813052	0.219728024494564	0.00182206802781968	-0.0031149313103584	-0.00790604820528732	0.56884765625	-0.360595703125	0.229248046875	0	0	0	0.195873200474222	-0.333913486231639	0.435261158076825	0.812824210588144	0.398099015964508	0.576772207967562	0.713337923851182	-0.838391020886346	0.544362827211213	0.0277418176723582	-0.372313939552687	-0.609100100530972	0.700270946097237	2.26863378714541	-45.507151067216	55.3858328090427
36747	1657017918056	7.16863449244106	0.252890490405376	7.02500514312355	0.026418195194762	-0.00699241788424984	0.227393537959864	0.00165508731292115	-0.00538288870121415	-0.00718281619723286	0.565673828125	-0.368408203125	0.215576171875	0	0	0	0.195903633016101	-0.333924726062325	0.435229457935258	0.812829233505215	0.398139192539165	0.57670031940578	0.713373622277649	-0.838368587363844	0.544394171032949	0.0278046447001584	-0.372321494257067	-0.6091401547613	0.700232087790587	2.2738922332395	-45.5100696789907	55.3797906750828
36748	1657017918058	7.1713717534051	0.244553529392085	7.04711963206239	0.0262883055708389	-0.0240958504237903	0.244598683142351	0.00254678520821687	-0.00721931863848331	-0.00754068178096837	0.561279296875	-0.36279296875	0.224853515625	0	0	0	0.195929066112014	-0.333944581650541	0.435201608159578	0.812829857777158	0.398161153283123	0.576630822497565	0.71341754293123	-0.838348622561397	0.544422722615581	0.0278475519434938	-0.372342964302618	-0.609180427825466	0.700185634877437	2.27754847138159	-45.5136607266216	55.3750846344016
36749	1657017918058	7.13760497475698	0.241348484636383	7.04852497204272	0.0152957277311159	-0.0471837158066049	0.221399431886903	0.00360544020470739	-0.0067882495684669	-0.00862219681093391	0.565185546875	-0.366943359375	0.222900390625	0	0	0	0.195972887863625	-0.333955875094639	0.435165934861217	0.812833752896942	0.398208165252273	0.576542525409658	0.71346266441957	-0.83832771445494	0.544450472717508	0.0279343146405742	-0.372339764601063	-0.609239196992392	0.700136201424329	2.28479810145337	-45.5173501957417	55.3678188512267
36750	1657017918060	7.15590286426255	0.251065173897583	7.07625705158484	0.00424557176405775	-0.0488040081404077	0.254139023302207	0.00107374654545473	-0.00397502086903482	-0.00934255942429111	0.565185546875	-0.37451171875	0.223388671875	0	0	0	0.1959831714171	-0.333963870091287	0.435133710224839	0.81284524001861	0.398253575399232	0.576490133457357	0.713479653324499	-0.838295327054232	0.544498501494523	0.0279701002725469	-0.372364115243086	-0.609245851768018	0.700117459989891	2.28778313998231	-45.5187393978938	55.3623287577559
36751	1657017918062	7.15242399528793	0.246982896317063	6.99500898979783	0.0367601771226331	-0.00451776421402168	0.194657364716095	0.00163257925896967	-0.0103471961359587	-0.00825369188355207	0.56640625	-0.365234375	0.221923828125	0	0	0	0.196026095867478	-0.333994271797215	0.435092761793554	0.812844317677414	0.398284230083012	0.576382171887907	0.713549762803521	-0.838268544457944	0.544536116747624	0.0280404160057803	-0.372391621065166	-0.609314376563688	0.700043192291206	2.29377146358516	-45.524472692909	55.3552477738577
36752	1657017918063	7.1367018669893	0.252850765727383	7.02442938428591	0.0146444835475473	-0.0291580047970428	0.204197903055652	0.00497434854173093	-0.00678543585821034	-0.0122217857435251	0.555419921875	-0.3671875	0.216552734375	0	0	0	0.196058827285745	-0.334003846446241	0.43505471884348	0.812852851637044	0.398337644342272	0.576302132773795	0.713584594046302	-0.838239742546507	0.544576655710718	0.0281140546790434	-0.372399322119974	-0.609353852712285	0.700004733604908	2.29991503545708	-45.5273212809379	55.3479325748719
36753	1657017918063	7.15553968458899	0.239725579613977	7.01670966839011	0.0365047670186228	-0.0214519156501084	0.211864414049689	0.00136833160290906	4.34118554464452E-06	-0.00359821487652137	0.559326171875	-0.368408203125	0.230224609375	0	0	0	0.196070363664413	-0.333997332070349	0.435042411893513	0.812859332551623	0.398367764047529	0.576282612402863	0.713583544660261	-0.838230525850772	0.54458902469276	0.0281492400630522	-0.372387849022643	-0.609361259702584	0.700004389324788	2.30279146641845	-45.5272354573588	55.3449984586036
36754	1657017918064	7.15575593692886	0.240343511719972	7.016467997443	0.0361378891702915	-0.0209956778568229	0.211866709273128	0.00121777179653241	-0.00667235222978406	-0.0111371974678224	0.563720703125	-0.366455078125	0.225341796875	0	0	0	0.196081983014511	-0.334015811330417	0.435004006993292	0.812869489904843	0.398409903362126	0.576214005254663	0.713615420973623	-0.838191935830138	0.544646739673754	0.0281816903693768	-0.372429627731612	-0.609374555680765	0.699970587436761	2.30555446111007	-45.529842506155	55.3389726448805
36755	1657017918064	7.17644136292867	0.241115299478676	7.06670518827985	0.0254082940204415	-0.0402493113671197	0.261810331156033	0.00196622651636181	-0.0058140475640189	-0.00970228485768145	0.5654296875	-0.365966796875	0.225830078125	0	0	0	0.196118762944303	-0.33402564182555	0.4349622396789	0.812878927933146	0.39846944131309	0.576125886830161	0.713653324005287	-0.838160669496176	0.544690561749423	0.0282645369822334	-0.37243629851205	-0.609418702096726	0.699928602848451	2.31246337888288	-45.5329426158005	55.3308680793
36756	1657017918065	7.1355087324426	0.264878380446749	7.00059274550034	0.0137721933506717	-0.0108508217695633	0.186994470765242	0.00182230334892738	-0.00311911031545823	-0.0079091798358568	0.57373046875	-0.363525390625	0.2265625	0	0	0	0.196115313492907	-0.334032628868515	0.434943350624004	0.812886996090313	0.398492969198307	0.576101760061588	0.713659663672719	-0.838137414971222	0.544726131123088	0.0282686345094852	-0.372463457435592	-0.609409717780751	0.699921973329536	2.31282013666699	-45.5334611573413	55.3281627811615
36757	1657017918066	7.14036876181221	0.247558340722055	7.04550969827191	0.0139122057387432	-0.0454872756331181	0.221409279345785	0.00182239855066284	-0.00311945789509017	-0.00790943132036809	0.562744140625	-0.372314453125	0.21826171875	0	0	0	0.196142676198673	-0.334033539561468	0.434911259930479	0.812897189690887	0.39854758086744	0.576039817145416	0.713679168007436	-0.838112746704222	0.544760493118611	0.02833776542127	-0.372460534280633	-0.609437555620133	0.699899290043319	2.31854502906565	-45.5350565088274	55.321606700128
36758	1657017918067	7.17490281031383	0.252171503101863	7.04325588908415	0.024396862127017	-0.021833866221944	0.244608614267019	0.000598578705446983	-0.00581922748163067	-0.00610439603564185	0.562744140625	-0.372314453125	0.2236328125	0	0	0	0.196134459913589	-0.334058156941866	0.434896158615786	0.812897135335241	0.398540958003672	0.576011050631103	0.713706084004031	-0.838092315397191	0.544793209711275	0.0283130627919876	-0.372513591249624	-0.609435499625137	0.699872842830017	2.31661355005823	-45.5372581694064	55.3207133807247
36759	1657017918067	7.13866926842376	0.257860430602223	7.02224780429481	0.0133392381788248	-0.0276085612253461	0.204204116672566	0.00138427099365621	-0.00440755537636326	-0.0118628327758836	0.56298828125	-0.36328125	0.221923828125	0	0	0	0.196169465789348	-0.334061428421434	0.434845952789301	0.812914202161407	0.398623918767592	0.575919597641145	0.713733555634895	-0.838050205458182	0.544853076069373	0.0284073692770084	-0.372519562597545	-0.609468409805302	0.699841005465905	2.32442700953039	-45.5395053683606	55.3108760025881
36760	1657017918068	7.17374293822686	0.239911056384749	6.98453601254839	0.0564734815932073	0.00574971276687346	0.202334655434267	0.00198807057061447	-0.000852619222272986	-0.00863394537061426	0.567138671875	-0.375244140625	0.227783203125	0	0	0	0.196157184380953	-0.334059451232462	0.4348289433397	0.81292707673695	0.398656146152692	0.575912120840306	0.713721588719231	-0.83802476631873	0.544892298099633	0.0284055365754155	-0.372542303867788	-0.609440409343621	0.699853284116006	2.32423647977224	-45.5385264551032	55.3083602759738
36761	1657017918069	7.16001498050401	0.236700704270998	7.03689508614791	0.0347495026585834	-0.0365906253332792	0.229084776310664	0.00227749481093664	-0.0062452886788599	-0.0122219429295341	0.56689453125	-0.373291015625	0.21728515625	0	0	0	0.196200387931984	-0.334067912858126	0.434776992439483	0.812940959860698	0.398735192887787	0.575807542921416	0.713761808636145	-0.837984559314986	0.544948749241234	0.0285085785349546	-0.372548150314034	-0.60948874822692	0.699808074747909	2.33280895168464	-45.5418165776534	55.2981741653133
36762	1657017918070	7.14174741988601	0.251578737882161	7.04396976609329	0.0120896068626163	-0.0436107593391258	0.221419972120733	0.00616277880140913	-0.00464306994783205	-0.00683824076323843	0.568603515625	-0.3564453125	0.230224609375	0	0	0	0.196202870849189	-0.334083635878376	0.434777202657327	0.812933786822943	0.398713816575509	0.575793818634869	0.713784821142665	-0.837986492487159	0.544946435040012	0.0284959882483503	-0.372566679778076	-0.609503782891507	0.699785115417642	2.33185626636968	-45.5436991635832	55.2989726734517
36763	1657017918070	7.16313042088622	0.229601238493319	7.0586170826917	0.0340109522581176	-0.0532166760089719	0.246300678509581	0.00286075438453085	-0.00765499857764213	-0.0100635093929516	0.563232421875	-0.3720703125	0.21923828125	0	0	0	0.196247804312584	-0.334098781631528	0.43473369338288	0.812939985025031	0.398769239900017	0.575692499739717	0.713835582647011	-0.837957109014504	0.544986830280339	0.0285873796113461	-0.37257345149865	-0.609563368784924	0.699729606829637	2.33951199048053	-45.5478520368789	55.2905256824923
36764	1657017918071	7.15884870446298	0.24853161705099	7.01302705273917	0.0333307815448654	-0.0178478328395203	0.21188253437289	0.00377393808278596	-0.00452760907487414	-0.00935209021372024	0.564208984375	-0.3583984375	0.2236328125	0	0	0	0.196246470467232	-0.334106159274325	0.434713915194756	0.812947851402634	0.398793772542011	0.575665177626909	0.713843911684824	-0.837933795702707	0.5450222695304	0.0285950998457243	-0.372599625604973	-0.609557486201024	0.699720794328226	2.34017253050313	-45.5485334770085	55.287602849743
36765	1657017918071	7.1249572780177	0.245535582252222	7.01458503134546	0.022345628720322	-0.0409449674114164	0.188689100245805	0.00572520879396494	-0.00593339540880577	-0.0107931398308475	0.558349609375	-0.371826171875	0.220947265625	0	0	0	0.19630061575381	-0.334107275101211	0.434673833369089	0.812955752524908	0.39886197461733	0.575570258958519	0.713882344792745	-0.8379121142793	0.545049453677792	0.0287120495529949	-0.37257538022306	-0.609622809651972	0.699676793958238	2.34988038359827	-45.551677988295	55.2785931791797
36766	1657017918071	7.1409095764932	0.264462988417155	7.01972398887327	0.0108541467245723	-0.0248024864028631	0.204214458802591	0.000327120300116176	-0.00484451828414491	-0.0107836261836973	0.5703125	-0.361328125	0.229736328125	0	0	0	0.196285649252601	-0.334124870881131	0.434642234701682	0.812969029157742	0.398893396944393	0.575533516728067	0.713894410257419	-0.837869185577443	0.545116143422027	0.0286987463225971	-0.372638277333335	-0.609597868519339	0.699665029112306	2.34883227758623	-45.5526651940261	55.2747676250008
36767	1657017918072	7.14364100065468	0.256125702932404	7.04188547086389	0.0109177711003742	-0.0421146257435921	0.221427706612305	-0.000147191842066036	-0.00668400695725625	-0.00754222366061197	0.568603515625	-0.365966796875	0.219482421875	0	0	0	0.196312120731549	-0.334144975874717	0.434604829640886	0.812974371308458	0.398931554301003	0.575451758598321	0.713938994949209	-0.837838593981353	0.545160386613397	0.0287514052331443	-0.372666211801304	-0.609635486494702	0.699617372703132	2.35329738567369	-45.55631329873	55.2683905261447
36768	1657017918073	7.16272371105183	0.243112816747911	7.03391920892615	0.0322025005865274	-0.0336028090730471	0.229103709802281	0.00497777282784132	-0.00679564429766902	-0.0122307518908446	0.5615234375	-0.369384765625	0.231689453125	0	0	0	0.196322404641894	-0.334155767628618	0.434574537203872	0.812983645598233	0.398969789149139	0.575399455428722	0.713959784608785	-0.837808510731954	0.54520497009933	0.0287826323343335	-0.372692912048776	-0.609644984619179	0.699594872792307	2.35592612203919	-45.5580144760116	55.2633808241021
36769	1657017918074	7.16090085315896	0.253126260767754	7.0107672390891	0.0321414765511827	-0.0162928300569979	0.211889066087865	0.00344610206871079	-0.00906662258059863	-0.00790690730889332	0.56298828125	-0.365966796875	0.22265625	0	0	0	0.196369431883137	-0.334177315292415	0.434539132752934	0.812982355449475	0.399002528100564	0.575300876256497	0.714020927107789	-0.837789714465311	0.545229576656445	0.028863524995516	-0.37270011658905	-0.609716008086996	0.699529136331695	2.36276164641632	-45.5630179459214	55.2565822417753
36770	1657017918075	7.12941936179764	0.240891699914958	7.03486750114418	0.0205332037462744	-0.0556600410435293	0.205919841127951	0.00288084240437718	-0.00269415645661256	-0.0089962631260796	0.57177734375	-0.362060546875	0.228759765625	0	0	0	0.196345606123518	-0.334177711228946	0.434531750341486	0.812991893083158	0.399014830525897	0.575312930101291	0.714004339957859	-0.83777023115816	0.545261121802307	0.0288331204709867	-0.372730740355011	-0.609676423612688	0.699547320547544	2.36021427095994	-45.5616605267799	55.2563171352442
36771	1657017918076	7.17953977003412	0.26384838638123	7.03810110166169	0.0206398453496742	-0.0171603898623062	0.244626086264226	0.00466844659952697	-0.00636828688925284	-0.00971415322306531	0.5654296875	-0.364501953125	0.2216796875	0	0	0	0.196394688260571	-0.334183664577802	0.434493876708193	0.812997832626552	0.399072698864874	0.575221366853472	0.714045768936369	-0.837748953359603	0.545288395052239	0.0289353998805033	-0.372716611067439	-0.609738423700342	0.699500809504769	2.36873442587741	-45.5650509528751	55.2481549967238
36772	1657017918078	7.13017295661711	0.242693650812262	7.03404175615668	0.0199592513729011	-0.0547906993953883	0.205925793059766	0.00255326316969084	-0.00723157653555238	-0.00754924422621378	0.56201171875	-0.366943359375	0.223388671875	0	0	0	0.196385270614608	-0.33420498866207	0.434478924407182	0.812999332893325	0.399070179598728	0.575196277120191	0.714067387955865	-0.837728025676801	0.545321779463211	0.0289121399886814	-0.372766343371672	-0.609732236010323	0.699479702078025	2.36690381110814	-45.5668202712763	55.2471539179359
36773	1657017918079	7.16488794762875	0.24766370893847	7.03155584500144	0.030946739247871	-0.0316851944651929	0.229113892124241	0.00392084209158188	-0.00723092102926711	-0.0111510503536587	0.5595703125	-0.366455078125	0.226806640625	0	0	0	0.19643576235069	-0.334214549991003	0.434432937155418	0.813007779150072	0.399137315377656	0.575091335020387	0.714114388496399	-0.837698094685088	0.54536202876844	0.0290199886034355	-0.372761727694904	-0.609795222974106	0.69942725168803	2.37590073568746	-45.5706670266049	55.2377429896446
36774	1657017918080	7.1468158392744	0.262410228697079	7.03843181320672	0.008374676080165	-0.0383086366828331	0.221445403851552	0.00239017585306089	-0.0095010861947232	-0.00682619168763968	0.563232421875	-0.36376953125	0.216796875	0	0	0	0.19641820224475	-0.334246404863123	0.434426003759202	0.813002630943362	0.399106776187775	0.575074812112913	0.714144762407664	-0.837683123912854	0.545387874169501	0.0289663705091604	-0.372828063740651	-0.609787690251427	0.699398461326036	2.37161348631758	-45.5731531169957	55.2390254200798
36775	1657017918081	7.16836138280542	0.240380386009245	7.05294559975302	0.0303003682922973	-0.0478996638511638	0.246339264293319	0.00466885210637913	-0.00637087823457279	-0.00971642590656702	0.568603515625	-0.36572265625	0.22119140625	0	0	0	0.196467358865281	-0.334252134885737	0.434388144518746	0.813008626723228	0.399164900451776	0.574983349407908	0.714185921277497	-0.837661885952238	0.545415033604124	0.0290689859051135	-0.372813555373545	-0.609849644602893	0.699352174449656	2.38016278933793	-45.5765221268037	55.2308480527248
36776	1657017918081	7.15028862852097	0.255473880984922	7.05981295830986	0.00764046542847136	-0.0548776816429979	0.238669919082458	0.00676717227149629	-0.0104765497198224	-0.0129541849853043	0.56298828125	-0.366455078125	0.22119140625	0	0	0	0.19649003297188	-0.334285511164022	0.43435093994849	0.813009301874451	0.399184915983345	0.574895166690785	0.714245721140102	-0.837630251133347	0.545461855817146	0.0291019970930045	-0.372863199092718	-0.609890901034021	0.699289727937036	2.3830751690679	-45.5814173328708	55.2253853115456
36777	1657017918082	7.14842826724975	0.265383759706241	7.03668265948266	0.00758721893974936	-0.0375729492917684	0.221448811939942	-0.0010396035346778	-0.00485371285387993	-0.00718574634266053	0.564453125	-0.368408203125	0.223388671875	0	0	0	0.196508497171373	-0.334300230626886	0.434315131072818	0.813017916938772	0.399227445448023	0.57482629447056	0.714277381684658	-0.83759763816869	0.545509554921298	0.0291465610972971	-0.372890926861029	-0.609913155026855	0.699255532684519	2.38683674606993	-45.5840092322009	55.2193095365636
36778	1657017918083	7.1698361484475	0.243177975545636	7.05135046177965	0.0286751664534242	-0.0460780666744348	0.246352537771454	0.00361194977447928	-0.00680407064215165	-0.00863498668153213	0.56982421875	-0.361572265625	0.21533203125	0	0	0	0.196490851785958	-0.334321333341583	0.434306576206243	0.813018074277039	0.399214087873433	0.574816025349097	0.714293111436228	-0.837580359583118	0.545538286056879	0.0291053205915713	-0.372944035056197	-0.609897135136728	0.699241182474269	2.3835122818046	-45.5852969972058	55.2197281531119
36779	1657017918084	7.16783422584682	0.253069628017509	7.0283598685069	0.0286200979703558	-0.0287736538757413	0.229129557581057	0.0037749621784316	-0.00453621498644388	-0.00935938390753709	0.5654296875	-0.36865234375	0.217529296875	0	0	0	0.196531719544105	-0.334322256124532	0.434270394534577	0.813027143891041	0.399275706981171	0.574737381333727	0.714321952842229	-0.837557092845803	0.54556901528764	0.0291987291120968	-0.37293032330232	-0.609943761387658	0.69920782454568	2.39126683493404	-45.5876582652992	55.2119116590077
36780	1657017918085	7.16828602621989	0.254119663015902	7.0278611896476	0.0276972567657834	-0.0281434423892055	0.229133931379387	0.00481657146478781	-0.00907381563841498	-0.011514505767185	0.562744140625	-0.373046875	0.222900390625	0	0	0	0.196541607577864	-0.334363451248934	0.434234134447235	0.813027180013357	0.399283597899524	0.574655647142857	0.714383297435792	-0.837520968037849	0.545624225943139	0.0292032902409021	-0.373002998038025	-0.609971385616387	0.699144957919221	2.39185474546751	-45.5926809247097	55.2075627422601
36781	1657017918086	7.13457701693358	0.251112781523602	7.02927899727947	0.0167214723645785	-0.0512636386739148	0.205950388458097	0.00466990012332221	-0.00637497042018037	-0.00971986018944367	0.56884765625	-0.36474609375	0.221923828125	0	0	0	0.196590753953306	-0.334370046504419	0.434195872174948	0.813033020268512	0.399341233173736	0.574563043601627	0.714425565342194	-0.83749928176845	0.545652040092613	0.029305360944712	-0.372989989845049	-0.610033736829369	0.699097494921406	2.4003677075913	-45.5961419199113	55.1993602071949
36782	1657017918087	7.15130277503608	0.247197790406629	6.99870309238228	0.037546441648874	-0.0250505409353509	0.196410785292388	0.00286511086144052	-0.0076694167808863	-0.0100728185933535	0.55859375	-0.370361328125	0.20849609375	0	0	0	0.196567976673018	-0.334397642421576	0.434186679943041	0.813032086851194	0.399320287405862	0.57455166900409	0.714446420461825	-0.837479140904237	0.54568591501343	0.029250140277553	-0.373057631762709	-0.610014148852771	0.699078494579135	2.39591496440581	-45.5978496646119	55.2002370345914
36783	1657017918087	7.15353971639757	0.262097987321489	7.05627574970808	0.00490821589218034	-0.0519676647509675	0.238687091270606	0.00317477282332415	-0.00810193488064926	-0.0125930253986146	0.56298828125	-0.3642578125	0.225830078125	0	0	0	0.196619449640855	-0.33441178753048	0.434132680199415	0.813042658392823	0.399395144687084	0.574433053573752	0.714499954767191	-0.837440500044382	0.5457392160116	0.0293618288337005	-0.373064240159518	-0.610078171277238	0.699019096767193	2.40525691389805	-45.6022336188028	55.1896592922155
36784	1657017918089	7.14937486422474	0.281323098239994	7.01044589737632	0.00377294809145532	-0.0164559886571134	0.204236818043055	0.00677007900455388	-0.0104842156065634	-0.0129608604426315	0.5625	-0.36767578125	0.22509765625	0	0	0	0.196629690479678	-0.334450630588814	0.434100995262568	0.81304112222732	0.399398203221586	0.574358072749725	0.714558520717926	-0.837409768643372	0.545786181467829	0.0293653452120217	-0.37312994337633	-0.610106751631212	0.698959081041222	2.40575093762448	-45.6070300096512	55.1859479688187
36785	1657017918089	7.13917803369283	0.246452133237926	7.04946121732	0.0147437752974183	-0.0664610787986458	0.223191800700766	0.000165931796375117	-0.00712882823727047	-0.0100671595753002	0.5625	-0.367431640625	0.22900390625	0	0	0	0.196662336920257	-0.334470246385562	0.43405332267311	0.813050608877626	0.39945473471843	0.5742592360005	0.714606356520253	-0.837370037138415	0.545843276626994	0.0294370219947297	-0.373158593380669	-0.610148709110517	0.69890715903969	2.41179506942534	-45.6109479350662	55.1775246852168
36786	1657017918090	7.18960588534201	0.269461888040017	7.05228523744273	0.0142243259041986	-0.0263149213634988	0.261878363198429	0.00704747479176754	-0.0114594942592852	-0.00828270904190521	0.5595703125	-0.3671875	0.21630859375	0	0	0	0.196655116424834	-0.334479903377999	0.434063146677071	0.81304313791888	0.399424757866088	0.574269756977403	0.714614657717522	-0.837378494339673	0.545831899761469	0.029407387170706	-0.373171703135485	-0.610148984612693	0.698899918840359	2.40939486132244	-45.6116278610474	55.1800324142872
36787	1657017918091	7.1387971966776	0.234521361809592	6.98988565323212	0.0467674175056228	-0.0379358666916188	0.180925630917013	0.00376153080640585	-0.00951184724217467	-0.0104357807567601	0.56689453125	-0.363525390625	0.2177734375	0	0	0	0.196708008708877	-0.334500634850011	0.43401804840392	0.813045889390249	0.399475317889185	0.574155272765569	0.714678384416956	-0.837351087938372	0.545868585938881	0.0295066503268398	-0.373179080235963	-0.610223901236736	0.698830569189456	2.41775764142498	-45.6168477969685	55.1712775156512
36788	1657017918092	7.13878163680598	0.258320605099604	7.02474748941931	0.0131520226648269	-0.0468063636605507	0.205977525689025	0.00270491189669594	-0.00994379975003102	-0.0093523759711583	0.558349609375	-0.366455078125	0.2197265625	0	0	0	0.196702293348221	-0.334550363341177	0.433986618344715	0.813043588793095	0.39946333897201	0.574086427914952	0.714740382307578	-0.837313722753713	0.545927645778538	0.0294743153104736	-0.3732757298642	-0.610235838720206	0.698768524359673	2.41532545592723	-45.6219265902979	55.1688619503128
36789	1657017918092	7.17603955423954	0.254383706381464	7.04464154813845	0.0241403282018384	-0.040974999807335	0.24638652442408	0.00450969973436945	-0.00864996076654841	-0.00900112478559207	0.563232421875	-0.360595703125	0.2275390625	0	0	0	0.196753855941076	-0.334567816905738	0.433949366739362	0.813043813806952	0.39950464599487	0.573984680165782	0.71479901004653	-0.837294712365749	0.545951734557649	0.0295680262758806	-0.373274165289899	-0.610309995386344	0.698704592126494	2.42321707303757	-45.6267297280932	55.1613227425099
36790	1657017918094	7.16107343860656	0.23728378198292	7.03850870473974	0.0346421167395968	-0.0551005179014663	0.230899891012793	0.00345314965252785	-0.00908171090210808	-0.00791741775748334	0.568115234375	-0.37158203125	0.222900390625	0	0	0	0.19673946700071	-0.334577741455368	0.433936686470901	0.813049979510212	0.39951337411456	0.57397513503933	0.714801796486399	-0.837273721136251	0.545985068517864	0.0295469262394335	-0.373311906853043	-0.610289152215674	0.698702634093803	2.42149667831543	-45.6269580202893	55.160289070409
36791	1657017918095	7.15927269033222	0.247072376139549	7.01528017107768	0.0345731631589342	-0.0378012968028682	0.213665999592209	0.00106209563015436	-0.00897239947421848	-0.0104298967058364	0.574951171875	-0.361572265625	0.2216796875	0	0	0	0.19678006646742	-0.334602288627704	0.433887728030784	0.813056180931223	0.399565495818775	0.573864077018648	0.714861829767566	-0.837236319403889	0.546038089810725	0.0296268450376354	-0.373340005922384	-0.610346152263935	0.698637827772362	2.42826349439024	-45.6318767551227	55.1515853404731
36792	1657017918096	7.14686209979537	0.221013795240619	7.03158874521486	0.0446664875512974	-0.0694839914421806	0.215418237690169	0.00524550706717096	-0.0127594901235905	-0.00863940659007296	0.559326171875	-0.364990234375	0.221923828125	0	0	0	0.196786100160684	-0.334645429865341	0.43387879127869	0.813041734188555	0.399523261497568	0.573815991618129	0.714924031828312	-0.837230267937313	0.546048850524184	0.0295995150438673	-0.373398770715652	-0.610381733511514	0.698575334107582	2.42624293199456	-45.6369736409834	55.1521740260946
36793	1657017918097	7.15788918978856	0.280704709969391	7.02646322874858	0.000967888392423148	-0.0290877463679129	0.221479818976359	0.00163719875310262	-0.0153512869642285	-0.00934348822877355	0.5615234375	-0.37060546875	0.223876953125	0	0	0	0.196841196105118	-0.334695852920737	0.433828688281766	0.813034377364997	0.399542710522765	0.573671410879797	0.715029184584311	-0.837199138961159	0.546092425479258	0.0296759929383106	-0.373447752959923	-0.610478644322112	0.698464459107133	2.43288990326069	-45.645590995132	55.1440951406918
36794	1657017918098	7.17747018220196	0.267892655068937	7.01796905403564	0.0219375765449009	-0.0198333784120421	0.229168017330339	0.00735911412296764	-0.0119000328526108	-0.0108108983369603	0.563232421875	-0.365478515625	0.22705078125	0	0	0	0.196836992166156	-0.334717953598059	0.433828626847058	0.813026329574944	0.399513228134249	0.573658441879497	0.715056062561629	-0.837197942720509	0.546095842085954	0.0296468541498383	-0.373481974465034	-0.61048777491185	0.698438180108217	2.43059525943748	-45.6477938800261	55.1454705203936
36795	1657017918098	7.16512279784448	0.242126040634079	7.03422145869941	0.0328517106742055	-0.0525233675857352	0.230919714801118	0.00465906214299305	-0.0113584793338334	-0.0108025187809852	0.566650390625	-0.3681640625	0.2265625	0	0	0	0.196897802565238	-0.334744043972442	0.433782086937248	0.813025695425625	0.399559052154682	0.57353123243072	0.715132497700777	-0.837172699150621	0.546128712794692	0.0297540057484005	-0.373489538860348	-0.610577885685121	0.698355360739912	2.4396584231072	-45.6540588805316	55.1364290381621
36796	1657017918099	7.17899675212521	0.270167154222369	7.01632023233672	0.021389827135169	-0.0181500640542942	0.229172382590123	0.00540720565855756	-0.0104948278193692	-0.00936724016266612	0.562255859375	-0.364501953125	0.21826171875	0	0	0	0.196885668955445	-0.334746572293671	0.433791883682274	0.813022365835645	0.399538667978045	0.573551401470163	0.715127710735601	-0.83717861273649	0.546121270022703	0.0297242124436664	-0.373498089910693	-0.610565597049491	0.69836153139521	2.43719698056596	-45.6536664967148	55.1387450414006
36797	1657017918100	7.16408247895688	0.253175036604804	7.01015055083183	0.0322652365024089	-0.0335458113659626	0.213688833127303	0.00451104973686259	-0.00865714325672064	-0.0090070408526862	0.571533203125	-0.361083984375	0.22412109375	0	0	0	0.196936922033782	-0.334763282837586	0.433755406041754	0.813022534086981	0.399579584386711	0.573451337724072	0.715185094226534	-0.837160339851906	0.546144192938826	0.0298175434642159	-0.373495275901028	-0.610639078164567	0.698298786407326	2.44505967366916	-45.6583703579609	55.1313041745633
36798	1657017918100	7.1671976495165	0.24524225643764	7.03199938469141	0.0318260288597615	-0.050039717252961	0.230935698568853	0.00465999810810219	-0.0113619569915612	-0.0108048420491052	0.56884765625	-0.36474609375	0.220458984375	0	0	0	0.196952440073802	-0.334793492628247	0.43371646043945	0.813027112454825	0.39960669847531	0.573369692322499	0.715235403527863	-0.837123273498354	0.5461995365857	0.0298444500865023	-0.373549342792973	-0.610666244490039	0.698246107285511	2.44744776351411	-45.6624946561676	55.1256537690843
36799	1657017918100	7.18344544850229	0.264207864206855	7.03672757547454	0.0209166390910375	-0.0346081524221144	0.246417664223196	0.00106304277356441	-0.00898153009910277	-0.0104344410843914	0.561279296875	-0.36083984375	0.221435546875	0	0	0	0.196992960750838	-0.334817619115651	0.433667817627392	0.813033307619461	0.399658771768043	0.573259332145147	0.715294767391289	-0.8370861885497	0.546251994737827	0.0299244245438406	-0.373576737884192	-0.610722929284176	0.698181870688692	2.45422371089247	-45.6673616276817	55.116977453949
36800	1657017918101	7.16839012750691	0.247027836363414	7.03072125488757	0.0312985302469676	-0.0491677056101707	0.230941662955852	0.00436284217740104	-0.00595513348797859	-0.00721172969189463	0.5625	-0.37060546875	0.218505859375	0	0	0	0.196985973675502	-0.334829815190412	0.433649280993592	0.813039865030252	0.399674591906592	0.573234751457248	0.715305627201441	-0.837061860100734	0.546289654537711	0.0299174816748871	-0.373614323800625	-0.610712316125043	0.698171042069339	2.45369300361284	-45.6682520196086	55.1147608166591
36801	1657017918102	7.16871988375608	0.247812996032976	7.03035739179636	0.0312847705769902	-0.0491554467660873	0.230941765829709	0.00107368471153067	-0.00400890277389746	-0.00936199281590911	0.566650390625	-0.360595703125	0.226318359375	0	0	0	0.19701405961639	-0.334834769935885	0.433609771754374	0.813052091193776	0.399736485362206	0.573160348722321	0.715330662646847	-0.837028978025476	0.546336052305179	0.0299901299967075	-0.373621776956186	-0.610740642666017	0.698142274310905	2.45974520104905	-45.6703047207341	55.1071088206232
36802	1657017918103	7.16672941499313	0.257647506667684	7.00728145476464	0.0304968836890396	-0.030636107166425	0.213703680752376	0.00615709467543597	-0.00963392265676323	-0.00793510471433847	0.563232421875	-0.36328125	0.2275390625	0	0	0	0.197009152038804	-0.334854841468534	0.433611957392061	0.813043848488297	0.399705811103418	0.573152132429562	0.715354386064422	-0.837030005924777	0.546336128839155	0.0299600318193318	-0.373652289905639	-0.610748284824848	0.69811925831607	2.4573605351439	-45.6722499158115	55.1087864328281
36803	1657017918104	7.16432561365349	0.290442855613902	7.01950423198527	-0.00226150530908721	-0.0229239131813476	0.221495585772979	0.00435356202160178	-0.0109313933411037	-0.00828646483381886	0.5625	-0.37060546875	0.223388671875	0	0	0	0.197063659374175	-0.334881818802074	0.433575678207139	0.81303887536642	0.399732597406069	0.573041690249498	0.715427894205276	-0.837013836933562	0.546356090842557	0.0300476085736419	-0.373659855152722	-0.61083405539904	0.698040163179748	2.46481376236142	-45.678277624885	55.1018040093831
36804	1657017918105	7.1575422837813	0.223670820786628	7.04542207653002	0.0408511532470172	-0.0788935253004405	0.232735436747593	0.00466192533885064	-0.0113677050706028	-0.0108090230740802	0.57421875	-0.3623046875	0.216064453125	0	0	0	0.197051459264706	-0.334889855565155	0.433584432705742	0.813033853388922	0.399706648709578	0.573056574720278	0.715430469820248	-0.83701871364852	0.546350524233779	0.0300129583955366	-0.373676689103743	-0.61082507057204	0.698039014082398	2.46197894584687	-45.6784888385417	55.1042476066297
36805	1657017918105	7.15270587936553	0.265455285594384	7.03504351498079	0.00805178158612678	-0.0538926252457594	0.223274763077685	0.00270919002398017	-0.00996028367198316	-0.00936257559276834	0.560546875	-0.363525390625	0.22509765625	0	0	0	0.197098704694698	-0.334914958433719	0.433542547244088	0.81303439715311	0.399745660692896	0.572947398097312	0.715496111639134	-0.83699261605797	0.546385920673561	0.0300962847232199	-0.373693413671736	-0.610895821481229	0.697968142450025	2.46905617532219	-45.683872073962	55.0965009923273
36806	1657017918107	7.17446922578062	0.243680215538587	7.04940988201582	0.0294080273272308	-0.062724354956559	0.248215631636798	0.00482100190180706	-0.00909988647282514	-0.0115348651110412	0.565673828125	-0.365234375	0.23046875	0	0	0	0.197112538025924	-0.334938817325683	0.433500854949649	0.813043445800638	0.399785994812792	0.572868776998636	0.715536527852794	-0.836951338464503	0.546447312221804	0.0301295869211969	-0.373742712830661	-0.610914641587229	0.697925272002902	2.47193649577984	-45.6871868344369	55.0900982235923
36807	1657017918107	7.16783308560585	0.271722941829965	6.98086088859602	0.0292740450887199	-0.0108742759736889	0.196463839146864	0.00556048987837841	-0.0132105583486254	-0.011173348114779	0.55908203125	-0.372802734375	0.2197265625	0	0	0	0.19718162576118	-0.334969284212373	0.433452884254486	0.813039717497181	0.399828351531435	0.572729245043101	0.715624553228866	-0.83692839720732	0.546476007187291	0.0302461818519814	-0.373748775596178	-0.611019791366037	0.697829970192856	2.48182888667157	-45.6944069693659	55.0806987956549
36808	1657017918109	7.17094504931907	0.263775705089742	7.00273914506645	0.0283844105578104	-0.0262039090768068	0.213722446777444	0.00436386468920131	-0.00595994363301069	-0.00721614310461356	0.570068359375	-0.3671875	0.222412109375	0	0	0	0.197138947625214	-0.334964128804839	0.433501584028604	0.813026226137835	0.399750818117414	0.572827362085533	0.715589335206016	-0.836965265464664	0.546425223947829	0.0301433083657069	-0.373749150928967	-0.610973230084342	0.697870535486477	2.473254583876	-45.6915181578153	55.0905202811531
36809	1657017918110	7.17399877099088	0.255786755120937	7.02468476360076	0.0284101296427624	-0.0434384619981278	0.230976661490592	0.00466363060609552	-0.0113733215162951	-0.0108129697233135	0.5712890625	-0.355712890625	0.225830078125	0	0	0	0.197199298668851	-0.334989093842081	0.433456210691657	0.813025495925069	0.399796040839384	0.572702672584026	0.715663869805	-0.836941130053516	0.546456300034687	0.0302499087129974	-0.37375482679679	-0.611062321672278	0.697789487222749	2.48227813258839	-45.6976321472404	55.0816243601988
36810	1657017918113	7.17468681862782	0.256750334424173	7.02394686002962	0.0284890704087758	-0.0426727515183009	0.230979720363459	0.00106506935248322	-0.00899267602943555	-0.0104398264985353	0.568359375	-0.368408203125	0.22314453125	0	0	0	0.197208926121354	-0.334994631678865	0.433411252587569	0.813044846447524	0.399866565753632	0.572637707477763	0.715676453131586	-0.836893433756994	0.546526651177073	0.0302985162607392	-0.373786182364764	-0.611060287964932	0.697774472408808	2.4863152521443	-45.6986644093409	55.0738298328629
36811	1657017918114	7.15658377800096	0.271448866945452	7.0308697385414	0.00664231106383608	-0.0503717007920287	0.223294084460504	0.00286861636668286	-0.0076958445766817	-0.010090428641685	0.5703125	-0.3642578125	0.22021484375	0	0	0	0.19725328112297	-0.335008901493887	0.433368962111492	0.813050749759502	0.399920757196533	0.57253870908435	0.715725376498121	-0.836865129184635	0.54656497152926	0.0303889363420718	-0.373791577644728	-0.61111877609614	0.697720358012162	2.49391899409349	-45.7026779756688	55.0655347199299
36812	1657017918115	7.1757609592681	0.258550529901598	7.02278345448523	0.0276032480132266	-0.041675626431716	0.230986380962129	0.00286883203750895	-0.00769662782008651	-0.010090995955771	0.561767578125	-0.367431640625	0.219482421875	0	0	0	0.197244775889841	-0.335036596155643	0.433360737396688	0.813045785244352	0.399897901038879	0.572515805414294	0.715756467868452	-0.836852678708754	0.54658593933433	0.0303546546676333	-0.373843901759387	-0.611121480127177	0.697689955241214	2.49121757383024	-45.7052287936514	55.0659959834644
36813	1657017918116	7.17320468115623	0.291266932405497	7.03513691595187	-0.00514847002193209	-0.0339490162476345	0.238763980277699	0.00345955154306949	-0.00910036876323247	-0.00793102298968624	0.5703125	-0.364990234375	0.22607421875	0	0	0	0.197290922111568	-0.335057605895121	0.433326786291263	0.8130440265242	0.399928594028633	0.572419862198994	0.715816052515146	-0.836835158309165	0.546608376669708	0.0304335402505689	-0.373850287542964	-0.611191282590478	0.697625385568394	2.4979144377688	-45.7101176004425	55.0594234227259
36814	1657017918117	7.14022295740962	0.265121326780741	7.00105569801153	0.0158837895700741	-0.0462520075725321	0.190585221845982	0.00557039952712471	-0.00824008045651962	-0.0101046639030363	0.568115234375	-0.37109375	0.225341796875	0	0	0	0.197286760098017	-0.33506712181738	0.433332174056832	0.813038243315912	0.399906501608394	0.572422645377426	0.715826169562447	-0.8368398728923	0.546602322434415	0.0304126330149787	-0.373863366898838	-0.61119409042334	0.69761591633409	2.49623443151431	-45.7109477273734	55.0610402082074
36815	1657017918118	7.17999787180004	0.252503726651841	7.04346795349817	0.0268942423521426	-0.0575881405563188	0.248253375820774	0.00376757481848396	-0.00953921253559113	-0.0104550689010791	0.56787109375	-0.36572265625	0.216552734375	0	0	0	0.197339144656006	-0.335086686015779	0.433288328569562	0.813040834870423	0.399956274360717	0.572310768791675	0.71588781420316	-0.836813648807553	0.546636972623663	0.0305112656280878	-0.373868821605768	-0.611267866066849	0.697548349682799	2.50456206139852	-45.7160060779722	55.0524342175452
36816	1657017918119	7.17821658406756	0.262508740899036	7.02012657233745	0.0255897703770666	-0.0391655674859621	0.231001814501917	0.00466623691981356	-0.0113803240789358	-0.0108183534893771	0.569580078125	-0.3564453125	0.228271484375	0	0	0	0.197335813681199	-0.335133463605326	0.433295416842228	0.813018585245255	0.399881286630834	0.572286784123932	0.715948876191279	-0.836822123053354	0.546627316764597	0.0304517804933201	-0.373930061603698	-0.611298955735918	0.697488276421353	2.49990035618989	-45.7210170695192	55.0563510320832
36817	1657017918120	7.17623689375301	0.272378098862637	6.99698651178826	0.0255342823674554	-0.0218622614529778	0.213740517115783	0.00107259413340336	-0.00402083492991403	-0.00936865671575249	0.557373046875	-0.364013671875	0.21533203125	0	0	0	0.197363150023093	-0.335137850878615	0.433257163681676	0.813030527126709	0.399941702053946	0.572214876456325	0.715972604308479	-0.836790324221818	0.546672034262944	0.0305227823692443	-0.373936609931333	-0.611326281225409	0.69746081584285	2.50582027475717	-45.7229644151996	55.0489064070441
36818	1657017918121	7.17911879733542	0.264443051239907	7.0191313138427	0.0256453455839637	-0.0383016239669524	0.23100500455811	0.00662650181896994	-0.00781285619819919	-0.011194476573533	0.5625	-0.364013671875	0.22265625	0	0	0	0.19738563041341	-0.335127990138313	0.433207517030562	0.813055588702501	0.40004095482814	0.572144686374005	0.715973248322995	-0.836742484784525	0.546740320189033	0.0306110508838554	-0.373937492927374	-0.611330908864901	0.697456286264311	2.51307385310518	-45.7230172698499	55.0389297405566
36819	1657017918121	7.14537147930335	0.26144085292459	7.02073103416781	0.0146992415880179	-0.0614317618699197	0.207859483341062	0.00572808322075186	-0.00597364228641242	-0.0108324901744562	0.56982421875	-0.36083984375	0.220458984375	0	0	0	0.197438744906623	-0.3351284681087	0.433169107411194	0.813062959590094	0.40010686849541	0.572052824697767	0.716009818045886	-0.836722201201212	0.546764932788573	0.0307256617456122	-0.373912358447532	-0.611394859340519	0.697413703745626	2.52262474168653	-45.7260186505673	55.0301758187395
36820	1657017918123	7.17991632822962	0.266726507992774	7.01822909499663	0.025337150524762	-0.0374265873912518	0.231009085601638	0.00377446436022238	-0.00456451077117583	-0.00938319793957853	0.565673828125	-0.3662109375	0.220947265625	0	0	0	0.197436406247623	-0.335125293817318	0.433142149350153	0.813079197488294	0.400157831800371	0.572025875076015	0.716002868634159	-0.836689609691895	0.546813487888706	0.0307490893623104	-0.373930751185897	-0.61137664962485	0.697419805863759	2.52452363788468	-45.725448280257	55.0254805077943
36821	1657017918123	7.2144005892154	0.271796288867778	7.01579277447872	0.0362662862557794	-0.01421938121181	0.254153247006299	0.00346733725761265	-0.00412676576152382	-0.00685995836481271	0.56494140625	-0.36376953125	0.21875	0	0	0	0.197469764196919	-0.335126988365325	0.433117842451836	0.813083346556223	0.400197672438108	0.57196691485085	0.716027702879659	-0.836676704324948	0.54682925355576	0.0308197971374563	-0.373916990005889	-0.611417709730141	0.697391187794401	2.53042496269131	-45.7274865682414	55.0200271010071
36822	1657017918125	7.16488978068601	0.250314031491224	7.01223376810763	0.0352369699508033	-0.0519112276757244	0.21556216716032	0.00287572238018864	-0.00272519632375275	-0.00902109574903625	0.568115234375	-0.362060546875	0.221923828125	0	0	0	0.197444920912697	-0.335143313914235	0.433111637948271	0.813085955737847	0.4001865364247	0.571969289944279	0.716032029608341	-0.83665867038514	0.546859624559089	0.0307704451781559	-0.37396925720408	-0.61138832372538	0.697388924688727	2.52638641725076	-45.7278416951173	55.0208877628171
36823	1657017918125	7.16204140054474	0.283101024682721	7.02485031357169	0.00247214590719732	-0.0441729850616166	0.223325175762286	0.0046740060835934	-0.00640642425417541	-0.00974715511747436	0.56689453125	-0.369384765625	0.220703125	0	0	0	0.197492729065579	-0.335149096023849	0.4330755251021	0.813091197196334	0.400241345983875	0.571880775128171	0.716072094138445	-0.836638813598618	0.546884423047541	0.0308694575309616	-0.373955024762755	-0.611448940523051	0.697343410801254	2.53467038038514	-45.7311301970144	55.0130363703831
36824	1657017918128	7.16552807069595	0.252137535366243	7.01151618603666	0.0343521058884326	-0.0508494485730908	0.215570677416171	0.00107327668481941	-0.00402548672221324	-0.00937095049235868	0.567138671875	-0.366943359375	0.21826171875	0	0	0	0.19746673748653	-0.335163985285717	0.433074724067421	0.813091799200895	0.400222772682645	0.571891535766113	0.716073881345558	-0.836626490555529	0.546906341920705	0.0308150688406088	-0.374002469947666	-0.611419270620406	0.697343981107642	2.53020830390185	-45.7312768957204	55.0147918599824
36825	1657017918129	7.14729248425258	0.266719478611689	7.01857677836591	0.0124913953535344	-0.0585466310853005	0.207879750981938	0.0034639768810056	-0.0091084941039924	-0.0079362284284006	0.5693359375	-0.365478515625	0.21826171875	0	0	0	0.197512273567643	-0.335185308196751	0.433041423764186	0.813089685252172	0.40025186894667	0.571796605322326	0.716133425798965	-0.836609454475972	0.546928054188854	0.0308921385243938	-0.37400944117243	-0.611488630869829	0.697279421918379	2.53676274169965	-45.736164682881	55.0083668143863
36826	1657017918131	7.18199530890532	0.271960515094401	7.01590065896369	0.0220110300555921	-0.0347461855894718	0.231026556135516	0.00572930865659807	-0.00597804769315896	-0.0108363181100567	0.56201171875	-0.368408203125	0.21826171875	0	0	0	0.19751190687971	-0.335230126072223	0.433028198369386	0.813078341017214	0.40021468398113	0.571747815399606	0.716193159916835	-0.836595581175808	0.546951252115409	0.0308571120894088	-0.374080259146344	-0.611513502218196	0.697219618428684	2.53410729405487	-45.7410684688124	55.0085707717444
36827	1657017918131	7.16369028816837	0.286845190059993	7.02301690280563	0.000137192787421671	-0.0424473017397443	0.223332926440509	0.00302766920938904	-0.00543786793720916	-0.0108227534588402	0.57177734375	-0.3681640625	0.223388671875	0	0	0	0.197552334489078	-0.335235293633129	0.43298602094002	0.813088850440807	0.400280807146477	0.571659182325407	0.716226957530371	-0.836565241766832	0.546992361616888	0.03095080936551	-0.374077360579019	-0.61155959284098	0.69718074608125	2.54193354147141	-45.7438432257609	54.9999503403994
36828	1657017918132	7.16729730765323	0.256046387952801	7.00956594570935	0.0315108425777755	-0.0488125022155533	0.215590129431007	0.00557462220064804	-0.00825032409107093	-0.0101130126229972	0.567138671875	-0.360595703125	0.22607421875	0	0	0	0.197538744214628	-0.335266588626054	0.433014543055814	0.813064059338083	0.400189440106426	0.571680842470145	0.716260725141293	-0.836593406047397	0.546953700072545	0.0308726891438009	-0.374112128893627	-0.61157392384697	0.697149518170313	2.5356394811244	-45.7466156572552	55.0071154427189
36829	1657017918133	7.18336636315691	0.275045247026688	7.01437659088426	0.0205474614832982	-0.0333282449479198	0.231034462210463	0.00181819852948947	-0.00814046556954658	-0.00901142276054014	0.571533203125	-0.3603515625	0.21484375	0	0	0	0.197576588044147	-0.335287466661255	0.432975510637295	0.813067041359496	0.400229043776503	0.571586327476173	0.716314025243152	-0.836566142183758	0.546991398090414	0.0309434995900332	-0.374130728849596	-0.6116285479418	0.697091613113423	2.54165850929836	-45.7509920504801	55.0000007708171
36830	1657017918134	7.16826464728194	0.258023509480817	7.00850419186594	0.0314877547702635	-0.0485541852632692	0.215591455978052	0.00513723292538034	-0.00458000194686245	-0.0130001986142733	0.56884765625	-0.364501953125	0.217041015625	0	0	0	0.197610380036459	-0.335282890990266	0.432902655006802	0.81309950928476	0.400361348594544	0.571475113691583	0.716328824620894	-0.836496631724819	0.547090857979817	0.0310640986983557	-0.374144591922149	-0.611643513450524	0.697071041422112	2.55162649669316	-45.7522072665599	54.9858634984422
36831	1657017918135	7.20297693916442	0.263385118047475	7.00579765867059	0.0423705551556732	-0.025338132392941	0.238731039905989	0.00436629812188067	-0.0109536598176027	-0.00830238682836306	0.566162109375	-0.36279296875	0.22119140625	0	0	0	0.197663896454915	-0.335310393298192	0.432867437214622	0.81309390969538	0.400385443890916	0.571366236087012	0.716402205873235	-0.836481271531613	0.547109531675013	0.0311487195114684	-0.374153148720054	-0.611728521985129	0.696991848368946	2.55885840562285	-45.7582331863477	54.979112549297
36832	1657017918136	7.18237491490356	0.286816730711859	6.99010820924062	0.0196386464516144	-0.0152532555731319	0.213766030646978	0.00225948952695184	-0.00683270146762108	-0.00505147955163835	0.570068359375	-0.3642578125	0.2197265625	0	0	0	0.197651426407497	-0.335353147435575	0.432854492594718	0.813086199848888	0.400350509491246	0.571329973060946	0.716450648287989	-0.836462084824485	0.547141803759302	0.0310970614382323	-0.374233416735032	-0.611733527331302	0.696944360288272	2.55479417123748	-45.7622115359314	54.9797530539337
36833	1657017918136	7.16995336803181	0.260699757034188	7.00667749922284	0.0305357579713956	-0.04791637272615	0.215597467791392	0.00408060758588662	-0.00999468628057961	-0.0129895941111648	0.572509765625	-0.3671875	0.220703125	0	0	0	0.197709510278981	-0.335373083477976	0.432800584599075	0.813092552170058	0.400417097698346	0.571200967634345	0.716516296007579	-0.836426760015075	0.547189207031888	0.0312129274259333	-0.374241129489419	-0.611811593778184	0.696871688847439	2.56456756925291	-45.7676033297175	54.9691932806319
36834	1657017918138	7.1704630819006	0.261802628261009	7.0061147376119	0.0295510827505053	-0.0473101783666877	0.215603295896065	0.00302805998686819	-0.00544345352373166	-0.0108266368898816	0.5712890625	-0.364990234375	0.212890625	0	0	0	0.197710212133221	-0.33540269367818	0.432786426413518	0.81308770388186	0.400401884371277	0.571161568013272	0.716556204506354	-0.836411718881939	0.547213162260907	0.0311960184218987	-0.374291019807973	-0.611826951247687	0.696831410183316	2.56332807824683	-45.7708813585595	54.9683588337524
36835	1657017918138	7.15218565549481	0.276521593812719	7.01321076725185	0.00766152427877989	-0.0550236736400438	0.20790457186944	0.00362165348645834	-0.00684464143202385	-0.00866579492589122	0.5703125	-0.3671875	0.22119140625	0	0	0	0.197752325004735	-0.335415462560575	0.432752303119491	0.813090357571208	0.400443823240104	0.571075074638596	0.716601704962646	-0.836391824894166	0.547238924199996	0.0312773894473187	-0.374290608590513	-0.611884645147231	0.696780970860995	2.57019104606518	-45.774618938111	54.9614592886679
36836	1657017918140	7.17704831309538	0.22293655718753	7.01479104136596	0.0606480443207909	-0.0719706955405094	0.225148980889156	0.00392872104703846	-0.0072860221201548	-0.0111913644771349	0.564697265625	-0.366943359375	0.21875	0	0	0	0.197756045845751	-0.335487216195912	0.432724623819497	0.813074580860111	0.400395455418785	0.57098553366637	0.7167000764781	-0.836364034893178	0.547283892543456	0.0312336693279211	-0.374404434291565	-0.611927987026426	0.696681748201142	2.56696824386948	-45.7827004027757	54.960489327013
36837	1657017918141	7.15572619958388	0.269594956687936	7.03469526235316	0.00598677155542026	-0.0719911268970518	0.22518181511615	0.00452263384881615	-0.00868716909098858	-0.00903058377684214	0.563720703125	-0.3671875	0.22265625	0	0	0	0.197806254492134	-0.335506071380718	0.432688480197782	0.813073822512202	0.400432710341621	0.570884954424431	0.716759383126778	-0.836345751781192	0.547306729575853	0.0313229506677797	-0.374405432607509	-0.612001399159185	0.69661672350094	2.57453602775573	-45.7875731575302	54.9532382610589
36838	1657017918142	7.17571793784638	0.2339201873214	6.99090000420322	0.059253856493293	-0.0530039575205459	0.207891902791081	0.00228049575270561	-0.0113011585784103	-0.0133414385154434	0.571044921875	-0.375732421875	0.213623046875	0	0	0	0.197779325000575	-0.335542074706174	0.432703483387669	0.813057531893267	0.400358423132107	0.570899082400236	0.716789627953518	-0.836352222578954	0.547302068132988	0.0312314905919933	-0.374470416474274	-0.611992388785942	0.696589709408386	2.56712811221556	-45.7900582979555	54.9589022425863
36839	1657017918143	7.18857764615761	0.284865818543615	7.00864352287197	0.0154897031375193	-0.0298263837783567	0.231054545682301	0.00617156773680778	-0.00467518825935445	-0.0068832845720929	0.5654296875	-0.37109375	0.228759765625	0	0	0	0.197823325056315	-0.335543280604221	0.432683577843982	0.813056923203505	0.400391256610975	0.570836182106163	0.716821382792076	-0.836349331983888	0.547301707055588	0.0313151136696658	-0.374441766526638	-0.612051382363032	0.696553277810041	2.57412687375483	-45.7926676314548	54.9537255675977
36840	1657017918145	7.21029906170942	0.263243101103661	7.02313513055186	0.0349405515912168	-0.0371934557058852	0.25605298382869	0.00408278384779843	-0.0100024282497562	-0.012994707707023	0.558837890625	-0.35498046875	0.22509765625	0	0	0	0.197778776769988	-0.335594206542545	0.432771082866327	0.813000168406596	0.400171436739573	0.5709391031815	0.716862163652184	-0.836432749825817	0.547185490588147	0.0311174213043357	-0.374490422089283	-0.612059293980668	0.696520167988895	2.55801948929609	-45.7960188232652	54.9733714844926
36841	1657017918146	7.19276036035836	0.255014675862593	6.9946021424134	0.045742519399315	-0.0353410017924521	0.22334531018133	0.00166781392825045	-0.00543746613520828	-0.00721610167997017	0.56591796875	-0.368408203125	0.218505859375	0	0	0	0.197805636825273	-0.335608426190801	0.432742641744532	0.813002903024242	0.400201580571394	0.57087157106817	0.716899117208494	-0.836412524934567	0.547213472112224	0.0311689600639479	-0.374503381881581	-0.612097267830077	0.696479828619763	2.56239881603744	-45.7990556781326	54.96815742241
36842	1657017918147	7.1743375336785	0.269533968730497	7.00185386130452	0.0239005326896068	-0.0417040848229647	0.215643235490317	0.00287502561157043	-0.0027366811410682	-0.00903010516385131	0.57177734375	-0.361572265625	0.21630859375	0	0	0	0.197781180792225	-0.335574741377726	0.432730545677502	0.813029195239234	0.400267735573847	0.570904397427763	0.716836040427814	-0.836385871802692	0.547253758724169	0.0311768666019961	-0.374492207271974	-0.612030630409876	0.696544394947411	2.56281068001388	-45.793872108326	54.9652544670839
36843	1657017918147	7.17444081276343	0.270338533841772	7.00171701702931	0.0237983050940256	-0.0416421567312875	0.215643735953028	0.00197401883502837	-0.000895673382559643	-0.00866628223756335	0.562744140625	-0.361572265625	0.2099609375	0	0	0	0.197801737213223	-0.335567905795322	0.432701648834112	0.813042395236444	0.400326927392765	0.570857740543054	0.716840143453439	-0.836361399420326	0.547287511703343	0.0312408241446456	-0.374483592115785	-0.612043968678429	0.696537306711145	2.56808720559867	-45.7942092751044	54.9590706885567
36844	1657017918149	7.17454404850438	0.271143134597872	7.00158012159794	0.0221689113252708	-0.0422085161658588	0.21564510253507	0.00287533949288059	-0.00273749846999549	-0.00903070914170882	0.563720703125	-0.36083984375	0.2177734375	0	0	0	0.197800128041367	-0.335656145453494	0.432619206091653	0.813050234540739	0.400351149079862	0.570696636862148	0.716954884288173	-0.836267951056438	0.547431463734894	0.0312202906606929	-0.37466634685584	-0.612065471324192	0.696420122732244	2.56683281177467	-45.8036389476561	54.9498382939169
36845	1657017918149	7.17482027253468	0.271986421994827	7.0012643547943	0.0220488155432281	-0.0421623538372396	0.215645561490637	0.00197545541319359	-0.00588118874794129	-0.00974300592556483	0.56201171875	-0.366455078125	0.228515625	0	0	0	0.197833315296475	-0.335669702786988	0.432580375320108	0.813057223618126	0.400400139037619	0.570611897605043	0.716994972764961	-0.836238498192772	0.54747239649344	0.0312913601178739	-0.374679733637879	-0.612107864178612	0.696375659979401	2.57283211549406	-45.8069338895216	54.942541851003
36846	1657017918151	7.15900395961988	0.277529490105646	7.03105083909279	0.000101985956212775	-0.0652466265204897	0.225229705201274	0.00316347835133673	-0.00369537726081486	-0.00434361773182048	0.56884765625	-0.36376953125	0.2216796875	0	0	0	0.197793172534503	-0.335630148859352	0.432628282011259	0.813057829234411	0.400370345561272	0.570732919792735	0.716915281368731	-0.836274327557211	0.547421261005447	0.0312283856121721	-0.374631599660097	-0.61204076438099	0.696460528150771	2.56734870738297	-45.8003841059345	54.9502592311021
36847	1657017918151	7.17786608286839	0.264260078787366	7.0233052999114	0.0218148449985536	-0.0574321327745423	0.232940436864371	-0.00252994884545971	-0.00165953750128771	-0.00899850817126929	0.568359375	-0.360107421875	0.21533203125	0	0	0	0.197797323232543	-0.335636390669467	0.432589840133756	0.813074696687497	0.400428486942849	0.570679746805988	0.716925137953828	-0.836231665421399	0.547484498270185	0.0312622120202462	-0.374664688209625	-0.612033782351349	0.696448864360828	2.57016890332529	-45.8011941704698	54.9438377135408
36848	1657017918152	7.17544169451561	0.273825317806319	7.00055578405191	0.021216611087564	-0.0399742508578156	0.215656317461557	0.00527159928959196	-0.00283595243937747	-0.0065224330738839	0.569091796875	-0.3583984375	0.231689453125	0	0	0	0.197805899916421	-0.335654253100302	0.432557273321595	0.813082562616195	0.40046085534453	0.570620769350633	0.716954001957181	-0.836198335731752	0.547534062509683	0.0312856790095669	-0.374704479098095	-0.61204443300902	0.696418096667865	2.57220909377657	-45.8035664295239	54.93887579908
36849	1657017918153	7.15942017065858	0.279479795162535	7.03054977162072	-0.000714886288978589	-0.0649106451577825	0.225231858524079	0.00197404269653031	-0.000897852250579831	-0.00866791795565937	0.568359375	-0.372802734375	0.22412109375	0	0	0	0.197826297809676	-0.335648267892169	0.432528157788579	0.813095559498342	0.400519265962009	0.570573340505107	0.716959120660373	-0.83617355731846	0.547568297229871	0.0313487146494336	-0.374697344045357	-0.612058022554743	0.696409992311808	2.57741465554804	-45.8039871332712	54.9327068846919
36850	1657017918154	7.17577043300913	0.275416625847431	7.00015639095282	0.0217306056518471	-0.0376236509914804	0.215664311150395	0.00437250157663223	-0.00598020780149981	-0.00723488171390389	0.56787109375	-0.364501953125	0.222900390625	0	0	0	0.197818577164586	-0.335562922506188	0.43260329806175	0.813092689718572	0.400503823090405	0.570731998645578	0.716841456259328	-0.836254318163035	0.547444394069351	0.0313584239992744	-0.374533580662198	-0.612020931932941	0.696530671135369	2.57776576686008	-45.7943171555664	54.9412362809655
36851	1657017918154	7.15735737799035	0.290018284358928	7.00738709012304	-0.000198745449714495	-0.0453078336363352	0.207956138766599	0.00287579580816702	-0.00274030379885538	-0.00903285780291634	0.564208984375	-0.3623046875	0.223388671875	0	0	0	0.197847106012972	-0.335560924850228	0.432573131516244	0.813102622210863	0.400558703207779	0.570673179322338	0.716857620233361	-0.836232210812954	0.547474017065044	0.0314307212380558	-0.37452425139553	-0.612049281545857	0.696510776711903	2.58377449205369	-45.7956454551039	54.9347681185258
36852	1657017918155	7.17624860307664	0.277128935303915	6.99959860665412	0.0216183977957479	-0.0360440957745231	0.21567035533093	0.0021288010892921	-0.00361343787823062	-0.0104701845892494	0.564208984375	-0.372802734375	0.2236328125	0	0	0	0.197830497384559	-0.335521844193675	0.432582435394296	0.813117840759747	0.400595057314431	0.570728084996367	0.716793591664733	-0.836233898277243	0.547471061785836	0.0314373007609478	-0.374481598249224	-0.612000726718089	0.696576372746907	2.58407159811599	-45.7903839942287	54.9349150384622
36853	1657017918156	7.17655297769839	0.277998007680008	6.99925207352338	0.0215222744663696	-0.0359612300505566	0.215670859580905	0.00197710669845945	-0.00588534809877659	-0.00974551187850451	0.561279296875	-0.3681640625	0.219482421875	0	0	0	0.197863227963543	-0.335533359883247	0.43254517850809	0.813124944872995	0.400644065909729	0.570647121507035	0.716830660035587	-0.836205976210845	0.547509623138503	0.0315083785682615	-0.374491518996877	-0.612041726752734	0.696535014850612	2.59005964967095	-45.7934299768366	54.9277964805057
36854	1657017918157	7.1768692804639	0.278968549986906	6.99888912827104	0.0194230091199133	-0.0332956938157777	0.215684349409802	0.00243575025765566	-0.00405794380709427	-0.0129977744072127	0.564453125	-0.3671875	0.21923828125	0	0	0	0.197787844822663	-0.33553712700849	0.432652724816479	0.813084512549693	0.40045291221553	0.570836129303411	0.716786982708253	-0.836296790139401	0.547383176298565	0.0312943622371464	-0.374493182715837	-0.611978571346411	0.69658960967859	2.57228939279006	-45.789840940464	54.9495754548869
36855	1657017918158	7.16103502051898	0.284587819571821	7.02869998096576	-0.00249762305222015	-0.0581831267762563	0.225272822535592	0.00136413766961303	-0.0049997855591202	-0.00469287712647862	0.5732421875	-0.36865234375	0.218994140625	0	0	0	0.197806538578693	-0.335551485191122	0.432637321528436	0.813082235756168	0.400460297613466	0.570790885718611	0.716818885643994	-0.836287996920992	0.547395042632434	0.0313217736935531	-0.374504921518007	-0.612010156845455	0.696555548163097	2.57466521572627	-45.7924624333504	54.9469435171104
36856	1657017918159	7.16188587692425	0.262330780986939	6.99294890872152	0.0284214502612495	-0.0475830997209568	0.200288678513818	0.00467688741500605	-0.00143970858606754	-0.00868739359948397	0.572021484375	-0.361572265625	0.2265625	0	0	0	0.197778353178191	-0.335580126186928	0.43268862475836	0.813049971359207	0.400333065826168	0.570853978501318	0.716839711257291	-0.836335917367639	0.547328554037683	0.0312039621818812	-0.374533936682712	-0.612010775366117	0.696539403844976	2.56505338134379	-45.7941737592216	54.9584801918123
36857	1657017918160	7.14353203554842	0.276966771230405	7.00011604716806	0.00646560975332849	-0.0552414920621616	0.192575836016992	0.00347592981714136	-0.00912754724840252	-0.00794926647339618	0.556640625	-0.3603515625	0.218017578125	0	0	0	0.197819527116386	-0.335604067457867	0.432659813704751	0.813045404760494	0.400350791021412	0.570766070868657	0.716899809229774	-0.83632222256006	0.54734584059284	0.0312677283779882	-0.374545570232424	-0.612077301597497	0.696474689194371	2.57052662371845	-45.7991125502376	54.9531394565815
36858	1657017918163	7.18071351828544	0.273264384854753	7.02004930400546	0.017753633980983	-0.0480150807864583	0.23299785958401	0.00212917618499193	-0.00361699966647581	-0.010472598482495	0.574462890625	-0.357177734375	0.222900390625	0	0	0	0.197811179851911	-0.335561576174731	0.432630626096575	0.813080504675896	0.400458339916832	0.570771393017524	0.716835500588448	-0.836282718201885	0.54740295697776	0.0313243983001987	-0.374518802235509	-0.612021257477908	0.69653833144145	2.57494422841728	-45.7938277470927	54.9461552364658
36859	1657017918163	7.16546078277084	0.256063945578747	7.01441739504507	0.0285767117310034	-0.0633543992241411	0.217597672918151	0.00212934005421034	-0.00361759126187122	-0.0104730275209561	0.567626953125	-0.361572265625	0.218505859375	0	0	0	0.197839211692386	-0.335562957156111	0.432594988039171	0.81309207622813	0.400518156216071	0.570704092147443	0.71685566591012	-0.836254135815167	0.54744244528065	0.0313972839139242	-0.374518660247133	-0.612048697663271	0.696514296203162	2.58101645875988	-45.7954848538898	54.9389548325508
36860	1657017918164	7.18375082250586	0.265988019647411	7.04210664518381	0.0182365269537497	-0.0653071022462725	0.250298968457276	0.000769156930552227	-0.00360360656509393	-0.00685623034144428	0.5625	-0.36181640625	0.21826171875	0	0	0	0.197866214305059	-0.33555855277638	0.432515646096414	0.813129531364473	0.400661347080847	0.570591088205265	0.716865604570406	-0.836173890267452	0.547558354236773	0.0315130757069635	-0.374544670487189	-0.612050372735978	0.696498837790412	2.5905796069417	-45.7963015920179	54.9239882796563
36861	1657017918165	7.17623493769483	0.293239129122161	6.97408724670702	0.018066803352748	-0.01352666480236	0.198392528782323	0.000769234953351595	-0.0036038881703443	-0.00685643458778654	0.568359375	-0.36181640625	0.216552734375	0	0	0	0.197883201854756	-0.335566240185499	0.43249173605026	0.813134942749179	0.400692393392001	0.570542441980906	0.71688697001428	-0.83615413014998	0.547586273343885	0.0315522404670128	-0.37455557199289	-0.612070743577752	0.696475073742957	2.59388319101929	-45.798057399635	54.9196028365241
36862	1657017918166	7.18235868833985	0.253176331985716	6.98340566930973	0.0498417346237428	-0.0380414562357503	0.208011111164449	0.00197881793243822	-0.00589037141808756	-0.00974883667288482	0.57177734375	-0.3671875	0.217529296875	0	0	0	0.197872862234395	-0.335614471260245	0.4324438691069	0.813143011495351	0.400710453505122	0.570459427985477	0.716942935995747	-0.836095412127668	0.547677260926045	0.0315290292208679	-0.374667311452154	-0.612066711141054	0.696418514143749	2.59218783750529	-45.8026569343473	54.9144669437365
36863	1657017918166	7.18450634101892	0.268034624573758	7.0412582397949	0.0169822685738877	-0.0646909431430233	0.250305143210285	-0.000422961808365992	-0.000809705874818549	-0.0111820258854504	0.5615234375	-0.36328125	0.21875	0	0	0	0.197886097679942	-0.335609516816085	0.432403084372557	0.813163524263464	0.400787649695146	0.57040391672759	0.716943952923564	-0.836053747235533	0.547737329940208	0.0315903327522132	-0.374677716958541	-0.612064693616449	0.696414689134957	2.59723531382958	-45.8027405135369	54.9066527527244
36864	1657017918168	7.18533601958211	0.246034281042785	7.00552852805496	0.0481050465312249	-0.0542326015918751	0.225328435075914	0.00648298785547298	-0.00512597649935529	-0.00942042682567085	0.5625	-0.362548828125	0.22509765625	0	0	0	0.197874186215662	-0.335649138482497	0.43242154237905	0.813140253555296	0.400702531044962	0.570406124963321	0.7169897727433	-0.836071325488169	0.547714832232026	0.0315150955813009	-0.374729529541797	-0.612082768224503	0.696370924530894	2.59122066137714	-45.8065064796662	54.9124815095944
36865	1657017918168	7.18226634687296	0.278738619538258	7.01824530351255	0.0151967624526234	-0.046433127297955	0.233009489575512	-0.00072965547815658	-0.000366407353906616	-0.00865513702643093	0.57177734375	-0.360107421875	0.221435546875	0	0	0	0.19788055999198	-0.335646062106501	0.432391248722537	0.813156081572181	0.400759058041127	0.570367485577167	0.716988918181005	-0.836038808492116	0.54776218401085	0.0315547217187098	-0.374741628449616	-0.612076401410839	0.696370009939318	2.59447773831241	-45.8064362402058	54.906854087253
36866	1657017918169	7.16955527105614	0.252407670233684	7.03527506272417	0.0267821371545171	-0.077904588195805	0.234926342117019	0.00272666120964097	-0.00501815435544698	-0.00831293696459795	0.570068359375	-0.36669921875	0.224365234375	0	0	0	0.197885703394794	-0.335597750468575	0.432383154726495	0.813179073624711	0.400837914778392	0.570389872604473	0.716927025091371	-0.836029860241212	0.547772111801423	0.0316193978068712	-0.374677246254921	-0.612046654073742	0.696430796544759	2.59956161093154	-45.8013492664207	54.9026090542591
36867	1657017918169	7.18333089015548	0.257281830378651	6.98225555872009	0.0484470307469339	-0.0355787265211831	0.208026997785645	0.00287696915523323	-0.00274716800224334	-0.00903865166944419	0.571533203125	-0.3623046875	0.228759765625	0	0	0	0.1979126445906	-0.335595513551871	0.432355157583306	0.813188326346441	0.400889337989941	0.570335142765257	0.716941813268636	-0.836009525164423	0.547799205644539	0.031687602142917	-0.374667602709845	-0.612073406726795	0.696412472790021	2.60522970648106	-45.8025646598786	54.8965648750502
36868	1657017918170	7.1673755372784	0.262979663773029	7.01220492847636	0.0273974210215846	-0.0587858537545422	0.217628779317643	0.000480474344203983	-0.00265482869468304	-0.0115487696669539	0.567626953125	-0.363525390625	0.22705078125	0	0	0	0.197909621418786	-0.335508953772347	0.43239221228316	0.813205077729679	0.400941433390919	0.570446185151474	0.716824327737673	-0.836047985246267	0.547737513013495	0.031739300613762	-0.374526011588107	-0.612025135663497	0.696531047376916	2.60903066815825	-45.7929096273873	54.8983098587271
36869	1657017918171	7.20166698916533	0.268095135978537	7.00985719818798	0.0381545392877679	-0.0354179186054551	0.240733455597002	0.000920410368052413	-0.00133552047515579	-0.00758379561941673	0.5615234375	-0.366943359375	0.21728515625	0	0	0	0.197923145547057	-0.335505713932312	0.432368644079149	0.813215654050441	0.400986543071856	0.570409206870466	0.716828521330373	-0.836026591872443	0.547767568147834	0.0317840992880996	-0.374525473042129	-0.612032701742982	0.696524688751057	2.61273192340666	-45.793254230601	54.8935298542921
36870	1657017918172	7.16749556002966	0.264455166540495	7.01202675506761	0.0264545077663891	-0.0566609847666707	0.217643538916558	0.00137718526321618	0.000490269829678304	-0.0108375163386843	0.56298828125	-0.358154296875	0.22412109375	0	0	0	0.19786989215006	-0.335466938690054	0.432427093773533	0.813213531243193	0.400937483233	0.570553513908589	0.71674111247043	-0.836068741822636	0.547708628702199	0.031690960734433	-0.374483902839498	-0.611950934153808	0.696618877652895	2.60473452063297	-45.7860719578858	54.9036462853659
36871	1657017918172	7.18300834438674	0.283436690052407	7.01729770225	0.0153835333106336	-0.0410542640939167	0.233032627376396	0.00287772077011542	-0.00274865763054286	-0.00903996649306275	0.57080078125	-0.369384765625	0.224365234375	0	0	0	0.19789634767372	-0.335463525077438	0.432400295294475	0.813222751495107	0.40098841594374	0.570501502992186	0.716754020123073	-0.836049528554491	0.547734040413307	0.0317585701240897	-0.374472263435815	-0.611976679340129	0.696602517840042	2.61034499293734	-45.7871325047321	54.8977652215126
36872	1657017918173	7.16757669703687	0.26597554393814	7.01188630898733	0.0264905651138535	-0.0547242711491981	0.217654197197506	0.000763444483434697	0.00138032240968985	-0.00578187005215658	0.571044921875	-0.364501953125	0.230712890625	0	0	0	0.197856522118119	-0.335393554689487	0.432457347185878	0.813230965343196	0.400983612675407	0.570655807300068	0.716633861857286	-0.836095016386848	0.547666879040551	0.0317192871146167	-0.374375835142783	-0.611892914811645	0.696727920256145	2.60665204419152	-45.7772605781295	54.9053773125547
36873	1657017918174	7.170217211869	0.257841991645173	7.03440333611271	0.0264054998865986	-0.0717806719685915	0.234972954690662	0.00318503917209675	-0.00319498480778483	-0.0115687133175939	0.562255859375	-0.36669921875	0.21923828125	0	0	0	0.197889249129597	-0.335388161126021	0.43242087558922	0.813244620523298	0.401053935462317	0.570588479005447	0.716648120402502	-0.836067324494184	0.547704062867154	0.0318070500353336	-0.374362350889248	-0.611922419220823	0.696709252910862	2.61392424170075	-45.7784319359943	54.8974703884312
36874	1657017918175	7.16506878800356	0.276490465527432	6.98914182429474	0.0261935658063284	-0.0351101647062961	0.200346258814548	0.0010704000752932	0.000933999238049899	-0.00831058988156284	0.561279296875	-0.364990234375	0.221435546875	0	0	0	0.197842198222247	-0.33531277109982	0.432507819727986	0.813240921261402	0.401004662823008	0.570788084083932	0.716516729366454	-0.836144146989458	0.547590900953467	0.0317359519826168	-0.37424353815327	-0.611837534203946	0.696847620279898	2.60757228163773	-45.7676389241809	54.9102090910849
36875	1657017918175	7.16491665463764	0.277116073991926	6.98927300689796	0.0260890556267502	-0.0349409940467731	0.200347123420958	0.000166505733261473	0.00277553582836785	-0.00794572701282941	0.564453125	-0.360595703125	0.216796875	0	0	0	0.197843272951395	-0.335292582543189	0.432487738088681	0.813259663233296	0.40106648098891	0.570778900607721	0.716489444757014	-0.836120428314403	0.547624791501632	0.0317760458228167	-0.374230286297772	-0.611815768310883	0.696873846878797	2.61076389814142	-45.7653979135715	54.9056209753564
36876	1657017918177	7.18543237677884	0.278185556952772	7.0399194521234	0.0139939364819736	-0.0526472944904148	0.250379959031582	0.00137779984042807	0.000487370882705583	-0.0108395419815407	0.567138671875	-0.36962890625	0.2216796875	0	0	0	0.197794626066581	-0.335295907822842	0.43248965447783	0.81326910605659	0.401058705933807	0.57082149193287	0.716459865409245	-0.836100406770764	0.547659969337657	0.0316964948036684	-0.374283347468817	-0.611744540092194	0.696907880192876	2.60410988369445	-45.7629685272341	54.9081545364757
36877	1657017918177	7.18857711481442	0.247164392556826	7.02710214525831	0.0466576893151809	-0.060145395227201	0.242714234615562	0.000473783808080541	0.00232861941670076	-0.0104748576398477	0.568115234375	-0.3642578125	0.2236328125	0	0	0	0.19780174872961	-0.33527454440226	0.432459807085532	0.813292052912673	0.401138990262802	0.570796466239041	0.716434857206126	-0.836068030988202	0.547705966910105	0.0317556510022601	-0.374269632818974	-0.611726710173824	0.696930896150731	2.60887726824985	-45.7609146568655	54.9015780089231
36878	1657017918179	7.16700195644036	0.270512741240465	7.01230020426196	0.0237019438939879	-0.0488783417078529	0.21769136542725	0.00196608626723268	0.00407926363324778	-0.00759972224675627	0.573486328125	-0.359375	0.228759765625	0	0	0	0.19774631032837	-0.335232555191467	0.432558407505005	0.813270406929977	0.40102471607307	0.570991902403028	0.71634309132474	-0.836155905967284	0.547579241696501	0.0316271241044008	-0.37419577498222	-0.611657764974218	0.697031061382633	2.59795979896877	-45.7533787684251	54.9184828834669
36879	1657017918179	7.18554977535539	0.257564444751869	7.00489482118111	0.0453911277351195	-0.0408871591341692	0.22540430418157	0.00377487529020464	0.000395479097719389	-0.00833003492840508	0.56591796875	-0.364990234375	0.22314453125	0	0	0	0.197766937552186	-0.335213974052767	0.432541591289256	0.813281994031553	0.401078726809417	0.570968093584386	0.716331830236203	-0.836145057876842	0.547592020432375	0.0316926071335526	-0.3741621267433	-0.61166855017027	0.69703966002196	2.60329933528297	-45.7524540688212	54.9137299010966
36880	1657017918180	7.20081095085322	0.27647729371347	7.01041099681439	0.0354874487518794	-0.0240466625368833	0.240776853509061	-0.000430209455496895	0.00416867204270829	-0.0101109165111587	0.55908203125	-0.36376953125	0.220458984375	0	0	0	0.19775394922004	-0.335106993276944	0.432547844436008	0.813325913086831	0.401211330661298	0.571067278395776	0.716178491505178	-0.836142203722852	0.547591475683282	0.0317772074370826	-0.374026313649834	-0.611576437826579	0.697193357249528	2.60966435361813	-45.7398642468986	54.9095023390514
36881	1657017918180	7.16897354804822	0.26381118495716	7.03544948913848	0.0245700581932804	-0.0643250349646894	0.235028107548782	0.000166924865290689	0.002773057419256	-0.00794743827285294	0.573974609375	-0.359130859375	0.22802734375	0	0	0	0.197754312433546	-0.335086062472981	0.432529036019671	0.813344450801862	0.401271927472495	0.57106075473374	0.71614974315812	-0.836119610295374	0.547623729827659	0.031815842109793	-0.374011814655662	-0.611553648450056	0.697221125300578	2.61272886820322	-45.7375041901064	54.9051241064894
36882	1657017918181	7.1635058963924	0.282221863532991	6.99051466356726	0.0250996954338488	-0.0285451374946106	0.200369928285136	0.00196623519885537	0.00407792148667578	-0.00760078780613087	0.556884765625	-0.368896484375	0.21630859375	0	0	0	0.197730104191393	-0.334998874016933	0.432541386385434	0.813379683399834	0.401367406942307	0.571162027304285	0.716015462968551	-0.836119476357755	0.547621509920455	0.0318575442819353	-0.373909649380225	-0.61146105390131	0.697357120607696	2.61563923098104	-45.7264819597231	54.9034910819556
36883	1657017918181	7.16851474371263	0.265120807423587	7.03586774449148	0.0250668203541703	-0.0627291289729131	0.235036970692866	0.00107183782613438	0.000930777264483354	-0.00831285037864312	0.568115234375	-0.357666015625	0.229736328125	0	0	0	0.197738771816815	-0.334982463376961	0.432521048880003	0.813395149743359	0.401424583011289	0.571143004865146	0.715998583900711	-0.836099088418473	0.547649840792239	0.0319055829915922	-0.3738938599389	-0.611453448656434	0.69737225470056	2.61952115250355	-45.7250966152998	54.8987539825646
36884	1657017918182	7.18121643991493	0.292869432954354	7.01874420401536	0.0136091874088431	-0.0279838287942653	0.233080100269774	0.00287104318746508	0.00223576269107583	-0.00796619436999398	0.568359375	-0.364501953125	0.218994140625	0	0	0	0.197684584944167	-0.334921024123174	0.432584141797088	0.813400069302563	0.401397735731923	0.571310494548152	0.715880001514522	-0.836145389119611	0.547583530282259	0.0318302626070177	-0.373819135416178	-0.611356357767517	0.697497424951474	2.61287742929479	-45.7153649698455	54.9084595719798
36885	1657017918182	7.14697457947442	0.289208913458659	7.0209817597878	0.00267765728381841	-0.0510548091252388	0.210009804766258	0.00197691556966131	-0.000911476643510139	-0.00867821510912269	0.570556640625	-0.367919921875	0.223876953125	0	0	0	0.197701085685384	-0.334909374787718	0.432562788042825	0.813412211488578	0.401450290159836	0.571279814055669	0.715875016034995	-0.836127602062648	0.547607430238877	0.0318862888423721	-0.373802484742343	-0.611363620441791	0.697499982796241	2.61746052596832	-45.7149558659436	54.9034835607809
36886	1657017918183	7.16827083988187	0.267230617103068	7.0360364224235	0.0231478714635932	-0.059320573075422	0.23506227662801	-0.0016318266641401	0.00146567825347055	-0.00829559446934556	0.562744140625	-0.363525390625	0.219482421875	0	0	0	0.197655268479736	-0.33491630297156	0.432620736580774	0.813389674833886	0.401340736568342	0.571382536943496	0.715854461218756	-0.836174424071832	0.547543386245024	0.0317580337469416	-0.373815389863661	-0.611324984484805	0.697526929692132	2.60684638768494	-45.7132691881016	54.9156850191824
36887	1657017918184	7.16561093762176	0.276636399839364	7.01348276585496	0.023010451392136	-0.0419105952170768	0.217724509463341	0.00166927268522934	-0.000464889590957826	-0.00614949016615413	0.56298828125	-0.363037109375	0.220458984375	0	0	0	0.197664982599695	-0.334906288669004	0.432609894987589	0.813397203844864	0.401372913137562	0.571368866432477	0.715847332237212	-0.836165849321625	0.547554466825378	0.0317927395457095	-0.373800022776501	-0.611327837032833	0.697532664927633	2.60966983628851	-45.7126842132379	54.9128797181833
36888	1657017918184	7.16905289488078	0.245438767553963	7.00040606283247	0.0545081000860915	-0.0481818950460069	0.210084308413162	0.00108346019286372	-0.00405939917181012	-0.00939071308430083	0.574462890625	-0.365234375	0.22412109375	0	0	0	0.197619658944802	-0.334927713459491	0.432630831147868	0.813388259747854	0.401307981394204	0.57141707671121	0.715845254585182	-0.836170278731318	0.54755406867769	0.0316829108652846	-0.37385982538339	-0.611283131059023	0.697539794310674	2.60064053198924	-45.7125137308217	54.919513436118
36889	1657017918184	7.14708279436207	0.291604210442254	7.02077252109815	-0.000198165682002874	-0.0481116608207975	0.210024720510949	0.00076414680763368	0.00137614561532344	-0.00578492829749239	0.56689453125	-0.361572265625	0.223876953125	0	0	0	0.197620650211518	-0.334912691605457	0.43262228441355	0.813398750085323	0.401342896060779	0.571417523043758	0.715825323762776	-0.836160178560398	0.547568075277556	0.0317073923033084	-0.373844935195583	-0.611270167189083	0.69755913522313	2.60257522593613	-45.7108783270985	54.9171900502545
36890	1657017918185	7.18388709729107	0.287818279819137	7.04110917051062	0.0108201098782602	-0.0410551929342072	0.250437842023075	0.00288264092167193	-0.00275433015911584	-0.00904432816322812	0.5751953125	-0.365234375	0.224609375	0	0	0	0.1976329470974	-0.334873484950922	0.432635668658341	0.813404785763503	0.40137225456275	0.571451779286121	0.715781515001569	-0.836179914228631	0.547535192852292	0.0317547418317598	-0.37376926613596	-0.611267598142524	0.697601934596842	2.60629667679283	-45.7072838111346	54.9168343246758
36891	1657017918185	7.16595268334676	0.279362889202164	7.01302551349307	0.0216603185137231	-0.0391191493825578	0.217738791100921	0.00197745530851536	-0.000913297304432889	-0.00867968734187112	0.56494140625	-0.364990234375	0.224853515625	0	0	0	0.197648752001899	-0.334861987065009	0.432615148256224	0.813416593112171	0.401423166236239	0.571422572374038	0.715776281662301	-0.836162787719138	0.547558208662675	0.0318088126135095	-0.373752905062464	-0.611274285331519	0.697604840901932	2.61071758430909	-45.706854430254	54.9120387594558
36892	1657017918186	7.1531471191174	0.253065555574731	7.03022047192774	0.0325350135719193	-0.0703071718210979	0.219737773612724	0.00272286806646448	-3.68648477392171E-05	-0.00724176856220156	0.564697265625	-0.3642578125	0.227294921875	0	0	0	0.197636671608102	-0.334807006624906	0.432683612418349	0.81340574493616	0.401378319718957	0.571554387320796	0.71569618330262	-0.836234957002468	0.547449275160559	0.0317865980133061	-0.37363958723169	-0.611248618371059	0.697688028701083	2.60858619626223	-45.7002829948905	54.9212653420205
36893	1657017918186	7.17125936374165	0.262940216425304	7.05806634410185	0.021478971884089	-0.0717658330396473	0.252439921427584	-0.000874339660486199	-0.00264919768484916	-0.00793556951571269	0.5693359375	-0.36328125	0.2275390625	0	0	0	0.19764324965107	-0.334809143352812	0.432659962113519	0.81341584726304	0.40141638942257	0.571519405108444	0.71570276783553	-0.836210473529007	0.547485006102586	0.0318152801849174	-0.373653484211431	-0.611249325298066	0.697679966789442	2.61096688852372	-45.7008231744737	54.917060139907
36894	1657017918186	7.15343619777985	0.254300512621918	7.02988176274583	0.033237574049781	-0.0677938498470039	0.219752769133896	0.00108465677698516	-0.00406185470773113	-0.00939227000671676	0.57275390625	-0.365234375	0.2158203125	0	0	0	0.197626654975895	-0.334714577551787	0.432721567468316	0.813426027285291	0.401436393244185	0.571676926426374	0.715565730014227	-0.836271015759292	0.547391500581604	0.0318328963800377	-0.37349646635547	-0.611185762990855	0.697819713634735	2.61188814244553	-45.6895819898021	54.9231434868093
36895	1657017918187	7.16915175055829	0.273398946567347	7.03490183837976	0.0221559452301217	-0.0520562325597372	0.235104774466365	0.00409710570865802	-0.0050456079258797	-0.0119407406886015	0.5654296875	-0.375244140625	0.22509765625	0	0	0	0.197665187902197	-0.33471080123251	0.432688225112893	0.813435954994943	0.401499158773891	0.571606972382508	0.715586399135395	-0.836249666056584	0.547418746680487	0.0319250967581389	-0.373476801855362	-0.611226786803776	0.69779430605976	2.61953790326155	-45.6912773289235	54.9156327919106
36896	1657017918187	7.13788716831196	0.260898743109992	7.05937318083983	0.00855454437057225	-0.0909210709161058	0.229419550077093	0.00317292839546576	-0.00370196505523987	-0.00435162229152908	0.566162109375	-0.35888671875	0.22119140625	0	0	0	0.197616500630086	-0.334765880366488	0.432852436454599	0.813337747972198	0.401141147195535	0.571799928123773	0.715633022033149	-0.836420975357276	0.547172973868073	0.0316494652522351	-0.373477886907691	-0.611266373086248	0.697759048042338	2.59708375764887	-45.695101658093	54.9487621667509
36897	1657017918187	7.17050808370295	0.251905251853285	6.9986857505983	0.0519485043119407	-0.0406266377525111	0.210131373985732	0.000192374851094909	-0.00721156259216007	-0.0101050422674678	0.568115234375	-0.361328125	0.2177734375	0	0	0	0.19763998983268	-0.334781897224048	0.432818580187348	0.813343465182215	0.40117831587135	0.571727746082595	0.715669856312213	-0.836392909136701	0.547213022127092	0.0316987375203012	-0.373500817161722	-0.611298039236059	0.697719031420009	2.60127035865713	-45.6981232427042	54.9428653520931
36898	1657017918188	7.15481852319529	0.257678458568743	7.02835183973187	0.0297534681116887	-0.0656124219129146	0.219778210750183	0.00574843075570463	-0.00601163675025422	-0.0108692042393958	0.56689453125	-0.36376953125	0.223388671875	0	0	0	0.197667416693945	-0.334810064441525	0.432742086973265	0.813365907380084	0.401273013821371	0.571593239422542	0.715724204582434	-0.8363174015077	0.547323757079132	0.031779063425339	-0.373568162875427	-0.611324687529653	0.697659626252409	2.60807474611736	-45.7025818308926	54.9301673093271
36899	1657017918189	7.16797608795692	0.285700960950301	7.01070197080479	0.018598486788326	-0.0326998568834035	0.217767917084117	0.00273625200031003	-0.00502889848165752	-0.00832091964374032	0.55810546875	-0.363525390625	0.223388671875	0	0	0	0.197693675193339	-0.33481368175619	0.432721602786549	0.813368934604252	0.401303625981411	0.57154352357469	0.715746743222769	-0.836305712580267	0.547338450540782	0.0318335619312035	-0.373561447261068	-0.611358013948819	0.697634018594831	2.61263695453715	-45.7044309455754	54.925768141658
36900	1657017918190	7.1870510024286	0.272627665950018	7.00278433844613	0.0398854488756824	-0.0226139918523958	0.225485488238403	-0.00102112560633321	-0.00492353147294225	-0.00721061081376953	0.573974609375	-0.35888671875	0.224853515625	0	0	0	0.197632474505254	-0.334787678476219	0.432783419676094	0.813361621306845	0.401231443987939	0.571689013142688	0.71567101422881	-0.836348682467187	0.547279833348792	0.0317122270602367	-0.37354278160708	-0.611274452485673	0.697717230722867	2.60238252650776	-45.6982182314094	54.9374726253712
36901	1657017918190	7.1712725514428	0.2779807775405	7.03256029415602	0.0180083890428357	-0.0473527706585217	0.235136331115227	0.00168335255106996	-0.00545867816592526	-0.00722973196268084	0.5712890625	-0.367431640625	0.22265625	0	0	0	0.197653092560424	-0.334796012766506	0.432765976159974	0.813362462076567	0.401250479427909	0.571644265144492	0.715696085560265	-0.836338134345288	0.547293729759211	0.0317505654452598	-0.373545951388468	-0.611303858562716	0.6976897696739	2.60562674668942	-45.7002749763771	54.9340855227742
36902	1657017918192	7.15354199853927	0.269388329239887	7.00428035724664	0.0291675181063784	-0.0451503733931685	0.202440553410092	0.0010852107549493	-0.00406621736606912	-0.00939497592448901	0.558349609375	-0.35986328125	0.224853515625	0	0	0	0.197676526641698	-0.334775040309986	0.432759133421733	0.813369040251958	0.401290409651035	0.571631427673384	0.715683951209047	-0.836340096372634	0.547287046509889	0.0318140208382459	-0.373498661739929	-0.611321846181348	0.697699326400643	2.6107913359889	-45.6992795165746	54.9307993403269
36903	1657017918192	7.16927791909831	0.288345949411741	7.00926237964041	0.018050445658585	-0.0293938952080145	0.217779151098654	0.00199171582775689	-0.00590848958720829	-0.00976083980980733	0.56689453125	-0.360107421875	0.222900390625	0	0	0	0.197703804006792	-0.334781867193944	0.432731278075014	0.813374420703618	0.401329484747403	0.571569807935723	0.715711254158201	-0.83632040256268	0.547313693713619	0.0318732635755015	-0.373500775005598	-0.611355604644201	0.697668614558762	2.61576127917717	-45.7015193801108	54.9252710625041
36904	1657017918194	7.17549598303272	0.248267767688643	7.01867112641183	0.0514878996503336	-0.0525057538421528	0.227517615591847	-0.000129041780596578	-0.00177635729268519	-0.00649958107265852	0.5595703125	-0.36474609375	0.217041015625	0	0	0	0.197661741669007	-0.334722011917355	0.432723903803684	0.813413199853109	0.401422395629797	0.57164319879069	0.715600526525227	-0.836290142192843	0.547359717914551	0.0318769081872488	-0.373468684574636	-0.611245770930852	0.697782021236747	2.6156353847737	-45.6924361265129	54.9224932666834
36905	1657017918195	7.17573287118704	0.248814958136362	7.01840956228257	0.0513813253680231	-0.0522227538722859	0.22751963753136	0.00168406912322762	-0.00546014953191119	-0.00723089959784866	0.564208984375	-0.37451171875	0.220703125	0	0	0	0.197682472759194	-0.334729530238358	0.432706681244894	0.813414229993702	0.401442139184874	0.571599221389808	0.715624579645806	-0.836279866361976	0.547373135939679	0.0319160644371369	-0.373470472734145	-0.611274881013547	0.697755563100436	2.61894301614917	-45.6944091363114	54.9190947589727
36906	1657017918196	7.15477414071461	0.272053846041913	7.00291869492373	0.0260011944035394	-0.0404525365164971	0.202469351328833	0.00259078902746224	-0.00730240236730077	-0.00759684904497421	0.568115234375	-0.361572265625	0.218994140625	0	0	0	0.1975982948116	-0.334806235994591	0.432881951180731	0.813309851513337	0.401036001362195	0.571820028225565	0.715675890981062	-0.83644859352485	0.547136260459022	0.0315541262153924	-0.373528949348938	-0.611280433034652	0.697719396453365	2.58941806312705	-45.6986182934116	54.9567704146856
36907	1657017918197	7.17331077893885	0.282074128629893	7.03031822147869	0.0148942227250004	-0.0418221429847866	0.235165972189264	0.00259094208482926	-0.00730295076206442	-0.00759724776000253	0.5693359375	-0.368896484375	0.228271484375	0	0	0	0.197626179234415	-0.334819635810149	0.432864111177469	0.813307055183776	0.401048945460999	0.571764620397343	0.715712904876322	-0.836441121828616	0.547145109071494	0.0315987236012787	-0.373531783197506	-0.611324339840175	0.697679409514332	2.59322127196383	-45.7016548036449	54.9532909293102
36908	1657017918198	7.16105228794431	0.255680519197626	7.04702666100447	0.0253990726244961	-0.0729779428451653	0.237220905834603	0.00153823161175642	-0.00773253784193347	-0.00650533756416746	0.56005859375	-0.36376953125	0.225341796875	0	0	0	0.197616248205881	-0.334815068153854	0.432932737131541	0.813274820526219	0.400936230513843	0.571856792958436	0.715702415399475	-0.83651638340388	0.547034127129647	0.0315278298079414	-0.373484242449723	-0.611337445362869	0.697693377164323	2.58735939786474	-45.7007942613171	54.9652034613226
36909	1657017918199	7.15893806200584	0.265128004193966	7.02387847042187	0.0252162086871576	-0.0555162734335941	0.219851589501518	0.00153836745267286	-0.00773302452193039	-0.00650569141906889	0.568603515625	-0.359375	0.213134765625	0	0	0	0.197638732321268	-0.334833426188563	0.432917511304485	0.813269903905955	0.400938010225519	0.571805457854219	0.715742432949542	-0.836509673416997	0.547042719784746	0.0315567585518119	-0.373497360413955	-0.611377772820239	0.697651016386541	2.58988726244573	-45.7040773174951	54.9626660924655
36910	1657017918200	7.15944743036047	0.265777901543338	7.02333470736026	0.0241847089451887	-0.0548069408789136	0.219858029189439	0.00259126858071576	-0.00730447145260662	-0.00759847901443623	0.568359375	-0.36669921875	0.23095703125	0	0	0	0.197622082565246	-0.334879362922083	0.432894791495749	0.813267129710359	0.400915823569503	0.571759094875055	0.715791897019828	-0.836477323310195	0.547095223956854	0.0315040237336742	-0.373593616111676	-0.611374151687212	0.697602649542949	2.58574417542961	-45.7081356365181	54.9619726568629
36911	1657017918201	7.17547324935727	0.284768394552955	7.02800244243067	0.0130214153357525	-0.0390086237651584	0.23517989055202	0.00440541924383041	-0.010989365913043	-0.00833100689990071	0.567626953125	-0.36669921875	0.21923828125	0	0	0	0.197666155462707	-0.334903191875576	0.432873829509097	0.813257764046722	0.40092019959536	0.571677952621351	0.715854253352648	-0.836474058182289	0.547096677421445	0.0315654168746245	-0.373596230634718	-0.611448725602627	0.697535886112288	2.59102389236375	-45.7132521313782	54.9578560281355
36912	1657017918202	7.16681430183087	0.226784495661939	7.0315686154789	0.0563668967919116	-0.0770650622965351	0.229647985024696	0.0020086253090727	-0.0109063264511722	-0.0108428546449754	0.56884765625	-0.360595703125	0.224609375	0	0	0	0.1976589795265	-0.334880895729243	0.432971151991295	0.813216880685253	0.400781534437822	0.571814467072599	0.715822866986062	-0.836583331523649	0.546933818711747	0.0314917031324081	-0.373500322718011	-0.611466771947476	0.697571426976246	2.58484984674867	-45.7106767420522	54.9736029722614
36913	1657017918203	7.15876047978236	0.2770958251183	6.99864578461582	0.0233212592724102	-0.0348315756927737	0.202497076768829	0.00228412255319546	-0.00685626207601034	-0.00506866135536986	0.561279296875	-0.37060546875	0.22314453125	0	0	0	0.197679635378147	-0.334895393079928	0.432964655421515	0.813209348572883	0.40077336569914	0.571777812393103	0.715856719323876	-0.836585809168549	0.546928737824984	0.031514118089769	-0.373503538462475	-0.611505591958184	0.697535674901208	2.58681957627921	-45.7134544801842	54.9724255577907
36914	1657017918203	7.19290035213333	0.305272996419614	7.03116523767217	0.000591293527819371	-0.0187466330440117	0.25050992760983	0.00186374143292288	-0.0131795655544075	-0.0101176777770603	0.56298828125	-0.368408203125	0.2197265625	0	0	0	0.197660949963659	-0.334894942330973	0.433045011391656	0.813171288579102	0.400634791419868	0.57188823497388	0.7158460802452	-0.836670844730541	0.546804333936528	0.031415250533988	-0.373461726930407	-0.611513587000886	0.697551052921195	2.57865828489678	-45.712581480562	54.986937403373
36915	1657017918204	7.16022967055117	0.278467747133811	6.99708820461107	0.0224490324882132	-0.0322518226271242	0.202507709651579	0.00139431143588637	-0.0100082628811793	-0.00578183957051903	0.56982421875	-0.36083984375	0.219970703125	0	0	0	0.19768555669373	-0.334923194720819	0.433031737397783	0.813160739779625	0.400619936088516	0.57182985946482	0.715901025724142	-0.836667772256931	0.546807870161895	0.0314355212400971	-0.373484545430006	-0.611565012859186	0.69749374862538	2.58053162324295	-45.7170902302546	54.985187278179
36916	1657017918205	7.14286316202143	0.269767524525088	6.96843892244527	0.0318982351143247	-0.0295876443078597	0.16982317541053	0.00170183442834562	-0.0104595203685015	-0.00831393255595967	0.56787109375	-0.35888671875	0.2314453125	0	0	0	0.197672459179726	-0.334984046978736	0.433066821914521	0.81312017248894	0.400477632053208	0.571836497164217	0.71597533947477	-0.836704978573273	0.546757453277391	0.0313219749747724	-0.373553804766802	-0.611603881443356	0.697422574303174	2.57148522917886	-45.7231888922513	54.995065014868
36917	1657017918205	7.18572896494992	0.248386698058985	7.03319263427687	0.0426275542239783	-0.0572940877241369	0.245001014904535	0.00409970992208661	-0.0105434650251886	-0.00580378954907605	0.562744140625	-0.365966796875	0.220947265625	0	0	0	0.19770893925249	-0.335008931199267	0.433057721264441	0.813105898029051	0.400460052139949	0.571775053839241	0.716034241113651	-0.83671209554931	0.54674437078581	0.0313602005017528	-0.373556710288479	-0.611673017895314	0.69736038271276	2.57484856420091	-45.7280232107154	54.9933539331209
36918	1657017918207	7.16493163294968	0.271560907332736	7.01751844816752	0.0217028385501229	-0.0459080747840135	0.219908372039136	0.00153965707616009	-0.00773861336390431	-0.00650945034995198	0.57470703125	-0.37109375	0.222900390625	0	0	0	0.197692314707104	-0.334937738378457	0.433093434796006	0.813120247474056	0.400493576293044	0.571884848195835	0.715927800655928	-0.836743315327034	0.54669565088469	0.0313765766024553	-0.373450826218837	-0.611613918830983	0.697468920231343	2.57579096571397	-45.7192874758088	54.9962694403124
36919	1657017918207	7.18154518628588	0.2675066419682	6.98677991911353	0.043280003488631	-0.0205285562588218	0.210233869103133	0.00529698194892847	-0.00784391712600302	-0.00762425306127431	0.569580078125	-0.36767578125	0.21923828125	0	0	0	0.197730767344658	-0.334946430283536	0.433082116910128	0.813113345418861	0.400501537705917	0.571831268485117	0.71596614352768	-0.836748127202388	0.54668484731587	0.0314364332983381	-0.373431506328126	-0.611673669613076	0.697426864971218	2.58085353968289	-45.7224341778851	54.9932118302683
36920	1657017918208	7.19002331494007	0.24144165939912	7.05405765079409	0.0412426914766709	-0.0708138649406497	0.262417753845982	-0.00312490574865768	-0.00579216391624196	-0.00502850767574683	0.56494140625	-0.3662109375	0.223388671875	0	0	0	0.197699431766247	-0.335006337402602	0.433220582253969	0.813022518563249	0.400181362023253	0.571975052669946	0.71603031822153	-0.83689730284029	0.54646972358167	0.0312048987695859	-0.373440466457321	-0.611731460962884	0.697371377158794	2.56207411442499	-45.7277012285746	55.0215069018435
36921	1657017918209	7.1638278352329	0.282326771291464	6.99324953160416	0.0191436374383649	-0.0269548755987238	0.202530230153636	0.00471482715876167	-0.0114479979962748	-0.0108698792304499	0.560791015625	-0.365478515625	0.21630859375	0	0	0	0.197748339054148	-0.335028270497492	0.433191842503838	0.813016900166851	0.400201771111178	0.571882009885949	0.716093226590145	-0.8368871459942	0.546480843978911	0.0312824556865274	-0.373441357202385	-0.61180851083726	0.69730330473757	2.568683798892	-45.7328648294282	55.0157559317023
36922	1657017918211	7.169860255835	0.265465958327988	7.03770267295237	0.0172778094949862	-0.0593825112626366	0.237327676773704	0.000795244041543	-0.00862119178216555	-0.00794973865392504	0.572509765625	-0.36669921875	0.2236328125	0	0	0	0.197695240639794	-0.335077287591901	0.4332743662479	0.81296563686352	0.39999306978507	0.571987972179903	0.716125201208168	-0.836960712193545	0.546379830761709	0.0310780755723419	-0.373500080814436	-0.611799673274127	0.697279606336856	2.55201049215863	-45.7354895307341	55.0347796068756
36923	1657017918212	7.17046459953175	0.266187920844296	7.03705965766452	0.01709831467793	-0.0590169010682036	0.237330137385063	0.00350052304655914	-0.00915539235491466	-0.007972063404944	0.561767578125	-0.363525390625	0.21923828125	0	0	0	0.197728792972492	-0.335095661016565	0.433258306834142	0.81295846262692	0.399996275054167	0.571925892922204	0.716172990937197	-0.836958135254702	0.546381127977707	0.0311246336649778	-0.373502422714715	-0.611856548542996	0.697228444795025	2.55601588950613	-45.739412677469	55.0316433386698
36924	1657017918214	7.15303950587595	0.257701823992538	7.00846571885559	0.0270488467987549	-0.0560676407997677	0.20465264280808	0.00275561266439168	-0.0100367791855816	-0.00941143920132884	0.570556640625	-0.367919921875	0.21728515625	0	0	0	0.197725837985064	-0.335121246915286	0.433306912202901	0.812922728613388	0.399877739406263	0.571965816044199	0.716207301557469	-0.837014333535897	0.546299225660584	0.0310509500354771	-0.373503412277312	-0.611892360893271	0.697196485718097	2.55008957708634	-45.7422294693804	55.0414966104562
36925	1657017918215	7.17244910857582	0.244885088278169	7.00018209165179	0.0486318910741567	-0.0477861484398815	0.212376006300452	0.00350099185767233	-0.00915690652598388	-0.00797325395811362	0.568115234375	-0.364990234375	0.2177734375	0	0	0	0.197759124016943	-0.335139704223616	0.433291166377587	0.812915415440074	0.399880287584114	0.571904268383581	0.716255026793031	-0.83701200570582	0.546300188014403	0.0310967342296169	-0.373505900764586	-0.611949027599577	0.697145415041917	2.55403151301787	-45.7461477945353	55.0384296604914
36926	1657017918216	7.19127774508104	0.254954538521586	7.02728382466464	0.035201155589753	-0.0490121427052817	0.245073516858694	0.00156068524164453	-0.0127397868543466	-0.00759280572823722	0.5673828125	-0.373291015625	0.22607421875	0	0	0	0.197764315827217	-0.335255046632077	0.433347803848079	0.812836398048933	0.399627469215543	0.571878766114947	0.716416472950773	-0.837084705814205	0.546197912570879	0.030935991905223	-0.373613545177803	-0.612064144653205	0.696986658186234	2.54142478460335	-45.7594048454138	55.0542451601093
36927	1657017918217	7.15801855314582	0.25134316499028	7.028630351675	0.0242945337795702	-0.0720532184628779	0.222065522822559	0.00562457197113942	-0.0132973853050232	-0.011242605716087	0.57470703125	-0.367919921875	0.2216796875	0	0	0	0.197820369026347	-0.335283273255828	0.433318284731521	0.812826852650963	0.39964078158438	0.571773753461213	0.716492861477001	-0.837077196836531	0.546204731431224	0.0310186701591046	-0.373616129511188	-0.612156161624646	0.696904456546275	2.54850812174906	-45.7656785395858	55.0484084842202
36928	1657017918218	7.17396680351184	0.270312511009982	7.03333196638113	0.0116911483150206	-0.0543895894880651	0.237363989835412	0.000469709564755863	-0.00317683926571439	-0.00433928071023558	0.57421875	-0.36962890625	0.212158203125	0	0	0	0.197784455522098	-0.335266369945045	0.433519655942258	0.812735183346584	0.399314338191156	0.572052401244257	0.716452447511793	-0.837294306982061	0.545884034131066	0.030803648748541	-0.373478651077126	-0.612181894138884	0.696955540675399	2.53067965380097	-45.7623593032545	55.0834935905448
36929	1657017918219	7.19050400288911	0.266150285751293	7.00263809044574	0.0331804666120367	-0.02895997415005	0.227690331423174	0.00201138578935812	-0.0109224370370585	-0.0108533957539984	0.56982421875	-0.3603515625	0.21875	0	0	0	0.197819517602813	-0.335293198486539	0.433488679352373	0.812732104925966	0.399332071844004	0.57196525610304	0.716512136818183	-0.837275411223485	0.545910006657452	0.0308569342580212	-0.373502051075116	-0.612240157489072	0.696891819008113	2.53528312392578	-45.7672617107427	55.0782022702883
36930	1657017918220	7.19382593990671	0.258112042916121	7.02455990182647	0.0308513233494918	-0.0467641678952411	0.245098503499248	0.0049923874768647	-0.00739766669279113	-0.00509851276198234	0.565673828125	-0.3583984375	0.220947265625	0	0	0	0.1978563808372	-0.335410411782025	0.433519162978884	0.812658503653475	0.3991219819966	0.571879888242441	0.716697311918301	-0.837332248923667	0.545827975784185	0.030765658838609	-0.373599181476004	-0.612393022719194	0.696705416460435	2.52846887844649	-45.7824732713147	55.088339786858
36931	1657017918220	7.19163880838503	0.267615360613538	7.0014167990028	0.0305663238827003	-0.0292725179166139	0.227697723722372	0.00154192406729049	-0.00774651501231634	-0.0065145756023265	0.57080078125	-0.36376953125	0.22265625	0	0	0	0.197875324975813	-0.335430657175605	0.433507756073349	0.812651619955752	0.399114599301983	0.571834659881833	0.716737510098255	-0.837328461063727	0.545832762379932	0.0307838237609205	-0.373615557648057	-0.612430989802542	0.696663259984915	2.53011271334358	-45.7857759754892	55.0867104377983
36932	1657017918221	7.1761081890001	0.27298554874945	7.03104382788855	0.00925336409675036	-0.0537018673675589	0.237370228363183	0.00154206079299916	-0.00774700466872127	-0.00651493170030033	0.56689453125	-0.364990234375	0.21923828125	0	0	0	0.197884667837959	-0.335427564450797	0.433463248782082	0.81267436233497	0.399195921923779	0.571776994249162	0.716738226109657	-0.837280882949329	0.545902540379887	0.0308405488663545	-0.373635302088837	-0.612422636137969	0.696660014482534	2.53478064974817	-45.7858348051463	55.0785195833955
36933	1657017918222	7.15504812703893	0.296075990041304	7.01561152348792	-0.0127816051440825	-0.0441440645533314	0.212234963352778	3.07946670167636E-05	-0.00451286206785712	-0.00831218277452887	0.564208984375	-0.361572265625	0.228271484375	0	0	0	0.197893626368124	-0.3354359266958	0.433445100239345	0.812678409214314	0.399216168320469	0.57174168519253	0.716755116036662	-0.837264212984467	0.545926915442756	0.0308616371999211	-0.373651025165226	-0.612433872682075	0.696641703449206	2.53657821855488	-45.7872225505156	55.0754947931188
36934	1657017918223	7.16484830626121	0.223957811421518	7.01206242891463	0.0531654646134185	-0.0745199508331035	0.214567897609818	0.000327381627510326	-0.00545113116495448	-0.00361420109259624	0.56494140625	-0.361083984375	0.222412109375	0	0	0	0.197853940270653	-0.335396905044762	0.433484368856611	0.812683232485301	0.399200436086761	0.571851757793107	0.71667606276272	-0.837290154663859	0.545890240552725	0.030806528078637	-0.37360970106665	-0.612363790877795	0.696725468811544	2.5317505669191	-45.7807275082611	55.0817316435799
36935	1657017918224	7.17721577565926	0.274479449487981	7.02985503991098	0.00903632370965086	-0.0510856667160151	0.237384064832375	-0.000714351127933233	-0.00539550636700684	-0.00975165811308229	0.56982421875	-0.362060546875	0.21875	0	0	0	0.197864037372353	-0.335408567894634	0.433458674147523	0.812689665926579	0.399229340778284	0.571804183346033	0.716697920584198	-0.837265356997679	0.545926801041967	0.0308326105873887	-0.373634387380613	-0.612375623136699	0.696701830595165	2.53397715388159	-45.7825232781747	55.077547087089
36936	1657017918225	7.17756006586468	0.275371829797725	7.02946861920422	0.00887402065313635	-0.0504702283392137	0.237387318952937	0.00649335068996505	-0.00515077142778204	-0.00945478267015912	0.567626953125	-0.3642578125	0.220947265625	0	0	0	0.197883839392115	-0.335402360199924	0.43342504416768	0.812705342647629	0.39929597572113	0.57175228450964	0.716702203799401	-0.837235111619793	0.54596943439136	0.0308989414280028	-0.37363095648501	-0.612386072562387	0.696694485759512	2.5394481599327	-45.7828751804515	55.0706173120589
36937	1657017918226	7.18412150438234	0.235548865971308	7.03866421684411	0.0415471952234835	-0.0747696933456457	0.247261059693553	0.000798081355174029	-0.00863140843291776	-0.00795550534720474	0.56982421875	-0.368896484375	0.220703125	0	0	0	0.197904126135696	-0.335425620630129	0.433405929959491	0.812700996529049	0.399297905801684	0.571694633690696	0.716747115956284	-0.837223091028013	0.545986513468831	0.0309228549725016	-0.373655828633637	-0.612424667138262	0.696647219766719	2.54158313629857	-45.7865652269386	55.0677751465822
36938	1657017918229	7.16038735207243	0.267598422578593	7.00058712644987	0.0182986641024849	-0.0471501384140642	0.204718390774815	0.00513617583922649	-0.00512729439991707	-0.00582787420408387	0.568603515625	-0.363525390625	0.2275390625	0	0	0	0.197896761830842	-0.335437011771203	0.433506436809353	0.812644480714496	0.39910836075773	0.571809429599185	0.716761112641257	-0.837337023310126	0.545818081803452	0.0308112150123877	-0.373603032331667	-0.612467630000032	0.696637765581746	2.53245361673026	-45.7877152643457	55.0859442845018
36939	1657017918229	7.17885186899373	0.277766768403201	7.0280551104451	0.00704681054483104	-0.0483841776829668	0.237399025625411	0.00199156824408299	-0.00593097616235929	-0.00977679742349247	0.569091796875	-0.365234375	0.224365234375	0	0	0	0.197918794331229	-0.33544509449949	0.433484912420282	0.81264726058154	0.399134838560417	0.571758875828214	0.716786696695054	-0.837322430498871	0.545837963108906	0.030855557239899	-0.373607451787052	-0.612497106883598	0.696609478853402	2.53619631109091	-45.7898174390601	55.0817827235763
36940	1657017918230	7.19527343922536	0.273718383674113	6.99744541153995	0.0294541789456409	-0.021380405471948	0.227720955377418	0.00168569006397917	-0.00547786825853434	-0.00724350486908035	0.564208984375	-0.3623046875	0.222412109375	0	0	0	0.197910641370971	-0.335370764026287	0.433538097997447	0.812651552790808	0.399142336442361	0.571883931052168	0.716682750360055	-0.837377703074228	0.545752191233773	0.0308727737280741	-0.373475538226352	-0.612456786367703	0.696715657337111	2.53722336156497	-45.7812769340979	55.0871585745903
36941	1657017918231	7.16420161174771	0.261007787600579	7.02197533615639	0.0186333259769337	-0.0615426840845147	0.222147596648586	0.00273693755730502	-0.00504943687635071	-0.00833852389438924	0.565673828125	-0.364990234375	0.21923828125	0	0	0	0.197931314570208	-0.335374437008639	0.433524914339811	0.81265203522806	0.399160271295597	0.571847601539909	0.716701749985501	-0.837372014301362	0.545758686718338	0.0309122230898254	-0.373469125208638	-0.612484919393555	0.696694363427296	2.54053873695838	-45.7828378957045	55.0842419869939
36942	1657017918232	7.17713522785735	0.288740323661127	7.00434969908056	0.00669270736085737	-0.0275008468830604	0.219996956679655	0.000776425093116369	-0.00363463558912619	-0.00687542907626538	0.565185546875	-0.36376953125	0.21923828125	0	0	0	0.197889601881573	-0.335375228280497	0.433554123215255	0.812646284656497	0.399108556997712	0.571917754046025	0.716674572130304	-0.837386835667502	0.545741055420408	0.030821873391894	-0.373491160781578	-0.612435125572961	0.696726323445913	2.53300693447089	-45.7806050446935	55.0910246285403
36943	1657017918233	7.19628111658287	0.275495418613847	6.99633934748691	0.0282226343963207	-0.019153098302581	0.227728988520049	-0.00221216510470723	-0.00764841901873131	-0.00539900062060407	0.560302734375	-0.36376953125	0.221923828125	0	0	0	0.197890625114495	-0.335403062865555	0.433542344027608	0.812640832008364	0.399091642710904	0.571882178771341	0.71671237907689	-0.837374665874465	0.545760672853684	0.0308051443418537	-0.373536517183983	-0.612450864616941	0.696688171824398	2.53177235030131	-45.7837111742771	55.0904915708811
36944	1657017918234	7.18116403955859	0.257573614769194	6.99078557771732	0.0383268141049912	-0.0328904708366156	0.21248063596893	0.00135693821184551	-2.51405073774705E-05	-0.00362884140015443	0.569580078125	-0.36181640625	0.223876953125	0	0	0	0.197820923764108	-0.335391656105641	0.433597865981019	0.812632887442132	0.399010655262844	0.57201679717462	0.716650040631274	-0.837406746108988	0.545719545475643	0.0306613642393034	-0.373551119069229	-0.612361789660286	0.696758638271661	2.51971628269193	-45.7785896871426	55.1022766592418
36945	1657017918235	7.16541302355437	0.26284965471269	7.02067045959915	0.0164142760045252	-0.0575399493012789	0.22217522180725	0.000799858561479766	-0.00863544566837002	-0.00795788324275691	0.568603515625	-0.36328125	0.224609375	0	0	0	0.197840263787817	-0.335414389104312	0.433580248354453	0.812628196559188	0.399010711637343	0.571962128130675	0.716693641650943	-0.837396013005182	0.545734796522515	0.0306830452783657	-0.373575118820414	-0.612399261796386	0.696712835212295	2.52166126055387	-45.7821717299139	55.0997032246695
36946	1657017918236	7.1756952913563	0.299332427887862	6.98036343396733	0.00591876899752788	-0.00664822286356101	0.202580843677909	-0.000878361098482266	-0.00267460908938525	-0.00794662777460174	0.568115234375	-0.36279296875	0.226806640625	0	0	0	0.197831040888338	-0.33535943710599	0.433575478481132	0.812655666112559	0.399092704807621	0.572006125521502	0.716612869920166	-0.837384151579123	0.545750367441787	0.0307297758089211	-0.373514117073839	-0.612344289434493	0.69679385440998	2.52520353249595	-45.7755361082201	55.0962469758632
36947	1657017918236	7.19749072654961	0.277453011591471	6.9950175830935	0.0275127170331964	-0.0153801862020447	0.227737447256377	0.000941458404871363	-0.00636333065863131	-0.00868473347667936	0.567138671875	-0.360107421875	0.227294921875	0	0	0	0.197847336630807	-0.335371462421062	0.433557472521347	0.812656342867362	0.39910780042892	0.571961758840058	0.716639874735824	-0.837371161328001	0.545768698817995	0.0307581788587523	-0.373527109876892	-0.612369393271006	0.696764827163309	2.52763967367577	-45.7777545408499	55.0931443951383
36948	1657017918237	7.16911564357637	0.255765069206962	7.04220675242438	0.0186973202731746	-0.0712425951386508	0.239620119548491	-0.000878293509348	-0.00267541551012691	-0.00794711901515053	0.5693359375	-0.365234375	0.220947265625	0	0	0	0.197830937139549	-0.335265459704683	0.433543055276024	0.812711763826159	0.399274981501876	0.57203932212812	0.71648482404436	-0.837342842463717	0.545806679064836	0.0308550362663518	-0.373411908381963	-0.612263083181908	0.696919983678991	2.53502506502133	-45.7650184020786	55.085529301258
36949	1657017918238	7.17990802437682	0.269234602838719	6.96657005880904	0.0400476691791529	-0.0115804951708856	0.19505598636488	3.18264521744788E-05	-0.00451996374987142	-0.00831640379946469	0.569091796875	-0.363525390625	0.21728515625	0	0	0	0.197839046039738	-0.335271442651163	0.433527080943658	0.812715843141479	0.399294659662158	0.572009089470632	0.716497994643571	-0.837328218984524	0.545827963901115	0.0308753545043284	-0.373423658138429	-0.612272353929639	0.696905543209388	2.53674470905611	-45.7661001454381	55.0827827416535
36950	1657017918238	7.16699266700237	0.265727662597352	7.01894951758985	0.0171146320163762	-0.0532853700320329	0.222197545602501	0.00229123925153183	-0.0068707401853034	-0.0050810877531811	0.562744140625	-0.363037109375	0.224365234375	0	0	0	0.197840678775736	-0.335324530068517	0.433561469927829	0.812675197818849	0.399163822656698	0.572007641402637	0.716572048616944	-0.837370971958278	0.545767035231153	0.0307928332026447	-0.373467666610834	-0.612328017840103	0.696833050711768	2.53023636650397	-45.7721828252975	55.0915272569472
36951	1657017918239	7.16726086035037	0.266472523130699	7.0186474181996	0.0169076988110967	-0.0528695247706471	0.222200095923403	0.00227411701843884	-0.00138990142120631	-0.0112333610444597	0.563720703125	-0.3583984375	0.21630859375	0	0	0	0.197855894437391	-0.335310396997686	0.433540471368033	0.812688527289279	0.399219194702475	0.571980457368506	0.716562900916327	-0.837353011417042	0.545791409444726	0.0308491757936944	-0.373448749967005	-0.612331686069611	0.696839965403268	2.53483486386025	-45.7714314112801	55.086519452464
