// Start Time : 31/05/2022 11:44:16																																
// Update Rate : 100Hz																																
// Filter Profile : 46.1 human																																
// Firmware Version : 4.4.0																																
PacketCounter	Time_Of_Arrival	Acc_X	Acc_Y	Acc_Z	FreeAcc_X	FreeAcc_Y	FreeAcc_Z	Gyr_X	Gyr_Y	Gyr_Z	Mag_X	Mag_Y	Mag_Z	VelInc_X	VelInc_Y	VelInc_Z	OriInc_q0	OriInc_q1	OriInc_q2	OriInc_q3	Mat[1][1]	Mat[2][1]	Mat[3][1]	Mat[1][2]	Mat[2][2]	Mat[3][2]	Mat[1][3]	Mat[2][3]	Mat[3][3]	Euler_X	Euler_Y	Euler_Z
13270	1653997494331	5.67517126013549	4.00112551971666	7.26198380620744	4.33680868994202E-16	6.50521303491303E-16	0.23484879890154	0.00250593547874192	0.00515377215032663	-0.014011849182319	0.485107421875	-0.13720703125	0.491455078125	0	0	0	0.349607847176265	-0.128053950772054	0.528404955713786	0.762997209471672	0.408780776937561	0.716805681257575	0.564878652210532	-0.895880345464908	0.197125111939779	0.398170939236413	0.174059423806933	-0.668828307983142	0.722753077768892	28.8507501120405	-34.39386512745	60.3047023331678
13271	1653997494331	5.67056091033494	4.04220130291121	7.2747136510266	5.8113236445223E-15	-1.56125112837913E-15	0.257869275770012	-0.000485657292160103	0.00576438578810699	-0.0128167037487857	0.48779296875	-0.140625	0.500732421875	0	0	0	0.351124237858906	-0.124631879069281	0.532004023658945	0.760362007939873	0.402877227060706	0.721508748220565	0.563129706335112	-0.896553842425063	0.18736697679739	0.401353738787446	0.184068323045362	-0.666572383351576	0.722357328615325	29.0572776780447	-34.272515323512	60.8218116402767
13272	1653997494332	5.65223069689078	4.02988156258229	7.26405656783552	-0.0171883635688283	-0.0108682775841704	0.234887541339621	0.00202308682797759	0.00275132701379296	-0.0110379372352479	0.48193359375	-0.140380859375	0.490966796875	0	0	0	0.350380488366759	-0.12631902334044	0.530224000107511	0.761668909319647	0.405812028104617	0.719190829537906	0.563986833670965	-0.896229713890048	0.192192046163724	0.399793093151905	0.179133742734821	-0.667702604532874	0.722554035428379	28.9559949267744	-34.3319647754632	60.5656159006583
13273	1653997494333	5.66277617418961	4.04130927626987	7.23326469496026	-0.0276449569219157	0.0198749910083529	0.223157068748799	0.00398141824712261	0.00451967255397282	-0.0108757752348309	0.48388671875	-0.142333984375	0.49560546875	0	0	0	0.350390537194505	-0.12627220211136	0.530193013053528	0.761693620380083	0.405901399766341	0.719200101764868	0.563910690880332	-0.896178440686998	0.192243680707537	0.399883195040557	0.179187767762063	-0.667677752249861	0.722563604836991	28.9611432409878	-34.3266818875022	60.5605318756993
13274	1653997494334	5.6682762660306	4.04463459800242	7.27514166491781	-0.0199069187464993	-0.00297761655836662	0.257849160098472	0.00119486654044013	0.00386368219137505	-0.0128752908932668	0.476806640625	-0.138427734375	0.498779296875	0	0	0	0.350389913198106	-0.126233954838794	0.530153769197011	0.761727561783728	0.40600393930392	0.719203267004548	0.563832831608522	-0.896127684919023	0.192327779470453	0.399956494591146	0.179209301073834	-0.667650122424874	0.722583794749563	28.9649142425174	-34.3212802517172	60.5544447028709
13275	1653997494335	5.72105829838822	4.00168415645827	7.24135931380409	0.0350235701942748	0.0499668812533353	0.246017592139211	0.00147333280992155	0.00753100256040197	-0.01265460072133	0.490478515625	-0.134033203125	0.498779296875	0	0	0	0.350383547878098	-0.126179195949718	0.530119694819235	0.7617632762549	0.406103839348486	0.719229202374961	0.563727794345369	-0.896073659756033	0.192408957082234	0.40003848505607	0.179253083537905	-0.667598792453674	0.722620359771678	28.9686620448803	-34.3139936416614	60.5492943890434
13276	1653997494336	5.66992135641347	4.00604796070346	7.26337074962643	0.0154193214782712	0.000246267709187296	0.234836964345343	0.00129015283414798	0.00912398705661185	-0.0131934883000142	0.4873046875	-0.13720703125	0.490966796875	0	0	0	0.35037297581981	-0.126118304098781	0.530086209155549	0.761801524053029	0.406205568468694	0.719264073003504	0.563609997632614	-0.896017855053255	0.192494777356541	0.400122186483353	0.179301532538873	-0.667536481382752	0.722665902372836	28.9722113907204	-34.3058226396145	60.5443392727503
13277	1653997494338	5.68484591354226	3.99874490250694	7.2476291434189	0.0265378080303806	0.0211682042540924	0.228946439642485	0.00456108662916409	0.0121806263727807	-0.0141673275666296	0.4873046875	-0.144287109375	0.49609375	0	0	0	0.350366997298649	-0.126034999321331	0.530056458242754	0.761838760647651	0.406310660042439	0.719318101908382	0.563465274708921	-0.89595211897539	0.192566236558152	0.400234987277898	0.17939188398416	-0.667457648697468	0.722716292300002	28.9773627114823	-34.2957849816885	60.5398355624397
13278	1653997494339	5.71977765148027	4.04737646996978	7.29693461496762	0.00749375418034673	0.023821497102867	0.303722255758508	0.00410056892073883	0.010105548360796	-0.0149268149110479	0.486328125	-0.142822265625	0.49462890625	0	0	0	0.350365473093162	-0.125960784675756	0.530020109734345	0.761877023715288	0.406425128002121	0.719355667599092	0.563334748459141	-0.89588490725552	0.192645437082795	0.400347309873497	0.179468237524713	-0.66739430553777	0.722755831976145	28.9828483738401	-34.2867330018414	60.5342052440785
13279	1653997494340	5.68314076841306	4.02211107894793	7.27595030153911	0.0127640204210733	0.00809121987800404	0.257798749086282	-0.00132991703259658	0.0186597666017208	-0.0120973374588692	0.4814453125	-0.146728515625	0.493408203125	0	0	0	0.35031857344535	-0.125872033637264	0.530005874133417	0.761923159925794	0.406500009064184	0.719456878276988	0.56315143871853	-0.895838123318874	0.192741340966575	0.400405834486617	0.179532168257768	-0.667257503354094	0.722866256494469	28.982688161055	-34.274022139144	60.5331368345608
13280	1653997494341	5.64265984409756	4.03672248392542	7.26769817573241	-0.0173262114447942	-0.0109134288697571	0.234887255637172	-0.00310276789598651	0.0152962132636612	-0.0117208715605429	0.48779296875	-0.148193359375	0.49609375	0	0	0	0.350274226835936	-0.12580368488375	0.529986372283936	0.761968400970454	0.406575756125966	0.71953416033911	0.5629979987848	-0.895797314162179	0.1928448224156	0.400447307903701	0.179564268356553	-0.667144262189661	0.722962797768314	28.9819602923529	-34.2633839531399	60.5312004065017
13281	1653997494341	5.66218891716248	4.01015309359239	7.26713644839083	0.0153673071055621	0.000187209869853068	0.234837045307939	-0.000476136815587025	0.0178717930858113	-0.0139924746147729	0.481201171875	-0.150634765625	0.491455078125	0	0	0	0.350233853057763	-0.125712351103965	0.52996406040495	0.762017550737071	0.406668998918023	0.719626388368723	0.56281274548681	-0.895741272785091	0.192948685702822	0.400522629716348	0.179632673944242	-0.667014741852788	0.723065305904453	28.9830846538646	-34.2505418987044	60.5287183386037
13282	1653997494342	5.64397850407938	4.01922606191219	7.28443032512241	0.00421912000381922	-0.0207646096259625	0.24072734036565	-0.00194737778504285	0.0185012989766288	-0.0171288826946135	0.48291015625	-0.1455078125	0.49365234375	0	0	0	0.350188521451639	-0.125618934065354	0.529930299470538	0.762077266785242	0.4067875222147	0.71971505084103	0.562613683946025	-0.89567628598774	0.193083754293161	0.400602863878014	0.179688348230023	-0.666879981271706	0.723175765695598	28.9842394416145	-34.2367448188709	60.5245901298595
13283	1653997494344	5.64203002808115	4.01987323115957	7.28558253927516	0.00421911912373103	-0.020764609998445	0.240727340365249	-0.00346776406306127	0.0184784691490681	-0.0127989522907439	0.484619140625	-0.13916015625	0.492431640625	0	0	0	0.350134383108025	-0.125535301324782	0.529911703760397	0.762128852691336	0.406868948678098	0.71981354705398	0.562428765337573	-0.89563044820451	0.193198999966631	0.400649780557635	0.179732464653904	-0.666740282185996	0.723293603773718	28.9831265615024	-34.2239300199887	60.5230364018959
13284	1653997494345	5.63530484599295	4.03921952929356	7.27201624002376	-0.0173925197321925	-0.0109344806419783	0.234887118187247	-0.00374340906467154	0.0148104537784503	-0.0130197482504807	0.480224609375	-0.14111328125	0.49755859375	0	0	0	0.350087748022913	-0.125467147191371	0.529886359215787	0.762179119352494	0.406956882585395	0.719887615225802	0.562270323919808	-0.895585659270148	0.193318030002568	0.400692483315549	0.179756564903851	-0.666625802621257	0.723393127319809	28.9823734595201	-34.2129516324096	60.5202577682452
13285	1653997494346	5.62619008562549	3.98890873286973	7.29136873556555	0.0283927647741104	-0.0384421714518576	0.223605854973909	-0.00224572490913159	0.0145051285653571	-0.013615987139965	0.480224609375	-0.14208984375	0.493408203125	0	0	0	0.350049299499671	-0.125393985002866	0.529858448972173	0.762228220743429	0.407052745155808	0.719957972388414	0.562110825954709	-0.895534278835316	0.193431023945185	0.400752784652119	0.179795489632057	-0.666517034268353	0.723483672889781	28.9829884064433	-34.2019014812071	60.5168751908721
13286	1653997494347	5.60336636936225	4.01674922120484	7.29374176158488	-0.00434795032176134	-0.0494824552224899	0.223656103703169	-0.00185158717001625	0.0116445975481836	-0.0162711460325321	0.48046875	-0.144775390625	0.495849609375	0	0	0	0.350018054663023	-0.125326231582862	0.52981685370952	0.762282623842691	0.407174874405168	0.720007475249782	0.561958946220781	-0.895473250357306	0.193562925870516	0.400825462792682	0.179822911631578	-0.666425261610693	0.723561394174304	28.9847835710116	-34.1913804735207	60.5111987135528
13287	1653997494348	5.61823099433333	4.00929622892694	7.27817811807159	0.0067706330421113	-0.0285605055564134	0.217765803219425	0.00111693365855844	0.0107097643553851	-0.0137302004780919	0.47998046875	-0.148681640625	0.494873046875	0	0	0	0.350002543070743	-0.125258423770285	0.52978396324108	0.762323749735747	0.407278559134316	0.720052261094346	0.561826411414056	-0.895415328536876	0.193654344273173	0.400910693752769	0.179876526235845	-0.666350310450178	0.723617094237192	28.9880779044914	-34.1822005992587	60.506474718141
13288	1653997494349	5.60066567565698	4.0185734625832	7.29481111073332	-0.00439677309050993	-0.0493323754864461	0.223656821253421	0.00300877407333348	0.00754538657246564	-0.0169813980657334	0.475341796875	-0.1357421875	0.498779296875	0	0	0	0.349997668682705	-0.125189870607113	0.529736107941292	0.76237050320514	0.407414304481173	0.720078040643911	0.561694934894866	-0.895342692064627	0.193762575719767	0.401020607970348	0.179930676291143	-0.666290987206691	0.723658256428091	28.9933546706177	-34.1730950129343	60.4991711715872
13289	1653997494350	5.6156612859123	4.01140590035961	7.27899879953016	0.00672182854976828	-0.0284105111324359	0.217766262013617	0.00197170035909797	0.00992257106498328	-0.0156252366857139	0.483154296875	-0.140625	0.49560546875	0	0	0	0.349988681443229	-0.125119480554708	0.529695143403	0.762414646699961	0.407536341281991	0.720113867188158	0.561560458737798	-0.895275475276974	0.193861955833811	0.401122631433179	0.179988760488195	-0.66622335621292	0.7237060768947	28.9979288907031	-34.1637826987888	60.493037985402
13290	1653997494351	5.59934190943871	4.04211067213873	7.32264369072897	-0.0182000344367397	-0.0621430594227378	0.252510396193101	0.00319428943023933	0.00595142600155736	-0.0164421601069901	0.480712890625	-0.14990234375	0.50048828125	0	0	0	0.349984784590089	-0.125054955135548	0.529647245857364	0.762460296479223	0.40767010630351	0.720135329141543	0.561435830837938	-0.895204655281695	0.193968891022276	0.401228980106835	0.180038078162556	-0.666169030380271	0.72374381750295	29.003102395768	-34.1551532817837	60.4857095325845
13291	1653997494352	5.58589299283256	4.01142993501118	7.32642462798804	0.00601058396103443	-0.0798301750430435	0.235390029602939	0.00591452870838978	0.00167657887358144	-0.0178548471131686	0.481689453125	-0.138916015625	0.494873046875	0	0	0	0.350014056254648	-0.125001653071655	0.529585806843335	0.762498275633208	0.407826919838894	0.720111857775436	0.561352042613127	-0.895121200296021	0.194058067228523	0.401372026085701	0.180097862939378	-0.666168431280514	0.723729494307044	29.0122447577961	-34.1493521589372	60.4754611389469
13292	1653997494353	5.6301736403118	4.02832955452201	7.29008245139384	0.00400281976683375	-0.0198675789896954	0.240729241546642	0.00545642877692737	-0.000398502349944205	-0.018614774259977	0.485107421875	-0.139404296875	0.491943359375	0	0	0	0.35003025222415	-0.12494607403356	0.52952085293208	0.762545059272945	0.407992289787365	0.720097208753939	0.561250658279213	-0.895036831987477	0.19417297767596	0.401504575473646	0.18014261255984	-0.666150782244709	0.723734602222995	29.0200978631126	-34.1423332926518	60.4649998548898
13293	1653997494354	5.65070468853456	4.00284675948241	7.28823372564907	0.0366962387336963	-0.00876692746503488	0.240678873981553	0.011051022924196	0.00124593792869738	-0.0183431378673853	0.478515625	-0.14013671875	0.499267578125	0	0	0	0.350080542219634	-0.124879964254745	0.529459998990818	0.762575057260322	0.408154207992754	0.720069886897606	0.561167978845084	-0.894942069292285	0.194231446855701	0.401687487561143	0.180246595276166	-0.666163270554306	0.723697216973881	29.0324252942165	-34.1366098035127	60.4543155945349
13294	1653997494355	5.66337227383453	4.05826612041367	7.31117988972749	-0.00135301859872745	-0.00367840297502914	0.286651471475393	0.0151759772462974	0.00351805061707205	-0.0212088025013387	0.474609375	-0.14111328125	0.49755859375	0	0	0	0.350122927252375	-0.124780574217372	0.529398859613585	0.762614313758958	0.408333311475637	0.720077216239541	0.561028260778416	-0.894831375876415	0.194301566504127	0.401900124410485	0.180390452869495	-0.666134899180906	0.723687488220421	29.0456203634335	-34.1269386922401	60.4437811614563
13295	1653997494356	5.64368074996287	4.02573678892938	7.27291510298701	0.0150377272555598	0.00150652394155406	0.234837432782475	0.00723075496426298	0.00296008000428197	-0.0189896744894744	0.480224609375	-0.1337890625	0.494140625	0	0	0	0.350154516619559	-0.124716904204948	0.529336134252964	0.762653765001251	0.408497901559322	0.720060016866119	0.560930509539634	-0.894740766090805	0.1943901429301	0.402058992968511	0.180467243334817	-0.66612764875989	0.723675016592912	29.0556517788203	-34.1201731304911	60.4332851349963
13296	1653997494357	5.64764725546928	4.00890821139775	7.28727193201367	0.0365154478595205	-0.00787316104520546	0.240680271938942	0.0160336045079211	0.00272958942732794	-0.0231031167571111	0.485107421875	-0.14599609375	0.496337890625	0	0	0	0.350203538064574	-0.124615718177909	0.529267110178824	0.762695699996411	0.408694497731922	0.720057767357109	0.560790173944185	-0.894621228974555	0.194467616020024	0.402287463124999	0.180614684319162	-0.666107467296521	0.723656809420118	29.0700843565585	-34.1104611651817	60.4213751907178
13297	1653997494358	5.63643306013468	4.0488539358756	7.25761437160482	-0.00663352972167337	0.0117676117283063	0.22899473185325	0.0132840371896874	0.00667875359821615	-0.0179586281637715	0.486572265625	-0.14111328125	0.496826171875	0	0	0	0.350247718943473	-0.124523623887859	0.529218588234221	0.762724123347431	0.408843105922426	0.720067337097627	0.560669550434868	-0.894523797982818	0.194508442484544	0.402484335899712	0.180760862971217	-0.66608520164268	0.723640804937458	29.0825288589925	-34.1021142714859	60.412759255429
13298	1653997494359	5.61149157925267	4.00811737467292	7.29216176673304	0.027858401163017	-0.0362637159811206	0.223615460210071	0.00900451229787478	0.00631839943329386	-0.0193652811621212	0.477783203125	-0.13671875	0.500244140625	0	0	0	0.350257637397507	-0.12443786975271	0.529167157474967	0.762769246539205	0.408994672042541	0.720094239476221	0.560524437035511	-0.894435496525674	0.194603413789159	0.402634640706034	0.180854916426637	-0.666028375983162	0.723669608032247	29.090648156743	-34.0920738197097	60.4045593224285
13299	1653997494360	5.65135932382914	4.06559076135078	7.26846666855321	-0.00944573099688527	0.0200366269582414	0.251954065451621	0.00946276577744077	0.00839206826299835	-0.0186059083488132	0.480224609375	-0.13818359375	0.503173828125	0	0	0	0.350283098965832	-0.124348281948035	0.529116770478056	0.762807117529941	0.409145895950889	0.720113873946564	0.560388833200855	-0.894342280153904	0.194674387555531	0.402807359365485	0.18097381511053	-0.665986404800842	0.723678510710929	29.1007898839708	-34.0826924146459	60.3961335445194
13300	1653997494361	5.60990720657161	4.03298359272846	7.31942618286356	0.0139554570005992	-0.0488485144107076	0.252472040348884	0.00927876803487353	0.00998241951143536	-0.0191455578511502	0.470703125	-0.143798828125	0.4990234375	0	0	0	0.350282563361301	-0.124244973439431	0.529073258486495	0.762854376361933	0.409289347459035	0.720170005742741	0.560211917835615	-0.894253396867223	0.194767225919037	0.402959786950553	0.181088630918647	-0.665898558743224	0.723730624760143	29.1082490579646	-34.0704545390554	60.3894244346792
13301	1653997494362	5.61471474539696	4.06412611299497	7.27406575720612	-0.0180740223971729	-0.00828771216292981	0.234888447172137	0.00732473598360149	0.00820944921704133	-0.0193092215737183	0.4697265625	-0.130859375	0.499755859375	0	0	0	0.350300770931704	-0.124160403402627	0.529018546577743	0.762897726755247	0.40944714320734	0.720187123128787	0.560074588424463	-0.894161063253313	0.194857494522854	0.403121011347687	0.181187830388948	-0.665853635949943	0.723747128223103	29.1174359598079	-34.060956185661	60.3805213235251
13302	1653997494363	5.63476624645374	4.03856136073215	7.27271714583856	0.0144911955598888	0.00335551665796539	0.234837788522554	0.00665431654885576	0.00740377655965143	-0.0168750005211445	0.474853515625	-0.137451171875	0.497802734375	0	0	0	0.35029311830955	-0.124075105354518	0.528977681245179	0.762943452846089	0.409575961951479	0.720234806096988	0.559919061541894	-0.894085428333869	0.194954688018893	0.403241759321253	0.18126990437622	-0.665773605443991	0.723800198992475	29.1229448952677	-34.0502004941264	60.3744069717323
13303	1653997494364	5.6109615893172	4.01888070071494	7.33454350117604	0.035404071229642	-0.0581198796436559	0.258319970643676	0.00687015957800992	0.00613212757128988	-0.020068016135453	0.478515625	-0.146484375	0.4931640625	0	0	0	0.350315474986201	-0.123998184679689	0.528916221158463	0.762988302123163	0.409744162383187	0.720236813167206	0.559793403276287	-0.893990745021173	0.195053397961289	0.403403916391801	0.181356745695847	-0.665742521476961	0.723807036362669	29.1325096620387	-34.0415114074411	60.364365724101
13304	1653997494365	5.60347743728339	4.01811116752507	7.29282450163596	0.0273026059942831	-0.0347425861484317	0.223622368529821	0.00968284537595168	0.00711599305997625	-0.0217981491993713	0.482177734375	-0.146240234375	0.503173828125	0	0	0	0.350320173404832	-0.123904728880417	0.528859487964937	0.763040651771675	0.409910520301069	0.720269924570667	0.559628985226347	-0.893895228998933	0.195166836190145	0.403560683942916	0.181451604896323	-0.665673449831442	0.723846788533357	29.1406388676972	-34.0301434821537	60.3555009166258
13305	1653997494366	5.63204853113462	4.06518728938362	7.29985028600653	0.000451990780871939	-0.0091727759903609	0.263693327544598	0.0100549951120813	0.00393228004353346	-0.0207178198819007	0.4833984375	-0.1435546875	0.496826171875	0	0	0	0.350360830022842	-0.123826720454131	0.528793691726945	0.76308024720672	0.410088349782727	0.720255976894071	0.559516642398461	-0.893792107123333	0.195249040750989	0.403749280284003	0.181557744578719	-0.665664434857523	0.72382846417456	29.1526430719071	-34.0223769329587	60.3443398120116
13306	1653997494366	5.62968625020809	4.0456913098515	7.2726884928272	0.0138237610572071	0.00446065251461427	0.234838299118435	0.0103262017198172	0.00759734170742993	-0.0204991044381678	0.484130859375	-0.138427734375	0.4921875	0	0	0	0.350360614712948	-0.123733040649556	0.528747308677762	0.763127681240567	0.410232836435278	0.72030104690234	0.559352680999796	-0.893705783631463	0.195347446447979	0.403892742531885	0.181656247384833	-0.665586791483761	0.723875148619162	29.1597311673521	-34.0110431342806	60.337202392669
13307	1653997494367	5.62837098033919	4.04773027427428	7.27257197731585	0.0138199356444923	0.00446402912436185	0.234838302881224	0.0135107395175223	0.00539920433657857	-0.0211485343193735	0.47412109375	-0.142578125	0.495361328125	0	0	0	0.350410759099885	-0.123639687838934	0.528684600602546	0.763163233249519	0.410411641353634	0.720295944589112	0.55922807230136	-0.893594652071167	0.195409785985537	0.404108417792673	0.181799016584872	-0.665574013727674	0.723851054996266	29.1735594091983	-34.0024305947778	60.3262895477713
13308	1653997494368	5.57306679227785	4.09321413332674	7.30626462225839	-0.0414234972783252	-0.0480543004965411	0.246684021962897	0.00901517334192154	0.00630620773844786	-0.0193638577222162	0.483642578125	-0.13623046875	0.503662109375	0	0	0	0.350415984139189	-0.123559640868571	0.528633327679723	0.7632093147194	0.410559640029384	0.720321213202865	0.559086873203883	-0.893510305822245	0.195510885852051	0.404245998004661	0.181879397866776	-0.665516974481717	0.723883306416387	29.1807744515366	-33.9926724373015	60.3182677797437
13309	1653997494369	5.64844114129048	4.04561994154237	7.29805483477554	0.0324380404299549	0.00294383487639445	0.263644870122548	0.00684492263373491	0.0058046454972843	-0.0163348359545602	0.484619140625	-0.1416015625	0.504638671875	0	0	0	0.35043665252734	-0.12349092505331	0.528585532929142	0.763244049025556	0.410694651614986	0.720328032031966	0.558978916779336	-0.893431017604712	0.195582973886896	0.404386346341424	0.181964062156937	-0.66548841206629	0.723888287989821	29.1890737650504	-33.9852124104685	60.3103959966335
13310	1653997494370	5.60107770946189	4.01025760613313	7.30719054586054	0.0479157510314997	-0.0428801437164005	0.229480541236416	0.008190211490842	0.0074098348377176	-0.0212030147477241	0.47314453125	-0.14306640625	0.500244140625	0	0	0	0.350429892822614	-0.123394734792828	0.528533947639575	0.763298431699074	0.410851211235869	0.720375859289366	0.558802204343476	-0.893340674042667	0.195701512817716	0.404528562627969	0.182054174154322	-0.665401787819935	0.723945259283478	29.1957320653049	-33.9730026046152	60.3026360442456
13311	1653997494371	5.57344935884934	4.05751502271507	7.29409979481584	-0.00635520904430147	-0.0441613654352068	0.223679857503798	0.00253497250258576	0.00512009859965242	-0.0140101318479295	0.474609375	-0.141845703125	0.49951171875	0	0	0	0.350434522157684	-0.123344020112267	0.528491129951518	0.763334149599786	0.410966756530225	0.720382649007044	0.558708478579501	-0.893278660003244	0.195785542485367	0.404624834799497	0.182097667777038	-0.665369717047075	0.723963796765321	29.2009133033899	-33.9665274086838	60.2959345407284
13312	1653997494371	5.59396276726762	4.03173419666886	7.29261034748538	0.0259362409585092	-0.0322855658181143	0.223634197234674	0.00743745210836305	0.0013483685621939	-0.018445744248114	0.471923828125	-0.137451171875	0.4921875	0	0	0	0.350430927789264	-0.123280386856955	0.528442592702239	0.763379680947359	0.41110074486907	0.720402154943056	0.558584740859878	-0.893207196321065	0.195893182133783	0.404730485179661	0.182145771316161	-0.665316914219759	0.724000222130311	29.2060562796906	-33.9579795432155	60.2885629012502
13313	1653997494372	5.60519436166177	4.06507588364252	7.2889334370355	0.00171496471929929	-0.0145830228150872	0.240738946581068	0.000695758656928687	0.00891925726382144	-0.0182299211688557	0.4833984375	-0.1416015625	0.504150390625	0	0	0	0.350420874929081	-0.123212571657106	0.528389374741766	0.7634320803186	0.411246661691296	0.720426284830011	0.558446193803657	-0.893131313479392	0.196019758147886	0.404836647671898	0.182188474197302	-0.665253502464791	0.72404774519916	29.2108550151899	-33.9484096601448	60.2806355460281
13314	1653997494375	5.62044428239304	4.05794141186465	7.27301179865293	0.0125038700899911	0.00702086764908343	0.234838565574124	0.00422213398940825	0.00322527905524769	-0.0140638820662645	0.481689453125	-0.142578125	0.49560546875	0	0	0	0.350402357200585	-0.123159051034844	0.528353842551648	0.763473806543079	0.411348130418211	0.720458195162745	0.558330282739779	-0.893079082335531	0.196120810258365	0.404902927228648	0.182215444724556	-0.665189158665745	0.724100072432941	29.2130866934328	-33.9404041432485	60.2756421467171
13315	1653997494376	5.6132743344464	4.02965549505001	7.31867766646197	0.0445241814352437	-0.0335245183345374	0.252445942172887	0.00256912898435748	0.00543428448885611	-0.0177430454733043	0.478271484375	-0.13330078125	0.501953125	0	0	0	0.350408325849473	-0.12310044239811	0.528297545661843	0.763519475523992	0.411495968658126	0.720460090104582	0.558218887484657	-0.893001769832787	0.196231416846086	0.405019839166043	0.182260546618351	-0.665154485521277	0.724120572513518	29.2194424318854	-33.9327112246291	60.2668411501688
13316	1653997494376	5.62351907423219	4.04142403773681	7.28797100026386	0.0337272726377753	-0.00213768165227999	0.240692868008505	0.00339652028239477	0.00432886729069359	-0.0159033323478329	0.48095703125	-0.142333984375	0.496826171875	0	0	0	0.35038582839416	-0.123043315123177	0.528255695662922	0.763567962832202	0.411612525206362	0.720492982988094	0.558090485995023	-0.892943518579286	0.196351382520441	0.405090122330273	0.182282752120122	-0.665083450438537	0.724180227728073	29.2216671361509	-33.9238447232881	60.2609790218694
13317	1653997494377	5.61741539362684	4.06146451841714	7.27338527829979	0.0121482604962707	0.00768450165302709	0.234838516186395	0.00471006034094161	0.00561626741669873	-0.0170383911866043	0.477294921875	-0.14013671875	0.49365234375	0	0	0	0.350399118367206	-0.122979585773806	0.528203658296639	0.763608129011495	0.411753833689901	0.720497337633235	0.55798061516964	-0.892865091362458	0.196442706419064	0.40521869616426	0.182347769572262	-0.665051764570378	0.724192958660776	29.2289854466693	-33.9162585515498	60.2526567492019
13318	1653997494378	5.62138517049249	4.04388862588037	7.28825012713802	0.0331639650790687	-0.00168296562762021	0.240694828426024	0.00257111637681074	0.00543158348041249	-0.0177429129348041	0.479248046875	-0.13720703125	0.5	0	0	0	0.350373343036908	-0.122931730676616	0.528156995127135	0.763659936477139	0.411875956182255	0.720520671812532	0.557860339341103	-0.892808677582446	0.196577417974833	0.405277662813818	0.182348188782987	-0.664986676733576	0.724252620163986	29.230526751432	-33.9079547273076	60.2461361468919
13319	1653997494379	5.62537931683552	4.02607464368503	7.30323436204465	0.054726848499724	-0.0114959059179953	0.246550894445088	0.00149189239587048	0.00749279870160994	-0.0126574438515514	0.482421875	-0.14697265625	0.48974609375	0	0	0	0.350366648415853	-0.122877257466547	0.52812298623033	0.763695294401176	0.411974582025316	0.720545893168229	0.557754927906033	-0.892754264628573	0.196658646186	0.405358113114545	0.182391794641537	-0.664935329726649	0.724288782550683	29.2341540972969	-33.9006778035519	60.241089540909
13320	1653997494380	5.61915324073059	4.04588860346939	7.28886127324402	0.0324227368503963	-0.00131805839606483	0.240697300718592	0.00302557268135813	0.00750627953392183	-0.016984573538693	0.474853515625	-0.133056640625	0.49560546875	0	0	0	0.350335348606524	-0.122830884592657	0.528085025153464	0.763743362338159	0.412077559997701	0.720578863875443	0.557636248357579	-0.892706866969108	0.196782699450821	0.405402292621844	0.182391157166515	-0.664862895740785	0.724355434613862	29.2345683019758	-33.8924856782208	60.2360485595639
13321	1653997494381	5.6025955631432	4.07666511461116	7.33237174827208	0.00751903459936592	-0.0352683556946543	0.275456685893632	0.00430551913934189	0.0084779009215242	-0.0143865548962845	0.47119140625	-0.143798828125	0.49609375	0	0	0	0.35033782030517	-0.122762555538136	0.528047836271042	0.763778926935693	0.412189675134434	0.720606887270976	0.557517161825719	-0.892640351760268	0.196857788546587	0.405512285261312	0.182463350078514	-0.664810292569378	0.724385533243137	29.2401782255356	-33.884266250774	60.2302916132977
13322	1653997494382	5.59512034305787	4.07515836099226	7.29104307665954	-0.000769860172077087	-0.0117889072004004	0.240742728109078	0.000513763987566825	0.0104996319079332	-0.0187710975904948	0.482177734375	-0.140625	0.500244140625	0	0	0	0.350286651453293	-0.122690477886404	0.528006018883225	0.763842884677688	0.412313381318186	0.720673607853824	0.557339417706048	-0.892580954509955	0.197017811673452	0.405565311052982	0.182474423501109	-0.664690554187704	0.72449261689929	29.2397615520489	-33.8719997124024	60.2251676312108
13323	1653997494382	5.57642348459786	4.06291028155419	7.28059843548642	0.00186058555086028	-0.01967124609317	0.217789287886003	0.000215080715495672	0.00651726209325556	-0.0152553292955229	0.47216796875	-0.133544921875	0.5048828125	0	0	0	0.350279088439586	-0.122638804895913	0.527959669284325	0.763886687503338	0.412436622285778	0.720687108237399	0.557230764242171	-0.892518343382442	0.197126295622239	0.405650379391065	0.182502162516942	-0.66464375088815	0.72452856747127	29.2436717607753	-33.8645021502847	60.2182490785282
13324	1653997494383	5.61417237583159	4.0499269064165	7.29045656265936	0.0315281877423112	0.000161051756405715	0.240700231004078	-0.00128442843425416	0.006818116969678	-0.0146613096355455	0.474609375	-0.140869140625	0.50048828125	0	0	0	0.350223902787798	-0.122579894734215	0.527931997353533	0.763940569346426	0.412523951154516	0.720756522994639	0.557076318186785	-0.892478159543176	0.197262048172785	0.405672798064035	0.182501299892061	-0.664528192713715	0.724634774646064	29.2414416793155	-33.8538458328826	60.215398530339
13325	1653997494383	5.58027043617368	4.06703904619121	7.32323631805221	0.00927346060662984	-0.0416641140681867	0.25250974642066	-0.000831925257774464	0.00889377160691616	-0.0139030796685318	0.47998046875	-0.142333984375	0.49658203125	0	0	0	0.350205196773294	-0.122523939747611	0.527894400471009	0.763984100811696	0.412630772280156	0.720788816877243	0.55695540865691	-0.892422898592249	0.197367644208665	0.405743001280034	0.182530040912969	-0.664461808145679	0.724688408683404	29.2438601489665	-33.8455043635002	60.2101094954373
13326	1653997494384	5.63341774815421	4.0242815281877	7.28997552119646	0.063463607141297	0.011899847793034	0.240660891080184	-0.00195715257630634	0.00601521069184374	-0.0122274264667165	0.477294921875	-0.146484375	0.501708984375	0	0	0	0.350146065410998	-0.122495389246552	0.527876773290285	0.764027960686761	0.412681983667946	0.72084267203043	0.556847755258041	-0.892407786333105	0.197487690195669	0.405717826960102	0.182488145499746	-0.664367710233731	0.724785224981065	29.2390823705381	-33.8380781112074	60.2088894050503
13327	1653997494385	5.59449139985247	4.06038935046255	7.30788026416309	0.0196314020012063	-0.0201080283815709	0.246607825342037	0.00516977840090014	0.00768776261017732	-0.0162781033156992	0.4794921875	-0.13525390625	0.4931640625	0	0	0	0.350154716089768	-0.122424171827177	0.527831809767476	0.764066474562335	0.412811805500042	0.720862377844445	0.556726005722967	-0.892331982359125	0.19757051079537	0.405844214598522	0.182565184246149	-0.664321703297815	0.724807993905048	29.2459219524109	-33.8296802429065	60.2017938356532
13328	1653997494386	5.59326312153588	4.0614764708348	7.30821634382227	0.0188476331975214	-0.0196364657305438	0.246610255963644	3.0805883406914E-05	0.00810354380646522	-0.0157959441894099	0.4775390625	-0.144287109375	0.498291015625	0	0	0	0.350104518492329	-0.122383132530886	0.527802123938593	0.764116557188164	0.412894573675676	0.720910908268499	0.556601772696306	-0.892298459013734	0.197703488194329	0.405853164084637	0.182541861146692	-0.664229473220877	0.724898390006364	29.2434146731397	-33.8211119220653	60.1985036183597
13329	1653997494387	5.59295109035204	4.08371234214024	7.33581233134985	0.00505209083186704	-0.0326534179096931	0.275467025920692	-0.00101760304772623	0.010480204945192	-0.0144439851071579	0.480224609375	-0.13916015625	0.494140625	0	0	0	0.350080927527495	-0.122320995751706	0.527765317331173	0.764162736596156	0.413002687641275	0.720952683046968	0.55646743732986	-0.892241673642344	0.197814228007631	0.405924040940733	0.182574849902698	-0.66415115749739	0.7249618363596	29.2455419757337	-33.8118478112871	60.1934658839352
13330	1653997494388	5.59068615722918	4.06301099537316	7.30933509430244	0.0179592958506222	-0.0192334513803237	0.246612659814296	-0.00082956797040623	0.00889010517522888	-0.0139030111439555	0.478515625	-0.1455078125	0.497802734375	0	0	0	0.350024682488318	-0.122288681328703	0.527742864311231	0.764209178979431	0.413065895174928	0.72100376838709	0.5563543225454	-0.892219995803068	0.197940381635058	0.405910192539361	0.182537791518657	-0.664058108368375	0.725056400135678	29.2415232389031	-33.8040479041233	60.1914350528979
13331	1653997494389	5.57211175583947	4.05040982658138	7.29898736001419	0.0205832613202303	-0.0271175556907462	0.223661897279532	-0.00232947949528274	0.00919029696289113	-0.0133094266833951	0.474853515625	-0.14013671875	0.501708984375	0	0	0	0.349998664343792	-0.122237288771824	0.527707370950152	0.764253826183522	0.413165951757184	0.721038979101513	0.556234381286188	-0.892170530314092	0.19805173120488	0.405964600188023	0.182553118701521	-0.663986673347438	0.72511796038255	29.242723082728	-33.7957780492523	60.1866560807205
13332	1653997494390	5.59350591285813	4.0454658541088	7.32508788117993	0.03855328595269	-0.0282761808492468	0.252486696533271	0.000184838870008485	0.00619762335012596	-0.0115218312295679	0.478271484375	-0.137451171875	0.49658203125	0	0	0	0.349936920863829	-0.122205956709946	0.527702394911358	0.764290545516406	0.413191773098847	0.721107150149638	0.556126817053896	-0.892164654958826	0.198148667642319	0.405930208230149	0.182523387777099	-0.663883712343239	0.725219711121898	29.2372275190447	-33.7883622600663	60.1874481404769
13333	1653997494391	5.57611132317377	4.05446361732476	7.3415344126953	0.0273932272050026	-0.0491801917322178	0.258392569302133	0.00236054483846667	0.00669782837483354	-0.0145487439102057	0.474853515625	-0.14453125	0.49462890625	0	0	0	0.349935800522769	-0.122149668885261	0.527660938930986	0.764328677618589	0.413306783835384	0.721123691038297	0.55601989592006	-0.892101859698116	0.198237738077919	0.406024717381729	0.182569916357581	-0.663839153278152	0.72524878780742	29.2419334565414	-33.780991444409	60.1811361127268
13334	1653997494392	5.57310842383123	4.01267828912557	7.2876595298731	0.0541217971656307	-0.0226479101393804	0.20068687806635	0.00322359051120158	0.00590927660725196	-0.0164412905793948	0.480224609375	-0.13818359375	0.5	0	0	0	0.349901551848715	-0.122110145360576	0.527625200874965	0.764375342234124	0.413401519603345	0.721154328264023	0.555909721461778	-0.892060445696574	0.198361102831028	0.406055456935735	0.182557784860783	-0.663769016834716	0.72531603282776	29.2415180398789	-33.7733970180297	60.1765208226883
13335	1653997494393	5.58527225126062	4.06739311141793	7.31103664112077	0.0160696576932576	-0.017951537073369	0.246618225328133	0.00427461167132	0.00353149883767601	-0.0177928399698334	0.48095703125	-0.14892578125	0.500732421875	0	0	0	0.349917927422021	-0.122055517459478	0.527567050276493	0.764416707162354	0.413550916240519	0.72114330735974	0.555812891112543	-0.891980962159112	0.198460903062475	0.406181281081899	0.182607784123056	-0.663751158346171	0.725319789452752	29.248958573348	-33.7667229691097	60.1672099573293
13336	1653997494394	5.59574752152993	4.07920394599935	7.28015713245203	0.00443589475527979	0.0134308923625187	0.234838842921894	0.00506377663492838	0.00211580443602574	-0.0122197858344934	0.4833984375	-0.136962890625	0.495361328125	0	0	0	0.349883855444197	-0.122038110702398	0.527558385377835	0.764441061987925	0.413577699107443	0.721176255390372	0.555750209592506	-0.891972914125094	0.198526875434073	0.406166714782947	0.182586437799143	-0.66369562932982	0.725375974471387	29.2461906842913	-33.7624029114064	60.1667383477794
13337	1653997494395	5.62249053846889	4.05598967427335	7.32051129282101	0.0448600127883503	0.00171186983782862	0.269540671996079	0.00213712664175574	0.00334262907977265	-0.0184987632880766	0.473876953125	-0.143798828125	0.501953125	0	0	0	0.34989271654724	-0.121988964520526	0.527496067961717	0.76448785322419	0.413733181640276	0.721162572790765	0.555652227580903	-0.891894773530252	0.198645970384242	0.406280065225361	0.182615901167547	-0.663674861702557	0.725387558884805	29.2526163095001	-33.7556503533404	60.1569743756008
13338	1653997494396	5.58272407385279	4.07112113568875	7.31090789827901	0.0139918898797161	-0.0167647104115775	0.246623377923235	0.0102425157422858	0.0020150054037284	-0.0164327347980139	0.4765625	-0.140869140625	0.496337890625	0	0	0	0.349894976802161	-0.121943188217519	0.527462042422102	0.764517598136149	0.413827305302503	0.721173409535965	0.555568064924848	-0.891842645586167	0.19871459802504	0.406360928296033	0.182657211464359	-0.663642540762735	0.725406728111924	29.2568324090137	-33.7498505987844	60.1517201061851
13339	1653997494396	5.59823965870448	4.06443002310853	7.29463622608438	0.0250589611398099	0.00416053370636059	0.240717577927278	0.0049146245967974	0.00401584417690454	-0.0164934837148986	0.477294921875	-0.141357421875	0.498779296875	0	0	0	0.349911351683096	-0.121887809032038	0.527410313727565	0.764554621296915	0.413963445966321	0.721168129335949	0.555473486886437	-0.891767841384314	0.198800813874199	0.406482906744817	0.182713936185636	-0.663622457149428	0.725410815945356	29.2640273858506	-33.7433335751755	60.143402804016
13340	1653997494397	5.60238618100102	4.04700216656402	7.30933952422766	0.0457002699973266	-0.00513699401780933	0.246601210277003	0.00577875573710838	0.00322683293578122	-0.0183857682625261	0.48486328125	-0.13671875	0.498046875	0	0	0	0.349892234662709	-0.121849511192692	0.527369741008983	0.764597460768055	0.414067705780442	0.72118273419521	0.555376808057776	-0.891719525250289	0.198913160781709	0.406533938011613	0.182713500642732	-0.663572918650657	0.725456241489676	29.2655647064143	-33.7366723056186	60.1376738319765
13341	1653997494397	5.61271451743425	4.05884638923653	7.27855596151584	0.0351929276328607	0.0256010799024208	0.234813871643722	0.00255104287909563	0.00510269691841427	-0.014007977028229	0.4814453125	-0.138671875	0.501953125	0	0	0	0.349894965742974	-0.12180077349885	0.527328123226585	0.764632679773192	0.41417924405882	0.721189677023327	0.555284614901091	-0.891659586906718	0.198997126804102	0.406624303997009	0.182753207545599	-0.663540197183789	0.72547616904561	29.270324555176	-33.7303205851545	60.1312480386105
13342	1653997494398	5.58408959907998	4.05738898715489	7.32567763724393	0.0338806954718204	-0.0258586277294366	0.252510010961874	0.00532734174491551	0.00577868972879039	-0.0120025303651316	0.475830078125	-0.13427734375	0.4990234375	0	0	0	0.34988393420396	-0.121764073195677	0.527305027569297	0.764659500016118	0.414245836757881	0.721211011525443	0.555207225802412	-0.891624183423053	0.199061280972203	0.406670532437352	0.182775004483482	-0.663497764330938	0.725509486129513	29.2719803956627	-33.7249891649221	60.128001839835
13343	1653997494399	5.57795688677327	4.07742933207946	7.31103116356171	0.0122513226846549	-0.0160410288047765	0.246626828406816	0.00623005780296938	0.00530160495735732	-0.0176274176424876	0.4794921875	-0.134033203125	0.497314453125	0	0	0	0.349902682648952	-0.121698692896743	0.527251901044011	0.764697962379767	0.414389721985401	0.721211510539545	0.555099194178959	-0.89154230701731	0.199147091041086	0.406808002536978	0.182848224249278	-0.663471471274493	0.725515081644582	29.2800521302624	-33.7175473011702	60.1194245207108
13344	1653997494400	5.57693908110038	4.0786910793689	7.31110382393924	0.0121525488159471	-0.0156882156428511	0.246627504643737	0.00469095698081831	0.00528912804882906	-0.013301690749008	0.482666015625	-0.14501953125	0.498046875	0	0	0	0.34989813110332	-0.121639765064472	0.527210781679196	0.764737770145214	0.414505118472542	0.721232942227916	0.554985179806927	-0.891479048083539	0.199240179063229	0.406901041870034	0.182895089021358	-0.66342022436169	0.725550130810927	29.2844609813526	-33.7096940095154	60.1132683771779
13345	1653997494401	5.58029192650628	4.03962145372672	7.29879841377311	0.0474604852406719	-0.0124814420342303	0.223659049695591	0.00574427177849892	0.00291163633347939	-0.0146524058794796	0.472412109375	-0.13623046875	0.50048828125	0	0	0	0.349919823783634	-0.121589705217364	0.527164322998218	0.764767832133528	0.41462744028597	0.721223336507843	0.554906284554787	-0.8914099294021	0.199307786962122	0.407019340842183	0.182954703479434	-0.663410359380042	0.725544121016769	29.2917697313611	-33.7042601375917	60.1056345054622
13346	1653997494401	5.59654292448923	4.05417113400548	7.30984305489475	0.0437645661747705	-0.00401367890695953	0.246610329034761	0.00562724270934274	0.00975330648187063	-0.0155187319350635	0.47900390625	-0.141357421875	0.49658203125	0	0	0	0.349877003366993	-0.121532539550208	0.527151978010398	0.764805018566912	0.414681267820403	0.721294075160839	0.554774101104885	-0.891379838158469	0.199393749189316	0.407043138879419	0.18297931643616	-0.663307613345496	0.72563184869082	29.290243256285	-33.6951568374106	60.1048488082594
13347	1653997494402	5.61251920851474	4.06881875727292	7.32104363180617	0.0410361970993958	0.00389344512456164	0.269556354175227	0.00712948865353045	0.00945267037158121	-0.0161114257087697	0.474609375	-0.13427734375	0.4912109375	0	0	0	0.349887351023338	-0.121451417700415	0.527112428682127	0.76484042928003	0.414804081334778	0.721325162829701	0.554641851627442	-0.891302422098609	0.199462658245403	0.407178880010778	0.183078033824827	-0.663253087014591	0.725656789464863	29.2975549225981	-33.6860499550428	60.0985843187929
13348	1653997494402	5.56106557441243	4.07310529049895	7.34262781782927	0.0206953962463207	-0.0458380887217275	0.258424326042618	0.00367908769146742	0.00797394799174523	-0.0156837012010952	0.47705078125	-0.1396484375	0.497802734375	0	0	0	0.349868298415273	-0.121418875439337	0.527068707319579	0.764884441086048	0.41491206890303	0.72133207653325	0.554552080911105	-0.891254537915077	0.199581503056939	0.407225456330169	0.18306644620025	-0.663209815218202	0.725699260902096	29.2989206557926	-33.6798687687865	60.0923761247698
13349	1653997494403	5.5875791473657	4.07670731246482	7.2959586847958	0.0213210679545832	0.00580184226314827	0.240725386833896	0.00495294307031118	0.00895134955289698	-0.0130851158172419	0.4775390625	-0.137451171875	0.49462890625	0	0	0	0.349869871564685	-0.121351057988716	0.527038416245537	0.764915355773255	0.415008857052831	0.721365397191754	0.554436301392761	-0.891193713482757	0.199643161545413	0.407328335740303	0.183143150613164	-0.663155013388675	0.725729987392659	29.304062271951	-33.6718973957287	60.0877437855536
13350	1653997494403	5.57508193822361	4.0671928004888	7.32710168287794	0.0308979883242176	-0.0247097771240432	0.252522495129872	0.0036804956456001	0.00797233626776594	-0.0156836020882363	0.478515625	-0.138671875	0.494384765625	0	0	0	0.349840777623894	-0.121313554806426	0.527004915968886	0.764957691821165	0.415097679929712	0.721392071496335	0.554335092971028	-0.89115378489553	0.199754497712273	0.407361107998897	0.183136145485652	-0.663092467025486	0.725788903463475	29.3040445391494	-33.6649298419606	60.0833593799614
13351	1653997494404	5.56885728772517	4.08716949240079	7.31252922346656	0.00926477004087574	-0.0148979657090533	0.246631780242502	0.00556075129222656	0.00449609416169638	-0.015192771231584	0.47998046875	-0.140380859375	0.5	0	0	0	0.349857639229229	-0.121257760104892	0.526959135183497	0.764990364471315	0.415221250922011	0.721391414393981	0.554243394206383	-0.891083229148069	0.199827404239223	0.40747967709576	0.183199321815915	-0.663071214692408	0.72579237577459	29.311044922154	-33.6586174546292	60.0759641376058
13352	1653997494405	5.550414399365	4.07496627068289	7.30185015005396	0.0108889513175982	-0.0226453521263306	0.223688184255746	0.0032631950446663	0.0108368695057581	-0.0130342753071029	0.48193359375	-0.142822265625	0.49853515625	0	0	0	0.349815187717265	-0.121223678349046	0.526944139651468	0.765025508030181	0.415269386989003	0.721439648685884	0.554144538485914	-0.891063183875679	0.199918416258618	0.407478869614099	0.18318771402885	-0.662991297186196	0.725868308499724	29.3084378347788	-33.6518129132673	60.0747487874454
13353	1653997494405	5.57065381638143	4.04918066508159	7.3008636393151	0.0435076204029076	-0.0115494678095386	0.223678079551526	0.00499535401648731	0.00925845930416556	-0.0168175098160875	0.480712890625	-0.146240234375	0.499267578125	0	0	0	0.349818249930341	-0.121148745377714	0.52690011937169	0.765066296287569	0.415398491399009	0.721466961503777	0.554012199145412	-0.890987129860931	0.200006912443545	0.407601728893514	0.183264911441358	-0.662934882498507	0.725900347018158	29.3147316852914	-33.64270443405	60.0679858020378
13354	1653997494406	5.56515787229951	4.09061165462357	7.31342079573343	0.00621539569069874	-0.0145028627847299	0.246634703957529	0.00450826509135705	0.00687090711572185	-0.0138423688260859	0.48388671875	-0.13525390625	0.496337890625	0	0	0	0.349765918773999	-0.121153050123435	0.526899147203731	0.765090209835383	0.41539845424354	0.721500342414982	0.553968753728169	-0.891001173969764	0.200082181480324	0.407534082793792	0.183196703563628	-0.662875837958466	0.725971481019938	29.3082755327466	-33.6397144397361	60.0691343047275
13355	1653997494407	5.58046591234162	4.08343981818282	7.29763768577566	0.0172491906018878	0.00640318144786672	0.24073283276055	0.00131547424543759	0.00905643090754856	-0.0131996899877085	0.472412109375	-0.135498046875	0.511474609375	0	0	0	0.349752757813976	-0.12109581808368	0.526866651877054	0.765127664108432	0.415494667965015	0.721533308625629	0.553853649835762	-0.890947693963654	0.200169079082763	0.407608324743257	0.1832386081411	-0.662813717663502	0.726017622488325	29.3111762108786	-33.6317932779107	60.0645283640437
13356	1653997494408	5.56796449801282	4.07377936489704	7.32885448021874	0.0275584747591639	-0.0234565203302754	0.252535191374328	0.00432029115795213	0.00845753721006039	-0.0143838925754976	0.48046875	-0.142822265625	0.502685546875	0	0	0	0.349721675938433	-0.121002537090252	0.526849208055159	0.765168639822744	0.415576595978749	0.721622563710501	0.55367586945667	-0.890891403966522	0.200249322700932	0.407691936511354	0.183326482574874	-0.66269229986601	0.726106270793072	29.3132065831015	-33.619560308314	60.062707976164
13357	1653997494409	5.59458499976077	4.07737760098715	7.28215529676513	0.0281684601586974	0.0281796295290267	0.234829119392375	0.00514580065800787	0.00735916502783379	-0.012542633110362	0.47412109375	-0.13623046875	0.500244140625	0	0	0	0.349727282057144	-0.120942180338916	0.526818624678929	0.76519667660752	0.415670251412541	0.721646161526534	0.553574800406101	-0.89083328159051	0.200305929752648	0.407791121674577	0.183396582578078	-0.662649494121852	0.726127634399583	29.3184370881062	-33.612606577046	60.057934518215
13358	1653997494410	5.58730981986659	4.04899983049895	7.32802623298117	0.0592109852211898	-0.0116221480281385	0.252537816679693	0.00281911529634591	0.00875513900365762	-0.0137918422839656	0.479248046875	-0.135986328125	0.4970703125	0	0	0	0.349672092769823	-0.120888850084496	0.526816024248412	0.765232115150898	0.415701525040689	0.721730166658833	0.553441784303877	-0.890815995465164	0.200388608266138	0.407788263564033	0.183409662510603	-0.662532997073938	0.726230626926442	29.3147963794429	-33.6034556864239	60.0589546600044
13359	1653997494411	5.58088634459188	4.06896677244795	7.31359137627173	0.0375566731144175	-0.00180516074591969	0.246636060647635	0.00713745575525258	0.00944500930445068	-0.0161094351964272	0.48583984375	-0.137939453125	0.497314453125	0	0	0	0.34968162354236	-0.12080897575078	0.526776936101134	0.765267282148354	0.415822501939898	0.72176095081906	0.553310741584881	-0.890739665935149	0.200457643497362	0.407921047131947	0.183506115457177	-0.662478575529995	0.726255907069654	29.3219088592044	-33.5944415049653	60.0528007421094
13360	1653997494412	5.55182187284543	4.09465661307611	7.27346551103344	-0.00363396383885684	0.00943526384312707	0.21188927597372	0.00889738722889896	0.0128099828213944	-0.0164856946237414	0.47705078125	-0.14501953125	0.490966796875	0	0	0	0.349688028664622	-0.120757106743161	0.526734276841431	0.765301904727805	0.415937445542712	0.721766861495821	0.55321662939745	-0.890676119912858	0.200538568417971	0.408020014207449	0.183554054197611	-0.662447643382738	0.726272007559343	29.3273013640355	-33.5879682862991	60.0461534660887
13361	1653997494413	5.56142221030936	4.07992555367773	7.33040281943924	0.0255822102509604	-0.0232006831569701	0.252541001313574	0.00521536551408359	0.0126084574246524	-0.0128689738599039	0.47998046875	-0.143798828125	0.502685546875	0	0	0	0.349680303273276	-0.120676418214821	0.526711544475348	0.765333807240961	0.416024302006469	0.721823970263587	0.553076790412455	-0.890616636340753	0.200597268838205	0.408120990403258	0.183645820026248	-0.662367640881984	0.726321775179102	29.3316792739516	-33.5783507867161	60.0429390546586
13362	1653997494414	5.55996654772354	4.08089330124118	7.3309683431182	0.0234124213728804	-0.0230517637077267	0.252546624428122	0.00157571776258952	0.0127147857425169	-0.0129851187352956	0.4765625	-0.141357421875	0.499267578125	0	0	0	0.349597411584362	-0.120681078959282	0.526722917357357	0.765363113381677	0.415998091023558	0.721888998173466	0.553011629697664	-0.890648169498958	0.200689236288138	0.408006946762233	0.18355224442352	-0.662268906679299	0.726435453989475	29.3210126297385	-33.5738696903948	60.0467337438458
13363	1653997494415	5.56968782927204	4.09229912887962	7.30090828775251	0.0128645767383347	0.00766420005681714	0.24073851729265	0.000329850052680533	0.0166772599541539	-0.0121782527262198	0.483642578125	-0.1416015625	0.500732421875	0	0	0	0.349559192009776	-0.120599969902679	0.526707381705669	0.765404045323582	0.416069962632463	0.721974265247455	0.552846223208062	-0.89060157738979	0.200775410676462	0.408066250526205	0.183615403890411	-0.662149828051096	0.726528037081891	29.3214505008916	-33.5624957459271	60.0453792839435
13364	1653997494416	5.55598520566887	4.06096294572318	7.30549561595642	0.0356110698599296	-0.00982140916950011	0.223711044362457	0.00157742623492189	0.0127131977946393	-0.0129848602205986	0.4814453125	-0.140625	0.505615234375	0	0	0	0.349491399497545	-0.12057518435743	0.526711292406319	0.765436216184003	0.416073678737674	0.722047817510253	0.55274735918897	-0.890607777213264	0.200861952257825	0.408010126470442	0.183576907668011	-0.66204337121057	0.726634773188839	29.3144923974448	-33.5556982160245	60.0476829409225
13365	1653997494419	5.55009056000983	4.10197784980352	7.31850272952644	9.03261799768502E-05	-0.0130251277802974	0.246638645676663	-0.000748829028274628	0.014107185627471	-0.0142351987970157	0.482177734375	-0.141357421875	0.499267578125	0	0	0	0.349456708929006	-0.120503735276192	0.526682937308347	0.765482816212908	0.416167866665475	0.72211179871762	0.552592849128462	-0.890555153690701	0.20097018426552	0.408071688887155	0.183618694554885	-0.661940733894725	0.726717716737987	29.3153908736893	-33.5450757380548	60.0442687914591
13366	1653997494418	5.55283749204769	4.06235542739555	7.30711448260931	0.0341211870322622	-0.00954845061718638	0.223716483566191	-0.0043883232892354	0.0142123834294001	-0.0143523528886218	0.480224609375	-0.144775390625	0.496337890625	0	0	0	0.349365657294919	-0.120477534987009	0.526682437678632	0.76552884394204	0.416181546808695	0.722199768881382	0.552467568209755	-0.890562621681414	0.201098494687565	0.40799217185912	0.183551455891388	-0.661805779109003	0.726857602132686	29.3059170705979	-33.5364637053094	60.0464734759714
13367	1653997494419	5.53474329399016	4.07100491524569	7.32412498400198	0.0228434352552064	-0.0304686957758009	0.229614199831195	-0.00225016378322044	0.0144038342255092	-0.0136436864335379	0.485107421875	-0.142578125	0.500244140625	0	0	0	0.349323819372274	-0.120410366461564	0.526656100934301	0.765576622041477	0.416269389994544	0.722266779252897	0.552313764577001	-0.890515615670372	0.201212441135694	0.40803859104187	0.183580318119318	-0.661698007492741	0.726948425735518	29.3056437137213	-33.5258921436109	60.043542011273
13368	1653997494420	5.54962355488517	4.0635413363521	7.30889650309132	0.0318621559739498	-0.00986557426846599	0.223723602735879	-0.000112138398089627	0.0145955060802777	-0.0129348713456458	0.47314453125	-0.140625	0.50146484375	0	0	0	0.34924758909762	-0.120425348392306	0.526660225526375	0.765606206755535	0.416253484626198	0.722312149844018	0.552266416437086	-0.890545200213034	0.201310256716015	0.40792576152832	0.183472839717696	-0.661618726101858	0.727047713948183	29.2955416060728	-33.5226379697013	60.0460461560028
13369	1653997494421	5.56527088407588	4.07734815100588	7.32081920631248	0.0289916260980716	-0.00197795039107128	0.246664359510518	-0.00739181140852905	0.0148052416986722	-0.0131708187083034	0.46875	-0.144775390625	0.502197265625	0	0	0	0.349184387424026	-0.120372282897764	0.526633392753179	0.765661835751635	0.416335566294512	0.722381936794047	0.552113243485346	-0.890510424259997	0.201455066433166	0.40793019070999	0.183455391096876	-0.661498445653571	0.727161554178576	29.2919791469641	-33.5121114375232	60.0435535202448
13370	1653997494422	5.51268393241844	4.05910563421993	7.31598910722236	0.0217235550904444	-0.0370108881994245	0.206687732924813	-0.000979818577164992	0.0153830256183409	-0.0110435877661782	0.4765625	-0.137939453125	0.503662109375	0	0	0	0.349044960146852	-0.120298437373451	0.526682853156828	0.765702993302345	0.416266916312179	0.722586147808915	0.551897738153204	-0.890544400923895	0.201545575973332	0.407811293110771	0.183446243807418	-0.6612477900154	0.727391803523176	29.2771145435041	-33.4973033939695	60.054646287133
13371	1653997494423	5.52922379543725	4.0943468397101	7.35485067537782	0.00499013308735054	-0.0421001761982301	0.258460672686409	-0.00550792046937652	0.0113322886440033	-0.012677700661576	0.471923828125	-0.14404296875	0.495361328125	0	0	0	0.34899661971671	-0.120254336615909	0.526653986876389	0.765751808393935	0.416348945264544	0.722635771726486	0.551770873822067	-0.890509199667396	0.201673875067029	0.407824733706995	0.183430970898686	-0.66115443697877	0.727480507902755	29.2749397860594	-33.4885873344233	60.0514649617015
13372	1653997494424	5.53154342832569	4.03294490969113	7.31638476733301	0.0529134125261247	-0.0250782689745988	0.206727513554453	-0.00487364648388142	0.0118225247827113	-0.0113777192912275	0.468505859375	-0.144287109375	0.500732421875	0	0	0	0.348888475955532	-0.120226447717396	0.526666548045383	0.765796826700557	0.416335896878432	0.722747898217642	0.551633842863555	-0.890530386672322	0.201798357030772	0.40771687911212	0.183357714273705	-0.66099387192444	0.727644865229365	29.2629562720101	-33.4791737744913	60.0560867609053
13373	1653997494425	5.52587095479876	4.07350161068177	7.32943420801904	0.0173134343997823	-0.0282580082416536	0.22963172039692	-0.00318032322078368	0.00993790252977762	-0.0114261801431814	0.477294921875	-0.136962890625	0.506591796875	0	0	0	0.348851328390727	-0.120183902182901	0.526641933203144	0.765837355140222	0.416408207696293	0.722791502605086	0.551522119524724	-0.890496758315831	0.201902049744161	0.407738992172815	0.183356832411986	-0.660914522514817	0.727717160672231	29.2618539702472	-33.4714995187017	60.05327794226
13374	1653997494426	5.52468780912523	4.07374433134972	7.33019117952847	0.0162601775142752	-0.0266640079466922	0.229637839865411	-0.00555307114206458	0.0110234784101809	-0.00894526638318733	0.484375	-0.135986328125	0.5	0	0	0	0.348721607373385	-0.120125845182419	0.526680451245083	0.765879053210367	0.41635496719097	0.722966095049787	0.551333444209462	-0.890528006326185	0.202001885654396	0.407621280284504	0.183325969911838	-0.660693017671997	0.727926043740265	29.2477894567464	-33.4585409883423	60.0624316932772
13375	1653997494427	5.51296404451623	4.08455961646955	7.3888710403131	0.012629032557603	-0.0703444872075784	0.270303616934713	-0.00749974124945629	0.0092430949564633	-0.00911298190561408	0.48291015625	-0.135986328125	0.508056640625	0	0	0	0.348667519801939	-0.120100907785798	0.526661634675293	0.765920527956615	0.416406589020351	0.723011343282716	0.551235113272874	-0.890512485857259	0.202116966392625	0.407598140855139	0.183284110475404	-0.66060830253696	0.728013465168382	29.2434698677252	-33.4517882259239	60.0609104547607
13376	1653997494428	5.50026182771212	4.07932189236466	7.30589942960503	-0.00291218126507167	-0.0248764117341806	0.200767903732729	-0.00324336047627413	0.00468715806720583	-0.0111001988042684	0.4814453125	-0.136474609375	0.497314453125	0	0	0	0.348651741695328	-0.120080838049006	0.526625499452515	0.765955702813584	0.416492351319675	0.723010822445371	0.551171000615124	-0.890476395765453	0.202215092678407	0.407628317070382	0.183264589806042	-0.660578842319319	0.728045110692525	29.2442163388572	-33.44738564708	60.0557893697477
13377	1653997494429	5.49322532211081	4.04990469348019	7.35209286193393	0.0288719815292505	-0.0653729751355438	0.218534625334861	-0.0103164797297782	0.00825021536905904	-0.00739053581010539	0.4775390625	-0.142822265625	0.512939453125	0	0	0	0.348588976700218	-0.120070076431228	0.526609415143464	0.76599701432261	0.416531401256116	0.723052269277181	0.551087114402738	-0.890472689579096	0.202336498410707	0.407576165304922	0.183193834179505	-0.660496296207642	0.728137804137788	29.2379825106664	-33.4416255672096	60.0548865337772
13378	1653997494430	5.50387102992818	4.06048794900665	7.32185497951027	0.0175810724115976	-0.0338367531317119	0.206707080356336	-0.00373375754218472	0.00230288766589152	-0.00812610661215392	0.4814453125	-0.143798828125	0.499267578125	0	0	0	0.348521890972014	-0.120060237592718	0.526618669944878	0.766022719851023	0.416516631629335	0.723116489678281	0.55101400883418	-0.890490973823735	0.202410535957558	0.407499448431321	0.183138529847243	-0.660403298968694	0.728236061724943	29.2300911179164	-33.4366060563537	60.057966229217
13379	1653997494431	5.54917595954345	4.09814646696608	7.31323716859333	0.00152626642167704	0.0127393731355225	0.24074148226061	-0.00223015798481849	0.00200563424145271	-0.00871630513148585	0.481689453125	-0.1396484375	0.496826171875	0	0	0	0.34850706050237	-0.120049674951628	0.526591716658233	0.766049651309197	0.416578478981888	0.723114483193387	0.550969885787869	-0.890467120520015	0.202487985453867	0.407513095519185	0.183113839241961	-0.660381753187348	0.728261808648012	29.23004557508	-33.4335766586971	60.0542179745524
13380	1653997494432	5.50817447934589	4.04213044993717	7.33702335932763	0.0371758748116656	-0.0441362247786462	0.21264985868142	-0.00485756727022796	-0.000572791243814629	-0.00645243684438973	0.476318359375	-0.14404296875	0.505615234375	0	0	0	0.348465904471148	-0.12014049448394	0.526580094832992	0.766062124590386	0.416559330621664	0.723056400281623	0.551060582952376	-0.890515864577452	0.202569834293565	0.407365876295685	0.182920253137549	-0.660420248210228	0.728275550012518	29.2207636582381	-33.4398038543094	60.0533664445078
13381	1653997494433	5.5251791188071	4.05571452308221	7.34805033201469	0.0342381304177276	-0.0362034893734682	0.235585390537716	-0.00034707436313955	-0.00146368952392159	-0.00822307184009567	0.479248046875	-0.144287109375	0.49609375	0	0	0	0.348467055559031	-0.120140301825078	0.526550008957206	0.766082310939604	0.41662279188909	0.723031420912495	0.551045382570073	-0.890491169836328	0.20263159851437	0.407389140413732	0.182895942333524	-0.660428648422197	0.728274038134797	29.222208399893	-33.4387601769039	60.048734712111
13382	1653997494434	5.46975317182038	4.07772698485423	7.3542140769536	-0.00903971417193921	-0.0754757990864431	0.218501174943452	0.00235872139738612	-0.00602777782177335	-0.00588806341360684	0.477783203125	-0.13525390625	0.501220703125	0	0	0	0.348414431082545	-0.120207449616585	0.52657366900525	0.766079450436084	0.41654068033405	0.723030513591217	0.551108644500219	-0.890558554271402	0.202655110647552	0.407230116202695	0.182754816737831	-0.660422427348171	0.728315106540206	29.2113020960824	-33.4431039033636	60.0535887686797
13383	1653997494435	5.52010978191213	4.07541088976676	7.33271333942248	0.0102666935777451	-0.0257142935427005	0.22964823251308	-0.00123293003982071	-0.00561892803822948	-0.00973994732543217	0.478271484375	-0.138427734375	0.4970703125	0	0	0	0.348423262193814	-0.120223606338757	0.526530545173772	0.766102538724507	0.416623738955827	0.722975372520742	0.551118200449742	-0.89053017697376	0.202733630722462	0.407253089458105	0.182703760326791	-0.660458693411317	0.728295029682248	29.2133517265256	-33.4437600582867	60.0467569264175
13384	1653997494436	5.54210553452154	4.04916524701255	7.33082411416985	0.0426553138934675	-0.0145468874234326	0.229703982732975	0.00593614475730185	-0.0113800176740138	-0.00544370683225316	0.482421875	-0.135986328125	0.5	0	0	0	0.348467971611145	-0.120255808845092	0.526490684642034	0.766104543900759	0.41669219884835	0.722883216085953	0.551187325072118	-0.890504407216781	0.202755263492753	0.40729866664829	0.182673238725373	-0.660552919172426	0.728217226400453	29.2186909174171	-33.4485066168213	60.0395241359693
13385	1653997494437	5.55463468948322	4.08190968982307	7.32635300025911	0.0181357598973915	0.00319113739362269	0.24668947727703	0.00254931580536732	-0.00761453280008152	-0.005346345503991	0.487060546875	-0.135009765625	0.4970703125	0	0	0	0.348494123006109	-0.120277374495582	0.526462989109669	0.7661082955512	0.416740148564324	0.722823410230567	0.551229504106265	-0.890487242799828	0.202777134655831	0.407325304973226	0.18264752663353	-0.660611649370055	0.728170398829305	29.2218571628354	-33.4514030388006	60.0346203918862
13386	1653997494438	5.520522389514	4.0556379711552	7.30388519980029	0.0234614453256243	-0.013843051161637	0.200821698209824	0.00254950102509588	-0.00761475209946039	-0.00534632638766173	0.47509765625	-0.134765625	0.49462890625	0	0	0	0.348566338592764	-0.120339840910494	0.526398321181517	0.766110068950247	0.416846260293834	0.722665272805319	0.55135659854604	-0.890450943737346	0.20281263011463	0.407386982933005	0.182582343276437	-0.660773743839145	0.728039660579343	29.2299373783062	-33.4601311619115	60.0228824381086
13387	1653997494439	5.52158050318011	4.07757548189562	7.33040229516058	0.0093628826553809	-0.0268441654920725	0.229646159145432	0.002549686269538	-0.00761497142580658	-0.00534630728676247	0.47802734375	-0.1435546875	0.503662109375	0	0	0	0.34859340966157	-0.120362013662241	0.526369771169449	0.766113884749985	0.416895699332386	0.722603570938669	0.551400086275697	-0.89043318988368	0.202834997479087	0.407414651370361	0.182556046823256	-0.660834353725912	0.727991240815383	29.2332195651322	-33.4631178535615	60.0178238081602
13388	1653997494440	5.52191569336218	4.07785606349945	7.32999371337696	0.00841141934965987	-0.0263285888893751	0.229648366113526	-0.00259356949460629	-0.007216480339707	-0.00487466791010127	0.48095703125	-0.1396484375	0.504150390625	0	0	0	0.348560693182208	-0.120410487125663	0.526357738405964	0.766129420515006	0.416897691620639	0.722575572499243	0.551435269772232	-0.890457023934957	0.202905948776995	0.407327220396339	0.182435202870176	-0.660843187131637	0.728013515516998	29.2272322841644	-33.4655342944996	60.016744307806
13389	1653997494441	5.52671513704631	4.03778175544567	7.31736574930415	0.0435980324792762	-0.0231389741377821	0.206777044679715	-0.000456998994363332	-0.00702176396945257	-0.0041652746401717	0.469482421875	-0.140625	0.501220703125	0	0	0	0.348573714764257	-0.120440523331598	0.526333127309959	0.766135683029563	0.416935038871458	0.722520378733711	0.551479351994026	-0.890449981237096	0.20293960894313	0.407325847494196	0.182384221565658	-0.660893196694069	0.727980891430115	29.2282441016588	-33.4685620046828	60.012627908967
13390	1653997494442	5.49411080069217	4.05420379321706	7.34906116042521	0.0203442941618209	-0.0635407208107009	0.218567318391662	0.000604181188534868	-0.00939651352035314	-0.00551412696056408	0.478271484375	-0.14599609375	0.501220703125	0	0	0	0.348527228147624	-0.120454669946592	0.526345042493956	0.766146422017245	0.416903137460187	0.722551277638673	0.551462986209023	-0.890478206574364	0.202979334963539	0.407244340898513	0.182319328629625	-0.66084721438505	0.728038887455583	29.2214136475412	-33.4674379370642	60.0155864189757
13391	1653997494443	5.53384005564783	4.04120744657227	7.35783355589966	0.0500570705582052	-0.0445023115316633	0.24156405754165	0.00456436021936233	-0.0179214788692568	-0.0039868800218872	0.470703125	-0.143798828125	0.5029296875	0	0	0	0.34858741774796	-0.120513241522952	0.526305720678532	0.766136841032	0.416957693997364	0.722425605181596	0.551586372560458	-0.890463203849284	0.202978201137721	0.407277709251762	0.182267835908776	-0.660984942975934	0.72792674161088	29.2271746942107	-33.4759129649721	60.0080262721737
13392	1653997494444	5.55141037830393	4.03386653020925	7.34054551335958	0.058811985777628	-0.0218497041612009	0.235691028121092	0.0061152713562745	-0.0179130488333493	-0.00830992881838652	0.4755859375	-0.140380859375	0.504638671875	0	0	0	0.34853812874398	-0.12058218730586	0.526331842782387	0.766130472040812	0.416869454755664	0.722422746475079	0.551656807324191	-0.890532706168841	0.202991928169884	0.407118872494845	0.182130055002784	-0.660983851900541	0.727962217832359	29.2164627098916	-33.4807512833336	60.0131779594276
13393	1653997494445	5.53057418779412	4.06159396802049	7.34074056506839	0.0258529659292846	-0.0329284400267844	0.235621729265015	0.00700052594428175	-0.0137575722530325	-0.00679388711213785	0.4755859375	-0.1376953125	0.492431640625	0	0	0	0.348597100288736	-0.120613771805521	0.526291523908328	0.766126367894606	0.416939099826191	0.722320405118625	0.551738180104832	-0.890502849543793	0.202994587065069	0.407182849069883	0.182116616459101	-0.66109487214132	0.727864759442262	29.2235666926562	-33.4863412945185	60.0055199471952
13394	1653997494446	5.58233082529661	4.08139272147055	7.34534895577023	0.0305870176129247	0.00448581253023675	0.275591937339252	0.011702649142264	-0.0162348876696058	-0.00802513500008129	0.4736328125	-0.13232421875	0.50341796875	0	0	0	0.348640473353676	-0.120647923836079	0.526261975766697	0.766121551502045	0.416984822672353	0.722235784191129	0.551814397868279	-0.890486781292524	0.202996306403715	0.407217131184002	0.182090499489089	-0.661186790264501	0.727787797627537	29.2282036388519	-33.4915775022071	59.9998930071417
13395	1653997494447	5.56089566007405	4.08784080217222	7.31829207082473	0.0115058001407804	0.00639806408022372	0.246697716873715	0.0069421379312553	-0.0190104826818883	-0.00646738067185126	0.471435546875	-0.140625	0.5009765625	0	0	0	0.348712553089889	-0.120700414088634	0.526213938249254	0.766113474981724	0.417060602462084	0.722099678520201	0.551935239095119	-0.890458676743618	0.202996893019482	0.407278291143097	0.182054384418413	-0.66133525212668	0.727661930712726	29.2360937084612	-33.4998800185964	59.990707935365
13396	1653997494448	5.56196917646412	4.08876209887175	7.31696147124672	0.0116487334394947	0.00818476030847309	0.246696257309685	0.00952180025963186	-0.0167375095851674	-0.00500144030047668	0.470947265625	-0.1484375	0.50634765625	0	0	0	0.348735284612452	-0.12066639934866	0.526204497584634	0.766114970520877	0.417096893579865	0.722105024069981	0.551900820418778	-0.89042754855004	0.20298505597595	0.407352240491699	0.18212348049934	-0.661333048670134	0.727646642669004	29.2410403743348	-33.4975151681945	59.9887324213659
13397	1653997494449	5.55170426106176	4.07886411723161	7.34659510767289	0.0217952041931349	-0.0224680829949397	0.258560441030586	0.00437866608688995	-0.0163402008348703	-0.00452667462148956	0.478515625	-0.13916015625	0.501708984375	0	0	0	0.348788951919631	-0.120717738033791	0.526167466218345	0.766107885507112	0.417150050434745	0.721992063280512	0.552008420209546	-0.89041211658817	0.202988129024345	0.407384440189081	0.182077176096471	-0.661455425584479	0.727546989485621	29.2463158797658	-33.5049083868253	59.9816872770159
13398	1653997494450	5.56402154669474	4.08999739491266	7.31471032974655	0.00933694409062432	0.0103508784922754	0.246696673044967	0.00477614211810419	-0.0145669740757447	-3.69075633770723E-05	0.4736328125	-0.142822265625	0.50537109375	0	0	0	0.348718157024295	-0.120761264897358	0.526242630463877	0.766081626032389	0.416970821565699	0.722066328596797	0.552046692834553	-0.890512911536516	0.202928681688077	0.407193694124917	0.181994748137368	-0.661392596915841	0.727624727723938	29.2322696777456	-33.5075382643218	59.994904081167
13399	1653997494451	5.58663291139777	4.06342689155418	7.31252845855088	0.0417397107579279	0.0215446575861378	0.246774422145805	0.000119235049728151	-0.0117855120183461	-0.00253650893733679	0.479248046875	-0.13623046875	0.502685546875	0	0	0	0.34874106764008	-0.120809690970736	0.526219661770093	0.76607933915188	0.416995772268249	0.721989420254312	0.552128429761817	-0.890514622695923	0.202945070615653	0.407181783823326	0.181929196873799	-0.661471522708007	0.727569372617625	29.2334131236354	-33.5131550295221	59.9907762922916
13400	1653997494451	5.57010247669499	4.050163414501	7.30098408668944	0.0437877674372164	0.0151546639125208	0.223850229514346	0.00119494852745895	-0.00921442007377041	-0.000479943870418716	0.4765625	-0.141357421875	0.494873046875	0	0	0	0.348697683288615	-0.120812046113658	0.52625724422296	0.766072899981353	0.416915524833374	0.722049065249776	0.552111032786736	-0.890556587622536	0.202926477144017	0.407099261993955	0.181907694710852	-0.661412119820799	0.727628750365968	29.2264718389607	-33.5119595206628	59.9976014972557
13401	1653997494452	5.54911694020077	4.07703169563178	7.30176495051706	0.0108151679546017	0.00412638984000737	0.22377235169678	-0.00075012054071921	-0.0109967979046958	-0.00064536719782018	0.481201171875	-0.138427734375	0.50537109375	0	0	0	0.348713503900412	-0.120862499593994	0.526242895540491	0.766067597071269	0.416921342170102	0.721982489477894	0.552193697293244	-0.89056803237223	0.202934614181313	0.407070168501373	0.18183831873325	-0.661482295495793	0.727582296778778	29.2262857203754	-33.5176403192576	59.9949674576052
13402	1653997494453	5.60585640495124	4.07702179766778	7.32182907499307	0.036855639830141	0.0314550942082419	0.269701541344771	-0.00195921869379776	-0.00672967706359141	-0.00357076638038326	0.479248046875	-0.1396484375	0.5009765625	0	0	0	0.348684539384351	-0.120917945605833	0.526246576456453	0.766069502847262	0.416886782396655	0.721958470068393	0.552251191179765	-0.89060734273588	0.202967265524371	0.406967873658958	0.181724989277475	-0.661498493287827	0.727595884849576	29.2196943627736	-33.5215915842798	59.9961988027945
13403	1653997494454	5.56639252612643	4.04239361481056	7.37230706166532	0.0601491044248251	-0.0377868713790238	0.270543148594957	0.000619775625307215	-0.00445504662728573	-0.00210624933783889	0.478515625	-0.137939453125	0.503173828125	0	0	0	0.34868906434409	-0.120937440965118	0.526239005661134	0.766069566488862	0.416893288587179	0.721932247604119	0.552280558955531	-0.890610500141301	0.202976890655248	0.406956163361595	0.181694587065849	-0.661524158084339	0.727580143559304	29.2195200716972	-33.523609953129	59.9949103531051
13404	1653997494455	5.56667308539058	4.06927259343771	7.28466936529729	0.0199061794317998	0.0261274715910525	0.217873815155013	-0.000647635087199505	-0.0054401272488066	-0.00470464790449599	0.478515625	-0.137451171875	0.496337890625	0	0	0	0.348664468371552	-0.120950945082986	0.526241395061931	0.766076987973134	0.416881726013611	0.721940251818855	0.552278823892099	-0.890625439684439	0.203006165236913	0.406908863337606	0.181647881085388	-0.661506439635723	0.727607914757431	29.2157511582649	-33.5234907055408	59.995873624119
13405	1653997494455	5.55563098118695	4.05880242451685	7.31524041296068	0.0300283405443616	-0.00447368340313757	0.229759217067562	-1.37980721868971E-05	-0.00494770407944978	-0.00340545333386201	0.4794921875	-0.1328125	0.499755859375	0	0	0	0.348668496494038	-0.120971559348363	0.52622775491197	0.766081269410576	0.416900463578266	0.721908509531013	0.552306171733521	-0.890624396397145	0.203029259025788	0.406899624627081	0.181609988740838	-0.661533992963438	0.727592322762824	29.2157200245816	-33.5253702894576	59.9936674297931
13406	1653997494456	5.54445443641285	4.04834709569198	7.34590828779019	0.0407112085576721	-0.0355242118338267	0.241641974224828	-0.00103163514226096	-0.00226704487909833	-0.00578867161684676	0.47216796875	-0.1455078125	0.498291015625	0	0	0	0.348691978699641	-0.120980175326742	0.526175107382145	0.76610538279001	0.417007107098597	0.721841530674924	0.552313205728545	-0.890580797547368	0.203107320723835	0.40695609014767	0.18157895161376	-0.661583117122307	0.72755540233688	29.2203457725448	-33.5258537339948	59.9850180486647
13407	1653997494456	5.57273669284876	4.0728243934157	7.32592015791913	0.0272538335505478	0.00320173082741432	0.252681279540154	0.00159095039450693	0.000312646854493669	-0.00805673580124394	0.474365234375	-0.145751953125	0.50244140625	0	0	0	0.348691637619259	-0.120968202255276	0.526153379151624	0.766122351524124	0.417058631300907	0.721834527107513	0.552283453973489	-0.890556929284512	0.203153526923453	0.406985257966307	0.181577679687657	-0.66157657151235	0.727561671795052	29.2218849851895	-33.5238089225373	59.9817109876381
13408	1653997494458	5.51038952966857	4.04381702060635	7.35090895322747	0.029110379449857	-0.0623928345666666	0.224641516649916	-0.000839180553386599	-0.00385396147254765	-0.00524660758140044	0.479736328125	-0.13916015625	0.501708984375	0	0	0	0.348558539250736	-0.121017890384469	0.526237403529426	0.766117360493086	0.416857730667001	0.721955582978166	0.552276894854216	-0.890682859360631	0.203162279684001	0.406705215303136	0.181421267839052	-0.661441776969263	0.727723229844571	29.1996669801459	-33.5233581266529	59.9978286761825
13409	1653997494459	5.57265933546672	4.07373975672578	7.32547004021291	0.0239820911743726	0.00520530197975376	0.252688769906724	0.00517456410932207	-0.00504080708952273	-0.00761476270312419	0.47412109375	-0.138671875	0.502197265625	0	0	0	0.348584285831635	-0.121018123625344	0.526211368722548	0.766123491907534	0.416912418362687	0.721915750181072	0.552287683237166	-0.890655814967573	0.203181182196784	0.406754995624597	0.18142837341338	-0.661479445517105	0.7276872188509	29.2038609740329	-33.5240995930911	59.9932047859292
13410	1653997494460	5.55547111595073	4.06080768130087	7.31424887903012	0.0261605307733633	-0.00168238088457591	0.229770893065295	-0.00360972935152665	-0.00454327122561106	-0.00725262206382276	0.479736328125	-0.13916015625	0.503662109375	0	0	0	0.348534265464532	-0.121017226950376	0.526211843078561	0.766146064913346	0.416911853970211	0.721952965163469	0.55223946084176	-0.890667566378285	0.203249924001927	0.406694915870602	0.181371971982735	-0.661417708021858	0.727757393156681	29.197903655299	-33.5207854026194	59.994517454399
13411	1653997494461	5.55619371310182	4.08256887205579	7.34114126007692	0.0119418107955823	-0.0145295100530361	0.258591526116461	-0.000795110969376086	-0.00355003800233173	-0.00897884836551391	0.47216796875	-0.137451171875	0.501220703125	0	0	0	0.348533741508146	-0.121024723842623	0.526179870840021	0.766167077582904	0.416975519483192	0.721920988217179	0.552233196143852	-0.890645787480617	0.203317949106223	0.406708609220743	0.181332560216731	-0.661431703460585	0.727754494498299	29.1988223452781	-33.5203548567601	59.9896294166777
13412	1653997494462	5.57808437981784	4.0559548067174	7.33953634202356	0.0443019579233601	-0.00207832552239335	0.258688981454819	-0.00453525890351789	-0.00900719620230923	-0.00503435429137885	0.47509765625	-0.14404296875	0.5009765625	0	0	0	0.348488064592754	-0.121028145025164	0.526181296777254	0.766186334953823	0.416970862067151	0.721952110555887	0.552196025203802	-0.890659566640169	0.203378623516409	0.406648093379173	0.18127558175144	-0.661379078562719	0.727816513896329	29.193112666925	-33.5178003013105	59.990976333465
13413	1653997494462	5.55140203443224	4.10150937074196	7.32595188766108	-0.0102413194342997	-0.00329626357720319	0.252594500762465	-0.00170840513365038	-0.00306528335565345	-0.00335524713626073	0.479248046875	-0.13427734375	0.50439453125	0	0	0	0.348479037268646	-0.121045397358178	0.526171511790029	0.766194435207744	0.416983103917993	0.721935801522374	0.552208103460247	-0.890662935671089	0.203411801529827	0.406624118837222	0.181230864006861	-0.661386677729932	0.727820744725436	29.1915324974573	-33.5186303655551	59.9896872376104
13414	1653997494463	5.56118719076987	4.04258212584505	7.3283402836819	0.0461645106717218	-0.00874013663536882	0.235777046966257	-0.00511269110650015	-0.00424761041598769	-0.00666020138771761	0.47998046875	-0.145751953125	0.50244140625	0	0	0	0.348418963690908	-0.12104369909226	0.526180154144645	0.766216088342534	0.41696573658876	0.721987558546284	0.552153547317563	-0.890683239342441	0.203477342249742	0.406546846434008	0.181171028769635	-0.661310015420421	0.727905297301232	29.184062692888	-33.5148811208268	59.9924996914259
13415	1653997494464	5.55690691440386	4.08280629623026	7.34046936265405	0.0103963671795325	-0.0117812546336765	0.258596829865324	-0.00132286294872446	-0.00623879705321864	-0.00227144742957842	0.474365234375	-0.141845703125	0.501220703125	0	0	0	0.348418765725391	-0.121073594646717	0.526169562968851	0.766218728154621	0.416973551368981	0.721953321845842	0.552192410790383	-0.890690571480823	0.203499909391126	0.406519486313963	0.18111698797712	-0.661340447843286	0.727891096739435	29.1828969713921	-33.5175519064651	59.9908579244414
13416	1653997494465	5.57346532634167	4.07474841689796	7.32429576897318	0.0192568343877116	0.010373715581849	0.252694919512102	-0.00423074336191571	-8.86617024739792E-05	-0.0051457518121762	0.483154296875	-0.142578125	0.50341796875	0	0	0	0.348304997379463	-0.121111279670478	0.526236598206271	0.766218460652941	0.416814201289741	0.722057064537201	0.552177070472069	-0.890791720330197	0.203517343017566	0.406289062223237	0.180986277364784	-0.661221813496039	0.728031373474142	29.1643711334948	-33.5164976752896	60.0039065496768
13417	1653997494466	5.53300301119899	4.01839775049442	7.34810484262801	0.0564619579601717	-0.0458380833767883	0.224792326361953	-0.00578935875092895	-0.00504552420892983	-0.00422686949587645	0.474365234375	-0.151123046875	0.49658203125	0	0	0	0.348284837110991	-0.121145259817761	0.526218593230942	0.766234618377626	0.416835636323471	0.722027691770249	0.552199297905868	-0.890799920099839	0.203583328753237	0.40623802210511	0.180896530206986	-0.661233574896706	0.728042996524515	29.1609188928943	-33.518025213199	60.0016215786445
13418	1653997494467	5.52879043880547	4.05861025013998	7.36019172666669	0.0175309272594074	-0.0483252663155579	0.247611860420008	-0.000452649692488043	-0.00702821047521892	-0.00416313174689697	0.4814453125	-0.1357421875	0.505126953125	0	0	0	0.348192302447983	-0.121262592859717	0.526296144112045	0.766204850403406	0.416615504531465	0.722055913917243	0.552328506018953	-0.890946719551791	0.203548978417533	0.405933191923353	0.18068055873252	-0.661213332111743	0.728115008177822	29.1402114807311	-33.5269053280662	60.0156944216236
13419	1653997494468	5.55676031098615	4.06132909211001	7.31297995773335	0.0178832686791772	0.00342770498367477	0.229788600034702	-0.00491940925311964	-0.0058351536756655	-0.00611810917461953	0.476318359375	-0.1474609375	0.498779296875	0	0	0	0.348177654657733	-0.121295083723552	0.526270766396573	0.766223794917582	0.416653166201721	0.722017892020373	0.552349801028784	-0.890946843109892	0.203622802466809	0.405895894372043	0.180593083606761	-0.661232121057363	0.728119646923074	29.1378171593818	-33.5283689624918	60.0121462706427
13420	1653997494469	5.55771304849909	4.08281865950134	7.33985215281319	0.00260663445106465	-0.00874602860174395	0.258604951708708	-0.00214861860250116	-0.00514550878445102	-0.00411254352069533	0.476806640625	-0.14013671875	0.5	0	0	0	0.348124186563794	-0.121332087932603	0.526300268275379	0.766221967043804	0.416573104102359	0.722048384796037	0.552370327725846	-0.891002922458533	0.203635156685122	0.405766577150187	0.180501083400844	-0.66119501886755	0.728176150334424	29.1281626111343	-33.5297798132056	60.017960060475
13421	1653997494470	5.56315819710994	4.06409859020408	7.35442555217573	0.0237842466797401	-0.0183510253559037	0.264628710595751	-0.00491912466800851	-0.00583557066301034	-0.006118013206994	0.480712890625	-0.137451171875	0.502197265625	0	0	0	0.348109135989987	-0.121364686048102	0.526275211395639	0.766240852663982	0.416610029701842	0.722010821431622	0.552391579305355	-0.891003445431225	0.20370886262156	0.405728430750319	0.18041325722218	-0.661213333974039	0.728181284841501	29.1257004532489	-33.5312405111394	60.0144714028422
13422	1653997494471	5.56264931481039	4.04253608198508	7.32725590978481	0.0373339490806005	-0.00492450300245114	0.235816330381859	-0.00622915080322205	-0.00712655774973756	-0.0049837175038421	0.478271484375	-0.13916015625	0.496337890625	0	0	0	0.348080728735779	-0.121397336886195	0.526258875608359	0.766259804976833	0.41662856488073	0.721989899802118	0.552404945225105	-0.891014193761837	0.203782804252388	0.405667690611387	0.180317346476613	-0.6612133946577	0.728204985759417	29.1212604742594	-33.5321592117938	60.0126492045539
13423	1653997494472	5.58007468117374	4.05577005958601	7.33812538810845	0.0341670204772339	0.00319909912003279	0.258728169835168	-0.00598164962978526	-0.00346010004932986	-0.00476799776914511	0.472900390625	-0.142333984375	0.499755859375	0	0	0	0.348054533441704	-0.121425807823114	0.526242503339279	0.76627843674763	0.416649201747426	0.721970959838652	0.552414134352921	-0.891022171397275	0.203853738859774	0.405614525419609	0.180230221554866	-0.661212209734928	0.728227629890364	29.1173106165699	-33.5327908281424	60.0107699305476
13424	1653997494472	5.56878537014617	4.04497328890216	7.3690843317981	0.0432927814441254	-0.0268138607498771	0.270664761383935	-0.00423103723872742	-8.94452747145475E-05	-0.0051448598745098	0.479248046875	-0.140380859375	0.501953125	0	0	0	0.347983954953891	-0.121455383964604	0.526257347639431	0.766295609315472	0.416603587523043	0.722008340007312	0.552399681229829	-0.891066439457097	0.203920742300319	0.405483577143316	0.180116771390627	-0.661150730030281	0.728311513601319	29.1066417988373	-33.5317973922132	60.0147696929362
13425	1653997494473	5.57992139134126	4.05580185609601	7.33822437736123	0.0324987572372581	0.00403615780360856	0.258733390536481	-0.00210502658962317	-0.00484109564275416	-0.00784509279995396	0.46875	-0.133544921875	0.501220703125	0	0	0	0.347977732441936	-0.121473731132729	0.526229432484841	0.76631469694633	0.416653434062753	0.721974389136062	0.552406460240398	-0.891055003179376	0.203988164222503	0.405474795969042	0.180058038400729	-0.661167006352211	0.728311260738524	29.1061229011012	-33.5322633463241	60.0106357873087
13426	1653997494474	5.56265978457652	4.04246614791075	7.32728654388055	0.0357672161972923	-0.0023870635436025	0.235822952393311	-0.00680807390545465	-0.00236706244878203	-0.00660843991553528	0.475341796875	-0.144287109375	0.495361328125	0	0	0	0.347917881122732	-0.121423177205903	0.526213156142608	0.766361060032886	0.416712252679319	0.722047955224063	0.552265922200236	-0.891029133354734	0.204105724595009	0.405472485750461	0.180049943015929	-0.661050378975987	0.728419120064585	29.1023783361549	-33.5226040021138	60.0096617383389
13427	1653997494475	5.5461148627517	4.05041060706399	7.3435169786444	0.0242735293408482	-0.0231141736003584	0.2417312837573	-0.00340396544072407	-0.0011836159879166	-0.00330421288373289	0.475830078125	-0.1416015625	0.497802734375	0	0	0	0.347894139815366	-0.121437871368543	0.526208478477022	0.766372721368983	0.416714961152749	0.722048599714198	0.552263035882567	-0.891038694917272	0.204148609322048	0.405429882312588	0.179996348050698	-0.661036432401907	0.728445021759207	29.0989541633331	-33.5224056334237	60.0095226562397
13428	1653997494477	5.57975836594207	4.05574050349507	7.33838224537676	0.0303568371025194	0.00622260125926399	0.25873896082483	-0.00467098398051002	-0.00216993232723364	-0.00590218964662949	0.4755859375	-0.141845703125	0.499755859375	0	0	0	0.347811142845006	-0.121515520438707	0.526235566461743	0.766379485500525	0.416620213766399	0.722063381279671	0.552315191621785	-0.89112118942844	0.204207075007079	0.405219071945899	0.179807183485206	-0.661002226873724	0.728522774410722	29.083695084636	-33.5259902243785	60.015670568714
13429	1653997494478	5.54591081614856	4.05034888015332	7.34370512380644	0.021653536606382	-0.0224660088492265	0.241738736798419	-0.0042308218324345	-9.00735744602263E-05	-0.0051445969284496	0.481201171875	-0.1416015625	0.497802734375	0	0	0	0.347781899573295	-0.12152560169354	0.526225625808261	0.766397983560055	0.416636237751454	0.722067707826625	0.552297447673189	-0.891125326241693	0.204268682143789	0.4051789214975	0.179749543317783	-0.660978464709134	0.728558556924428	29.0800880940303	-33.5247706909524	60.0148652621024
13430	1653997494479	5.5734757148467	4.0528316086391	7.2969280028555	0.0208064603331706	0.0293349214222565	0.223892753352521	-0.00641029642229343	-0.000592793480483008	-0.00211860939457141	0.47998046875	-0.140625	0.502197265625	0	0	0	0.347712801464354	-0.12158991754541	0.526253033345342	0.766400316116804	0.416547273692252	0.722084240507526	0.552342935494083	-0.891197723945663	0.204307105185273	0.405000276055316	0.179596730520409	-0.660948527785245	0.728623399298222	29.0671912349862	-33.5278970824297	60.0207293889408
13431	1653997494480	5.56208957151314	4.0419154000914	7.32802320132715	0.030829917758796	-0.00115223091815653	0.235839530974442	-0.00315724814940371	0.00248297725918744	-0.00308786796492165	0.468505859375	-0.14208984375	0.500732421875	0	0	0	0.347679393709598	-0.121591302444936	0.526256253215688	0.766413041584534	0.416539822242259	0.722109730731001	0.552315229981927	-0.891208891988663	0.204346790282224	0.404955676761904	0.179558590233734	-0.660908409755054	0.728669188718941	29.0629830233471	-33.525992860872	60.0220484292712
13432	1653997494481	5.56785377995725	4.04457314222954	7.37000784789302	0.0373836871575912	-0.0221427727971819	0.270699740048206	-0.00423054860895724	-9.02010730164063E-05	-0.00514461930979078	0.474365234375	-0.143798828125	0.494140625	0	0	0	0.347579302969092	-0.121571639105071	0.526300234678723	0.76643135875951	0.416456799084856	0.722234436798623	0.552214770536041	-0.891257579122425	0.204393382249283	0.404824990520017	0.17950950435236	-0.660757719285121	0.728817929425653	29.0501669319055	-33.5190885560617	60.0312731595687
13433	1653997494482	5.57872733013985	4.05513608506642	7.3395000638374	0.0265667333741977	0.00873016057661453	0.258747810178214	-0.0076240767312682	0.00367415157269472	-0.00504152531387845	0.47119140625	-0.136474609375	0.50439453125	0	0	0	0.34752619403555	-0.121576421838919	0.526295902512524	0.766457657741469	0.416463593302747	0.722265067105083	0.552169582911858	-0.891269031769643	0.204476334915386	0.404757880056676	0.179436864834872	-0.660698570680504	0.728889436224021	29.0437490081132	-33.5159831130968	60.0319201678273
13434	1653997494483	5.55001886208572	4.03084486839264	7.35971600432391	0.0390540781196183	-0.028461582126659	0.247804877717265	-0.00403668151246542	-0.00167719968784804	-0.00460347136009218	0.481201171875	-0.13525390625	0.505126953125	0	0	0	0.347446319850389	-0.121565672521442	0.526317601142911	0.766480674781826	0.416423139983163	0.722349449071715	0.552089704588261	-0.891299631222565	0.204541675099187	0.404657473093156	0.179378749770095	-0.660586085664396	0.729005684173662	29.0338387829485	-33.5104938832166	60.0372248406833
13435	1653997494484	5.56711622037843	4.04415339551716	7.37079531686032	0.0358318893691563	-0.0202739874093172	0.270709304468278	-0.00573346776437286	0.00020480988838359	-0.00455182478159563	0.478271484375	-0.13916015625	0.494873046875	0	0	0	0.347408814628941	-0.121579228105217	0.526310711138322	0.766500255807216	0.416431053268827	0.722359198404133	0.552070979453144	-0.891309980482273	0.204608301718376	0.40460099055812	0.179308941679174	-0.66055479057294	0.729051213622908	29.0289268322881	-33.5092071443122	60.0370883352574
13436	1653997494485	5.5556253869844	4.05998642031348	7.31458760640783	0.00703008174942031	0.0119394709697516	0.229795549884308	-0.00786990149282506	6.71219650112039E-06	-0.00525807266881399	0.4736328125	-0.1435546875	0.504638671875	0	0	0	0.347398187702119	-0.121589629354127	0.526265213324212	0.766534660964285	0.416521774556695	0.722321019983552	0.552052493346478	-0.891281087507536	0.20471884885221	0.404608719599579	0.179241832091523	-0.660562288519825	0.729060922429619	29.0290674843529	-33.5079368495427	60.0303772805966
13437	1653997494486	5.54344469472092	4.0276199419767	7.31866048173047	0.0310090706684118	-0.0055807626526063	0.212944788228592	-0.00699973156683261	-0.000781748968243269	-0.00714998864936017	0.468994140625	-0.143310546875	0.499267578125	0	0	0	0.347360446200525	-0.121605607144803	0.52624553423189	0.766562740046312	0.416555428023874	0.722318481399256	0.552030421999476	-0.891282393232473	0.204812716232731	0.404558335451347	0.179157112327815	-0.660535966241387	0.729105593452632	29.0245507901864	-33.5064202151479	60.0282868623941
13438	1653997494487	5.52682039005076	4.03549522370387	7.33498061623991	0.0181977114174362	-0.023922126465838	0.218862993620082	-0.00553939186882743	-0.00138252949367933	-0.00401074041845129	0.481201171875	-0.141357421875	0.502685546875	0	0	0	0.347212106411204	-0.12158591673146	0.526334726812981	0.76657183183624	0.41637724040655	0.722514546867573	0.55190825617685	-0.891378955900644	0.204831017024398	0.404336260360395	0.179090900519554	-0.660315821429031	0.72932123602813	29.0040201042991	-33.4980260613793	60.0456223847283
13439	1653997494488	5.54302150714537	4.02746675935389	7.31906529688296	0.0289233469331728	-0.00277820840441068	0.212952190698509	-0.00374725530508486	0.00229487382847222	-0.00811848117118511	0.4765625	-0.142822265625	0.501220703125	0	0	0	0.347178242441891	-0.121579400365088	0.526319616321572	0.76659857739037	0.416412221763958	0.722532293177743	0.551858629434129	-0.891371183321305	0.204909858900146	0.404313446808165	0.179048247994726	-0.660271940219205	0.72937143476365	29.000976995834	-33.4946163834505	60.0441488149253
13440	1653997494489	5.52645165802596	4.03570075604559	7.33514536081396	0.0165657492149531	-0.0230558056571832	0.218867849828086	-0.00171417840918069	-0.00801455218659366	-0.006764848474088	0.47802734375	-0.139892578125	0.494873046875	0	0	0	0.34714459683336	-0.121620504263238	0.526332862118865	0.766598199897393	0.416364342393039	0.722531847456066	0.551895337718427	-0.891411451132593	0.204928694286336	0.4042151098707	0.17895909916318	-0.66026658227554	0.729398163664319	28.9941773665436	-33.497138466874	60.0469837130862
13441	1653997494490	5.55493671175981	4.05996285733777	7.31512369940234	0.00290478201824176	0.0158203374777873	0.229792226610989	-0.0042297531326721	-9.1142197605948E-05	-0.00514442855566695	0.470458984375	-0.144287109375	0.505126953125	0	0	0	0.347113083690451	-0.121629660241969	0.526324926022037	0.766616465469029	0.416376595994641	0.7225402160809	0.55187513665111	-0.891417201820148	0.204989158757607	0.404171766815777	0.178901935727521	-0.660238654531538	0.729437465760658	28.9902637783725	-33.4957505210275	60.0465413437524
13442	1653997494491	5.52724864308115	4.0573541842024	7.36204201176502	0.000878402373398909	-0.0344496112045046	0.247684179950964	-0.00127449477416033	-0.00593468659557036	-0.00600675302598774	0.470947265625	-0.14013671875	0.498779296875	0	0	0	0.347047724942203	-0.121646980670894	0.526354576065568	0.766622950974553	0.416305744696983	0.722596380948848	0.551855050871077	-0.891465612500535	0.205017473734554	0.404050612167025	0.178825581674817	-0.660168391929763	0.729519777412192	28.9802419663265	-33.4943705182335	60.0526856719299
13443	1653997494492	5.54919784942836	4.0308927328733	7.36030885328663	0.0331346086773143	-0.0230355051034392	0.247840002472438	0.000228910634592965	-0.00622961467293335	-0.00659971337149413	0.47412109375	-0.138916015625	0.50927734375	0	0	0	0.347049801169273	-0.121665294706408	0.526333585906133	0.76663351604242	0.416341024822389	0.722562102474747	0.551873317997089	-0.891457767822987	0.20505878371112	0.404046956938144	0.178782547352646	-0.660193080310745	0.729507983144743	28.980414890215	-33.4956255686574	60.0494096624794
13444	1653997494494	5.56058919551138	4.04194140956756	7.3291474253798	0.0228421407809646	0.0100511623811878	0.235855902624726	-0.00127418855439959	-0.00593508822390115	-0.00600667757671874	0.475830078125	-0.1484375	0.5	0	0	0	0.346981946011001	-0.121590328453084	0.526358855821635	0.766658774206119	0.41632429384962	0.722695972827965	0.551710624520552	-0.891454567959037	0.205099768081116	0.404033214473811	0.178837455851907	-0.66003379912798	0.729638642338181	28.9752401154778	-33.4844482866791	60.0549969186886
13445	1653997494495	5.56613305806489	4.02342057651927	7.34353292444476	0.0439831046594628	0.000577589451767519	0.241928060674152	-0.00107987242615195	-0.00752218300592989	-0.00546581390692062	0.476318359375	-0.140380859375	0.506591796875	0	0	0	0.346981215828665	-0.121617942425656	0.526339740784272	0.766667848036786	0.416351106702591	0.722657229747766	0.551741138796821	-0.891453795865505	0.205141026266414	0.404013971515028	0.178778873988263	-0.660063396679174	0.729626223884422	28.9744969047627	-33.4865445525896	60.0520722228122
13446	1653997494496	5.56633413633226	4.02372016009239	7.34321636045598	0.0420922261189806	0.00227381737861244	0.241935913848621	0.000668185805430128	-0.00414975834339314	-0.00584155558931063	0.479736328125	-0.14501953125	0.494384765625	0	0	0	0.346893497767273	-0.121621500770337	0.52641650911322	0.766654270639778	0.416187738966845	0.722779514082012	0.551704214191841	-0.891538345305721	0.205101120279677	0.403847631303637	0.178737642323049	-0.659941894778163	0.729746223514316	28.960506784459	-33.4840079171726	60.0659902199918
13447	1653997494497	5.56654787810272	4.02420904913403	7.34278642367914	0.041673016340085	0.00255432228401602	0.24193759272252	0.00469658853375886	-0.00741957457730367	-0.00464715524350995	0.475830078125	-0.13623046875	0.499267578125	0	0	0	0.346913372741047	-0.121634886993491	0.526404877000618	0.766651140708391	0.41620571947209	0.722744261074192	0.551736832342232	-0.891531336633744	0.205098034566791	0.403864670424252	0.178730732888249	-0.659981461331423	0.729712132159025	28.9626649951333	-33.4862487052394	60.0637112685893
13448	1653997494498	5.55020810867143	4.03273190482913	7.35853944321445	0.0294676343371719	-0.018786358958958	0.247860243340868	-0.000159238118059135	-0.00305671741871943	-0.00768131115810909	0.477783203125	-0.140869140625	0.5029296875	0	0	0	0.346911844906947	-0.121691069956999	0.526376367363137	0.766662491085593	0.416238406748617	0.722673886927449	0.551804351106934	-0.891538181277381	0.205160183489693	0.403817991717921	0.178620435762517	-0.660039205095915	0.729686910711957	28.9606982153386	-33.4908872653458	60.0593524297517
13449	1653997494499	5.57325530390771	4.07618012470891	7.32365891223937	-0.00578122510303302	0.0298649137630809	0.252672719834409	0.00411372966712934	-0.00265894109717968	-0.00626979762274347	0.4736328125	-0.138916015625	0.50146484375	0	0	0	0.346918033243851	-0.121685359025625	0.52636628259377	0.766667521261622	0.416262419894441	0.722666175448236	0.551796336202628	-0.891525557159203	0.205172829517268	0.403839437103227	0.178627485890603	-0.660043717408853	0.729681103218046	28.9621805048283	-33.4903366259343	60.0576584350961
13450	1653997494499	5.56126018309681	4.04445185699854	7.32725316108062	0.0184149001565354	0.0133864546840623	0.235861101563223	-0.00102919093636736	-0.00226898676954717	-0.00578903904920031	0.4755859375	-0.1357421875	0.507568359375	0	0	0	0.346874608264439	-0.121649486225792	0.526376558045362	0.766685807735288	0.416258243282637	0.722736637395574	0.551707193958345	-0.891525108916142	0.20521145056342	0.403820802745127	0.178639455527929	-0.659954554135203	0.729758817284786	28.958475299372	-33.4842126175209	60.0603230967889
13451	1653997494500	5.57299026703141	4.0768792506391	7.32347144359814	-0.00640456695414678	0.0313976287403652	0.252667678089491	-0.00078512902699119	0.00139837602140694	-0.00557185384461712	0.47509765625	-0.13427734375	0.500732421875	0	0	0	0.346850717914489	-0.121641829153354	0.526373437995711	0.766699973037044	0.416268538345602	0.722757889896912	0.551671583983966	-0.891524112978001	0.205251166509557	0.403802816514761	0.178620435455755	-0.659918927776911	0.72979568976486	28.9561678245812	-33.481766358786	60.0604388935058
13452	1653997494501	5.56005308054486	4.02352098238036	7.30027124303593	0.0338611639371896	0.0279917041168912	0.207040251809737	-0.00122353834886346	-0.000682265904392155	-0.00632991948371185	0.4755859375	-0.144775390625	0.498779296875	0	0	0	0.346848658954026	-0.121524094226994	0.526326889584789	0.766751529247972	0.41642379964462	0.722822956720461	0.5514691218259	-0.891424833173403	0.20535202616359	0.40397068229301	0.178753981469811	-0.65981627638942	0.729855804608206	28.9642572011329	-33.467859354081	60.0534284598638
13453	1653997494502	5.54860319494158	4.01310804932346	7.33114184307329	0.0438984488018122	-0.00236025102742822	0.21904936147749	0.000718282504038752	0.00110378482555643	-0.00616507733004359	0.4765625	-0.14794921875	0.505859375	0	0	0	0.346831950951718	-0.121511284295611	0.526321841446467	0.766764582387748	0.416440654010464	0.72284190232671	0.551431560511403	-0.891417885506292	0.205385834030852	0.403968826246461	0.178749363878111	-0.659784997874425	0.729885211175713	28.9631676024152	-33.4652795352413	60.0530749776184
13454	1653997494502	5.54909148126261	4.0349200369232	7.35818207354977	0.0271425387717246	-0.0137528195279108	0.247874925001172	0.0015460291642593	1.05807568715897E-05	-0.00432524824873074	0.478271484375	-0.140380859375	0.501220703125	0	0	0	0.346720346549008	-0.121533706740954	0.526437478394137	0.766732117989564	0.416186278935652	0.722996627759225	0.551420762643631	-0.891549463433662	0.205297165261916	0.403723455085991	0.178685577137173	-0.659643047552393	0.730029118829479	28.9436367282277	-33.4645379209139	60.0735180618718
13455	1653997494503	5.54359748486714	4.05391801882465	7.34348237555733	0.00517712273816291	-0.00372316004122568	0.241785130820265	-0.00335959801274904	-0.000882060590327918	-0.00703560710967051	0.482177734375	-0.14404296875	0.4970703125	0	0	0	0.346692839957535	-0.121538060570817	0.526423896047265	0.766753191206454	0.416212763006205	0.723001653678696	0.551394182675707	-0.891547155207605	0.205363912785195	0.403694604084301	0.178635399492839	-0.659616761539173	0.730065149109727	28.9407051839775	-33.4627123944713	60.0721138703013
13456	1653997494504	5.54868223725474	4.03537072734989	7.35824353483996	0.0252320384951242	-0.0139484038985841	0.2478796286993	-0.00122316378329594	-0.000682702778340358	-0.00632989502879665	0.4716796875	-0.13720703125	0.512451171875	0	0	0	0.346674899838617	-0.121600403804008	0.526427283406678	0.766749092533961	0.416175314159535	0.722963668056197	0.551472250031624	-0.891586899292557	0.2053816582139	0.403597789239725	0.178524252957678	-0.659652870182522	0.730059711233174	28.9350666834968	-33.4680742116886	60.0730413662681
13457	1653997494505	5.58276951944448	4.06251399736865	7.38018860405196	0.019083306881624	0.00235528904749538	0.293654684914447	-0.00161266717954662	0.00249084884728725	-0.00741157655150093	0.4765625	-0.14111328125	0.50439453125	0	0	0	0.346645465794719	-0.12158715591413	0.526419066162942	0.766770142442187	0.4161990605937	0.722989572099066	0.551420366505384	-0.891580117285101	0.205439775648198	0.403583192221262	0.178502763067713	-0.659606380516159	0.73010696912135	28.932618947807	-33.4645107136446	60.0725154931043
13458	1653997494506	5.52553936232492	4.04131584187444	7.33274075627416	0.00691322765997738	-0.00909241694810447	0.21890151999742	-0.00015748082469226	-0.00305783254947422	-0.00768125700043784	0.48046875	-0.1435546875	0.502685546875	0	0	0	0.346578839718998	-0.121453369645216	0.526447190057212	0.766802153714843	0.416204870165378	0.723175342442791	0.551172323446464	-0.891548014169197	0.205472927879799	0.403637231111631	0.178649501766957	-0.659392371802446	0.730264373721711	28.9306375362733	-33.4474764828793	60.0785339856154
13459	1653997494507	5.56517782890524	4.04972046816786	7.36920234185739	0.02232804631797	-0.00247284570178393	0.270768327176539	-0.00379701951242615	-0.00296359622160972	-0.00779367112378847	0.470703125	-0.147216796875	0.5029296875	0	0	0	0.346555203116784	-0.121464746412681	0.526427267428112	0.766824711834301	0.416241294974148	0.723166395565411	0.551156555511387	-0.891543355023712	0.20554764660171	0.403609478443659	0.178587878847665	-0.659378896615164	0.730291613143175	28.9280648362867	-33.4463937410715	60.076059741977
13460	1653997494507	5.58078177843575	4.02055238137402	7.32597012676382	0.0451284619667143	0.0329254634242259	0.236028194256534	0.00091342935727667	-0.000483265641214933	-0.00562419877770208	0.48095703125	-0.1416015625	0.502197265625	0	0	0	0.346454041898394	-0.12146903514007	0.526524069544611	0.76680328282069	0.416035355384644	0.723313893642283	0.551118493913979	-0.891647646401385	0.205484002084894	0.403411451937157	0.178547074288108	-0.659236934759586	0.730429740708812	28.9115762067022	-33.4437802089535	60.0933677301571
13461	1653997494508	5.54775907816977	4.03692740365556	7.35808573962891	0.0224867583386422	-0.00857504740000726	0.247892154228067	0.000670758905785727	-0.00415095406363866	-0.00584152327239235	0.470947265625	-0.135009765625	0.500732421875	0	0	0	0.346448691086233	-0.121476716314285	0.526512929369321	0.766812132823334	0.416055085200869	0.723302105928426	0.551119070290624	-0.891643903386577	0.205514879303143	0.403403995937773	0.178519790589296	-0.659240242964974	0.730433423676268	28.9110057872136	-33.4438197857613	60.091789826379
13462	1653997494509	5.59256528079688	4.05349491014249	7.32185494879097	0.0206650983235192	0.0516661708257309	0.25280173911719	0.000913462720499971	-0.000483418933493825	-0.00562420310647276	0.483642578125	-0.142578125	0.50048828125	0	0	0	0.34644123005322	-0.12143300067588	0.526489577644073	0.766838460888752	0.416125501958036	0.723326118542689	0.551034384457215	-0.89160371103551	0.205574397502755	0.403462500809042	0.178556403099637	-0.659195337760628	0.730465000932127	28.9134739492058	-33.4380050404423	60.088420939078
13463	1653997494509	5.58031778043855	4.02158785742478	7.3257552236256	0.0446678279887743	0.034273621582424	0.236025744601248	-0.00374913664357002	0.00228989088178153	-0.00811701149445525	0.47607421875	-0.145263671875	0.505126953125	0	0	0	0.346403474746303	-0.121423212256026	0.526478153057357	0.766864910243277	0.416154315757484	0.723352397898062	0.550978124730505	-0.891598088459444	0.205650774074002	0.403436002084878	0.178517321657833	-0.659142676192254	0.730522072418231	28.9099869139512	-33.4341423195319	60.0876058995336
13464	1653997494510	5.56362427488489	4.02978782814577	7.34194259978422	0.0318186942499098	0.0137334635068048	0.241964551798825	-0.000832145777379276	-0.00385716921364367	-0.00524824625616048	0.4794921875	-0.135498046875	0.501953125	0	0	0	0.346360408932113	-0.121468621483226	0.526526337434298	0.766844089178086	0.416030779965977	0.723383376497455	0.551030743904587	-0.891671062134856	0.205608966224806	0.403296007864279	0.178440766284499	-0.659121721395303	0.730559682238688	28.9003243791675	-33.4377550795497	60.0960186587286
13465	1653997494510	5.5298679749405	4.02444350663067	7.34715606354519	0.0231627645837014	-0.0148645464415127	0.225018058486254	-0.00422947455241292	-9.59239548414435E-05	-0.00514310905106844	0.481689453125	-0.1357421875	0.50341796875	0	0	0	0.346325006403444	-0.121474739419249	0.526522079050008	0.766862033155598	0.416036775911766	0.723400104268747	0.551004256093281	-0.891679063897659	0.205666980425023	0.40324873238418	0.178386793500914	-0.659085261788504	0.73060575524536	28.89595395791	-33.4359364441076	60.0962343798564
13466	1653997494511	5.5799079374099	4.02208155560476	7.32579636477156	0.044008104435915	0.0346082044105914	0.236027508753608	0.000476323301484816	-0.00256432962019992	-0.00638239556584588	0.480224609375	-0.141845703125	0.4990234375	0	0	0	0.346387374806992	-0.121437159235736	0.526435606833442	0.766899181632749	0.41623713642932	0.723317474542443	0.550961411787307	-0.891574669709184	0.205762676864452	0.40343069930601	0.178441179636541	-0.659146077763585	0.73053760586215	28.9091526468401	-33.4329948633436	60.0814815218398
13467	1653997494511	5.55802764537858	4.04916567443174	7.32710246764133	0.0109425536268203	0.0237315018522793	0.235852910429413	-0.00229234574783602	-0.00325906533464263	-0.00838685430582099	0.47705078125	-0.1455078125	0.497802734375	0	0	0	0.346370396062105	-0.121444199016116	0.526414090781495	0.766920504539947	0.416279023104052	0.723306169572849	0.550944606999097	-0.891564870823477	0.205831507516945	0.40341724259979	0.17839242146754	-0.659136993022813	0.730557710514229	28.9076766342039	-33.4318411166728	60.0786018939029
13468	1653997494512	5.56311257285464	4.03071920721922	7.34181907544472	0.0303878955015348	0.0137128038812314	0.241969006061451	-0.00205035389612938	0.000408514943160989	-0.0081693664122836	0.474853515625	-0.141845703125	0.497314453125	0	0	0	0.346325914219458	-0.121514575591856	0.526435252026205	0.766914919976717	0.416200266685675	0.723294805395521	0.551019021902718	-0.891629391326877	0.205848573128326	0.403265909125847	0.178253657838587	-0.65914413403207	0.730585138117575	28.8976705005646	-33.4369502500248	60.082899316523
13469	1653997494513	5.54633999221402	4.03893116692654	7.35805593291548	0.0188604955663947	-0.00687926286292097	0.24790090835158	-0.00335829080145381	-0.000884710869047273	-0.00703526345254657	0.47998046875	-0.140380859375	0.50439453125	0	0	0	0.346297594386962	-0.12151834273921	0.52642244080539	0.766935904959609	0.416225412388823	0.723301522531299	0.550991210080215	-0.891627561589214	0.205914779876598	0.403236152698198	0.178204089448662	-0.659116083047802	0.730622536999438	28.89464102745	-33.4350407275689	60.0816329325672
13470	1653997494514	5.57915802255871	4.02309454996318	7.32581128585901	0.0402910499901695	0.0353232815669846	0.236040611820529	-0.00316267037464777	-0.00247159653986662	-0.00649457887720324	0.478515625	-0.14697265625	0.501708984375	0	0	0	0.346263880739328	-0.12153809919055	0.526422512220685	0.766947947365238	0.416215658144822	0.723308822622209	0.550988995381892	-0.891645838155815	0.205961327045207	0.403171962146666	0.178135412578431	-0.659093528172331	0.730659630680977	28.8895518970823	-33.4348886711567	60.0824633757608
13471	1653997494515	5.58512831121435	4.02582388209575	7.36760663804962	0.0474291546788619	0.0130435546845914	0.270968924171699	-0.00403357594139769	-0.00168382282305599	-0.00460223086803054	0.471923828125	-0.141845703125	0.506591796875	0	0	0	0.346233528712047	-0.121550944873926	0.526417289714825	0.766963198911889	0.416220409779108	0.723315351840452	0.550976834608529	-0.891655402088383	0.206014361369805	0.40312371157747	0.178076428563454	-0.659069787428702	0.73069542279172	28.8854641964372	-33.4340537434231	60.0824041944434
13472	1653997494515	5.52344565858606	4.0444020865013	7.33261657160789	-0.00266343871589024	-0.00268219254113021	0.21890731053907	-0.00549404992141972	-0.00108591462807618	-0.00774066549241995	0.482421875	-0.1435546875	0.506103515625	0	0	0	0.346117076524728	-0.121541591036692	0.526489052991822	0.766967983729451	0.416073837456087	0.723465254525964	0.550890721720967	-0.8917357351891	0.206024492835499	0.402940798304951	0.178016685654242	-0.658902066961061	0.73086122197249	28.8689706175745	-33.4281416816493	60.096258614053
13473	1653997494516	5.56235952265686	4.03127338502899	7.34208537054623	0.0266696894580325	0.0168952834216168	0.241974711985597	-0.00209551022819881	-0.00484647034588383	-0.00784643522290404	0.4775390625	-0.144287109375	0.501220703125	0	0	0	0.346103781531185	-0.121555680111285	0.526467682666089	0.766986419795485	0.416111991481763	0.723445365025956	0.550888023438106	-0.891728887238399	0.206087903036024	0.402923526102388	0.177961799860668	-0.658904074994742	0.730872778084993	28.8675491645008	-33.4279564381266	60.0933072409157
13474	1653997494517	5.56234953848703	4.03132291422283	7.34206573933473	0.025143139415097	0.0173921801404863	0.241977797993757	-0.00553679526016497	-0.00139096991691903	-0.00400864663512114	0.478515625	-0.137451171875	0.49609375	0	0	0	0.346036752845044	-0.121593844045981	0.526520799188098	0.766974152623741	0.415981570224896	0.723503809672897	0.550909766315713	-0.891807565511369	0.206068827405569	0.402759114693111	0.177872424309995	-0.658845866466883	0.730947005541159	28.8552040775987	-33.4294491495228	60.1030693558447
13475	1653997494518	5.55688699599911	4.04990931027053	7.32755662078719	0.00315327968571522	0.0274303604802243	0.23584895740726	-0.00636487075524526	-0.000298760950050292	-0.005848055167444	0.467529296875	-0.148193359375	0.5	0	0	0	0.345993646933373	-0.121605407297575	0.526512549204707	0.766997429414008	0.415993320891904	0.723518146873041	0.550882063711214	-0.891816940303865	0.20614586362341	0.402698929596305	0.177797924510881	-0.658806021569596	0.73100104239547	28.849794939805	-33.427547290131	60.1028606074174
13476	1653997494519	5.55162889758086	4.04158853782345	7.40040140941698	0.0196019361896661	-0.0249322180852361	0.282854054109661	-0.00767241593706328	-0.00159248729069116	-0.00471406020961182	0.470947265625	-0.1484375	0.501220703125	0	0	0	0.345901843874432	-0.121650265703596	0.526542489753553	0.767011169242432	0.415908438676748	0.723569839014011	0.550878261239912	-0.891886043872765	0.206209841776795	0.402513087860977	0.177649811096041	-0.658729222991988	0.731106254517025	28.8351348402902	-33.4272862433527	60.1096812905498
13477	1653997494519	5.57842041240095	4.0226588195752	7.3266122277673	0.0338043924172627	0.0398422886242557	0.23604762554265	-0.00723574611011593	0.000488517842539685	-0.00395548795545087	0.4697265625	-0.14501953125	0.501220703125	0	0	0	0.34585178297118	-0.121664495519227	0.526542636350159	0.767031385831852	0.415901205270952	0.723593690719212	0.550852392393389	-0.891905221517667	0.20627879264216	0.402435256327791	0.177570445974804	-0.658681433211415	0.731168589491416	28.8283902932898	-33.4255103194134	60.1109278105116
13478	1653997494520	5.54453204186201	4.01681329122337	7.33219269957082	0.0229865856554746	0.0133043458583403	0.219110529954369	-0.00937139295079186	0.000286990374940375	-0.00466086844620965	0.474365234375	-0.1416015625	0.504638671875	0	0	0	0.345669175189405	-0.121680454899801	0.526660922776831	0.767029960718035	0.415644278630469	0.723807048854702	0.55076600264541	-0.892051778782245	0.206282187487467	0.402108546411063	0.177435784477622	-0.658445909056797	0.731413376438508	28.8006400479178	-33.4195798341878	60.1335173478499
13479	1653997494521	5.56203974520163	4.05118976086451	7.37076378601899	0.0056076845991064	0.00881101935502702	0.270787942279579	-0.010829979476494	0.00583440154453039	-0.0043890404283209	0.47705078125	-0.148193359375	0.505615234375	0	0	0	0.345590467916657	-0.121682858745903	0.526667337697171	0.76706064022054	0.415629594580797	0.723866698291612	0.550698686409367	-0.892076442657345	0.206377487776239	0.402004916630362	0.177346160275375	-0.658350465666706	0.731521020745141	28.7908468899851	-33.4149589885803	60.1364303844339
13480	1653997494522	5.56621062026513	4.01048396971052	7.3590160727903	0.0397119461153624	0.0137863357142052	0.24812934196828	-0.00703781060416009	0.00385069505316481	-5.14940697651098E-06	0.47412109375	-0.145263671875	0.5029296875	0	0	0	0.34545807798382	-0.121665082221402	0.526773186640566	0.767050411616034	0.415415235209205	0.724062808357974	0.550602607974975	-0.892183550205771	0.206337452384536	0.401787715697837	0.177309602386074	-0.658147327956456	0.731712648247569	28.7714472597479	-33.4083642207932	60.1558920573707
13481	1653997494523	5.57784155200606	4.04227173122193	7.35565720642788	0.0147740299693105	0.0318817592920882	0.264848811617215	-0.00723496084353032	0.000488006049298399	-0.00395572496892836	0.473388671875	-0.14892578125	0.504638671875	0	0	0	0.345406392106127	-0.121679066929234	0.526774727259547	0.767070411164509	0.415405182783721	0.724089158254373	0.550575539789862	-0.89220406826584	0.206405622025716	0.401707131833705	0.177229892191775	-0.65809696101308	0.731777257926919	28.7644647632748	-33.4065063667275	60.157390511761
13482	1653997494524	5.54311123028829	4.01508089500575	7.33421554588419	0.0182661139911736	0.0178047328709399	0.219113257745491	-0.00762656540537685	0.00366139532476321	-0.00503582834489388	0.47998046875	-0.146240234375	0.497314453125	0	0	0	0.345245361718532	-0.121676216799857	0.526892657344457	0.767062361293793	0.41515805180354	0.724302752818784	0.55048098448704	-0.892335350745221	0.206379535696672	0.4014288343605	0.177147999799863	-0.657870055181688	0.732001076954228	28.7403301906371	-33.4000167733639	60.1793967283815
13483	1653997494525	5.55990416619381	4.02838381551644	7.34553031820917	0.0148588078190498	0.026234732091947	0.241979072031723	-0.00442363193548828	0.0014890680867932	-0.00568287507420987	0.4697265625	-0.147216796875	0.5	0	0	0	0.345202033382516	-0.121675973633472	0.52689171453139	0.767082547544327	0.415160157197037	0.72433329030133	0.550439214116673	-0.892344464349619	0.206441354613497	0.401376785639051	0.177097150797871	-0.657817035099117	0.732061027177846	28.7352199305377	-33.3971501110388	60.1803135463957
13484	1653997494526	5.58208600508332	4.02300709926314	7.37144989040571	0.0308011692812506	0.0251197748052762	0.27101057286333	-0.00655901287805396	0.00128722981150076	-0.00638845167473916	0.474365234375	-0.140380859375	0.498779296875	0	0	0	0.345095081553594	-0.121743941630743	0.526964766757715	0.767069704759427	0.414973094544393	0.724410945179488	0.550478077046135	-0.892463887042357	0.206435038567009	0.401114429031273	0.176933719594363	-0.657733500253711	0.732175594727457	28.7156516199643	-33.3998172352908	60.1941020228309
13485	1653997494526	5.55311716440767	4.02559375577055	7.30440663346041	0.00414853384963507	0.0496955757736363	0.207012469246406	-0.00398733635869219	0.00356989583869376	-0.00492361162363381	0.47607421875	-0.135986328125	0.498291015625	0	0	0	0.345046965616408	-0.121736433467304	0.526970944818854	0.767088297135535	0.41496372816677	0.724456915456283	0.550424637851089	-0.89247606334771	0.206488429671267	0.401059851846663	0.17689426405994	-0.657666105299233	0.732245664571139	28.7100563800144	-33.3961497775168	60.1962279191851
13486	1653997494527	5.55877060762536	4.02813143654852	7.3465265687583	0.0123666759017956	0.0269518966023343	0.241980549252892	-0.00466276614003259	0.00276981550722006	-0.00249105774444133	0.47802734375	-0.137939453125	0.497314453125	0	0	0	0.345043041135073	-0.121728874507547	0.526913444030816	0.767130760284692	0.41508860722142	0.724419619739104	0.550379562385845	-0.892426423955239	0.206615044527689	0.401105099944248	0.176851706187546	-0.657667421963316	0.732254761750772	28.7124798826906	-33.3930564312342	60.1875195261421
13487	1653997494528	5.59193726816322	4.03345702560862	7.34179889317425	0.0200344865444532	0.0563069086967455	0.258905215654922	-0.00588245880590901	0.00703559733640607	-0.00540976266282087	0.473876953125	-0.1455078125	0.497802734375	0	0	0	0.344979205739013	-0.121711973225615	0.526922293853936	0.767156072400469	0.415078183626467	0.724487075121861	0.550298627527566	-0.892439474531063	0.206684487694772	0.40104028082609	0.176810310152072	-0.657571289312208	0.732351086362413	28.7054034239312	-33.3875024765893	60.1904414092753
13488	1653997494529	5.52396204228259	4.02226221481014	7.35279114705918	0.00291577698029724	-0.001995980361314	0.225055167631364	-0.00762566580202836	0.00365996438759352	-0.00503588862745777	0.47265625	-0.140869140625	0.4970703125	0	0	0	0.344935201182862	-0.121753867738619	0.526907155963953	0.767179608481354	0.415089689369331	0.724470461510474	0.55031182085984	-0.892459240963323	0.206777111957834	0.400948536834277	0.176683482528623	-0.657560473545345	0.732391405351251	28.6985526964191	-33.3884078122061	60.1891896055729
13489	1653997494530	5.53530777475499	4.05394336901163	7.34971896780236	-0.0220603054933778	0.0161034036653152	0.241750056210522	-0.0104363557328928	0.00760601002641834	0.000102413456752995	0.475341796875	-0.140625	0.501220703125	0	0	0	0.344849152783299	-0.121756527246849	0.526935224239304	0.767198591860871	0.415029235057324	0.724552653542748	0.550249203808507	-0.892503194610398	0.206836662561031	0.400819962864688	0.176603458793899	-0.657451174814356	0.732508819794858	28.6869451753625	-33.3841110704959	60.1955926796869
13490	1653997494531	5.56189710354504	4.00757858722287	7.36385867071513	0.0319538536574816	0.0180360444958025	0.24815025247819	-0.014706348932163	0.00720145787704109	-0.00130932250500373	0.4794921875	-0.1494140625	0.496826171875	0	0	0	0.344755443711879	-0.121765331854417	0.526933003703734	0.767240834156506	0.415029627132289	0.724610512588104	0.55017271256328	-0.892527556636879	0.206970587277574	0.400696564304936	0.176479373429974	-0.657345252549055	0.732633775978819	28.6754020490868	-33.3788625786449	60.1975425446136
13491	1653997494532	5.53942530813901	4.03327476000607	7.36636284601398	-0.00117732927841603	0.00717094881167338	0.24791831457212	-0.0142699825953113	0.00928165320174787	-0.000549482653784086	0.475341796875	-0.14990234375	0.499755859375	0	0	0	0.344650719705278	-0.121770382576772	0.526959092335701	0.767269164204111	0.414972177863682	0.724702424704596	0.550094980186469	-0.892575424680083	0.207059992822736	0.400543718749174	0.176372341528489	-0.657215759853282	0.73277571066748	28.6615288133452	-33.3735292503118	60.204096971553
13492	1653997494533	5.52691369669476	4.00006078726686	7.37113289538655	0.0196459128293228	-0.0106551458920719	0.231234272024238	-0.015336820516775	0.0067061363563527	-0.00260879643571568	0.475830078125	-0.146728515625	0.506103515625	0	0	0	0.344492875576924	-0.121897693765174	0.527073427046951	0.767241300656095	0.414669109511428	0.724799229314816	0.550195971269918	-0.892770777520256	0.207036522355449	0.400120253444934	0.176096190824435	-0.657116394252655	0.732931221862948	28.6309152343548	-33.3804584549843	60.2254434670596
13493	1653997494534	5.55004833781439	4.06347233684268	7.36466957102689	-0.0298582859338475	0.0251537277981353	0.264597860234085	-0.0140731788371559	0.00769348290738667	-9.81508682118643E-06	0.47216796875	-0.14306640625	0.50244140625	0	0	0	0.344392219577578	-0.121910259107498	0.527099253158617	0.767266749662984	0.414608532087941	0.72488157199498	0.550133139977924	-0.892821350888215	0.207120752828115	0.399963784793146	0.175982386953995	-0.656999010904889	0.733063775637545	28.6171345310794	-33.3761474067164	60.2318566267727
13494	1653997494535	5.52063936489534	4.01655731526048	7.35840309912022	-0.00339577045737876	0.00102342517437756	0.225055163000681	-0.0186269120958844	0.00331399175356865	0.00208819963541733	0.472900390625	-0.145751953125	0.509033203125	0	0	0	0.344230535234317	-0.121921501621861	0.52718031219986	0.767281828589355	0.414432131742258	0.725053540362301	0.550039427484667	-0.892929955401761	0.207172514082309	0.399694438483981	0.17584681664954	-0.656792899639535	0.733280972109132	28.5937761341615	-33.3697179012168	60.2482194819089
13495	1653997494536	5.50937651128407	4.00450162119441	7.38995290518116	0.00655245748767191	-0.0291741519507652	0.237176943283114	-0.0117859825555236	0.00105382230709919	0.0015537952084171	0.47509765625	-0.146484375	0.5048828125	0	0	0	0.344154775342156	-0.121955912534255	0.527202484663543	0.767295110222732	0.414368591125048	0.725096357799474	0.550030856038987	-0.892983196518971	0.207230061547554	0.39954563234474	0.175726154637846	-0.656727472774617	0.733368492014254	28.5819386275289	-33.369129847988	60.2534618451635
13496	1653997494536	5.52515784111429	3.97405968201369	7.34733754391914	0.0306354307265961	0.0068282931805201	0.202446344936202	-0.0181896843637588	0.000446826173856285	-0.000565122171327878	0.473388671875	-0.137939453125	0.491943359375	0	0	0	0.343983446283496	-0.121950773129194	0.527293431456139	0.767310259777185	0.414179292152805	0.725297225302993	0.549908582329447	-0.89309341417466	0.20727405165228	0.399276371789637	0.175612264690284	-0.656491738317725	0.733606795232243	28.5578977083941	-33.3607415616653	60.2715732798477
