// Start Time : 24/06/2022 05:40:04																																
// Update Rate : 100Hz																																
// Filter Profile : 46.1 human																																
// Firmware Version : 4.4.0																																
PacketCounter	Time_Of_Arrival	Acc_X	Acc_Y	Acc_Z	FreeAcc_X	FreeAcc_Y	FreeAcc_Z	Gyr_X	Gyr_Y	Gyr_Z	Mag_X	Mag_Y	Mag_Z	VelInc_X	VelInc_Y	VelInc_Z	OriInc_q0	OriInc_q1	OriInc_q2	OriInc_q3	Mat[1][1]	Mat[2][1]	Mat[3][1]	Mat[1][2]	Mat[2][2]	Mat[3][2]	Mat[1][3]	Mat[2][3]	Mat[3][3]	Euler_X	Euler_Y	Euler_Z
26872	1656049237443	9.80622215501209	-0.646146721987144	0.948853019397318	-4.33680868994202E-16	2.08166817117217E-15	0.0604995730035949	0.0239951807011794	0.0189214102372637	0.00315698514063075	0.6748046875	0.392822265625	-0.0869140625	0	0	0	-0.414298194003674	-0.529486451098425	-0.41686228790076	0.611740907145037	0.0917398620586778	-0.0712928674309486	0.993227629882963	0.948753989188917	0.309165678742876	-0.0654404392220296	-0.302406457780866	0.948332172891403	0.0960022090969781	-34.280515704004	-83.3280408633698	-37.8514881912292
26873	1656049237443	9.77460817989085	-0.571480518985406	0.870585682231113	-1.73472347597681E-16	0	0.0172400961874981	0.0244249528291454	0.0263594175488762	0.00848396819335163	0.676513671875	0.392333984375	-0.084716796875	0	0	0	-0.416728612793188	-0.531153399720144	-0.42073017197429	0.605969843833571	0.0817243767124346	-0.0672059543231407	0.994386487214342	0.952593232106186	0.2986467713399	-0.0581054224125678	-0.293065283506002	0.951994467248507	0.0884266584903955	-33.3090358155768	-83.926229784799	-39.4321336766163
26874	1656049237443	9.77491704577385	-0.514445785239217	0.918811723675759	0.0850967950349204	0.0392053081130668	0.0183397298838752	0.0234700473023124	0.023712380823954	0.000792779167062259	0.679443359375	0.4033203125	-0.082763671875	0	0	0	-0.415447096164219	-0.530298975521401	-0.418808131226311	0.608922372777019	0.0867654915593537	-0.0694209430508163	0.993807064847297	0.950665620967722	0.304006919014886	-0.0617630172605863	-0.29783657697556	0.950137108977968	0.0923734136993404	-33.7676101155964	-83.6201527432606	-38.6632506990258
26875	1656049237444	9.75239508155891	-0.464914721807855	0.924062582390961	0.129488297708687	0.0588721025919239	-0.00661711134375231	0.0107978412223529	0.0173718113916768	0.00635107865409169	0.672607421875	0.395751953125	-0.078857421875	0	0	0	-0.415394681119904	-0.530255500490357	-0.418796247177823	0.609004159630118	0.0868776150989857	-0.0695666840610211	0.993787078032043	0.950627942214089	0.304113924494129	-0.0618161500789763	-0.297924143829465	0.950092204682016	0.092552726194029	-33.73904034088	-83.6098553451234	-38.6857734734016
26876	1656049237444	9.75884296736296	-0.427464793543019	0.943215120303511	0.160576431608597	0.0866546108315817	-0.000750597078692294	-0.0111718895049729	0.0106860178281903	0.000657520920766926	0.67822265625	0.400390625	-0.07861328125	0	0	0	-0.415403825108616	-0.530196512778857	-0.418855657082042	0.609008422316671	0.0869031927350202	-0.0696819268607219	0.993776767771031	0.950664564731067	0.303999201231003	-0.0618172388222257	-0.297799799289979	0.950120473792608	0.0926626398445402	-33.7081050994394	-83.6045498557227	-38.7238212841818
26877	1656049237445	9.76670572762819	-0.47548108946024	0.807984403403568	0.156412401254462	-0.0577102277522244	-0.00250558646047772	-0.0233292393726241	0.0084728711140111	0.00205562176240372	0.683349609375	0.393310546875	-0.080322265625	0	0	0	-0.415462565263703	-0.53011758092996	-0.418928838120168	0.60898672879198	0.0869479579605073	-0.0697561853177535	0.993767642468004	0.950732225575952	0.303778970911578	-0.0618592926188098	-0.297570643474612	0.950185461603059	0.0927324145069424	-33.7061833913484	-83.5998577797233	-38.7392054723388
26878	1656049237445	9.75517573464927	-0.4798162281093	0.787695990989296	0.158070918949194	-0.0782544248055412	-0.0155943304898951	-0.0325400531698308	0.013826036955641	0.00485870103949416	0.68408203125	0.39453125	-0.0771484375	0	0	0	-0.415543553972995	-0.529999506246119	-0.419030960382573	0.608963982819364	0.0870271552394594	-0.0698737682594998	0.993752449436049	0.950825281977279	0.303473217984704	-0.0619297111154161	-0.297249991427682	0.950274519533818	0.092848156260727	-33.7032837038946	-83.5920533706727	-38.7608467580238
26879	1656049237446	9.7357658877341	-0.536420681501598	0.781695721420213	0.105374877374123	-0.101307971930346	-0.0319631998295051	-0.0360246134471614	0.0259491957595823	0.000234998719138002	0.67236328125	0.389404296875	-0.07763671875	0	0	0	-0.415599487351027	-0.529844517151351	-0.419179614787045	0.608958376496457	0.0871064763832744	-0.0701196559545503	0.993728179947065	0.950932094769965	0.303131033321097	-0.0619655369870211	-0.296884847893078	0.950365619373144	0.0930837075164315	-33.6515838622922	-83.5796061347165	-38.8336428635389
26880	1656049237447	9.75306549009712	-0.552260616721357	0.777270538687894	0.0937388962185105	-0.113513909825182	-0.0142305959025997	-0.0394942279447735	0.0231746913028418	-0.00353576083552756	0.68505859375	0.39404296875	-0.074462890625	0	0	0	-0.415659847801015	-0.529705697388599	-0.41934533007414	0.608923853388176	0.0871227365981362	-0.070343969466414	0.993710900980441	0.951053527689915	0.302752770142095	-0.0619511714163238	-0.296490836681707	0.950469613470623	0.0932775301601905	-33.5905081734104	-83.5707587939086	-38.9178331344429
26881	1656049237448	9.73368437477348	-0.608045491394651	0.771512708453383	0.0410431649237092	-0.136567566092377	-0.0306003115704136	-0.0387972525943468	0.023711802109416	-0.00878905454212919	0.681884765625	0.393310546875	-0.076904296875	0	0	0	-0.415704964280864	-0.52957040884358	-0.41952411402602	0.608887577882956	0.0871093996558545	-0.0705959475205463	0.993694200790804	0.951176139090638	0.302377800845858	-0.0619000644607928	-0.296101173446213	0.950570290798792	0.0934891294989787	-33.5089312273723	-83.5622193101932	-39.0222971255479
26882	1656049237451	9.74088599235042	-0.61233910493652	0.714521095316062	0.054302831165221	-0.194574771395117	-0.0285394224902493	-0.0332388553986678	0.0251503412746369	-0.0085875996594161	0.67626953125	0.403564453125	-0.076416015625	0	0	0	-0.415731621184322	-0.529454553914415	-0.419690378956652	0.608855549615806	0.087075722301019	-0.0708396326117132	0.993679810118528	0.951283632780761	0.302054409917354	-0.0618270446723686	-0.295765563562081	0.950654974163033	0.0936901889734865	-33.4211986517993	-83.5548698136566	-39.1297529900611
26883	1656049237448	9.76227534683343	-0.618877205508235	0.790789992728183	0.0275931412099685	-0.128093301525105	0.000222901916741236	-0.0315483864622045	0.0296622019819586	-0.00804884100165111	0.673095703125	0.397705078125	-0.076416015625	0	0	0	-0.415744100967615	-0.529314769178138	-0.419860046468319	0.608851590307642	0.0870868330190306	-0.0711459283160624	0.993656953077249	0.951383899679445	0.301748767780501	-0.0617766669033051	-0.295439602872479	0.950729161237309	0.0939654352810484	-33.32253280142	-83.5432135598707	-39.2472386079974
26884	1656049237448	9.76080594311795	-0.632889992945898	0.824986682238904	0.00404573423355608	-0.102235263049502	0.00281141000226448	-0.0251245134249049	0.0340256291806247	-0.0085300512057025	0.667236328125	0.395263671875	-0.08544921875	0	0	0	-0.415733673321264	-0.529195522543506	-0.420017890810903	0.608853498951493	0.0870741406373332	-0.0714499279005336	0.993636252275086	0.951467521869243	0.301500968531138	-0.0616986288566232	-0.295173929845221	0.950784977677811	0.0942352235734293	-33.2139723904691	-83.5326749614777	-39.3710786573728
26885	1656049237450	9.71291570605382	-0.619296832465209	0.851369944113828	0.0054567192169357	-0.0728191568344902	-0.0431552544413254	-0.0247334973336385	0.0341511341659238	-0.00696416678531657	0.677734375	0.400146484375	-0.0751953125	0	0	0	-0.415718811772371	-0.529054079101442	-0.420175515170853	0.608877809889309	0.0871086356740675	-0.0717956286379271	0.993608309797924	0.951546561147437	0.301260811978952	-0.0616527788041157	-0.29490884618724	0.950835059762874	0.0945593018493862	-33.1043988767443	-83.5184767490814	-39.4956176954648
26886	1656049237452	9.73673143058117	-0.596680804450796	0.865604748155518	0.0248919958223985	-0.0565678289116661	-0.0195561807610982	-0.0268095449108238	0.0295082322075615	-0.0090625239332614	0.679443359375	0.400634765625	-0.080810546875	0	0	0	-0.415726052489013	-0.528949268036271	-0.42032611911156	0.608859979567068	0.087077250873017	-0.072043522252195	0.99359311756971	0.951635486922882	0.300995605749035	-0.0615755255667453	-0.294631044544608	0.950900297729089	0.0947690422515915	-33.0135164284512	-83.5107702110978	-39.6027169881246
26887	1656049237452	9.70764038622611	-0.584382396559566	0.853603517923685	0.0380839476919839	-0.0648351584730852	-0.050373647542294	-0.0256855851472477	0.028553237965626	-0.002467668521896	0.677978515625	0.397216796875	-0.07861328125	0	0	0	-0.41573770481815	-0.52881348175677	-0.420460907040524	0.608876907063718	0.0871378543258845	-0.0723224668751713	0.993567539288886	0.951713279604988	0.300749572886393	-0.0615753833294698	-0.294361729453745	0.950956968108306	0.0950369246096389	-32.9396096851799	-83.4978157030939	-39.691913096874
26888	1656049237453	9.72492577736693	-0.600136147244518	0.849455001305805	0.0262597206073534	-0.076405070324357	-0.0326367069327347	-0.0247284206837836	0.0252182908718241	-0.000447108388982948	0.674560546875	0.396240234375	-0.07666015625	0	0	0	-0.415772556941628	-0.528712258072375	-0.42056909596734	0.60886629449777	0.0871699673624505	-0.0724925992335557	0.993552323658091	0.951788788934089	0.30050963282287	-0.0615797193891263	-0.294107970054212	0.951019865006524	0.0951930581164618	-32.898543869849	-83.4901216925479	-39.7477086004434
26889	1656049237453	9.71986795721362	-0.566129724054469	0.848591702416434	0.0592030875393839	-0.0690113749987897	-0.0398589239709182	-0.0275049578994261	0.0289596051074943	-0.00379914296999593	0.677734375	0.3984375	-0.080078125	0	0	0	-0.415785342208161	-0.528574144577829	-0.420713567223982	0.608877670178774	0.0872189360749783	-0.0727794300765201	0.993527056374253	0.951872956419235	0.30024528711703	-0.061568193100973	-0.293820918294895	0.951081448731785	0.0954638457773178	-32.8194782299839	-83.4773648769814	-39.8431500029255
26890	1656049237454	9.68947741071745	-0.568959413483918	0.867429000482368	0.0487076506204029	-0.0510277471758649	-0.0680917422743921	-0.0321936755900202	0.0215103894156804	0.0018222559071192	0.674560546875	0.395263671875	-0.08154296875	0	0	0	-0.415859352233484	-0.528469573255003	-0.420824775636437	0.608841044538035	0.0872528367084351	-0.0728927631140823	0.99351577117423	0.951968820749806	0.29993501474098	-0.0615983055980487	-0.293500096774352	0.951170663980929	0.0955618186072448	-32.8054712304556	-83.471675281889	-39.8760563968082
26891	1656049237455	9.70680904476009	-0.584946537956341	0.862623328556435	0.0372542715464581	-0.0632941007420361	-0.0503603330382116	-0.0268465429292618	0.0192387460573802	-0.000642711048761978	0.684326171875	0.407470703125	-0.081787109375	0	0	0	-0.415898894407828	-0.528355848113411	-0.420937667090503	0.608834696628821	0.087303156377525	-0.073077687516825	0.993497765711486	0.952048139853937	0.299679180109502	-0.0616175982131369	-0.293227724281283	0.951237110607072	0.0957364147894089	-32.7660272930818	-83.462607778611	-39.9312406026235
26892	1656049237455	9.71667126519618	-0.596168705339787	0.916683729435054	0.0117283797400712	-0.0163826935251452	-0.0347008334290191	-0.0244574694461362	0.0153677421231141	0.00114892570101474	0.674560546875	0.39599609375	-0.0791015625	0	0	0	-0.415962023030016	-0.528293119688915	-0.421016519765516	0.608791479219826	0.0873029395477738	-0.0731227900507848	0.993494466175583	0.952122289325342	0.299441370962618	-0.0616280092644409	-0.2929869330127	0.951308531934418	0.0957639501722615	-32.7629341508811	-83.4609474983598	-39.9487112705937
26893	1656049237456	9.69652493814997	-0.57445946591328	0.812884133859068	0.0616756382294371	-0.108286668234658	-0.0660033019811639	-0.0187229331877967	0.0132238016891261	0.000245666982128783	0.681884765625	0.3984375	-0.080078125	0	0	0	-0.415991824114555	-0.528212942338282	-0.421092727147462	0.608787980301593	0.0873440053796948	-0.0732478509511501	0.99348164404546	0.952176912568023	0.299263434826716	-0.0616483880417258	-0.292797117295678	0.951354901656976	0.0958837796323594	-32.7389534376381	-83.4544995628114	-39.9836468436654
26894	1656049237457	9.70776005984546	-0.571014504704169	0.835256096010025	0.0593114850172697	-0.0866592577669481	-0.0529082698284426	-0.0159013323814762	0.0108154464336188	0.00169641327077183	0.68115234375	0.39599609375	-0.080322265625	0	0	0	-0.416042550613844	-0.528185781680321	-0.421136021309965	0.608746932365731	0.0873284631719225	-0.0732350025458049	0.99348395755651	0.952226041778796	0.299106095267879	-0.0616531356208962	-0.292641939711854	0.951405370058272	0.0958567522189504	-32.748309093453	-83.4556625032384	-39.9837182968085
26895	1656049237458	9.69014453986742	-0.55531386568663	0.843052846673821	0.0707670504282737	-0.0743965445364605	-0.0706408726946499	-0.0124630709747906	0.0152154310039961	-0.00480043393651868	0.679443359375	0.404541015625	-0.072021484375	0	0	0	-0.416035769224186	-0.528123209615099	-0.4212151925324	0.608751078661697	0.0873272740914785	-0.0733941140908577	0.9934723203072	0.952266697120313	0.298984000611867	-0.0616174077164377	-0.292509973770677	0.95143148539185	0.0960002283837717	-32.6942333265714	-83.4498148514479	-40.0453367353367
26896	1656049237459	9.71889580780254	-0.567259068491183	0.858909049692055	0.0567797335865271	-0.0648453580623466	-0.0398160134149297	-0.0144676675724254	0.0102785621655369	0.00147098484898437	0.67822265625	0.398193359375	-0.07861328125	0	0	0	-0.416084521975033	-0.528110491585839	-0.421252569807419	0.60870292563813	0.0872911622152195	-0.0733581404657261	0.99347815085513	0.952312546231699	0.298839886006908	-0.0616079282323027	-0.292371454298833	0.951479535123478	0.0959459584995449	-32.7049548455793	-83.4527440187176	-40.0431735249426
26897	1656049237460	9.73148358839286	-0.549241034757024	0.84983355539758	0.0782680125530827	-0.0697153153986309	-0.0292999399065081	-0.0130800799160541	0.00840592495415127	0.0031471944882204	0.673828125	0.3955078125	-0.077880859375	0	0	0	-0.416114935070247	-0.528050798567454	-0.421295027366243	0.608704538228716	0.0873457080975007	-0.0734287426626691	0.993468140922458	0.952348037701423	0.29871772145592	-0.0616517475375298	-0.292239529090769	0.951512450070498	0.096021429887515	-32.7029936969019	-83.4477160024621	-40.0526921984688
26898	1656049237461	9.69607087789316	-0.575168798470475	0.817783874103359	0.0593389268591011	-0.104541121981783	-0.0659479021463856	-0.0161088012906769	0.00710254296139818	-0.000977156346970857	0.68310546875	0.3935546875	-0.0771484375	0	0	0	-0.416170435074889	-0.528055816425751	-0.421338200629583	0.608632355694911	0.0872623508583182	-0.0733576854554154	0.993480715518577	0.952402560918337	0.298552579319607	-0.0616094094907889	-0.292086706439841	0.951569759590034	0.0959184474170229	-32.7130521373333	-83.4540328749095	-40.0523146261339
26899	1656049237461	9.72485609478363	-0.58739002188552	0.833041187000131	0.0461352556282589	-0.0962539653562987	-0.0351407679618934	-0.0172009701611648	0.00642604215326152	0.00271438606108655	0.67578125	0.390380859375	-0.076171875	0	0	0	-0.416216410257009	-0.527994373474232	-0.421388724521199	0.608619244075242	0.0873069688518992	-0.0734107284331588	0.993472877405723	0.952450419486532	0.298390885358332	-0.0616528827793098	-0.29191726843375	0.951616385150016	0.0959716828246445	-32.7169739215513	-83.450094671835	-40.0582874052368
26900	1656049237462	9.75364423162123	-0.599728045605992	0.84816035767222	0.0319167488288383	-0.0862694048448513	-0.00431520263944662	-0.0165880939920009	0.00430266112773421	0.00126378566105477	0.672119140625	0.3984375	-0.086181640625	0	0	0	-0.416293049710063	-0.528010825077222	-0.421414544302537	0.608534672154884	0.0872287009031127	-0.0732762498142417	0.993489680344953	0.952505196419535	0.298219757226761	-0.0616346265778911	-0.291761896985435	0.951680391524788	0.0958093307287332	-32.753381482954	-83.4585400810414	-40.0318540011064
26901	1656049237463	9.71992574336785	-0.553845890527712	0.830557761822661	0.0780718909969336	-0.0871734037291509	-0.0423325328301285	-0.0151080706440727	0.00510421649554484	-0.00086339157531917	0.6806640625	0.397216796875	-0.076171875	0	0	0	-0.416326024822806	-0.527965216547293	-0.421467629384663	0.608514920566688	0.0872355349940841	-0.0733273623331828	0.993485309084917	0.95255000173257	0.298075356872225	-0.0616406994182936	-0.291613538152084	0.951721692281285	0.0958507423428192	-32.7446848823379	-83.4563419758159	-40.0493204314898
26902	1656049237463	9.73122296819777	-0.550322638200057	0.852115072855091	0.075088138336062	-0.0647972214075497	-0.0292412079423077	-0.0192753351922534	0.00178746891623815	0.00060389200891034	0.675537109375	0.3974609375	-0.076171875	0	0	0	-0.416412559793506	-0.527995969365258	-0.421497202070296	0.608408534643601	0.0871207299619077	-0.0731566838078521	0.993507965758273	0.952613296464015	0.297881377386263	-0.0616002630386159	-0.291441050318702	0.951795558206016	0.0956416727605233	-32.7845101903932	-83.4677429563104	-40.020722584832
26903	1656049237464	9.72335489051318	-0.602797263660394	0.865403523095885	0.0206560149715927	-0.0673179930360535	-0.0325564968101908	-0.0210489651206461	0.00353517074621734	-0.00263332415121413	0.671630859375	0.39599609375	-0.07568359375	0	0	0	-0.416462211257846	-0.527946378821422	-0.421568067419356	0.608368483910765	0.0871059712433148	-0.073198019383125	0.993506215245857	0.952676884781293	0.297679182253069	-0.0615942988965335	-0.29123753703321	0.951855637379709	0.0956636953671455	-32.7759801423964	-83.4668613813181	-40.0414427602368
26904	1656049237465	9.75006615022574	-0.551603105788008	0.814476210448821	0.0856727330244322	-0.100670786362823	-0.0140163826754396	-0.0208010304851945	-0.000354114976540402	0.00463361452631693	0.66845703125	0.394775390625	-0.07958984375	0	0	0	-0.416570090887352	-0.527968039203217	-0.42158693907075	0.608262740732136	0.0870284047697324	-0.0729998658790915	0.993527592140687	0.952742642185095	0.297467624366119	-0.0615992712306112	-0.291045554038196	0.951936989530091	0.0954382179160284	-32.8396582555485	-83.4776351141687	-39.9900941743462
26905	1656049237466	9.72600637813586	-0.574204843072298	0.803228618569112	0.0659379954683857	-0.116359416975813	-0.0376067944682763	-0.016812295651127	0.00654729082469265	0.00428292098257587	0.675048828125	0.392333984375	-0.066650390625	0	0	0	-0.416618721436603	-0.527903805132872	-0.421631919808262	0.608254007527747	0.0870881934500677	-0.073049393178036	0.993518712817189	0.952787826521935	0.29731073029466	-0.0616578241852802	-0.290879707427677	0.951982203514318	0.0954928269495295	-32.8495286310772	-83.4731578774356	-39.9898532901953
26906	1656049237467	9.71975306327605	-0.55530907248321	0.831600952448175	0.0744591227986225	-0.0816247461595386	-0.0422564016886273	-0.021706877558606	0.0043191499128944	0.000722090137460375	0.675537109375	0.39697265625	-0.076171875	0	0	0	-0.416716302214129	-0.527918859369763	-0.421674148745991	0.608144813075023	0.0869851804021441	-0.0728931028440629	0.993539216109848	0.952862682626737	0.297076871496654	-0.0616282441672537	-0.290665248090969	0.952067186694051	0.0952984027814214	-32.8902262413595	-83.4835009176132	-39.9628224861843
26907	1656049237468	9.7471873427081	-0.582424629965821	0.877712109670914	0.038008149523435	-0.0478998709149213	-0.00893710728206898	-0.0217531380049416	0.00298022612750132	0.00262352267010255	0.673095703125	0.4052734375	-0.077392578125	0	0	0	-0.416783076362575	-0.52785842563668	-0.421729856607262	0.608112882438888	0.0870188210607694	-0.0729138003824394	0.993534751528593	0.952923634465483	0.296871590607533	-0.0616749995318019	-0.290455283405704	0.952129632142569	0.0953146994842278	-32.9055743616604	-83.4812473343935	-39.9599239900209
26908	1656049237469	9.73690035465856	-0.628705557943923	0.779229701391428	0.0204135491645434	-0.152484992523597	-0.0256536070277189	-0.022186406335715	0.00151706642635487	0.00296153123265263	0.671875	0.40185546875	-0.072998046875	0	0	0	-0.4168829917421	-0.527900038748484	-0.421758441712027	0.607988435029934	0.0868827318679836	-0.0727034148858418	0.993562078768656	0.952993604862795	0.296656776081598	-0.0616274800351934	-0.290266394875073	0.952212670924311	0.0950602405710117	-32.9553099968972	-83.4950534672067	-39.9225715584621
26909	1656049237470	9.74847765571918	-0.568629206786713	0.846755503726688	0.0595712976173401	-0.0711917508001376	-0.011435726013417	-0.0246185934735283	0.00404927499730175	0.00307941833113505	0.68017578125	0.397216796875	-0.077392578125	0	0	0	-0.416957319036436	-0.527829444691054	-0.421822671128752	0.607954196910332	0.0869234228778779	-0.0727330261955573	0.993556352430817	0.953062426863048	0.296424456447505	-0.0616810515613913	-0.290028152180287	0.952282756601335	0.0950853428381631	-32.97113108227	-83.4921580199465	-39.920850626291
26910	1656049237470	9.74056307126987	-0.621412331203909	0.860164566973868	0.00350728093815068	-0.071310381726327	-0.014753507163185	-0.0212713330038091	0.00578031589703462	0.000389331355632652	0.67431640625	0.38818359375	-0.078125	0	0	0	-0.417048085186425	-0.527870316580452	-0.421857327718404	0.607832393481851	0.0867786478470808	-0.0725424889166115	0.993582937443883	0.95313170794313	0.296214579385246	-0.0616187493627813	-0.289843774456592	0.952362593900771	0.0948476470311789	-33.010182296829	-83.5056112496939	-39.8938896980406
26911	1656049237471	9.73567927582594	-0.58785568248301	0.857270736350804	0.0364535493994371	-0.0639326851095481	-0.0219508174820913	-0.0209777821092008	0.00322479661259142	0.0057534666673371	0.674560546875	0.401123046875	-0.07177734375	0	0	0	-0.417120077073658	-0.527804328418679	-0.42190219547909	0.607809155619177	0.0868422567048616	-0.0725564700764256	0.993576358968175	0.953187598675664	0.29601875750398	-0.0616951937894769	-0.289640853785042	0.952422413562306	0.0948668644091457	-33.0373381213195	-83.5022796584376	-39.8786650605196
26912	1656049237471	9.7720203997545	-0.60491603812242	0.813193308213665	0.0354153100620761	-0.111397346660547	0.0110556015121261	-0.0204497665034226	0.00736592102395841	0.00161809013608509	0.676025390625	0.3984375	-0.081298828125	0	0	0	-0.417221520119812	-0.52782528950402	-0.421934122284079	0.607699155307357	0.0867441204247228	-0.0723778801256771	0.993597956942472	0.953258158703866	0.295795599202554	-0.0616753302132851	-0.289437973383343	0.95250533119816	0.0946533338178214	-33.0879332857532	-83.5132240827171	-39.8410697355468
26913	1656049237471	9.75922322473633	-0.62381510399632	0.823889575481689	0.0139340729073068	-0.1065466809776	0.000509404059712892	-0.0194206213233513	0.0126581072313953	0.00552738453895197	0.67822265625	0.3984375	-0.078125	0	0	0	-0.417268296946708	-0.527734335554025	-0.421995221887739	0.607703605505565	0.0868330075625396	-0.0724824208207381	0.993582572044019	0.95330965056846	0.295614402134224	-0.0617481609755644	-0.28924166181704	0.952553633095161	0.0947672788810908	-33.0873327920998	-83.5054261526168	-39.852883796603
26914	1656049237472	9.75427224908465	-0.590423664638831	0.821756082208485	0.0451347221809864	-0.0962785382999369	-0.00664822984960089	-0.015121156292543	0.0110529080943352	0.00484630181671651	0.673583984375	0.3994140625	-0.0791015625	0	0	0	-0.417351899473741	-0.527778262056362	-0.42199876923792	0.607605576725649	0.0867342897248945	-0.0722790907802954	0.993606006434085	0.953356131460985	0.295468861534684	-0.0617271291179483	-0.289118054765979	0.9526142371912	0.0945349962128537	-33.1427420852189	-83.5173077386006	-39.8057722612112
26915	1656049237472	9.75274080251664	-0.605766269505797	0.854236393940417	0.0218938141963945	-0.0708602511102989	-0.00416428299876514	-0.00969856762570902	0.017419616650835	0.00427580645405955	0.676025390625	0.399169921875	-0.0771484375	0	0	0	-0.417355774132427	-0.527696148690831	-0.42204784104083	0.607640150358715	0.0868247890592777	-0.0724323578901178	0.993586941105452	0.953380496464365	0.295379555342194	-0.0617782101327595	-0.289010527431393	0.952630291254863	0.0947018649103744	-33.1181857404484	-83.5076396900347	-39.8360775683925
26916	1656049237473	9.73503002399632	-0.590617494646483	0.862728295391802	0.0317159555938569	-0.0559548024361228	-0.0218854800348289	-0.00657668799960397	0.0213953801089605	0.00460528831747845	0.676025390625	0.403076171875	-0.076416015625	0	0	0	-0.417387897226746	-0.527718724098455	-0.42205646624475	0.607592487433419	0.0867625750737878	-0.0723498591687417	0.993598386394035	0.953403493483283	0.29531136509926	-0.0617493016728423	-0.288953342566646	0.952657701129569	0.0946005829690692	-33.1339716316464	-83.5134418867887	-39.8241613163601
26917	1656049237474	9.71732362744512	-0.575433901325913	0.871172092667321	0.0431876446217142	-0.0437307010863544	-0.0396292066558921	-0.0068319748824873	0.0163490405560528	0.00382246650336003	0.6748046875	0.396728515625	-0.07861328125	0	0	0	-0.417384057974372	-0.52764703800577	-0.422097120426812	0.607629140479599	0.0868452484222613	-0.0724940971657036	0.993580650326185	0.953419944769727	0.295249138152479	-0.0617928421057653	-0.288874214394026	0.952666023481654	0.094758302865167	-33.1087749102524	-83.5044527730318	-39.8534508848698
26918	1656049237475	9.71858646791186	-0.560990469630743	0.84136483580502	0.0647274263203387	-0.0665208955515355	-0.0420725788299308	-0.00522035681803082	0.0122308853367494	0.00247632271706049	0.666259765625	0.397216796875	-0.0673828125	0	0	0	-0.417421540594089	-0.527706580243087	-0.422089551073505	0.607556938476363	0.0867323520854267	-0.0723346834127476	0.993602129968182	0.953439058239577	0.295199336645248	-0.0617358394081843	-0.288845047257101	0.952693573621541	0.0945700452324081	-33.13672064602	-83.5153408161468	-39.8280680343009
26919	1656049237476	9.71705088674653	-0.57613056788683	0.873749986295573	0.0414771189605769	-0.0410989046315986	-0.03961037554153	-0.00951907787081949	0.0138352288476935	0.0031578644140391	0.67822265625	0.39794921875	-0.080078125	0	0	0	-0.417429340054237	-0.527638418409977	-0.422134100604771	0.607579827336544	0.0868010010488395	-0.0724568143483514	0.993587236366998	0.953463841484903	0.295111094336971	-0.0617749543106827	-0.288742600247645	0.95271163111076	0.0947008909594052	-33.1170735733286	-83.5077893081917	-39.8533157765104
26920	1656049237476	9.72960850130759	-0.558441096948697	0.86516918082288	0.0616620912002861	-0.0438079114644704	-0.0290308772715448	-0.0135281831446674	0.0128814568923079	0.00920128853845572	0.672607421875	0.39794921875	-0.0703125	0	0	0	-0.417511636228105	-0.52763309586562	-0.422145164980023	0.607520213199019	0.0867935516625011	-0.0723375268932858	0.993596578895465	0.953509355625109	0.294954986596239	-0.061817995902514	-0.288594504669094	0.952769037114964	0.0945746995227839	-33.1703168914887	-83.5125252305992	-39.8092981660549
26921	1656049237478	9.73571079709988	-0.578279858609599	0.838182992442832	0.0519243301928676	-0.0765975975304672	-0.0243034473082861	-0.0115931374485718	0.00920191240202141	0.00103748303103801	0.6787109375	0.4052734375	-0.07861328125	0	0	0	-0.417529842285393	-0.527579043895128	-0.422192117436179	0.60752201541886	0.0868283368349174	-0.0724220221763445	0.993587384494374	0.953542002138789	0.294845293551782	-0.0618377152514041	-0.288476151665319	0.952796569879559	0.0946583664876755	-33.1554842128385	-83.5078643702074	-39.8309040953227
26922	1656049237478	9.72290791318727	-0.597049512020158	0.848766367403679	0.0286300132895117	-0.0693598393381518	-0.034846075638729	-0.0178075083057861	0.0085377760981624	0.00418002125950588	0.67578125	0.39501953125	-0.075439453125	0	0	0	-0.417604158102122	-0.527621321289055	-0.422210066820308	0.607421738113316	0.0867088015935668	-0.0722454299265711	0.993610679079554	0.953592860621151	0.294690853222818	-0.0617896204809358	-0.288343961092613	0.952857753750019	0.09444501691402	-33.1942793826776	-83.5196794334495	-39.800928279587
26923	1656049237478	9.72426270653549	-0.582587072410951	0.818165364894713	0.0518456986873699	-0.0947804892460484	-0.0372888475000543	-0.0132817282314696	0.0046911551528664	0.000479792397653707	0.676513671875	0.399169921875	-0.0771484375	0	0	0	-0.417635398769034	-0.527578648041225	-0.42225397614901	0.607406802277003	0.0867246995146902	-0.0722888366893903	0.993606134534293	0.95363091291629	0.294564506642762	-0.0618048004345085	-0.288213303691086	0.952893527901413	0.0944828876520464	-33.1902039995109	-83.5173727469099	-39.8126874846513
26924	1656049237479	9.73551823112076	-0.57917371478397	0.839800912256605	0.0485035563259349	-0.0714774921272844	-0.0242471715226724	-0.0122831692787823	0.0026934094597663	0.000587874151758033	0.680419921875	0.396728515625	-0.07958984375	0	0	0	-0.417719032815373	-0.527650976879269	-0.422250203601746	0.607289075960062	0.0865784243132735	-0.0720361604863147	0.993637241666103	0.953675583390696	0.294431150364146	-0.0617509460628941	-0.288109455047639	0.952953875734621	0.0941905124442843	-33.2486982141365	-83.5331782626986	-39.7615948810791
26925	1656049237479	9.7354904335198	-0.579154042478884	0.840136669788715	0.048482281497383	-0.0714762375055869	-0.0242470569635671	-0.00706679047409507	0.0053554277918672	-0.00266137862050099	0.685302734375	0.399169921875	-0.07177734375	0	0	0	-0.417721738760014	-0.527626043481608	-0.422288529665231	0.607282228391736	0.0865663119062441	-0.0720949020423349	0.993634036626392	0.95369837523515	0.294361893360977	-0.0617291244938412	-0.288037641145712	0.952970828953567	0.0942386144145109	-33.2260036962236	-83.5315480068817	-39.7885005119583
26926	1656049237481	9.72274204442606	-0.597513275212741	0.850338590431318	0.0251966184163392	-0.0633102027066679	-0.034795583354736	-0.0118485437859068	0.00415573823850925	0.000253399232819079	0.681884765625	0.402099609375	-0.081787109375	0	0	0	-0.417799150361038	-0.527727811901705	-0.422259806884157	0.607160507603375	0.0864000240711865	-0.071790494507732	0.993670549396949	0.95372742024542	0.294281050895498	-0.0616658005369081	-0.287991395205681	0.953018776300959	0.0938944530060673	-33.2951712779879	-83.5501446571873	-39.7234723691883
26927	1656049237484	9.71790692532169	-0.563605836391472	0.847444018524635	0.0581415026279639	-0.055939212782316	-0.0419648564474979	-0.0174015105484166	0.00271209520078759	4.06882555174668E-05	0.680419921875	0.4052734375	-0.082763671875	0	0	0	-0.417846074931588	-0.527683345178407	-0.422311469132812	0.607130931450933	0.0864066205204236	-0.0718158820548972	0.993668141290097	0.953777540413168	0.294115361406303	-0.0616810958742426	-0.287823382187145	0.953068010831083	0.0939098897711837	-33.2973694909116	-83.5489165182215	-39.7312801879428
26928	1656049237485	9.76423580006984	-0.5914012976373	0.855442317678141	0.0306920666858702	-0.056355627652041	0.0065651476885904	-0.0143573610979851	-0.00193946023093743	-0.00153545651806821	0.67919921875	0.38623046875	-0.074951171875	0	0	0	-0.417906770760661	-0.527842322759563	-0.422281631001488	0.606971694047514	0.0861214128450267	-0.0714482327177295	0.993719403197447	0.953803755018752	0.294064310142239	-0.0615189272720063	-0.287821992143939	0.953111395138093	0.0934728265123718	-33.3508222916788	-83.5751106637897	-39.6798526498728
26929	1656049237487	9.77835319885468	-0.558428434765918	0.814664041633933	0.0753730750367071	-0.0865862309420151	0.0147503900558998	-0.0116896123125328	0.00651718500397793	0.00483932459499462	0.67578125	0.400634765625	-0.074462890625	0	0	0	-0.417940895290985	-0.527788948239801	-0.422311359950049	0.606973928119187	0.0861838827461308	-0.071494798972414	0.993710638000165	0.953833141180533	0.293957046601021	-0.0615759168773253	-0.287705886523859	0.95314099086835	0.0935284683185897	-33.3595281689263	-83.5706242339099	-39.6777812407885
26930	1656049237487	9.74803349940705	-0.561526526311266	0.831840314133534	0.0644208945523333	-0.0669494477317331	-0.0135652020684418	-0.0148427245684405	0.0101474364944305	-6.55449365000438E-05	0.6767578125	0.40234375	-0.07421875	0	0	0	-0.418036248302905	-0.527804418690913	-0.422335660011051	0.606877896284095	0.086110171786754	-0.0713295956920328	0.993728900200285	0.953895111801014	0.293756570775723	-0.0615726628319734	-0.28752244085808	0.953215172930278	0.093336381430358	-33.4122597583428	-83.5799751892142	-39.6367443319599
26931	1656049237488	9.74624510411797	-0.633494908441889	0.817821678110096	0.000260028248804972	-0.102262957285409	-0.012229016164051	-0.014249667531552	0.0139714515594759	0.00418573356465605	0.677734375	0.404541015625	-0.08447265625	0	0	0	-0.418060877207879	-0.527724183075416	-0.422389432840803	0.606893282686493	0.0861887072436187	-0.0714489491370427	0.993713517272904	0.953932288738322	0.293624539945207	-0.0616264394917672	-0.287375530005845	0.953246913034172	0.0934645790911267	-33.3991047145726	-83.5720976338071	-39.6581448291415
26932	1656049237489	9.72859781424782	-0.61823797760638	0.825668688400872	0.00942623955634425	-0.0874156143984283	-0.0299560480956451	-0.00378544948193942	0.0116924146552036	0.0022608170814397	0.669921875	0.39599609375	-0.085205078125	0	0	0	-0.418063168824684	-0.527824101684506	-0.422369951601318	0.606818365359445	0.0860106833304899	-0.0712760541507854	0.993741357928569	0.953931320279852	0.293653621713129	-0.0615027368813812	-0.287432076397469	0.953250898011356	0.0932498091064164	-33.4067728500848	-83.5863618190493	-39.6481479954416
26933	1656049237489	9.74746440242006	-0.619405914437943	0.788786731036878	0.0211384863167198	-0.124999623321281	-0.0145835317361556	-0.00470396205025106	0.0074247965637174	0.00482663603189762	0.67724609375	0.39697265625	-0.0771484375	0	0	0	-0.41807414947142	-0.527783101573539	-0.422382927381848	0.6068374295423	0.0860753206995132	-0.0713305972784145	0.993731847662326	0.953940482461395	0.293613336400179	-0.0615529415160346	-0.287382315196668	0.953259227377244	0.0933180064743296	-33.4090084543459	-83.5814856756298	-39.6485343016173
26934	1656049237490	9.72983421426818	-0.604150712068062	0.796466813569423	0.031166746342826	-0.110127840335035	-0.0323023165155671	0.00545335868041686	0.0136503807619214	0.00325150223860561	0.67529296875	0.398193359375	-0.078125	0	0	0	-0.41809756021805	-0.527843911716192	-0.422355569813105	0.606787448495526	0.0859931550239926	-0.0711796138005524	0.993749787355059	0.95394062045852	0.293620405575122	-0.061517071363289	-0.287406454221604	0.953268335784372	0.0931504700077258	-33.4409870841891	-83.5906868780896	-39.6157751790693
26935	1656049237491	9.72194811084788	-0.600418806304497	0.857340839763581	0.0176105151008744	-0.0518940503797152	-0.0347117247048168	0.00625298974290374	0.0211762767990075	0.0101912408787869	0.67724609375	0.392578125	-0.07080078125	0	0	0	-0.418060449533383	-0.527773686805251	-0.422351634732023	0.606876834861182	0.0861480643103606	-0.0713482370538446	0.993724277697232	0.953913456084621	0.293689114350267	-0.061610246005435	-0.287450220588317	0.953234563568414	0.0933607921038773	-33.4214438160956	-83.5776070066808	-39.6317160894221
26936	1656049237492	9.70568664406696	-0.570495571577512	0.834729992217725	0.051477748715621	-0.0627307318309914	-0.0548183706408363	-0.000226920717199315	0.01712967449249	0.00226293590897645	0.681640625	0.3974609375	-0.0693359375	0	0	0	-0.418096093059368	-0.527788466792275	-0.422345687224679	0.606843564497694	0.086126909607548	-0.071262932716016	0.993732232476217	0.953928116426592	0.293639554902413	-0.0616194813961271	-0.28740790547977	0.953256212262698	0.0932699825791048	-33.4510307906174	-83.5816829074003	-39.6049588971012
26937	1656049237493	9.66903827954423	-0.554634073119845	0.880330413199902	0.0512261160057682	-0.0129287442863536	-0.0879708900194878	-0.00866763070745815	0.00780833484669332	0.00896853585252516	0.675048828125	0.396728515625	-0.073486328125	0	0	0	-0.418129365936613	-0.527729718338511	-0.422356768602158	0.606864019150703	0.086232208796598	-0.0713076671892409	0.993719891501669	0.953944837248397	0.293565186714778	-0.061714898008895	-0.28732082008304	0.953275772140017	0.0933383554476042	-33.4724970795857	-83.575360692023	-39.5882349289466
26938	1656049237494	9.71527094805118	-0.582909616165684	0.88891509482049	0.0254698448039832	-0.0145124590530336	-0.039479908449179	-0.0104138880755402	0.00362160175860472	2.42567043019135E-05	0.68017578125	0.3955078125	-0.066650390625	0	0	0	-0.418199974519498	-0.527772391782728	-0.422353916581298	0.606780234460771	0.0861469432407537	-0.0711232154659877	0.993740505560709	0.953980818648513	0.293451900920658	-0.06169748371503	-0.287226916950673	0.953324430646688	0.0931301675676607	-33.523937809191	-83.5859246388418	-39.5431987228516
26939	1656049237495	9.72148952456291	-0.602285389230643	0.861222639309575	0.0157247000504315	-0.0472674188968049	-0.0346850501182807	-0.0114616853991663	0.00427708717143405	0.00181557155768646	0.681396484375	0.39306640625	-0.063232421875	0	0	0	-0.418230358864368	-0.527733027251287	-0.42238685527395	0.606770601928075	0.0861743928799514	-0.0711559060983933	0.993735785326809	0.954011799585933	0.29334542283193	-0.0617247855757083	-0.287115761083544	0.9533547607952	0.09316243774475	-33.5264694719333	-83.5835041637789	-39.5471634266402
26940	1656049237495	9.73269962744426	-0.599137304410895	0.882910421609248	0.0138739186633279	-0.0249291669088554	-0.0217157868872508	-0.00782662703643469	0.00344949633570355	0.00449017919864907	0.672607421875	0.397705078125	-0.067138671875	0	0	0	-0.418321493148172	-0.527726434975197	-0.422368073777078	0.6067265845935	0.0862200401644187	-0.0710052571830317	0.9937426015455	0.954042498193377	0.293224677248249	-0.0618239459562497	-0.287000028423321	0.953403137243125	0.0930238763973055	-33.6081309165356	-83.5869997244804	-39.4726650528245
26941	1656049237496	9.73889741658085	-0.618757639461322	0.855285905730934	0.00414656599312833	-0.057699022338302	-0.0169152389360647	-0.00409098679399589	0.00530568486697401	0.00336966828806822	0.67529296875	0.400634765625	-0.06787109375	0	0	0	-0.41833166728889	-0.527695076953553	-0.4223793862759	0.60673896854535	0.0862671196163562	-0.0710449436034784	0.993735679173027	0.954051189051954	0.293188540384982	-0.0618612031525245	-0.286956987616004	0.953411294130347	0.0930730438045637	-33.6100866845859	-83.5834497399427	-39.4730271008821
26942	1656049237497	9.73257118777213	-0.599976185347792	0.883756196550924	0.0130577200154956	-0.0240616650070843	-0.021712493996672	-0.000840882820768976	0.00435712699357627	0.00448000471797554	0.677001953125	0.3935546875	-0.08056640625	0	0	0	-0.418358405229577	-0.527703861782505	-0.422386728753947	0.606707780077144	0.0862361712647423	-0.0709919369750724	0.993742153503678	0.954069321170343	0.293131392292611	-0.0618523827686278	-0.286906000577121	0.953432814485176	0.0930097580671931	-33.6242878527895	-83.586769896983	-39.4621306120869
26943	1656049237498	9.73398851608135	-0.585575437837096	0.852990029595034	0.0362935674612461	-0.0494909037882025	-0.0240584275264801	0.00384183430050162	0.00287382761002656	0.00536344879596127	0.677001953125	0.39453125	-0.0732421875	0	0	0	-0.418354676451049	-0.527692017948959	-0.422366759959118	0.606734553957603	0.086294908549186	-0.0710041685509517	0.993736180687247	0.954053862290302	0.29317136954635	-0.0619013402704281	-0.286939743861748	0.95341961177999	0.0930409977689889	-33.6363197713555	-83.5837068646221	-39.4478321295759
26944	1656049237498	9.76268270016492	-0.598116256651037	0.868401607417335	0.0221210331593151	-0.0385700593661865	0.00667416608132853	-0.00708295514943348	0.01129806210629	0.00305067008794777	0.67431640625	0.39892578125	-0.079345703125	0	0	0	-0.41842367375931	-0.527712363304511	-0.422357495023289	0.606675726604405	0.0862676160264406	-0.0708533888759774	0.993749312306632	0.954082771844303	0.293071551270831	-0.061928428896602	-0.286851813476937	0.953461516329054	0.0928825817066601	-33.6929320368531	-83.5904430579551	-39.3969740124774
26945	1656049237500	9.73381566522657	-0.586209091074162	0.854525903925321	0.0354252084322169	-0.0470216999063945	-0.0240430736547381	-0.0058573277353544	0.00706165743603752	0.000134951496525028	0.675537109375	0.3984375	-0.0751953125	0	0	0	-0.418426953081971	-0.52767846668782	-0.422387160216716	0.606682295450088	0.0862890453561	-0.0709198378115403	0.993742711800352	0.954099409904144	0.293015943637192	-0.0619352306443552	-0.286790021918644	0.953473666851471	0.0929486414570583	-33.6770365772724	-83.587056282058	-39.4163380349867
26946	1656049237501	9.73376238224868	-0.586088090731776	0.855215572287454	0.0338766281562364	-0.0450350255151312	-0.0240282500505771	-0.00475839448969782	0.0077482774660258	-0.00355344808604774	0.677734375	0.389892578125	-0.07275390625	0	0	0	-0.418438780998904	-0.527747617471562	-0.422400547702629	0.606604662123331	0.0861204591072193	-0.070800143579974	0.993765870913374	0.954120422499478	0.292973527713341	-0.0618120653967875	-0.286770789817545	0.953495596071767	0.0927828776184831	-33.6716006372193	-83.5989472733968	-39.4238278884842
26947	1656049237502	9.76249339800117	-0.598087446591225	0.870546888738384	0.0205556462561085	-0.036560897306151	0.00668525415763277	-0.00485998615819506	0.00506401487335426	0.00024134498425829	0.675537109375	0.400634765625	-0.0693359375	0	0	0	-0.418443417649209	-0.52772221520869	-0.4224229315367	0.606607976137161	0.0861362609743472	-0.0708464645441367	0.993761200191955	0.95413401374948	0.292927946275979	-0.0618182990452155	-0.286720819529496	0.9535061597872	0.0928287396025647	-33.6612029698874	-83.5965473324524	-39.437054671678
26948	1656049237503	9.75268604865123	-0.586757346117845	0.818541188430246	0.0451261492855101	-0.0811197771879539	-0.00857790650632317	-0.00155933997648158	0.00545742705500663	-0.000545243842483034	0.669189453125	0.393798828125	-0.07666015625	0	0	0	-0.418483931822639	-0.527739488046774	-0.422424355087822	0.606564007991763	0.0860973939695329	-0.0707538279190489	0.993771168119934	0.954155811662571	0.292857726069806	-0.061814556147911	-0.286659948060757	0.953534607718055	0.0927244631247876	-33.6893177793181	-83.6016702039407	-39.4129641651661
26949	1656049237503	9.71737496913141	-0.612264810454607	0.786279445240363	0.0272544891777842	-0.11754954055708	-0.0450920041420399	0.00706582098128871	0.00953147445682654	0.00190882279899561	0.67822265625	0.3935546875	-0.079345703125	0	0	0	-0.418447462008644	-0.527721867493851	-0.422419624539381	0.606607791667182	0.0861425827456213	-0.0708383189989011	0.993761232892149	0.954133823395956	0.292926764685065	-0.0618268354596537	-0.286719553727555	0.953507127971548	0.0928227042146543	-33.6665716812518	-83.5965641315685	-39.4317597530352
26950	1656049237504	9.75103617671509	-0.601654461296956	0.851478516595322	0.0210124096892023	-0.0534516609110344	-0.0062399135131912	0.0104177144232272	0.011266712904897	-0.000774521525166656	0.677001953125	0.402099609375	-0.06591796875	0	0	0	-0.418452374451793	-0.527777417990343	-0.422389236478459	0.606577233567374	0.0860766599331837	-0.0707239616232878	0.993775090182409	0.954122816583668	0.292969886445603	-0.061792366118308	-0.286775974393246	0.953502368580361	0.0926972147502081	-33.6875953828607	-83.6036870109721	-39.4078673065372
26951	1656049237505	9.70315619795981	-0.588883349008358	0.875380975230923	0.0226042214019066	-0.0243286303858448	-0.0523998265777354	0.00982899102695811	0.00577802441196406	0.00525077042571876	0.676513671875	0.400634765625	-0.073974609375	0	0	0	-0.418424428289594	-0.527770507902118	-0.422358579510614	0.606623869554308	0.0861430426050328	-0.0707614456102745	0.993766669810319	0.954089737758484	0.293068456248605	-0.0618356875598977	-0.286866081150584	0.953469295660433	0.0927585775985329	-33.6886288823409	-83.5993578576502	-39.4010932297034
26952	1656049237505	9.71582491111718	-0.570661354010046	0.866383223219942	0.0427593714324052	-0.0281570594016199	-0.0417658739045592	0.00299698202114544	0.00889636195515039	-0.000433555825167465	0.68115234375	0.389404296875	-0.07568359375	0	0	0	-0.418392350380222	-0.527815801561674	-0.42236696541962	0.606600747846013	0.0860332522880586	-0.0707480466115665	0.993777134674262	0.954084421744405	0.293107975331069	-0.0617303084551309	-0.286916705134754	0.953458142079645	0.0927166415302425	-33.6554915626006	-83.6047385828288	-39.4316144207399
26953	1656049237506	9.72052725067476	-0.604830216533528	0.870253470248692	0.00977543031353772	-0.0354932982531954	-0.0346274648125036	0.00289435784153524	0.00621266887208395	0.00336135457973966	0.68603515625	0.3984375	-0.0771484375	0	0	0	-0.41837923156896	-0.527796685455595	-0.42236199157599	0.606629891685052	0.0860820137881024	-0.0707964750321383	0.99376946321831	0.954073161774363	0.29313833332746	-0.0617601774274443	-0.286939521300318	0.95344521429237	0.0927789548277076	-33.6505197723963	-83.6007937050425	-39.4349220007548
26954	1656049237509	9.7156874363219	-0.57098335168121	0.867711694766773	0.0423435473440975	-0.0252455037368565	-0.0417561065410776	-0.00117470931911037	0.00557797677138365	0.00101831160518112	0.682373046875	0.396728515625	-0.07177734375	0	0	0	-0.418434175833811	-0.527867171257544	-0.422278723744705	0.606588632827373	0.0860738579622036	-0.0705436179070248	0.993788150939671	0.954054276926528	0.293187039933646	-0.0618206785238332	-0.287004751970595	0.953448980065286	0.0925381800056753	-33.7451385547536	-83.6104076976179	-39.3370442210019
26955	1656049237510	9.73809978043613	-0.564113258832858	0.911133498695777	0.0387573426325822	0.0160340721747323	-0.0158911471659398	-0.00322044681167746	0.0082307539724032	0.00270263507110171	0.674072265625	0.3935546875	-0.069580078125	0	0	0	-0.41843411114963	-0.527830306087469	-0.422295173476199	0.606609305122114	0.0861239088686308	-0.0706119535465446	0.99377896150881	0.954060773408735	0.293159362170252	-0.0618516694573272	-0.286968139283641	0.953452432158139	0.0926161252040547	-33.7361205360471	-83.605678349675	-39.347913012173
26956	1656049237513	9.71404587788717	-0.58619129161135	0.900075394847477	0.0188454376922617	0.00145150000807823	-0.0394542225916652	-0.00199419420061578	0.00399460006583699	-0.000213099803643123	0.677490234375	0.402099609375	-0.07861328125	0	0	0	-0.418474001716621	-0.527841476661374	-0.42229221517913	0.606574126057419	0.0861053210300873	-0.0705271927052737	0.993786591165034	0.954078932747255	0.293097589772762	-0.0618643108525106	-0.286913338445887	0.953477696623529	0.0925257708064361	-33.7673636602741	-83.6096047127539	-39.3202380205501
26957	1656049237508	9.69001502445743	-0.608103354731981	0.8888838807301	-0.000791569155351135	-0.0143671240135139	-0.0630161697957057	-0.00155857725400737	0.00545711659226763	-0.000545903431999451	0.678466796875	0.3935546875	-0.072021484375	0	0	0	-0.418466329644867	-0.527822846199715	-0.42230837194186	0.606584382399515	0.0861173640348955	-0.0705791476491917	0.993781859126435	0.954083504256799	0.293083139882737	-0.0618622665406067	-0.286894521587197	0.953478293949888	0.0925779479663707	-33.7515656904107	-83.6071692347961	-39.3369938497789
26958	1656049237508	9.725045222986	-0.639518631311228	0.875779074271091	-0.0249455374838141	-0.0369603809884357	-0.0274694646656091	-0.00191997905066539	-0.00226963369544717	0.00245641029797639	0.676513671875	0.391845703125	-0.076904296875	0	0	0	-0.418499092623368	-0.527901701940775	-0.422264391120644	0.606523772454932	0.0860251541590895	-0.0703740164386638	0.993804392555293	0.954079549464848	0.293102586929858	-0.0618311153706364	-0.286935334430698	0.953487478336929	0.0923566051229011	-33.8016094816096	-83.6187749945417	-39.2853369773356
26959	1656049237509	9.76331404042206	-0.584102548970969	0.846544600060766	0.039406103931968	-0.0513210195618126	0.00443685384508541	0.00588578277969121	0.00188649719616141	-0.00659706802640753	0.681884765625	0.39892578125	-0.069580078125	0	0	0	-0.418460410319395	-0.527922568507856	-0.422271584863939	0.606527291448529	0.0859689405531301	-0.0704090919770723	0.993806772480011	0.954067870515738	0.29315518722364	-0.0617619191204177	-0.286991009806469	0.953468717877433	0.0923772933107829	-33.766027564422	-83.6200019935572	-39.3176874931991
26960	1656049237509	9.73305379344958	-0.586512371086838	0.86295427529826	0.0291392348473754	-0.0328338833012524	-0.0239644713207063	0.0112324246051519	-0.00203905030425729	0.0012123970424268	0.670166015625	0.396728515625	-0.0830078125	0	0	0	-0.418472055843591	-0.527996163228885	-0.422196132620889	0.60650772105026	0.0859409544310827	-0.070227148656419	0.993822066540618	0.954033708272097	0.293263128156006	-0.0617771895180209	-0.28711293219231	0.953448942133633	0.0922023801872315	-33.8227691965747	-83.6278926461811	-39.2541751627434
26961	1656049237510	9.74578955897631	-0.568092902839932	0.853395413118682	0.0506056806981849	-0.0376028077978791	-0.0133275625337568	0.00499173035096474	0.00490136373125909	-0.000219603817553233	0.669189453125	0.395263671875	-0.0712890625	0	0	0	-0.418446755170092	-0.527992469367499	-0.422192386161134	0.606531000400144	0.0859550827175569	-0.0702720695571252	0.993817669391713	0.954019011801422	0.293311804310377	-0.0617730570202722	-0.287157533205132	0.953430659089768	0.0922525307576637	-33.8065914950899	-83.6256230323177	-39.2675125884551
26962	1656049237513	9.75355886581192	-0.572323909707601	0.794711794423519	0.0628151376907605	-0.094622792806303	-0.0107420032560235	0.00273953268584171	0.00385271559000237	-0.00122493550773721	0.680419921875	0.39111328125	-0.081787109375	0	0	0	-0.418453541743546	-0.528041318336627	-0.422213447344347	0.606469128986135	0.0858163420218382	-0.0701973236245341	0.993834941626598	0.954040363004105	0.29326487656777	-0.0616660192544211	-0.287128091974621	0.953450600675065	0.0921379990631991	-33.7935605467003	-83.6345428308608	-39.2829885101862
26963	1656049237515	9.74723244734583	-0.553062469241584	0.823207063859881	0.0725519231369255	-0.0618202231176368	-0.0155958140772814	0.00212629586552993	0.00597083886618878	0.000232804252992154	0.670166015625	0.3974609375	-0.076904296875	0	0	0	-0.418435668967457	-0.528028212378118	-0.422217958678842	0.606489730529377	0.0858364046036808	-0.0702500354073334	0.993829484453938	0.954033388527846	0.293287172609655	-0.0616678843216513	-0.287145268494516	0.95343986014216	0.0921955957370515	-33.7778130921966	-83.6317232707926	-39.2975025944969
26964	1656049237516	9.73441936850821	-0.571428703608569	0.833691003557078	0.0502045086398392	-0.0547576923049783	-0.0262184925146016	0.00299759133610516	0.00889571874029624	-0.00043291753585692	0.673095703125	0.40087890625	-0.07861328125	0	0	0	-0.418449258501514	-0.528092816591543	-0.422177592433279	0.606452203863738	0.0857681150233028	-0.0701009676606824	0.99384590595242	0.954021157751512	0.293332597013547	-0.0616410422669271	-0.28720630391378	0.953436857826633	0.0920363902478876	-33.8120561277293	-83.640211537641	-39.2602053649494
26965	1656049237517	9.72806012482823	-0.552272043767448	0.862423406367302	0.059939051084426	-0.0219372115486359	-0.0310791928220571	-0.00260754732570293	0.00611258945528561	0.00124389043001759	0.68212890625	0.385498046875	-0.068115234375	0	0	0	-0.41844830148	-0.528067907378105	-0.422190949314236	0.606465255808571	0.0857981750289059	-0.0701500463349111	0.993839848346261	0.954026521968776	0.293311642611293	-0.0616577301627724	-0.287179505783176	0.95343969463615	0.0920906083716234	-33.8036264286633	-83.6370790504467	-39.2700164630337
26966	1656049237518	9.73428122172447	-0.571740482149201	0.835089101790368	0.0502125305619187	-0.0532696920533794	-0.0262103210702946	-0.00140440327657641	0.00781679933371999	0.00404023094160867	0.669921875	0.397216796875	-0.072265625	0	0	0	-0.418500572203229	-0.528056315069083	-0.422169628032908	0.606454123860814	0.0858586665644346	-0.0700692837548069	0.993840321605974	0.954036763802565	0.293260152464252	-0.0617441194752308	-0.287127398011589	0.953461471927803	0.0920275983624632	-33.8588640512154	-83.6373237254746	-39.2178947894887
26967	1656049237520	9.71022933754394	-0.593817779124251	0.824118110152265	0.0305855437905805	-0.0690692723829336	-0.0497657740011572	-0.00480743988264469	0.00640552043999837	-0.00165916937426463	0.680908203125	0.39697265625	-0.07568359375	0	0	0	-0.418498305322125	-0.528031670777723	-0.422197806594738	0.606457529596911	0.0858631335245565	-0.0701293588235842	0.993835698358807	0.954050796331133	0.293216361098203	-0.0617352703424796	-0.287079432076342	0.953470523202118	0.0920834461963919	-33.8389852384908	-83.6349339102609	-39.2404892918108
26968	1656049237521	9.67360710543951	-0.577454413158926	0.868878038635652	0.0293866845187196	-0.0182799725932867	-0.0830481429991234	-0.000229806755988323	0.00223890295082332	0.00302234653040253	0.676513671875	0.396484375	-0.079345703125	0	0	0	-0.418516398344004	-0.52807264002559	-0.422187847957576	0.606416302724883	0.0857934157867085	-0.070029068892577	0.993848790972595	0.954057306362657	0.293202890708227	-0.0616986309116518	-0.287078640765351	0.95348203674237	0.0919666223471327	-33.8568972693413	-83.6417039690412	-39.2231200883325
26969	1656049237522	9.7038619371146	-0.574968106994243	0.852682555228127	0.0393068904643644	-0.0351344692028931	-0.0546233689072366	-0.00248188056161496	0.00119039539398737	0.00201642305517125	0.67919921875	0.39453125	-0.072509765625	0	0	0	-0.418527700146705	-0.528061212125513	-0.422187891426381	0.606418423855501	0.0858174811629598	-0.0700285420841827	0.993846750369698	0.954061520674471	0.293183897085712	-0.0617237171430057	-0.287057441455818	0.953487915908324	0.0919718409168878	-33.8661695018608	-83.6406483216561	-39.2150372694028
26970	1656049237522	9.67987040342499	-0.597028311463466	0.84101293634907	0.0189867663329117	-0.0492496928916362	-0.078168855081616	-0.000435768730931973	-0.00146242752883484	0.0003327135244458	0.671630859375	0.39697265625	-0.073486328125	0	0	0	-0.418560246116836	-0.528133038224035	-0.422137736221972	0.606368325330613	0.0857504511872771	-0.0698309154205778	0.993866441415899	0.954052893266515	0.293214104056006	-0.0617135806158172	-0.287106142342809	0.953493121335523	0.0917656286137274	-33.9213457138347	-83.6508422144322	-39.157663084537
26971	1656049237523	9.73262717989498	-0.587324533757107	0.867203014304249	0.0253017364823418	-0.0247977218634551	-0.0239301434083412	0.000944797636495059	-0.00333883811645253	0.00200411124649055	0.673583984375	0.404052734375	-0.078125	0	0	0	-0.418570845898838	-0.528142844034188	-0.422118808871039	0.60636564419194	0.0857616949855489	-0.0697862929676285	0.993868605494229	0.95404708089886	0.293228316321653	-0.0617359047518785	-0.287122097898386	0.953492017701777	0.0917271665180223	-33.9420676817212	-83.6519635342884	-39.1360539020824
26972	1656049237523	9.66236436985625	-0.581812232111113	0.847079063896149	0.0284132640539947	-0.0361570453990927	-0.0959379590655356	-0.00340548841220276	-0.00307606755659019	0.00457933230933165	0.685791015625	0.396484375	-0.065673828125	0	0	0	-0.418575188806538	-0.528227127963174	-0.422121698030952	0.606287213002892	0.0855787466704858	-0.0696484360546256	0.993894045395913	0.95405951533431	0.293216166734074	-0.0616013049036953	-0.287135367585345	0.953505833711006	0.0915418251986949	-33.9378209504439	-83.6651600708439	-39.1404893990852
26973	1656049237524	9.68637949269618	-0.560298080063239	0.858142076951524	0.048036779396642	-0.0202252961061279	-0.0723807562030654	-0.00223107287340421	-0.0086538710929127	0.00356108150630573	0.67333984375	0.39013671875	-0.07275390625	0	0	0	-0.418610270762813	-0.528243893405623	-0.422095704092674	0.60626648173725	0.0855872113323569	-0.0695483164586843	0.993900327464537	0.954061593448006	0.293201315596789	-0.0616397959094924	-0.287125939552319	0.9535177083883	0.091447660583106	-33.9817246840616	-83.6684230093651	-39.0973698329491
26974	1656049237526	9.76302389968072	-0.585700677094885	0.848783714683127	0.0337611250010099	-0.0401365870281459	0.00450998745918518	-0.00435784639790626	-0.0146245786465539	0.00332783106753076	0.6796875	0.403564453125	-0.0732421875	0	0	0	-0.418717086965723	-0.528245575934035	-0.422059162505172	0.606216690577299	0.0856453497031059	-0.0693477199281632	0.993909335812376	0.954089514958683	0.293084128856745	-0.0617648027454934	-0.287015803606943	0.953568344248617	0.0912652251781178	-34.0886340769707	-83.6731049159391	-38.9973668646896
26975	1656049237526	9.78711940596155	-0.563859631446197	0.859182654649973	0.0534086286123779	-0.0242138016508506	0.028064636905615	0.000915676022224868	-0.0106209162627163	-0.00181070818702727	0.6806640625	0.3974609375	-0.078369140625	0	0	0	-0.41873293508357	-0.528285170811805	-0.422037044396362	0.606186638366291	0.0855990229150503	-0.0692456341470466	0.993920444214507	0.954087234687655	0.293094924466965	-0.061748796407436	-0.287037202958173	0.953572444758802	0.0911550147532814	-34.113880587225	-83.6788830384552	-38.9712504607272
26976	1656049237526	9.76474381971517	-0.570684400733802	0.815397468659992	0.0554954662640283	-0.0640697139697839	0.0022803311119759	-0.000900816305675039	-0.0102068918134598	-0.00314882017173659	0.681884765625	0.39892578125	-0.07666015625	0	0	0	-0.418724334275144	-0.528427598261078	-0.421980688466241	0.606107666873984	0.0853931439151743	-0.0690004725153353	0.993955203097677	0.954062449693268	0.29320446089479	-0.0616115751841969	-0.287180871677702	0.953556542059283	0.0908684105637336	-34.1384770717428	-83.6969972236217	-38.9393527920375
26977	1656049237528	9.7838443559778	-0.571193179148692	0.777063609553144	0.0672085122151341	-0.101552685929014	0.0178197431699232	0.010464338386156	-0.00228150721664338	-0.00191685668953405	0.67724609375	0.395263671875	-0.0849609375	0	0	0	-0.418693217680388	-0.528462689115789	-0.421951131553999	0.606119145268693	0.0853688575856164	-0.068977830945495	0.993958860814965	0.954032805865177	0.293306464097485	-0.0615850911475183	-0.287286552918065	0.953526809773425	0.0908463513619033	-34.1334963294946	-83.6989064161487	-38.938127570241
26978	1656049237528	9.71209400645103	-0.580003233275332	0.788050307823913	0.0479936587056229	-0.0857775978563631	-0.051922237632775	0.00260703142568015	-0.00611292975581239	-0.0012442878301194	0.672607421875	0.402587890625	-0.0791015625	0	0	0	-0.418701511083188	-0.528623837800053	-0.421834132040091	0.60605432740983	0.0852256063110514	-0.0686376029811811	0.993994705964731	0.953980001707086	0.293490019325276	-0.0615285697818262	-0.287504351918126	0.953494880958176	0.0904917654523963	-34.2131775879784	-83.717646831919	-38.8467045088053
26979	1656049237529	9.70093973876936	-0.583339490286617	0.765716070348707	0.0498074847113243	-0.10634820981499	-0.064813388791844	-0.000339193987094775	-0.0136672508552241	-0.00270793191154312	0.6708984375	0.396240234375	-0.080078125	0	0	0	-0.418725223166745	-0.528673221177357	-0.421810697563996	0.606011178209192	0.0851607212610659	-0.0685063705844547	0.994009320249886	0.953981620663538	0.29348984580907	-0.0615042912579207	-0.287518206363468	0.953504372090823	0.0903476253878345	-34.2451393007141	-83.7253034103834	-38.8144597625275
26980	1656049237530	9.70756180955101	-0.545555814405795	0.782247629782726	0.0786088423353584	-0.0767553126341552	-0.059009712906132	-0.00620190832866861	-0.0214939527387685	-0.00182054163332611	0.67333984375	0.401611328125	-0.08251953125	0	0	0	-0.41876430497333	-0.528852618102826	-0.421774416792119	0.605852875330025	0.0848424993309083	-0.0681372882019874	0.994061899613784	0.953995684414611	0.293485596439744	-0.0613061073687328	-0.287565617599851	0.953532125645952	0.0899027304119807	-34.2907014909087	-83.7529275995094	-38.7680613094914
26981	1656049237531	9.73799947318056	-0.542778083876785	0.763767401018127	0.0884767122748173	-0.0935382857069504	-0.0305605721893656	-0.0189179869825101	-0.0202618954608006	-0.000905312756686758	0.671875	0.398681640625	-0.083740234375	0	0	0	-0.418862553999065	-0.528880287643229	-0.421780751688423	0.605756386433478	0.0847732776951289	-0.0679364719359435	0.994081549557038	0.954049064103957	0.293310316725058	-0.0613142836948415	-0.287408898037604	0.953600384796243	0.0896796043995911	-34.3605634169146	-83.7632825853214	-38.7083431464226
26982	1656049237532	9.75565921620027	-0.558466721702859	0.755312930594106	0.0741508173676663	-0.103236019565085	-0.0127326057816539	-0.0204763623881352	-0.0148051036317905	-0.00144992705895601	0.67822265625	0.39990234375	-0.080810546875	0	0	0	-0.418922519320515	-0.529058990399186	-0.421753663362742	0.605577703456835	0.0844408642358027	-0.0675397795130435	0.994136871175413	0.954078680021822	0.29325554049252	-0.0611151396812371	-0.287408442421109	0.953645409024638	0.0892010149678953	-34.4165835383346	-83.7925279793329	-38.6544657133569
26983	1656049237534	9.81479277385193	-0.568011067934922	0.752301972961893	0.0706122076023534	-0.111436876271973	0.0463870189016262	-0.0282513482765493	-0.0100142603262856	0.00114437540630809	0.684326171875	0.400390625	-0.085205078125	0	0	0	-0.419032440752806	-0.529033379803027	-0.421799466579153	0.605492119390891	0.0844177860954551	-0.0674282091967798	0.994146404708712	0.954156802711056	0.292994047180575	-0.0611496864829426	-0.287155764753134	0.953733676096877	0.0890709933018631	-34.4706693723338	-83.7975816908932	-38.6159049331962
26984	1656049237535	9.84838914049631	-0.614626087067204	0.769220293237475	0.0224261199767498	-0.107148538905741	0.0841934572366014	-0.0210578090579019	-0.00540689097893543	0.00382533432462073	0.676513671875	0.392333984375	-0.082763671875	0	0	0	-0.419096205324618	-0.529181377232386	-0.421701607332341	0.605386814397424	0.0842696487275105	-0.0670293711253029	0.994185943226864	0.954140999631495	0.293052250111652	-0.0611173586365599	-0.287251769577759	0.953743908033517	0.0886508813458824	-34.5830109345658	-83.8185849279174	-38.4992778405616
26985	1656049237536	9.82582143683859	-0.622137719745832	0.726716405094969	0.0260302046116317	-0.148328699289348	0.058445292640382	-0.00994637739682051	0.0123662317105096	0.0035105258477614	0.6806640625	0.39208984375	-0.077392578125	0	0	0	-0.419109821615573	-0.529122840337474	-0.421737789198275	0.605403348537749	0.0843325139907118	-0.067121781117958	0.994174377855092	0.954164098024213	0.292968389175029	-0.0611587850257767	-0.287156579457352	0.953763172618728	0.0887519545171345	-34.5706449890176	-83.8124339440819	-38.5169197638996
26986	1656049237537	9.75585621280705	-0.638837658874999	0.851782761231197	-0.0303477777506267	-0.0282567461354702	0.00101009062729673	-0.0130329617597399	0.0305619122329327	0.00624159237137081	0.677734375	0.3916015625	-0.080078125	0	0	0	-0.419177163496447	-0.529054275690069	-0.421719717313651	0.60542923534136	0.0845081068059014	-0.0671079507242964	0.99416040095835	0.954177833202017	0.292885971263935	-0.0613389799612392	-0.287059301382112	0.953789458311617	0.0887841579542596	-34.6397235696908	-83.805008521563	-38.4531153809781
26987	1656049237538	9.76529795090999	-0.650860864007108	0.9072712913706	-0.0555074449830961	0.0179840328840532	0.016066363603521	-0.00274618580547013	0.0318613096446558	0.00544759804284627	0.677978515625	0.396728515625	-0.07666015625	0	0	0	-0.419133558837239	-0.528948155454271	-0.421770509617508	0.605516759400549	0.0846469721170242	-0.0673783787167396	0.994130295380301	0.954178070060507	0.292873394146836	-0.0613953224319118	-0.287017596545972	0.953774254780667	0.0890818173959099	-34.5746697991023	-83.7890445472795	-38.5195363195002
26988	1656049237538	9.7811941095049	-0.625296577590263	0.980960470073234	-0.0496491945121878	0.0942292961197279	0.036865552275934	0.00106485756161865	0.0274507508529844	0.00699735238184835	0.681640625	0.3955078125	-0.081298828125	0	0	0	-0.419139355531342	-0.52891553994737	-0.421732699724153	0.605567570325832	0.08477976317112	-0.067396655509713	0.994117740804757	0.954153929685923	0.292927461256297	-0.0615124451379753	-0.287058652929258	0.953756359490224	0.0891411044939072	-34.6078888530014	-83.7823993416945	-38.4833510313465
26989	1656049237539	9.7727524626986	-0.599498878911243	0.899482161593364	-0.00131312389014772	0.0229153268226874	0.0196384418244246	-0.00208846262272201	0.0161971190580616	0.0028384131066283	0.67236328125	0.394287109375	-0.0849609375	0	0	0	-0.419120207403081	-0.528863976887072	-0.421755991541549	0.605609634415102	0.0848495550999898	-0.0675238243378573	0.994103156692566	0.954154143061569	0.292920270690407	-0.0615433692374945	-0.287037322099022	0.953749573087952	0.0892822913951777	-34.5789680564643	-83.774688762453	-38.5130009647701
26990	1656049237540	9.80285672881516	-0.596975368358081	0.884907853719329	0.00763031228923992	0.00916929238638439	0.0481086967548645	0.00576901692515849	0.0200285368103546	0.00216846505936421	0.680419921875	0.399169921875	-0.08251953125	0	0	0	-0.419094231882506	-0.528944600547565	-0.421658104715704	0.605625360335868	0.0848441045582753	-0.0673784210642137	0.994113487634384	0.954088945363736	0.293128935060747	-0.0615606348640704	-0.28725556958294	0.953695745930035	0.0891552687087793	-34.624609648751	-83.7801497190043	-38.4546287560272
26991	1656049237541	9.79937232985497	-0.548322885054133	0.85338865347703	0.0638343866754833	-0.00867170314254248	0.0388342082072324	0.0112277154851583	0.0336706982009919	0.00544036133216079	0.677978515625	0.40234375	-0.07177734375	0	0	0	-0.419005058593821	-0.528863924251894	-0.421673574438227	0.605746735127945	0.0849886924907515	-0.067661462872726	0.994081912414986	0.954048101150019	0.293252314986555	-0.0616060098291527	-0.287348469355165	0.953637775152049	0.08947542099535	-34.5483593489245	-83.7634739626308	-38.5241073823385
26992	1656049237542	9.76564608641857	-0.581261940876617	0.935561082444855	0.00572912380913827	0.0602755333798208	0.0146884956498603	0.00455494063792556	0.0391480083624122	0.00434568015129813	0.68212890625	0.394287109375	-0.074462890625	0	0	0	-0.418876631441047	-0.528863205312935	-0.421675468100768	0.605834859760255	0.0849870193362538	-0.0678745202931435	0.994067530924995	0.953988272031532	0.293464334469199	-0.0615228512086612	-0.287547532367489	0.953557409855079	0.0896921553974597	-34.4475302584384	-83.7558933988905	-38.612463680857
26993	1656049237543	9.70782001911414	-0.557502724861169	0.909271361721028	0.0324521533708802	0.0433253647644204	-0.0466020489317067	0.00618324129889201	0.0274251482768976	0.00755708436308125	0.676513671875	0.397705078125	-0.06982421875	0	0	0	-0.418821258033056	-0.528786883663401	-0.421684842297218	0.605933230036055	0.085132650884638	-0.0680913414062261	0.994040241126513	0.953960092795366	0.293541295192757	-0.0615926080825904	-0.287597936548946	0.953518262668345	0.0899463709703139	-34.4021867654632	-83.7415339362989	-38.6537426604187
26994	1656049237543	9.72190269917889	-0.52463306558702	0.870973208337942	0.0773040569013087	0.0135908397112534	-0.0380740611531181	0.00377941666830443	0.024019747826353	0.00196207385120493	0.6728515625	0.40185546875	-0.07470703125	0	0	0	-0.418786610064192	-0.52871644535981	-0.421713428131186	0.605998746014274	0.0852334098798596	-0.0682768815749107	0.994018879741556	0.953954352924608	0.293551119529571	-0.0616346717288966	-0.287587131799121	0.953501970456979	0.0901533912740596	-34.3590294580406	-83.7303167673031	-38.6967424164438
26995	1656049237544	9.73433706238467	-0.563203523698564	0.817208052934499	0.0578632255565107	-0.0517412880262406	-0.0281935301992906	4.18755202221598E-05	0.0221641398150797	0.00307758304044884	0.679931640625	0.39697265625	-0.08203125	0	0	0	-0.418749208011034	-0.528651931550195	-0.421741722943151	0.606061181059571	0.0853221087943816	-0.0684574181177534	0.993998852944776	0.953947728718344	0.293566039838149	-0.0616661262514475	-0.287582803074163	0.953484432048263	0.0903524721167592	-34.3137805186014	-83.7198185338069	-38.7414978831803
26996	1656049237545	9.75003993663861	-0.594066028950919	0.844385365726508	0.0211576272235756	-0.0369077965770168	-0.00823076449990978	-0.00125357391322736	0.0326615198389801	0.00333145404268347	0.678955078125	0.40087890625	-0.072998046875	0	0	0	-0.418656681426778	-0.528668786463598	-0.421753876025751	0.606101943053378	0.0852659645527241	-0.0685902480694592	0.993994513646159	0.953913126928546	0.293700502307946	-0.0615610365203924	-0.287714201182872	0.953433475819803	0.090471794631649	-34.2331143544363	-83.7175461361432	-38.8141399034993
26997	1656049237546	9.70981515860518	-0.585946998398612	0.811389945856154	0.0363441280673876	-0.0659565296597483	-0.0517178486174377	-0.00335314320660787	0.0339698285514489	0.00691431960368659	0.674072265625	0.389892578125	-0.078857421875	0	0	0	-0.418614558400911	-0.528554207247153	-0.421804067573744	0.606196032710861	0.0854235571591544	-0.0688709325735938	0.993961573969899	0.953912876804437	0.293686360146108	-0.0616323399751526	-0.287668280053535	0.953417598175413	0.0907846029922864	-34.172009604825	-83.7003229544828	-38.8767604255916
26998	1656049237547	9.73822732373266	-0.598723526826417	0.829394414746934	0.0224187086483002	-0.0560786997889827	-0.0210691033962753	-0.00273849832330703	0.0318516756599302	0.00545713246078627	0.6708984375	0.398681640625	-0.08642578125	0	0	0	-0.418591746647835	-0.528490482012706	-0.421829324910608	0.606249767592329	0.0855156621348772	-0.06902435247646	0.993943011593139	0.95391136828628	0.29368194056755	-0.0616767317444316	-0.287645915986704	0.953407864740838	0.0909575201205842	-34.1405214221313	-83.690637866224	-38.9088906125402
26999	1656049237548	9.71875820379165	-0.59843310055689	0.870462734821407	0.010605817704422	-0.0183696260851893	-0.0367149035501413	-0.000989908846812507	0.0376988186944424	0.0041352516849414	0.6806640625	0.3994140625	-0.074462890625	0	0	0	-0.418527317755505	-0.528375651652272	-0.421889129785425	0.606352716826036	0.0856574658198664	-0.0693479515828443	0.993908275526762	0.953906528596215	0.293688892922558	-0.0617184646231606	-0.287619772009569	0.953382240124697	0.0913081100668379	-34.0561876620241	-83.672553674791	-38.9934966722566
27000	1656049237549	9.73122066761547	-0.58031079524923	0.864335893665833	0.0298670569851589	-0.0208800652365844	-0.0260043788466184	-0.00730535732896105	0.0360183641976363	0.000777388997621984	0.669189453125	0.3916015625	-0.078125	0	0	0	-0.418438095985534	-0.528412051029854	-0.421900718591013	0.606374511178374	0.0855609759576202	-0.0694442189453752	0.993909865052283	0.953875149060346	0.293818686960776	-0.0615855437399818	-0.287752531523674	0.953335239906568	0.0913805283088495	-33.977843499129	-83.6733800849936	-39.0639673754129
27001	1656049237551	9.71168759990307	-0.579976439638964	0.905693390417097	0.0180272918078545	0.0168417182524076	-0.0416628873790739	-0.00776991780154906	0.0404894019785868	0.00682974161835712	0.67138671875	0.40576171875	-0.074951171875	0	0	0	-0.418395215367224	-0.528270162944112	-0.421975571474055	0.606475634943367	0.0857345040442919	-0.0697843880864741	0.993871085199522	0.953887222474796	0.293764121673918	-0.0616587999921404	-0.287660844773143	0.953327215596276	0.0917521574016304	-33.9016816019556	-83.6532486392061	-39.1441831594365
27002	1656049237552	9.72578363033813	-0.547249969676794	0.868472438620492	0.0603252417937803	-0.0123667887152852	-0.0330758580285213	-0.00922824228205793	0.0337461280881661	0.00323283555703982	0.679443359375	0.392333984375	-0.078125	0	0	0	-0.418325216270874	-0.528245369186313	-0.422076991342207	0.60647494321254	0.0856156866254547	-0.0700015220932658	0.993866057931489	0.953914955329073	0.293710053622876	-0.0614870913312799	-0.287604263186736	0.953327955797728	0.0919216867302863	-33.7788550356393	-83.6506435320828	-39.270289757464
27003	1656049237553	9.73827980209912	-0.586007176143265	0.815465143582222	0.0408455085190793	-0.0776583899537844	-0.0231632938733028	-0.00910698535235717	0.0288243892119043	0.00400101808291261	0.671630859375	0.387451171875	-0.082275390625	0	0	0	-0.418303001982072	-0.528143002116609	-0.422139789134424	0.606535708988009	0.0857259354896	-0.0702381060669895	0.993839862573723	0.953933319111796	0.293641193924662	-0.0615310646653637	-0.287510498369689	0.953331766850671	0.0921751356960843	-33.7248995389176	-83.6370864059006	-39.3289012528773
27004	1656049237554	9.73800857069413	-0.586586013015594	0.818283157033132	0.0412470482682971	-0.0745772473446274	-0.0231410202783451	-0.00647506019969702	0.029989419187477	0.00658009935023356	0.675048828125	0.394775390625	-0.06640625	0	0	0	-0.418368548377491	-0.528089540876107	-0.422091797693045	0.60657044839493	0.0859199022750317	-0.0701847127216396	0.993826884569556	0.953928931240331	0.293612544097528	-0.06173546866476	-0.287467153838016	0.953344523269924	0.0921783890915464	-33.811765705009	-83.6303804243977	-39.2440842207641
27005	1656049237554	9.72016975662316	-0.57158725540734	0.827878186171997	0.052689650575562	-0.0622196135712918	-0.0409349086271789	-0.000483146287086963	0.0328887569156219	0.00648672529784174	0.67919921875	0.3955078125	-0.071533203125	0	0	0	-0.418318745165141	-0.52798861447583	-0.422131091164903	0.606665305007039	0.0860667297116433	-0.0704495050109983	0.993795444385035	0.953919643687041	0.293629538630781	-0.0617981183488893	-0.287454050979859	0.953319758154199	0.0924749008547099	-33.7535829613731	-83.6141637578764	-39.3018747893264
27006	1656049237554	9.70535229248741	-0.605491217233035	0.871700632727517	0.00813478512474127	-0.0323393760636871	-0.0495304973728086	0.00849345219133698	0.0297979452545209	0.0067123449991049	0.680419921875	0.39453125	-0.07470703125	0	0	0	-0.418278025105655	-0.52786504511879	-0.422191162071002	0.606759104195881	0.0862262336217498	-0.0707479654060491	0.993760414801431	0.953925359784428	0.293596232765701	-0.0618680860051311	-0.287387272848951	0.953307913266587	0.0928039757109026	-33.6895413103892	-83.5961438658702	-39.3686164150917
27007	1656049237555	9.71319584322115	-0.553570115083181	0.861531692607588	0.0624412656997995	-0.0294111591441923	-0.0459025352867641	0.00411219847464486	0.0227846623864556	0.00545298022864719	0.671875	0.4033203125	-0.070556640625	0	0	0	-0.418232900470455	-0.527805924578863	-0.42220072669271	0.606834980306566	0.0863349047191999	-0.07092073389176	0.993738664705857	0.953903944780193	0.293655574688436	-0.0619166180212669	-0.287425726684154	0.95327679766092	0.0930042938870442	-33.6532684929808	-83.5849805640378	-39.4017608583072
27008	1656049237556	9.73693990882729	-0.588955446249572	0.829224817104224	0.0396444597699956	-0.0737639942022257	-0.0231282375298338	0.00592495672635399	0.0223685453825442	0.00679670151529565	0.68212890625	0.394287109375	-0.0732421875	0	0	0	-0.418151993313553	-0.5278075545874	-0.422214939291984	0.606879428591081	0.0863074607182693	-0.0710595601269287	0.993731131211522	0.953874684273621	0.293766911053136	-0.0618392162967614	-0.287531057324706	0.953232154768641	0.0931361916167424	-33.5827878538836	-83.581118483392	-39.4656662560596
27009	1656049237557	9.7080659199915	-0.577248449334161	0.816501646978388	0.0529577156312441	-0.0821109851870054	-0.0537485118875196	0.00516639037412611	0.0221290500360093	0.00366550046800703	0.67822265625	0.393310546875	-0.081787109375	0	0	0	-0.418100026458063	-0.527756677965954	-0.422226160365277	0.606951667137756	0.0863959167310701	-0.0712315818437873	0.993711128709058	0.953851905927728	0.293834874757923	-0.061867664688725	-0.287580053429022	0.953198367667521	0.0933305134762134	-33.5399148244293	-83.5708753188391	-39.5048501417485
27010	1656049237558	9.72070747326122	-0.559222702840959	0.808912424777251	0.074382400501767	-0.0842128240008982	-0.0430098722162331	0.00285767196677583	0.0197404864747983	0.00454796068199292	0.677734375	0.398193359375	-0.069580078125	0	0	0	-0.418098378388584	-0.527785017128408	-0.422124857849197	0.606998621142913	0.0865071601611228	-0.0711262937308648	0.993708992402186	0.953790532927579	0.294008700749262	-0.0619879277073866	-0.287750118225142	0.953152629028448	0.0932734433672051	-33.6073293675316	-83.5697822889474	-39.4270846649998
27011	1656049237559	9.72052260141818	-0.559498274752159	0.810940940531828	0.0742786394087901	-0.0839301097968072	-0.0430066499185937	0.00622077200489026	0.0214734177906501	0.0018783845845508	0.671875	0.3994140625	-0.071044921875	0	0	0	-0.418040283671622	-0.527742599578011	-0.422136189037896	0.607067630271088	0.0865775729904093	-0.0712950997954264	0.993690763064773	0.953765763928189	0.294086718264624	-0.0619989491751417	-0.287811034210935	0.953115948290398	0.0934601396367867	-33.5592280432219	-83.5604628611224	-39.4708516986355
27012	1656049237559	9.71859739777715	-0.574513334175931	0.844152182020506	0.0493619999558822	-0.0586901368654372	-0.0408956966817389	0.00110573200701728	0.0214971043895848	0.00131017793361862	0.677001953125	0.39453125	-0.07470703125	0	0	0	-0.417962420119523	-0.527718125337871	-0.422221802407385	0.607082980431484	0.0864846595234844	-0.0715146508029472	0.993683077438495	0.953780030031565	0.294072329879381	-0.0618475473426279	-0.287791691992825	0.953103939515436	0.093641991115428	-33.4434890943251	-83.5565377423983	-39.5875367459054
27013	1656049237561	9.71666606949836	-0.58967132236171	0.87717550376652	0.0259409387503612	-0.0330279578707918	-0.0387943509708126	0.0038522445980786	0.0177427971787322	0.00465664460344017	0.68115234375	0.396728515625	-0.077392578125	0	0	0	-0.417926308294637	-0.527676272107571	-0.4222239153374	0.607142749283089	0.0865694343436246	-0.0716407847888521	0.993666609579018	0.953759970295226	0.294129132304743	-0.0618867723516716	-0.28783268073635	0.95307693891128	0.093790705379745	-33.4183881103508	-83.5481354638542	-39.6095549552716
27014	1656049237561	9.74687369342557	-0.587449241447414	0.86277975827667	0.035176305514438	-0.0477205514069462	-0.0102633043116178	0.00423128506663139	0.017861925730716	0.0062236235323032	0.677001953125	0.38818359375	-0.079345703125	0	0	0	-0.417901953017536	-0.527715443612009	-0.422141392350709	0.607182849808617	0.0866261108751701	-0.0715673982134148	0.993666958506524	0.953700656305311	0.294309205056667	-0.0619447332848577	-0.28801210925491	0.95302686181024	0.0937487364750192	-33.4548426401349	-83.5483133816553	-39.5623010443487
27015	1656049237562	9.74667681617238	-0.587723520994399	0.864814765175294	0.0350576223976197	-0.0474334436072026	-0.0102614856271686	0.00485036087873568	0.0233480427577343	0.000209252310641855	0.672607421875	0.39306640625	-0.067626953125	0	0	0	-0.417839408679718	-0.527668492224939	-0.422165394228944	0.607250006819896	0.0866846844571607	-0.0717584955089264	0.9936480683838	0.953681258589674	0.294373216939407	-0.0619392134560934	-0.288058713625152	0.952992721625427	0.0939523817344862	-33.3953379078368	-83.5386883431091	-39.6183159750832
27016	1656049237562	9.76398839131768	-0.603622064934856	0.860861817238151	0.0239754923243744	-0.0579907198441511	0.00754550424402289	0.00768085404304968	0.0282092581728766	0.00548956103346804	0.677734375	0.404541015625	-0.0712890625	0	0	0	-0.417850798623087	-0.527587902159961	-0.422161429350438	0.607314945603428	0.0868614661264932	-0.0718638384808158	0.993625017006496	0.953675943526491	0.294360875317687	-0.0620795443045621	-0.288023055398718	0.952988595839955	0.0941034311689996	-33.4126287748683	-83.5269623366421	-39.6022651524001
27017	1656049237562	9.73973036502486	-0.568789185506987	0.897897582011874	0.0450921598558275	-0.012857686372824	-0.0152443436948264	0.00739979064989139	0.0234981896852363	-0.00369436176990608	0.67822265625	0.39892578125	-0.07275390625	0	0	0	-0.417770233302252	-0.52755405261376	-0.422190182494779	0.607379785259936	0.0868843427516466	-0.0720668054850668	0.993608316456637	0.953652324045062	0.294446963943214	-0.0620341056845022	-0.28809435230158	0.952946672679957	0.0943095074747612	-33.3357788598574	-83.5184801288366	-39.674238882214
27018	1656049237563	9.73954075481858	-0.568455460429935	0.900162765077683	0.0427387596290578	-0.0124869593181462	-0.015233315453596	0.00733943775957301	0.0221560827782203	-0.00179800452632972	0.67919921875	0.401123046875	-0.070556640625	0	0	0	-0.417618238041771	-0.527617580994597	-0.422219596090909	0.607408682978048	0.0867006018044789	-0.0722342485085544	0.99361220754837	0.953605146647855	0.294651239863433	-0.0617889240371272	-0.288305792403596	0.952870851789132	0.0944293909605931	-33.1983269989275	-83.5204554260511	-39.7992317145024
27019	1656049237564	9.72180330900792	-0.552539041169539	0.908754427993303	0.0541652303771946	-0.000125179570938102	-0.033031981925502	0.00833370080628683	0.0201592978153339	-0.00168991293065363	0.671875	0.399169921875	-0.0712890625	0	0	0	-0.41754667385843	-0.527592075322852	-0.422233480455772	0.607470382149199	0.086730980077464	-0.0724000350470617	0.993597489942475	0.953577299867554	0.294747326263934	-0.0617603986189125	-0.288388748518571	0.952828551516718	0.0946027544125764	-33.1380823225865	-83.5129872435469	-39.8539661241047
27020	1656049237565	9.75206748782133	-0.549582113295967	0.894436319072648	0.0619350325186084	-0.0167944797828778	-0.00448880676253616	9.14348275511349E-05	0.0162157266654212	-0.00262245413693101	0.677490234375	0.391357421875	-0.07470703125	0	0	0	-0.417449649138282	-0.527625537612283	-0.42230368284301	0.607459201881827	0.0865417830331597	-0.0725503251578518	0.993603024406092	0.953578707368431	0.294790779783113	-0.0615308459913976	-0.288440927475617	0.952803676774158	0.0946941649873498	-33.0152060330124	-83.5157946020603	-39.9740168823884
27021	1656049237566	9.73906739627351	-0.567710009453134	0.905737369169049	0.0403670323502085	-0.0118242063529651	-0.0152224342363176	-0.00090214313380287	0.0182115388108173	-0.00272927126321522	0.67724609375	0.400634765625	-0.07080078125	0	0	0	-0.417407038616043	-0.527588907785378	-0.422341727116774	0.607493846908458	0.0865548198357038	-0.0727013538215289	0.993590849553137	0.953578648242997	0.29479765929961	-0.0614987941875961	-0.288437211153947	0.952790036274513	0.0948426169912344	-32.9605836856963	-83.5096204995066	-40.0284371113864
27022	1656049237567	9.71860367816424	-0.559702498117794	0.833485900600936	0.0667873300045861	-0.0774659309356065	-0.0428991719872069	-0.00339009079463802	0.0194011055969293	-0.000719658903013463	0.679443359375	0.397216796875	-0.0703125	0	0	0	-0.417381023708223	-0.527581278395209	-0.422361012621474	0.607504938870883	0.0865383394084798	-0.0727679741763347	0.993587408206593	0.953577630439877	0.294808512131278	-0.0614625406211969	-0.288445520917023	0.952781592553727	0.0949021514703049	-32.928755722204	-83.5078763862096	-40.0596588835929
27023	1656049237568	9.71213261452209	-0.597009548482116	0.816709268701624	0.0355555116561797	-0.105263613180393	-0.0486405790255429	-0.00154041926556546	0.0130533810851945	-0.00509730809560522	0.67431640625	0.397705078125	-0.072998046875	0	0	0	-0.417345018753687	-0.527564113182451	-0.422396982774819	0.607519572315352	0.0865137908494874	-0.0728763592255013	0.993581602214376	0.95358137806511	0.294807848528428	-0.0614075553452847	-0.288440495423746	0.952773513859445	0.0949984836069973	-32.8788551363751	-83.5049349008591	-40.1096794034978
27024	1656049237569	9.72489340943074	-0.578243473572676	0.808594895980977	0.0558741638328766	-0.109209884226952	-0.0378884349818023	0.00564630635938829	0.0176512518677948	-0.00237269553595536	0.677001953125	0.394287109375	-0.080810546875	0	0	0	-0.417271304247379	-0.527587078874107	-0.422416571992636	0.607536642979474	0.0864322278221546	-0.0729731951628794	0.993581593419192	0.953560989186333	0.294897796715362	-0.0612921642170216	-0.288532337694895	0.952738265359456	0.0950730657135561	-32.8092621386217	-83.5049304459679	-40.1738085049473
27025	1656049237569	9.70062414448971	-0.543217967221243	0.845301026711909	0.076946121992126	-0.0640854883020146	-0.0606773096531725	0.00330396714344605	0.0287958750546533	-0.000324403126908912	0.676025390625	0.3935546875	-0.07080078125	0	0	0	-0.417199788463376	-0.527522539437337	-0.422458242722253	0.607612820838833	0.0864980070832186	-0.0732175053683287	0.993557895483837	0.953546672820009	0.29494673932428	-0.0612793906290372	-0.288559937490502	0.952704370657348	0.0953286137833948	-32.7338272211723	-83.4929381181031	-40.2467343676708
27026	1656049237570	9.71797782543362	-0.558771299632182	0.841370811368858	0.0648680021382127	-0.0738314573947622	-0.042858097687553	-0.00063883331891726	0.0232469013187604	-0.0019236650988588	0.68310546875	0.3955078125	-0.07373046875	0	0	0	-0.417179751021325	-0.52754419878233	-0.422429200475248	0.607627965333013	0.0865013778339035	-0.0731980761625393	0.993559033615486	0.953521106165567	0.295029251847255	-0.0612800183684907	-0.28864339890188	0.952680314796392	0.0953163473377891	-32.7374480206236	-83.493513565917	-40.2381348745488
27027	1656049237571	9.74171848409959	-0.536705628311643	0.855237415866531	0.0842329146821828	-0.0574951541724995	-0.0193139968353897	-0.00420505631739114	0.0178181339033349	-0.00195716728419452	0.67724609375	0.399658203125	-0.0673828125	0	0	0	-0.417150133387151	-0.527501166757291	-0.422471902411996	0.607655969243426	0.0865200214841715	-0.0733407825271868	0.993546886412855	0.953529510825915	0.295006515774942	-0.0612586943577875	-0.288610044638904	0.952676380135788	0.0954565705695568	-32.6900805285936	-83.487374463396	-40.2870814104325
27028	1656049237571	9.72237677228718	-0.592368662366096	0.848298863652138	0.0312152871862573	-0.0802271041639942	-0.0357905842227577	-0.0124989618190012	0.0201328334084116	-0.00555516659632825	0.672607421875	0.398681640625	-0.07177734375	0	0	0	-0.417122705821176	-0.52747064822472	-0.422535487948953	0.607657078436148	0.0864769533702676	-0.0734733922278167	0.993540838199585	0.953553328342796	0.294944819424322	-0.0611849940845873	-0.288544254044633	0.952685264990118	0.0955667270996294	-32.6287220067977	-83.4843198908008	-40.3522186233605
27029	1656049237572	9.73508159989164	-0.573708817057796	0.840806078356166	0.0524827363249073	-0.0845945278956865	-0.0250421244673191	-0.0151660602064919	0.0248977544962905	-0.00241451437729624	0.67529296875	0.39599609375	-0.079345703125	0	0	0	-0.417110228932137	-0.527383770711683	-0.422623321041776	0.60767996825774	0.0865117738030942	-0.0736851219580067	0.993522126475035	0.953593783304581	0.294817170863601	-0.061169700071507	-0.288400085707855	0.952708422638331	0.0957708306202151	-32.5667409061278	-83.4748787901419	-40.4222050096669
27030	1656049237573	9.71360676482546	-0.587556693181762	0.911794708931285	0.0153423859326855	-0.0198171724947876	-0.038736254069395	0.000858474443802804	0.0240514043276452	-0.00403131347749164	0.685302734375	0.3935546875	-0.070556640625	0	0	0	-0.417023472562427	-0.527459057616662	-0.422629333609867	0.60766998629404	0.0863427778212473	-0.0737127070407229	0.99353478124263	0.953563938407945	0.294951739408911	-0.06098595565857	-0.288549372007706	0.952664635766642	0.0957567317402366	-32.4924190766382	-83.4812623305605	-40.4881064421147
27031	1656049237573	9.73097346900581	-0.603234533326898	0.907578854820172	0.00361046714607667	-0.0315623890829481	-0.02093438710261	0.00185979551969084	0.0217274375223439	0.00445960726779486	0.687255859375	0.39306640625	-0.07275390625	0	0	0	-0.416983892064238	-0.527404447647126	-0.422644458154918	0.607734024349407	0.0864324211859314	-0.0738725163031496	0.993515117098365	0.953549153390702	0.294992191499791	-0.0610214636175295	-0.28857139261509	0.952639731634783	0.0959379647219801	-32.458451549013	-83.471345671542	-40.5200231898266
27032	1656049237574	9.74178065859056	-0.599979876982025	0.931081651730263	0.00347017350091662	-0.00898815926265173	-0.00814320259157064	0.00353515029447964	0.0189574116241964	0.00121361349052552	0.677734375	0.40185546875	-0.06884765625	0	0	0	-0.417002617115126	-0.527360612777972	-0.422547257555573	0.60782679814388	0.086689198445412	-0.0738495818652615	0.993494449975046	0.953492604632666	0.295125264902799	-0.061261169813094	-0.288681200953072	0.952600292501729	0.0959992028191549	-32.5436772648577	-83.4609393475117	-40.4273149175855
27033	1656049237575	9.73875436582644	-0.551131019205313	0.898917061630229	0.0596355912320293	-0.0266327194850778	-0.0172359821673034	0.0117770816505607	0.022900024378371	0.00216050054764837	0.673828125	0.39306640625	-0.081298828125	0	0	0	-0.416925033770217	-0.527327655564351	-0.422544685492374	0.60791039525152	0.0867630648783121	-0.0740264123299236	0.993474841579032	0.953450814746469	0.29525900995571	-0.0612671273952729	-0.288797012505698	0.952545120882751	0.0961981197854172	-32.4924439224667	-83.4510813350937	-40.4708739218455
27034	1656049237575	9.71437142619378	-0.516315217116282	0.935673945756933	0.0790325198064517	0.0201321667580169	-0.0400506966343954	-0.00125277867135856	0.0253578236018336	-0.0004557964501417	0.679931640625	0.39794921875	-0.071533203125	0	0	0	-0.416848521987941	-0.527383971929671	-0.422535280571313	0.607920547884898	0.0866601656484103	-0.0740573000931975	0.993481520710223	0.95341421696925	0.295402492777982	-0.061144894647603	-0.288948691934576	0.952498232840072	0.0962069117363059	-32.4382501466728	-83.4544375712462	-40.5162535287015
27035	1656049237576	9.73173884872621	-0.532043158637723	0.931435017963795	0.0673159700796291	0.00841345177195266	-0.0222440831323993	-0.00444417786677288	0.020049533172523	0.00107298301377559	0.6787109375	0.3896484375	-0.073486328125	0	0	0	-0.416823256789396	-0.527328542035548	-0.422572505608747	0.60796007998691	0.0867141725164175	-0.0742088280418031	0.993465501225611	0.953420029198847	0.295381700206054	-0.0611547145022331	-0.288913309155639	0.952492887650109	0.0963659627082886	-32.3995824721321	-83.4463907155588	-40.5564687937811
27036	1656049237576	9.73157635009843	-0.532129216333499	0.933082106341675	0.0675593644611598	0.0100992997365455	-0.022247353545799	-0.00838618801445496	0.0145021391342312	-0.000533711969710969	0.676025390625	0.394287109375	-0.068115234375	0	0	0	-0.416858373832057	-0.52730937268191	-0.422556786300122	0.607963554828427	0.0867811756670488	-0.0741715966266307	0.993462430997621	0.953424907036962	0.295349717035614	-0.0612330898170671	-0.288877091842546	0.952505705442671	0.096347843295809	-32.4376678272375	-83.4448496116585	-40.520406628953
27037	1656049237577	9.70948470616191	-0.539270707405385	0.891168280572425	0.0712500182789489	-0.0309839828973014	-0.0477987082521345	-0.0130112595257199	0.00972891400397137	0.0012127844829602	0.679443359375	0.396484375	-0.0771484375	0	0	0	-0.416881620619755	-0.527266992751299	-0.422594034910843	0.607958480821036	0.0868076000255494	-0.0742234180619228	0.993456252076059	0.953455091811788	0.295247992094441	-0.0612536616242396	-0.288769507524565	0.95253320539255	0.0963984654888961	-32.4327562537231	-83.4417491890188	-40.5315559010797
27038	1656049237578	9.71408577837713	-0.573513725578818	0.895216766076399	0.037671193085509	-0.0368897021540332	-0.0407370182520843	-0.0097051364144154	0.0101198847442247	0.000447833209971959	0.678466796875	0.3935546875	-0.071044921875	0	0	0	-0.416901970477915	-0.527284093363277	-0.422585514591894	0.607935617277687	0.0867859354863419	-0.0741580162824432	0.993463029016587	0.953461126381687	0.295228459737471	-0.061253873673469	-0.28875609410145	0.952544353393632	0.096328463795398	-32.4516892652081	-83.4451497595657	-40.5136729474738
27039	1656049237578	9.70300807919125	-0.577051604373364	0.87468849697294	0.0394465409531245	-0.057253113667622	-0.0535070549685681	-0.00963995462034379	0.0114608218185394	-0.00144575970673995	0.686767578125	0.399658203125	-0.07421875	0	0	0	-0.416904386890303	-0.527249412581925	-0.422625192041883	0.607936457349941	0.0867920079671528	-0.0742333378920824	0.993456873195022	0.953483710255042	0.295157358486363	-0.061244983546668	-0.28867968690455	0.952560520532293	0.096397578247271	-32.4293204261373	-83.4420607844334	-40.5404217400526
27040	1656049237579	9.75097713961766	-0.589996415236224	0.853310244028341	0.0375988971628633	-0.0843245606059882	-0.00711420568710253	-0.00783199718001258	0.0110453594758702	-9.73121511560055E-05	0.682373046875	0.397216796875	-0.0751953125	0	0	0	-0.416903862892156	-0.527279590276261	-0.42257063526998	0.607948567718703	0.0868205837712471	-0.0741526289239997	0.993460403769209	0.953452220965466	0.295250454626248	-0.0612864697874922	-0.288775083013821	0.95253795549923	0.0963348055673926	-32.4637845650312	-83.4438322400987	-40.5003225231222
27041	1656049237580	9.72699667050171	-0.611839885198888	0.842627668642531	0.0179656842972186	-0.100043985989621	-0.0306373773253643	-0.00320614402319374	0.0158183874723286	-0.00184097583758954	0.685791015625	0.399658203125	-0.069580078125	0	0	0	-0.416876681661076	-0.527246214522801	-0.422603135370759	0.607973561541479	0.0868360384923609	-0.074269762002654	0.993450303171237	0.953456371317171	0.295240844524107	-0.0612681950067562	-0.288756732239522	0.952531808485555	0.0964505231172528	-32.4249076336943	-83.4387655610378	-40.5399510302606
27042	1656049237580	9.74410278300733	-0.570879549599317	0.884209830947508	0.0466165700764628	-0.0496377024471251	-0.0121449159274984	0.000605109013937147	0.0186818974783603	0.00355751170063996	0.6806640625	0.394287109375	-0.06787109375	0	0	0	-0.416817660446306	-0.527282677377323	-0.422523594940866	0.608037686164367	0.0868935797120982	-0.0742590740788283	0.993446070867348	0.953382001991949	0.29547369931663	-0.0613029468294108	-0.288984885560891	0.952460436411456	0.0964720321557399	-32.4338306075129	-83.4366437033167	-40.5171319050972
27043	1656049237581	9.74197894134899	-0.586134751244473	0.917237567711519	0.0231221207614171	-0.0239169771848881	-0.0101404798892997	-0.00182070114453814	0.0212111885438869	0.00367013398276752	0.681396484375	0.3984375	-0.07373046875	0	0	0	-0.416789525442515	-0.527224493800223	-0.422546579999552	0.608091450646351	0.0869774417355605	-0.0744106324498336	0.993427391613274	0.953377218740495	0.29548175842417	-0.0613384807865272	-0.288975437391789	0.952446107775646	0.0966416492370028	-32.4033072120612	-83.4272870411505	-40.5475324155986
27044	1656049237581	9.72419523723082	-0.570726898165021	0.925550056755638	0.0344801698324721	-0.0107533317417106	-0.0279522944547672	-0.00344900238722914	0.0180511797000973	0.00118797732975529	0.67236328125	0.401123046875	-0.07373046875	0	0	0	-0.416768896981175	-0.527210818927593	-0.422533252494904	0.608126705095961	0.0870288058835496	-0.0744573663044206	0.993419391571099	0.953357652228401	0.295538674090346	-0.0613683880713246	-0.289024521250422	0.952424796359235	0.0967048778295827	-32.3989890100811	-83.4232837777854	-40.5485933405683
27045	1656049237582	9.73499463130159	-0.567376442352357	0.948710712445891	0.0324056343571553	0.0103418670742782	-0.0151911899893431	-0.00756926493032595	0.0160797532798921	0.000710634742000203	0.680908203125	0.397216796875	-0.0791015625	0	0	0	-0.4167614029411	-0.527162230169485	-0.422569470980528	0.608148796181114	0.0870700505559429	-0.0745684889134083	0.993407442471294	0.953371971405384	0.295489950427606	-0.0613805615394946	-0.2889648602076	0.952431220434034	0.0968198322026013	-32.373341487674	-83.4173088990784	-40.5773940063454
27046	1656049237583	9.72583077377151	-0.556107875222065	0.897519922694072	0.0551975473341626	-0.0333902567158928	-0.0299259730585497	-0.00657615476590788	0.0140844051047716	0.000818208074997434	0.68359375	0.3955078125	-0.067138671875	0	0	0	-0.416690415444606	-0.52729734669606	-0.422510740044484	0.608121106681028	0.0868843654287139	-0.0744358967257038	0.993433643643444	0.953314898556184	0.295707544447328	-0.0612188888150119	-0.289208940447668	0.952374057519194	0.0966532116877921	-32.3496384757802	-83.4304172807602	-40.5874479448399
27047	1656049237584	9.71280481620892	-0.574878863524125	0.90814672331085	0.033622735072247	-0.0283877120012758	-0.0406938530438001	-0.00902227437386368	0.0090150021178327	0.0054755899161696	0.678955078125	0.39013671875	-0.072998046875	0	0	0	-0.416714594058594	-0.52725843580365	-0.422521212642148	0.608131000558168	0.0869487334825945	-0.0744639255224652	0.993425911450652	0.953329065682014	0.29564954393198	-0.0612783787209666	-0.289142889021381	0.952389873407208	0.0966949779449392	-32.3636067102207	-83.4265461769526	-40.5771411783873
27048	1656049237584	9.75414109918592	-0.56915087750522	0.914669017511237	0.0426003422047806	-0.0230936703244415	0.000644004326609604	-0.0070822756011633	0.0112821864591154	0.00303822921370165	0.68798828125	0.3984375	-0.07275390625	0	0	0	-0.416785913113545	-0.527192784497728	-0.422502884403811	0.608151776511506	0.0871181612879847	-0.0744387073153097	0.99341295785138	0.953344811610342	0.295561630601138	-0.061457242795612	-0.289039955973984	0.952419131144279	0.0967145412072809	-32.4339125235312	-83.4200660696776	-40.5124588974003
27049	1656049237585	9.74972277982471	-0.592154665962702	0.866053028718508	0.0348005686412872	-0.0762033653096405	-0.00703739884451337	-0.00509675643548681	0.00729201008464249	0.00325221746460566	0.68310546875	0.392333984375	-0.07568359375	0	0	0	-0.416796331627683	-0.52717169741693	-0.422505639124986	0.608161001949193	0.0871579727002796	-0.0744564463962407	0.993408136359282	0.953349364881502	0.295539605698587	-0.0614925194113919	-0.289012934442066	0.952424579194367	0.0967416387685186	-32.4415302491647	-83.4176557144917	-40.5062732140665
27050	1656049237585	9.75588239915734	-0.554877708158646	0.885505182615024	0.066276043534922	-0.0455645451001955	-0.00132755428691667	-0.00289471370821094	0.0145941702936575	0.00162503671918411	0.675048828125	0.3955078125	-0.072509765625	0	0	0	-0.416795002045682	-0.527212484532837	-0.422382047097323	0.608212404273645	0.0872808048851755	-0.0743169436354276	0.993407797929574	0.953275057912919	0.295750665119229	-0.0616296036223951	-0.289220893193621	0.952369957511377	0.0966578448449057	-32.5218210870516	-83.4174865600775	-40.4133814728655
27051	1656049237586	9.77800763340405	-0.604893240235335	0.883680345748054	0.0216285792197022	-0.0646403493538207	0.0235504195779281	0.00115907547409251	0.0152230460820801	0.00399837560570442	0.683837890625	0.401123046875	-0.0771484375	0	0	0	-0.416772019955881	-0.527179150519303	-0.422381621529451	0.608257340632888	0.0873518181037966	-0.0744064048063103	0.993394859458091	0.953260482568532	0.295789698352093	-0.0616677121513995	-0.289247493069812	0.952350849882845	0.0967664532792817	-32.5087099898888	-83.411022877245	-40.4244050402291
27052	1656049237587	9.77316084641758	-0.571115867999263	0.882203602642303	0.0529339241001638	-0.055140236921844	0.0165184419757924	0.000233851165438564	0.0185592437052004	0.00199890756244423	0.681396484375	0.398193359375	-0.067626953125	0	0	0	-0.416689588225515	-0.527274891963831	-0.422307649584379	0.608282191479825	0.0872748748140961	-0.0743445299076356	0.993406254811694	0.953184360363883	0.296052072333936	-0.0615852711650797	-0.289521452372494	0.95227415240549	0.0967019507379613	-32.4912895555612	-83.4167153315691	-40.4257995671448
27053	1656049237588	9.76669700481998	-0.60881033345231	0.865933423755313	0.0217860984589953	-0.0829027742697115	0.0108310039448884	0.00567649342098551	0.0249103394914197	0.00150459700732762	0.67431640625	0.390869140625	-0.070068359375	0	0	0	-0.416625749811709	-0.527227602222139	-0.422322704792175	0.608356452308962	0.0873491769442299	-0.0745322946393288	0.993385654387541	0.953158675028242	0.296133035221704	-0.0615935521689313	-0.289583600201344	0.952234300215119	0.0969080800978497	-32.4395243243867	-83.4064281331832	-40.4730794969876
27054	1656049237588	9.77272010720396	-0.57145584889473	0.886853795561601	0.0527083690516416	-0.0541874111399589	0.0165249530975693	0.00973005062522727	0.025538560184257	0.00388007184035133	0.68603515625	0.402587890625	-0.0751953125	0	0	0	-0.416582201274085	-0.527164449444503	-0.422343033345136	0.608426885507487	0.0874480108534066	-0.0747150592218678	0.993363229298959	0.953144366353997	0.296171263532933	-0.0616311572578694	-0.289600867204193	0.95220808785831	0.0971138256470236	-32.4003572702677	-83.3952478893127	-40.5103796204957
27055	1656049237589	9.77247122513539	-0.571893359041504	0.889310867646597	0.0525715105391624	-0.0537681355620441	0.0165279885169269	0.00635585603643327	0.0238054911225531	0.00653546936992633	0.67822265625	0.399658203125	-0.072021484375	0	0	0	-0.416531950204436	-0.527111276573482	-0.422338688720184	0.608510368504991	0.0875674682383796	-0.074877566202262	0.993340469620536	0.953112318225871	0.296262332938011	-0.0616890503106741	-0.289670238982927	0.95216699174134	0.0973096731359267	-32.3724787529686	-83.383920064905	-40.5332322718417
27056	1656049237591	9.75260443789538	-0.571569139157553	0.929428180877095	0.0387194642437542	-0.0147535092920842	0.000676166838974979	0.00120124948386896	0.030085964136167	0.00329683762833263	0.67919921875	0.3994140625	-0.072998046875	0	0	0	-0.416382156970683	-0.527191412331211	-0.422274030921699	0.608588331246833	0.0875077151467261	-0.0749559008092399	0.993339827412389	0.953008290420801	0.296621084331164	-0.0615721586386814	-0.290030340100862	0.952049129648297	0.0973902282413293	-32.3019385527432	-83.3836007086229	-40.5821481170598
27057	1656049237590	9.72847952587545	-0.59393814851804	0.92000256602345	0.0191204572232044	-0.0304834375155369	-0.0228361971619453	-0.00206361235528091	0.0234381027636292	0.00670846488393222	0.673828125	0.38916015625	-0.06689453125	0	0	0	-0.416358554372604	-0.527121882817262	-0.42229048947088	0.608653281728099	0.0876265263152575	-0.0751135743021125	0.993317443137632	0.953000394733954	0.2966325934064	-0.061638885177477	-0.290020412252053	0.952033116800332	0.0975761497118804	-32.2806152947417	-83.3724790638934	-40.6032256829785
27058	1656049237592	9.72156422490783	-0.575317621895153	0.950023069116075	0.0282591983059338	0.00319630384670658	-0.0279269633158599	-0.0022570011791693	0.0197448081769308	0.00400512730777983	0.6796875	0.392822265625	-0.07958984375	0	0	0	-0.416362202933822	-0.527074473629755	-0.422320959030465	0.608670701430257	0.0876750136230105	-0.0752010108222055	0.99330654883451	0.953016566624882	0.296575047063367	-0.0616657538499608	-0.289952609446315	0.952044142585143	0.0976700304320246	-32.2670127744682	-83.3670729371845	-40.620501754819
27059	1656049237598	9.74097508892725	-0.576610127318208	0.914436784572931	0.0399514828470213	-0.033737386851973	-0.0120478465844158	-0.00375873278109086	0.0189379232691335	0.00611612272049555	0.6787109375	0.400390625	-0.062255859375	0	0	0	-0.41635172915817	-0.527016356092212	-0.422334209920017	0.608718993600104	0.0877751510850442	-0.0753173681435552	0.993288888948188	0.953014052758077	0.296570105516473	-0.061728338383388	-0.289930574616793	0.952036483843911	0.0978099960765775	-32.2562118190365	-83.3583188024687	-40.6319577601211
27060	1656049237590	9.72110630330142	-0.576471551455936	0.954001137790599	0.0272421295622738	0.00478242110121402	-0.0279247254752963	-0.00162117466808763	0.0248963314226151	0.00638701448206591	0.6806640625	0.38671875	-0.0771484375	0	0	0	-0.416306839652925	-0.527000768717462	-0.422321765228893	0.60877182231387	0.0878290327703112	-0.0754071322035497	0.993277315464049	0.952983230281264	0.296665883744291	-0.0617439569909932	-0.290015557867709	0.951999536677963	0.0979176100587958	-32.234321822598	-83.352587967122	-40.6483086905802
27061	1656049237590	9.71875423830758	-0.592143471865868	0.987762521932666	0.00369151672195752	0.0305290240582359	-0.0259848436664836	-0.00241875058770857	0.0305825417910898	0.00898606487336527	0.67626953125	0.396484375	-0.0673828125	0	0	0	-0.416275234416867	-0.526904289946958	-0.422346861926923	0.608859529503443	0.0879899949119438	-0.0756254096543192	0.993246474048618	0.95297423690601	0.296676114863326	-0.0618335399521149	-0.289996318233186	0.951979033531841	0.0981735968933485	-32.2043151909217	-83.3373402038701	-40.6783132457132
27062	1656049237591	9.70753282802313	-0.596377845634616	0.968962753616879	0.00605832315485732	0.0117768425615471	-0.0387130949963517	0.00393411077550336	0.026328917655814	0.00665871486561307	0.68310546875	0.394775390625	-0.06591796875	0	0	0	-0.416293110640178	-0.5268517923024	-0.422305194147725	0.608921635333419	0.0881710238872022	-0.0756519959326223	0.993228395716762	0.952951081788298	0.296716738058753	-0.0619952665474224	-0.290017424071719	0.95196426028879	0.0982544699625474	-32.2505475724473	-83.3284185404298	-40.6300641535788
27063	1656049237592	9.70308689360726	-0.627069745693793	1.03377933158919	-0.0408829337693024	0.0628501521759001	-0.0348456200641589	0.000749989688531548	0.0282888271845144	0.0120160245112245	0.675537109375	0.396728515625	-0.0712890625	0	0	0	-0.416264990338637	-0.526762857236775	-0.422307198456709	0.609016403872481	0.0883550447347894	-0.0758381513102961	0.993197845786906	0.952929894023972	0.296760175900041	-0.062112921966672	-0.290031038244831	0.951935907929527	0.0984887001082466	-32.2380064404877	-83.3133690708178	-40.6406187579681
27064	1656049237592	9.72193533937112	-0.572130423615251	1.04532318993679	0.0110579733854459	0.0870667153407896	-0.0183850865884967	0.00243240299468102	0.0255208860793425	0.00877118817516894	0.68408203125	0.395263671875	-0.076171875	0	0	0	-0.416225424627872	-0.526706465784797	-0.422310492610513	0.609089929833766	0.0884682934631091	-0.0759928918733566	0.993175936798939	0.952907381375447	0.296820487448827	-0.0621700953098002	-0.290070480352472	0.95190476341668	0.0986733895876736	-32.2133634785754	-83.3025970193706	-40.6620671972821
27065	1656049237594	9.72624680342078	-0.60728443997445	1.05094244305129	-0.0220586435358063	0.0800437032836276	-0.0113478077032774	0.00167131256093611	0.0249514021350257	0.0140189712211776	0.66845703125	0.395263671875	-0.06787109375	0	0	0	-0.416206803541089	-0.526625413404088	-0.422297057707885	0.609182046431398	0.0886617380164723	-0.0761414116800553	0.993147311147378	0.952881731585735	0.296874183474744	-0.062306699450172	-0.290095677013755	0.951876149829153	0.0988751412861655	-32.2172992491234	-83.2885485016717	-40.6555047837528
27066	1656049237597	9.74098105237192	-0.574975948700256	1.01277597414927	0.0214500564404956	0.0516667950382452	-0.00249397390655659	-0.000182763373144519	0.024357329068446	0.00617642915236844	0.67333984375	0.390625	-0.07080078125	0	0	0	-0.41616209394831	-0.526634108424754	-0.422283196858788	0.60921468223849	0.0886668349887733	-0.0761919405646663	0.993142980927754	0.952852553791254	0.296972026422561	-0.0622866458878836	-0.290189943151996	0.951841585409814	0.0989312548084445	-32.1943223947321	-83.2864259220271	-40.6726644672058
27067	1656049237598	9.72773166585035	-0.594254511024328	1.02446379239308	-0.000124826683464956	0.056680810024818	-0.0132886735262243	-0.00182972860028247	0.0208688182062314	0.0120713970903669	0.67919921875	0.40087890625	-0.074462890625	0	0	0	-0.416157551169664	-0.526562690313778	-0.422276175344284	0.609284381475997	0.0888291298122405	-0.0763064771367992	0.993119684249472	0.952838636089968	0.296991448682144	-0.0624068344325519	-0.290186008055196	0.951826350211346	0.0990892515479695	-32.2028991675412	-83.275017841232	-40.6634153624068
27068	1656049237601	9.69897442170465	-0.583122231479064	1.01136585962325	0.0118337807395706	0.0495978610475116	-0.0438390795395804	-0.00131511516618165	0.0236687285559485	0.00985625648408636	0.6845703125	0.394775390625	-0.07666015625	0	0	0	-0.416114022201283	-0.526584040995207	-0.422241290710187	0.609319834500751	0.0888430803771067	-0.0763219800987882	0.993117245053628	0.952797993400872	0.297122825893729	-0.0624020040078513	-0.290315157786117	0.951784104556661	0.0991167365932564	-32.1937344183601	-83.2738245125564	-40.6647211959673
27069	1656049237602	9.66810754270412	-0.586901243433904	1.02933634546872	0.00180018937858649	0.0666421612571411	-0.0724694511229522	-0.00837406832041396	0.0214302825653721	0.0116915200617364	0.678466796875	0.398193359375	-0.06298828125	0	0	0	-0.416127120358997	-0.526498544571623	-0.422253572004689	0.609376257492013	0.0890024069864869	-0.0764419563901194	0.993093751291318	0.952803249293288	0.297080281262019	-0.0625241922893121	-0.290249099372871	0.951787756691864	0.0992750045313839	-32.2030519942956	-83.2623414224914	-40.6584624423865
27070	1656049237602	9.6875696932705	-0.588920591921572	0.993689880687478	0.0130380500365901	0.0302849499635847	-0.056552567863422	-0.0119474198708325	0.0160085540692779	0.0116328748762975	0.68115234375	0.39892578125	-0.061767578125	0	0	0	-0.416135903921304	-0.526473827978474	-0.422221233195343	0.609414020318121	0.089109077385393	-0.0764457537770342	0.993083893262289	0.95278440296396	0.297120279413206	-0.0626212506265074	-0.290278235140242	0.951774966203083	0.0993124358425824	-32.233396184916	-83.257528893095	-40.6259510832319
27071	1656049237603	9.66979065025473	-0.574380612933995	1.00109246692108	0.024420055761475	0.0427725689637753	-0.0743854323832398	-0.00692372961590362	0.00737558917501516	0.010278651610344	0.676513671875	0.40380859375	-0.068603515625	0	0	0	-0.416170541408265	-0.52643729269498	-0.42220463966163	0.609433425053241	0.0892140382163449	-0.076435853007971	0.993075231671839	0.952786625481456	0.297090645424289	-0.0627279419799442	-0.290238697779591	0.951785011846858	0.0993317146478623	-32.2723959041517	-83.2533032656535	-40.5889554820042
27072	1656049237604	9.6894060560987	-0.576094065262147	0.964274021517235	0.0341147473707477	0.0045194862669573	-0.0584516580199104	-0.0132183994891035	0.00570786363380307	0.00686513570658576	0.687744140625	0.389404296875	-0.06884765625	0	0	0	-0.416109325298394	-0.526450120661798	-0.422266368260574	0.609421376463707	0.0890827693824075	-0.0765546937356998	0.993077861532616	0.952797911783057	0.297088287271481	-0.062567474521067	-0.290241967160174	0.95177619660986	0.099406599709786	-32.1867078311308	-83.2545859860967	-40.6746394562637
27073	1656049237605	9.72448488456137	-0.608572892161158	0.952110080592122	0.0108310689920693	-0.0190978350193181	-0.0227946852557679	-0.0168492655226443	0.00620831862026988	0.0125437562426076	0.671630859375	0.396240234375	-0.0703125	0	0	0	-0.416182155809041	-0.52639144919704	-0.422267514893195	0.609421530030163	0.08920437615633	-0.0765283737639526	0.993068974081662	0.95282728626903	0.296965118104129	-0.0627047141018705	-0.290108155376158	0.951816750555718	0.0994089107967586	-32.242728383979	-83.2502520876828	-40.6262708142579
27074	1656049237605	9.70054119779931	-0.63147491891517	0.940353574083197	-0.00840986876584322	-0.0340868854044093	-0.0463015281767412	-0.0107951980091619	0.00317730110992399	0.0067574507533469	0.6806640625	0.39892578125	-0.07177734375	0	0	0	-0.416262426881895	-0.526370056435525	-0.422239053622731	0.60940490418952	0.0892974905676868	-0.076412945776444	0.993069493991272	0.952845254295691	0.296879547124352	-0.0628367397739586	-0.290020481250022	0.951852717712676	0.0993203113089144	-32.3202100818406	-83.2505055414014	-40.5540052332615
27075	1656049237607	9.7067074304564	-0.594796604381061	0.959083640142313	0.0223784391895755	-0.00540145666689182	-0.0406218935683729	-0.0118577534828724	0.00383030337027385	0.00854293564295046	0.681396484375	0.396484375	-0.06982421875	0	0	0	-0.416314711140053	-0.526337532670367	-0.42223393101036	0.609400829089018	0.0893746184120165	-0.0763752995027925	0.993065451624195	0.952863531006122	0.296801137583825	-0.0629299293460006	-0.289936663535765	0.951880191176813	0.0993017259816878	-32.3634336840669	-83.2485351541288	-40.5156257760037
27076	1656049237607	9.71338600363698	-0.614721779837471	0.931327489458272	0.0115294643604784	-0.0369986328293812	-0.0354883991922925	-0.0101753512846837	0.001064415751806	0.00529559807625769	0.6845703125	0.395263671875	-0.072265625	0	0	0	-0.416303986571109	-0.526417451497715	-0.422171181028832	0.609382598563804	0.0893123213347452	-0.0762281753499947	0.993082360401498	0.952826909986404	0.296924969347446	-0.0629002558323911	-0.290076177690553	0.951853364684303	0.0991513150473057	-32.3904902955696	-83.2567808825226	-40.4807972064656
27077	1656049237611	9.70659694630461	-0.59629962053963	0.959268487487073	0.0208873006674643	-0.00375863099354029	-0.0406178225957472	-0.00656970324061029	0.000228590369807394	0.00800251350885483	0.679931640625	0.39013671875	-0.064697265625	0	0	0	-0.416346236005261	-0.526408590354285	-0.422146212011343	0.609378686409314	0.0893731433713791	-0.0761573379065961	0.993082323438948	0.952830278685963	0.296896774897452	-0.0629822600001126	-0.290046377779743	0.95186782955328	0.0990996155309331	-32.4377928866191	-83.2567628464329	-40.4352388414154
27078	1656049237608	9.7525686755666	-0.625002807460101	0.968342427097802	-0.0035138625543084	-0.00608485158569219	0.00774347999622371	-0.00748593209194883	0.00356537778980183	0.00600405865464224	0.68017578125	0.39208984375	-0.068603515625	0	0	0	-0.416418526415052	-0.526371919309249	-0.422108017264504	0.60938742617652	0.0895148486474526	-0.0760725984485404	0.993076055313444	0.95283667438862	0.296840865238692	-0.0631488136418972	-0.289981661164388	0.951892042455252	0.0990564268420286	-32.517651076609	-83.2537049725689	-40.3589536953821
27079	1656049237609	9.75679392182341	-0.595926006692298	0.906429555170751	0.0431655574700143	-0.0562093327714903	0.00396925584586327	-0.00432369181228985	0.0012696783362194	0.00903351497938971	0.680908203125	0.389892578125	-0.064697265625	0	0	0	-0.416454692402545	-0.52636228409124	-0.422075815447177	0.609393338556269	0.0895895038017073	-0.0760082943713931	0.993074246970142	0.952832466825466	0.296834990381004	-0.0632398501643245	-0.289972431399712	0.951899011278119	0.0990164701243094	-32.5655616202158	-83.2528230376698	-40.3114814949356
27080	1656049237611	9.74371241725186	-0.615168457024428	0.91620162043235	0.0228148923818224	-0.0511807466315073	-0.00683965543972853	-0.00299359659943213	0.00564793603518597	0.00806601972777758	0.679443359375	0.396728515625	-0.06591796875	0	0	0	-0.416542524909174	-0.526274591431548	-0.422070235613403	0.609412910566468	0.0897835412456083	-0.0759986072763952	0.993057464305791	0.95286159571816	0.296698082303073	-0.0634431033534897	-0.289816657780123	0.951942466564933	0.0990547587116946	-32.6389590985206	-83.2446435452063	-40.2467393421514
27081	1656049237612	9.767427739627	-0.594432586336055	0.929050402031942	0.0420630191102773	-0.0345006135743293	0.0166650883420996	-0.000626550092796207	0.00903590808368891	0.0136989848421876	0.67138671875	0.405029296875	-0.067626953125	0	0	0	-0.416563569827122	-0.526238963401657	-0.422030042121881	0.609457126660636	0.0899263938891078	-0.0759944713187009	0.993044854984453	0.952842396025573	0.296730871678977	-0.0635779688955182	-0.289835491302128	0.951932576457821	0.0990946913816697	-32.6837453693182	-83.2385045259018	-40.2002886411546
27082	1656049237613	9.74294611013897	-0.560829375740249	0.964150290681417	0.0601573764590751	0.00974864558558678	-0.00629148130725276	-0.00467500664363583	0.00841308321038709	0.0113148778046805	0.679443359375	0.39306640625	-0.068359375	0	0	0	-0.41647824122045	-0.526284112967779	-0.422071273113761	0.609447903794711	0.0897617456996938	-0.0760891418001229	0.993052501889535	0.952832668804464	0.296803430004099	-0.0633847710161088	-0.289918495905153	0.951902393335536	0.0991418140552773	-32.5921798737084	-83.2422268630429	-40.2872424485762
27083	1656049237615	9.72980593562306	-0.580384025937763	0.974250697483689	0.0385607547294373	0.0147360026353668	-0.0171052272529337	-0.00556210300795209	0.00549411012018527	0.0119600766361907	0.6796875	0.40869140625	-0.070556640625	0	0	0	-0.416516654118786	-0.526252823432715	-0.422042871886793	0.609468339588149	0.0898755602372876	-0.0760574062541985	0.993044638788166	0.952829667201233	0.296787382262479	-0.0635049213130227	-0.289893099216283	0.951909933073329	0.0991436853415753	-32.6409514009992	-83.2383993161807	-40.2396479701649
27084	1656049237615	9.76485464459867	-0.612800979323571	0.962179138593142	0.0129050039270786	-0.00889596657613415	0.0185615006614661	-0.00254929913195895	0.00710680805937636	0.00774462679634684	0.67919921875	0.3984375	-0.06494140625	0	0	0	-0.416417770873503	-0.526353455167507	-0.422003342614166	0.60947638113092	0.0897304381113979	-0.0760362751784278	0.993059380567611	0.952768005148105	0.297018837846429	-0.0633477571067677	-0.29014061563738	0.95183942701558	0.0990965606679413	-32.5888627769829	-83.2455769894356	-40.2774589022988
27085	1656049237617	9.73630171944833	-0.601359348453943	0.947662982907582	0.0262833080662978	-0.017174284388629	-0.0119586403665082	-0.00173552366339021	0.00868306238500106	0.00899215878574206	0.677978515625	0.3955078125	-0.067626953125	0	0	0	-0.416429594702889	-0.526327183427495	-0.421980984292944	0.609506470462806	0.0898234897608785	-0.0760438493259762	0.993050388281917	0.952756712029275	0.297036883101493	-0.0634329390814954	-0.290148907236171	0.951833190772963	0.0991321772817368	-32.6144642100893	-83.2411978035162	-40.250985485378
27086	1656049237618	9.69255342139979	-0.623276423307723	0.973720594937066	-0.00613336216188425	0.00371064204305119	-0.0514299832788634	-0.00173539854720606	0.00868289557005581	0.00899243785180147	0.672119140625	0.3984375	-0.06396484375	0	0	0	-0.416399898181214	-0.526317069447944	-0.421995840220206	0.60952520705812	0.08981970648914	-0.0761174555174556	0.993045091268142	0.952750952034091	0.297061271263032	-0.0634052404279258	-0.290168991665782	0.951819696203613	0.0992029344048048	-32.5845507204803	-83.2386195128161	-40.2795141499729
27087	1656049237619	9.71408860822051	-0.617325424642634	1.01778376782948	-0.0103947465012926	0.045666491529197	-0.026048595203827	-0.0031677174417463	0.00921867988482175	0.00920856578233087	0.677001953125	0.396484375	-0.070068359375	0	0	0	-0.41641532445429	-0.526285652392757	-0.421978127764499	0.609554057761514	0.0899157435477971	-0.0761301387373788	0.993035427886676	0.952743781524448	0.297065474495994	-0.0634932329383526	-0.290162791944006	0.951817370002406	0.0992433792903176	-32.6100146493239	-83.2339184373221	-40.2540246283156
27088	1656049237620	9.66794154128653	-0.590485638299708	1.00954621346232	0.0126669219550232	0.0487821899471642	-0.0743913020525113	-0.00662518030211583	0.00614652648100796	0.0137464779288026	0.6796875	0.390380859375	-0.0712890625	0	0	0	-0.416404106552308	-0.52628830799525	-0.422012340048214	0.609535742808329	0.0898524034290558	-0.0761659849717626	0.993038412314097	0.952760435690515	0.297026409786809	-0.0634260519974191	-0.290127726666795	0.951826693585781	0.0992564738277421	-32.5790553835263	-83.2353699649127	-40.2872404164862
27089	1656049237621	9.71379415545141	-0.619782995463437	1.01909966429989	-0.0127027950825061	0.0459175307322618	-0.0260524934494359	-0.00511811076864137	0.00695260661294184	0.0116392322374187	0.6748046875	0.393310546875	-0.0703125	0	0	0	-0.416436291188092	-0.526254855446332	-0.421988182923851	0.609559362140631	0.0899636011835729	-0.0761504547843013	0.993029535662574	0.952756935671485	0.297013577708267	-0.0635386196483436	-0.290104760374532	0.95183194046695	0.0992732850013335	-32.6207650494272	-83.2310535624825	-40.2465290066499
27090	1656049237622	9.72041305367092	-0.64004955412892	0.991636161623927	-0.0225465634528122	0.0146322824040951	-0.020919743736302	-0.00494381805105128	0.00338110318584402	0.0104979990394332	0.66552734375	0.399169921875	-0.065673828125	0	0	0	-0.416508902423925	-0.526257094147991	-0.421938804002332	0.609542000798643	0.0900422330719891	-0.0759973162595681	0.993034140493041	0.952760374965103	0.296975959757399	-0.0636627616627594	-0.290069067912743	0.951855917272943	0.099147610121061	-32.7045532817937	-83.2332923869722	-40.164986962064
27091	1656049237623	9.72660611201957	-0.603594788498424	1.01039362822964	0.00816730803776316	0.0433410493667338	-0.015231408108944	-0.00862232344248882	0.00287748915150888	0.00968199118561553	0.68310546875	0.390625	-0.064208984375	0	0	0	-0.416555315736016	-0.526233022461212	-0.421920956975664	0.609543420166394	0.0901230242721552	-0.0759479606655529	0.993030587528292	0.952768611953745	0.296928749993615	-0.0637596228263858	-0.290016917733732	0.951874584542509	0.0991209500068117	-32.7511797412928	-83.2315649045688	-40.121318006104
27092	1656049237623	9.71157660546305	-0.630631889826164	0.93952368298508	0.00152714967901037	-0.0315771629838063	-0.0354627079225711	-0.00637584312761153	0.0039168150900999	0.0107144431842318	0.679443359375	0.389892578125	-0.072265625	0	0	0	-0.416584469023889	-0.526181409584988	-0.421995288142893	0.609516596296144	0.0901062019847037	-0.0760282571193257	0.993025969692278	0.95282426960814	0.296754713906564	-0.063738144152053	-0.289839237525919	0.951922446365055	0.0991810087504792	-32.7266104720036	-83.2293203281147	-40.1564264764913
27093	1656049237624	9.72860930855011	-0.590784961406542	0.979932438705146	0.0302049921919033	0.0178806016339995	-0.0170811335582499	-0.00351123147115103	0.00284404369882038	0.0102830348490332	0.6806640625	0.3896484375	-0.067138671875	0	0	0	-0.416616717680523	-0.526166870460073	-0.42196263278818	0.609529713393718	0.0901919219214411	-0.0759776962058593	0.993022057609682	0.952817354299093	0.29675609415915	-0.0638350211551821	-0.289835309385508	0.951926052936181	0.099157869958721	-32.7722844699501	-83.2274193742567	-40.1107944851967
