// Start Time : 22/03/2022 10:50:49																																
// Update Rate : 100Hz																																
// Filter Profile : 46.1 human																																
// Firmware Version : 4.4.0																																
PacketCounter	Time_Of_Arrival	Acc_X	Acc_Y	Acc_Z	FreeAcc_X	FreeAcc_Y	FreeAcc_Z	Gyr_X	Gyr_Y	Gyr_Z	Mag_X	Mag_Y	Mag_Z	VelInc_X	VelInc_Y	VelInc_Z	OriInc_q0	OriInc_q1	OriInc_q2	OriInc_q3	Mat[1][1]	Mat[2][1]	Mat[3][1]	Mat[1][2]	Mat[2][2]	Mat[3][2]	Mat[1][3]	Mat[2][3]	Mat[3][3]	Euler_X	Euler_Y	Euler_Z
18017	1647946288951	9.72792722868832	-0.0470616750344103	0.0435401458791429	-4.33680868994202E-16	-1.38777878078145E-15	-0.0845488608421725	-0.015318150896847	0.0045612868729091	0.000845095980381516	0.555419921875	0.456787109375	0.12890625	0	0	0	-0.566385383366349	-0.42069106198295	-0.56686429391447	0.425313414038942	0.00336780530501352	-0.00564343944305551	0.999978404506157	0.958736513123095	-0.284255060412393	-0.00483311850840656	0.28427619719561	0.958732085736782	0.00445325575322258	-47.3424002793226	-89.6234523151477	-59.1727398534576
18018	1647946288951	9.75004596332935	-0.0471748730342795	0.0705604955228334	-8.67361737988402E-17	1.38777878078145E-15	-0.0622719599938541	-0.0137958784124668	0.00609061117378418	0.000915976217828041	0.5625	0.461181640625	0.128662109375	0	0	0	-0.564317716940796	-0.421832005373871	-0.566339037083753	0.427625266634273	0.0026357086346111	-0.00826721506639411	0.999962352388848	0.960456311886956	-0.278388781156451	-0.00483316487741081	0.278418257297362	0.960432891815598	0.0072065471779722	-33.8482968662045	-89.5028268059597	-72.3169605987285
18019	1647946288951	9.7500383371452	-0.0474202964620856	0.0714449330905291	0.00386054019871984	0.0136805819564108	-0.0622823217165234	-0.0154657306375191	0.0121934274725817	0.0039055088663128	0.555419921875	0.462158203125	0.1220703125	0	0	0	-0.565390191349106	-0.421151791140206	-0.566683793487298	0.4264206591436	0.00300129403648236	-0.00706116993013955	0.999970565623471	0.959521537049258	-0.281593180549868	-0.00486832686221933	0.281619268113413	0.959507905411428	0.00593020069123512	-39.3838720247257	-89.5603914645711	-66.9724680627954
18020	1647946288952	9.73230973912557	-0.0476038990109939	-0.00251718218576102	-0.0171633598995982	-0.058349701307385	-0.0804509318761468	-0.0169900648873677	0.0121917312265116	0.00383675970481075	0.55517578125	0.45751953125	0.130126953125	0	0	0	-0.565399947736429	-0.421066808426789	-0.566745852324805	0.42640917064898	0.00300376342781528	-0.00718895476103509	0.999969647706726	0.959473560673242	-0.281755924055454	-0.00490771114348215	0.281782653430406	0.959459180053587	0.00605128388184112	-39.0427373572701	-89.5535894150995	-67.3233478080431
18021	1647946288952	9.77659804953076	-0.0725428182030328	0.051235958825188	-0.0256616352378137	-0.000907763694424357	-0.0357196508883426	-0.0140002637660921	0.00455536449972425	0.00548562196164288	0.55810546875	0.46435546875	0.114990234375	0	0	0	-0.565426906255313	-0.421006580613828	-0.566775827769904	0.426393050855824	0.00303724027118529	-0.00724165192908005	0.99996916634908	0.959435445487499	-0.28188485052343	-0.0049555007403887	0.281912044995846	0.959420913636305	0.00609174552479558	-39.1275944684075	-89.5500635040176	-67.2462077994916
18022	1647946288953	9.75668233540205	-0.0728229893034519	0.0010677955760652	-0.0399261394768552	-0.0495684353611483	-0.0559408076868415	-0.00472244248822463	0.00915370313538427	0.00285842831153434	0.5595703125	0.449462890625	0.125	0	0	0	-0.565417050125135	-0.420965600652103	-0.566805552536341	0.426407068549969	0.00303885736317322	-0.00733753193999792	0.99996846248817	0.959422044439468	-0.281929949916473	-0.00498437395124213	0.28195763155041	0.959406933456875	0.00618304499080996	-38.8735308235721	-89.5449569508491	-67.5029852111788
18023	1647946288954	9.75882350085808	-0.0486649038349886	-0.022119076569493	-0.0232213983415596	-0.0797228294073061	-0.0540707308282471	-0.0063195709293064	0.0122040002813923	0.0043193430474878	0.561279296875	0.4609375	0.123291015625	0	0	0	-0.565405767219193	-0.42090949417237	-0.566843409979482	0.426427091861748	0.00304749255678471	-0.00746546275235094	0.999967489299032	0.959404084681837	-0.281990266083783	-0.00502912813547179	0.282018643151339	0.959388220013093	0.0063030322216695	-38.586026185714	-89.5379893640242	-67.7941208962738
18024	1647946288955	9.75667477609754	-0.0737507944337807	0.00359072756640016	-0.0399104435799961	-0.0495554301480759	-0.0559406774060278	-0.00341660244927894	0.0183111448548717	0.00751732047832773	0.555419921875	0.457763671875	0.122314453125	0	0	0	-0.565376971830688	-0.4208395151466	-0.566886335696212	0.426477273269817	0.00306796978419366	-0.00766233600271704	0.999965937504066	0.959394218803836	-0.282022475751033	-0.0051045173165431	0.28205198188841	0.959377199947049	0.00648596442947158	-38.2030909432864	-89.5270915251959	-68.1790265149335
18025	1647946288957	9.73008485546312	-0.0499905011352536	0.0274915301161139	-0.0104093304261445	-0.0348384102536361	-0.0825031996310379	-0.00473156183954742	0.0167912009011083	0.00287237193702435	0.56591796875	0.465576171875	0.12255859375	0	0	0	-0.565348146854616	-0.420783193062926	-0.566935018949695	0.426506344117328	0.00305237744855358	-0.00782476771725915	0.999964727378962	0.959380761420032	-0.282067685726879	-0.00513568747125032	0.282097922021824	0.959362597602624	0.0066459545676405	-37.6951965633157	-89.5187643715362	-68.6896529096868
18026	1647946288959	9.75655106101866	-0.0257848033116052	0.00697096811261114	0.00702656332751285	-0.0630846055680582	-0.0563062268621106	-0.0047972183216147	0.0137333263248018	0.0043909124135744	0.56201171875	0.4541015625	0.128662109375	0	0	0	-0.565328684045948	-0.420727894583693	-0.566974567032177	0.426534122964066	0.00305575811569653	-0.00796890541115719	0.999963578781191	0.959367093356845	-0.282113361332896	-0.00517991713203808	0.282144364690097	0.959347980611834	0.00678303542809816	-37.3674410495398	-89.5109917502413	-69.020168872382
18027	1647946288960	9.73223620559675	-0.0261841057925308	0.00616334837179235	0.00632171266873862	-0.0648846093417983	-0.0806323379274207	-0.00625390818308623	0.015262390823868	0.00280012005603899	0.564453125	0.4541015625	0.125	0	0	0	-0.565308524023668	-0.420672307176798	-0.56702105375098	0.426553873788365	0.0030438691553567	-0.008110771858588	0.999962474416127	0.959349336129576	-0.282173205461379	-0.00520897181726926	0.282204865529118	0.959329191414245	0.00692216528146278	-36.9616852354818	-89.5036332092261	-69.4295277115683
18028	1647946288961	9.72555919314429	-0.0268380274549363	0.0808815684134446	0.0265983594958383	0.00522478181109731	-0.0867926174329163	-0.00328191277050298	0.0213721933230803	0.00447531947491956	0.561279296875	0.456298828125	0.123046875	0	0	0	-0.565264340968845	-0.420604768425536	-0.567078817899316	0.426602236159954	0.0030264861352321	-0.00832842912475457	0.999960738054243	0.959339938054411	-0.282204321762056	-0.00525395399444756	0.282236999054751	0.959318173520721	0.0071357072135172	-36.3638659005874	-89.4922791943194	-70.0292504625451
18029	1647946288962	9.73228584180526	-0.0513879739650774	0.00985362915546541	-0.0171094873693912	-0.0579244036286078	-0.0804482964353941	-0.00328018248622164	0.019844828799576	0.0044723282789527	0.555908203125	0.456787109375	0.13037109375	0	0	0	-0.56522852735712	-0.420544864558301	-0.567128263896755	0.426643013589575	0.00301509836618519	-0.00851471423769423	0.999959203579472	0.959330532165247	-0.282235511697692	-0.00529584670158739	0.28226909012038	0.959307362412169	0.00731745751068308	-35.8943010096626	-89.4824525934805	-70.5007180207204
18030	1647946288963	9.67913709812085	-0.0278544258300638	0.05558949132145	0.0183622389570524	-0.0218262470625591	-0.133392587310178	-0.000361082019239308	0.0106765672609149	0.00764248207955176	0.56005859375	0.463134765625	0.119384765625	0	0	0	-0.56521509157911	-0.420499465638598	-0.567142892310261	0.426686113379406	0.00305827819921078	-0.00863870494146607	0.999958008974072	0.959329280861015	-0.282238320093659	-0.00537229498416397	0.282272878288269	0.959305427612939	0.00742419929774285	-35.8902303054755	-89.4749297736452	-70.5049957859199
18031	1647946288964	9.70344163386742	-0.0282557626381066	0.0587857814867189	0.0191244164200071	-0.0196756281828074	-0.109065318724163	-7.97760490923844E-05	0.00916173300972502	0.00154237026857212	0.5576171875	0.460693359375	0.124267578125	0	0	0	-0.565198000148477	-0.420481679807471	-0.567160266273788	0.426703187162571	0.00304877861306729	-0.00870737744948574	0.999957442357884	0.959328995554505	-0.282239094023182	-0.005382573116823	0.282273950688605	0.959304579048243	0.0074927551488998	-35.6923458894202	-89.4713990375814	-70.7029401146301
18032	1647946288965	9.70577788630655	-0.0770493764097255	0.03539145983127	-0.0345303442969654	-0.0294501892943132	-0.106645236790655	-0.00458751297842803	0.0137433232349874	-0.000182826967535968	0.56689453125	0.464111328125	0.124755859375	0	0	0	-0.565168428555497	-0.420439864612569	-0.567209138092255	0.426718597290201	0.00300822781841215	-0.00883870038347823	0.99995641302055	0.959316050724165	-0.282283117942496	-0.00538109167877787	0.28231837593112	0.959290424584857	0.00762993521734973	-35.1938042977406	-89.465044576832	-71.2041317421799
18033	1647946288966	9.67911574011914	-0.0285899134559879	0.0588396433681352	0.0184077445729316	-0.0213261380444661	-0.133391558947283	0.00435110401611518	0.010686904882735	0.00480444659698139	0.55908203125	0.45703125	0.1259765625	0	0	0	-0.5651458238592	-0.420423120179702	-0.567213150056654	0.426759698420173	0.00302728484234294	-0.00892668446944078	0.999955573938595	0.959328166963094	-0.282241119645373	-0.0054238779995931	0.282276998031564	0.959301967414697	0.00770919558573818	-35.1286678528198	-89.4599199385954	-71.2667853936198
18034	1647946288966	9.70346953586956	-0.0533478292857783	0.0620236735654396	-0.0042930945007907	-0.0126053945554039	-0.108882101278667	0.00289700796048934	0.0106887770043245	0.00321000585683323	0.559326171875	0.459716796875	0.1318359375	0	0	0	-0.565116075165574	-0.420399457474147	-0.567230413177931	0.426799456549436	0.00302790904287398	-0.00903828134625306	0.999954569586606	0.959336246984359	-0.282213040089097	-0.00545575161035844	0.282249529652031	0.959309183461711	0.00781623548980037	-34.9151356540239	-89.45384914386	-71.4786672443826
18035	1647946288967	9.70341241494343	-0.02932893478638	0.0629364618337039	0.0191684352558454	-0.0191001399438541	-0.109064255750434	0.00892852399717885	0.0061083586068183	0.00500631435363558	0.563720703125	0.4580078125	0.122802734375	0	0	0	-0.565097287035639	-0.420406137303088	-0.567211274844857	0.426843186184026	0.00306009881353952	-0.00907980030234906	0.999954095457247	0.959361270874778	-0.282127148252333	-0.00549765081990911	0.282164114906171	0.959334055189054	0.00784747180571654	-35.0136757152071	-89.4510065985926	-71.3750155818018
18036	1647946288968	9.75202981363753	-0.0297115586291784	0.0677284518893238	0.0206627081041578	-0.0152523086866023	-0.0604109194962579	-0.000210901515217679	-9.16650434109699E-06	0.00457276848529138	0.560546875	0.45751953125	0.12255859375	0	0	0	-0.56510737527898	-0.420392638038873	-0.567201933019748	0.426855539341684	0.00310399412275564	-0.00909261353207208	0.99995384373462	0.959360534607088	-0.282128756832074	-0.00554339307550394	0.282166138753195	0.959333460767185	0.00784736857603724	-35.2374416614173	-89.4495034119804	-71.151360227508
18037	1647946288969	9.7300114717053	-0.0545652764360023	0.041295676775595	-0.0103272152196404	-0.0334105065505338	-0.0824981043708082	-0.0109555287817367	0.00456172520884934	0.00561367015312458	0.5654296875	0.452880859375	0.125732421875	0	0	0	-0.565135967197726	-0.420346620493935	-0.567219602829759	0.426839524159219	0.00314128160995664	-0.0091175028690007	0.999953500664546	0.959329478593542	-0.282233478509718	-0.00558704839307306	0.282271294770278	0.959302420902678	0.0078601144376369	-35.4055976081263	-89.4474613195065	-70.9894746125969
18038	1647946288970	9.72775496868668	-0.0551471340628901	0.0664900008064328	-0.00356829969723992	-0.0100409344489592	-0.0845546971674569	-0.00936968015578835	0.013731080843658	0.00417783156535678	0.561279296875	0.462646484375	0.12158203125	0	0	0	-0.565125801453983	-0.420278937165116	-0.567269173574934	0.42685375507071	0.00314259937394495	-0.00926101135330898	0.999952177725459	0.959302896151967	-0.282322973514789	-0.00562957016274096	0.282361607701232	0.959274711589168	0.00799688701270773	-35.1444039333967	-89.4396563236197	-71.2560490902983
18039	1647946288971	9.6989303476946	-0.0559597903219445	0.113817473770189	0.00918659443408008	0.0351544892543562	-0.112995846188843	-0.00340641467548335	0.00609174454812394	0.00749269141422597	0.560546875	0.462646484375	0.13037109375	0	0	0	-0.565139465950985	-0.420246589981443	-0.567269759261465	0.42686673313933	0.00319564767281766	-0.00930131102968024	0.999951635554981	0.959293044749022	-0.282355191495849	-0.00569211133875602	0.282394479641691	0.959264839055655	0.00802037526720789	-35.3635646553112	-89.4364888873261	-71.038836774542
18040	1647946288973	9.70118213682804	-0.0564427490039301	0.0892090149403822	0.0024277837396368	0.0117850907755852	-0.110938345964961	-0.000200511322492729	-0.0122296966861637	0.00454786113408871	0.563232421875	0.458984375	0.124267578125	0	0	0	-0.565184138901366	-0.420259272107064	-0.567225911959627	0.426853368434563	0.00327381801922172	-0.0091968327243761	0.999952349056402	0.959292332008958	-0.282356692128216	-0.00573760919083544	0.282396005397371	0.959265404712508	0.00789806668472587	-35.9968084809546	-89.4406609926477	-70.4056773119018
18041	1647946288975	9.73449385329906	-0.0567330337077119	-0.00689574006002536	-0.0238996146850905	-0.0794733557889907	-0.0783795085766403	-0.00200767960077925	-0.0107160753026277	0.0105775785993451	0.559814453125	0.45068359375	0.12353515625	0	0	0	-0.565246372523607	-0.420255908063217	-0.567172119867844	0.426845752622044	0.00340151636515212	-0.00909376561376424	0.999952865445857	0.959286275871157	-0.282375350412962	-0.00583115806703727	0.282415067961438	0.959260895119841	0.00776302017372782	-36.911881110872	-89.4437000283807	-69.4917268250377
18042	1647946288976	9.76333791726957	-0.0817867664183707	-0.0529985579039356	-0.0601187367202857	-0.117488193366577	-0.0497550584264488	-0.00493937812341583	0.0183109988370709	0.00744784834580501	0.5673828125	0.460693359375	0.129150390625	0	0	0	-0.565220625051769	-0.420181767455835	-0.567218366944591	0.426891381401042	0.00342121299680381	-0.00929046196855116	0.999950990108036	0.959272066915527	-0.282422061566401	-0.00590599493703853	0.282463089513025	0.959245258761801	0.00794585462755698	-36.6226845828181	-89.4327411547266	-69.7837683042397
18043	1647946288976	9.69889695320315	-0.058824126014116	0.115213635020171	0.00925687768857089	0.0360208808832883	-0.112999091757146	0.00121731818187581	0.0320655677091312	0.00623390610117758	0.56591796875	0.455078125	0.11669921875	0	0	0	-0.565156164501299	-0.420113314712288	-0.567277642548411	0.426965325046838	0.00340175813234322	-0.00955650688752574	0.999948549285271	0.95927502528242	-0.282410828018205	-0.00596238941067267	0.282453277394725	0.959245952503414	0.00820662505527014	-35.9996677769693	-89.4187871622119	-70.4061771785215
18044	1647946288977	9.67448833864503	-0.0104737944188167	0.115153712840293	0.0554058673527332	0.0204973900649788	-0.137688412716647	-0.000148292318660041	0.00915860945699655	0.0030674040165589	0.56396484375	0.454833984375	0.133056640625	0	0	0	-0.565136954446102	-0.420084648780644	-0.567297290029459	0.426992851583559	0.0034053451681505	-0.00965305708770142	0.999947609684201	0.959274493173516	-0.282411985110768	-0.00599311375590611	0.282455041326901	0.959244645100851	0.00829822115645501	-35.8374443638562	-89.4135040270421	-70.56849575228
18045	1647946288978	9.70332018081471	-0.0105174556055631	0.06864740276093	0.042646964915399	-0.0238418478615804	-0.109241670096155	-0.00927796253788258	-0.0122315929246991	0.00259859364805	0.563232421875	0.458251953125	0.12451171875	0	0	0	-0.56520765381964	-0.420090609358828	-0.567266089289687	0.42693485678053	0.00346612774102717	-0.00949447775995654	0.999948919120647	0.95924818858942	-0.282501015988635	-0.00600738323288724	0.28254362255482	0.959220011706103	0.00812837598445432	-36.4667415322527	-89.4208798695637	-69.9444919193255
18046	1647946288979	9.71010160194808	-0.0103543477045609	-0.00480142601480303	0.0223715652098088	-0.0939494861035429	-0.103059336500923	-0.021411204899681	0.00151301150524176	0.000537975252498836	0.560302734375	0.4560546875	0.127197265625	0	0	0	-0.565250230921478	-0.420025089845594	-0.567314158015556	0.426879077091531	0.00346714003060233	-0.00951053033320615	0.999948763063783	0.959187646445352	-0.282706354883366	-0.00601463342074726	0.282749072229484	0.959159354185394	0.00814220068683336	-36.4532355907263	-89.4199959035701	-69.9702679218834
18047	1647946288979	9.75416141624775	0.0136019945785214	0.0494853038037703	0.060703675473365	-0.049536475657614	-0.0587056308346394	-0.0201122504206789	0.01983368702348	0.00522206043287153	0.565673828125	0.45458984375	0.13525390625	0	0	0	-0.565257635341721	-0.419931527125006	-0.567391874887135	0.426858030879597	0.00344794567704304	-0.00965255284657307	0.9999474685673	0.959130560959048	-0.282899468000105	-0.00603804932389879	0.28294288947593	0.959100995322599	0.00828263642869181	-36.0920822429963	-89.4127146677986	-70.3429891047485
18048	1647946288981	9.72994419838996	-0.0601994092037354	0.0486628600622322	-0.0103863334558064	-0.0310741945595175	-0.0824904256006906	-0.010964705893291	0.016783168918829	0.00564001570293935	0.5654296875	0.465087890625	0.124755859375	0	0	0	-0.565245283399615	-0.419848635795033	-0.567450275643717	0.426878293296121	0.0034546153858388	-0.00982948814459556	0.999945721924621	0.959099332644216	-0.283004091467281	-0.00609543552155883	0.283048645561067	0.959068331963679	0.00844978523107759	-35.8056118996219	-89.4030309514518	-70.6357581564468
18049	1647946288982	9.77848564314285	-0.0117533527885409	0.0549913841703542	0.0378017135189564	-0.040098606115703	-0.0341953203762255	-0.00167636853110403	0.0152672085330992	0.00301375308535983	0.56201171875	0.45703125	0.130615234375	0	0	0	-0.565221410458784	-0.41982783512177	-0.567481084707661	0.426889405484567	0.00341961471196889	-0.00991196351441231	0.9999450280963	0.959094687983951	-0.283020048684002	-0.00608535322505566	0.28306480833228	0.95906277428654	0.00853869203190161	-35.4767040992315	-89.3992275506434	-70.9656312512694
18050	1647946288982	9.75647209402486	-0.0366756345964851	0.0301588265560804	0.00684839077927405	-0.0586032528281863	-0.056278153052892	0.00413121691054237	0.0228927247366878	0.00941316590344053	0.5654296875	0.460205078125	0.120849609375	0	0	0	-0.565167388219896	-0.419764028869064	-0.567517058865557	0.426975843879839	0.00344509592839842	-0.0101582705214706	0.999942468772107	0.959106029979831	-0.282979577621422	-0.00617915087445287	0.283026066945028	0.959072139199765	0.00876796672062541	-35.1739455584284	-89.3854014461342	-71.2660453486689
18051	1647946288983	9.75420824081406	-0.0620437535681922	0.0568832939022261	-0.0101093294436067	-0.0275797950214096	-0.0581602086758099	0.00115031892979749	0.0290055742006722	0.00776086846686044	0.559814453125	0.4541015625	0.12353515625	0	0	0	-0.565109337919512	-0.419714975526661	-0.567568852633897	0.427032051530873	0.00340987367699108	-0.0103704791810018	0.999940411186119	0.959109886920105	-0.282965932567977	-0.00620530563618232	0.283013422956598	0.959073894007908	0.0089815510296492	-34.6403878013626	-89.3745074270465	-71.7988352493721
18052	1647946288984	9.72301906803332	-0.0631611239118335	0.130045753885613	0.00942143597881606	0.0405915491947503	-0.0886828304665563	-0.00189463055430418	0.0228944867870125	0.0076035078007828	0.5634765625	0.459716796875	0.1201171875	0	0	0	-0.565064354346129	-0.419639220057176	-0.567621302585467	0.427096309148622	0.00341796368196462	-0.0106115967769297	0.999937853837984	0.959104256536615	-0.282983335402859	-0.00628147893575326	0.283032405596278	0.959066121754969	0.00921040087439529	-34.2939264420478	-89.361226286636	-72.1464050578884
18053	1647946288984	9.7275750942397	-0.0637347851929704	0.0830633002185553	-0.00433993482303954	-0.00533548547794818	-0.0845512920598939	-0.00500819442242706	0.010669492621986	0.00895547839708113	0.56103515625	0.46142578125	0.12939453125	0	0	0	-0.565073569078814	-0.419606973027661	-0.567631612753021	0.427102097768787	0.00344868077993626	-0.0106556854151941	0.999937279517677	0.959090924851587	-0.283027572536131	-0.00632384785030515	0.283077205843577	0.959052579138724	0.00924369943018866	-34.3770151913973	-89.3582814479341	-72.0659807306868
18054	1647946288985	9.7275655088549	-0.0642300365054566	0.0838002757336326	-0.00434016396638273	-0.00533310305892848	-0.0845512908557531	-0.00921914164428669	0.00457661341659927	0.00110472396573534	0.567138671875	0.45166015625	0.1259765625	0	0	0	-0.565082588414531	-0.419568043145529	-0.567661438408176	0.427088769210953	0.00344629703078625	-0.0107024584431436	0.99993678821216	0.959064841789924	-0.283115680769811	-0.00633565661281488	0.283165591623072	0.959026052141192	0.0092886508835307	-34.2973419608726	-89.3557729518942	-72.1509301411066
18055	1647946288986	9.77848889973135	-0.0888338854308709	0.06440179145325	-0.0332301878501247	-0.0173258062217962	-0.033654703110491	-0.0109586440004772	0.00456493938215982	0.00560550910690731	0.561279296875	0.458740234375	0.124267578125	0	0	0	-0.565115518180471	-0.41953508891768	-0.567675597256118	0.427058750710439	0.00346945089348677	-0.0106900844087902	0.999936840508355	0.95903324108321	-0.283222265216947	-0.00635539005998292	0.283272316698845	0.958994718744955	0.00926952055690283	-34.4354045860626	-89.3560394998783	-72.0192390008873
18056	1647946288987	9.74955540260313	-0.0652302795364431	0.111871434610692	0.00299147821322199	0.0206767498738263	-0.0622943424980935	-0.0140125759917158	0.0167848866542645	0.00549234348997412	0.565673828125	0.4541015625	0.134765625	0	0	0	-0.565109333493116	-0.419444032862164	-0.567740611026731	0.427069951045826	0.00347460377463665	-0.0108664342190227	0.999934921750397	0.958993385612631	-0.283355920420079	-0.00641160776352701	0.283407151426764	0.958953253798251	0.0094362889905803	-34.1946515281813	-89.3463309579054	-72.2680288625231
18057	1647946288988	9.70092422946215	-0.0657367545184914	0.108750568387005	0.00138703925418931	0.0173875562254129	-0.110946564511853	-0.00631840910635871	0.0137351881086071	0.00432001091024909	0.564208984375	0.458251953125	0.130615234375	0	0	0	-0.565103505775499	-0.41940275805763	-0.567775256906382	0.42707213903366	0.0034651683570906	-0.0109500490942283	0.999934042341339	0.958973924735349	-0.283421429189733	-0.00642690856709333	0.283473110340184	0.958932943380758	0.00951870858778719	-34.0267111011279	-89.3419291816451	-72.4399041760712
18058	1647946288988	9.73214445333594	-0.0901764215322256	0.0391171919012301	-0.0415936250430477	-0.0439797612582331	-0.0802347791981965	-0.00936492045793475	0.00915202355432197	0.00416404961082118	0.568359375	0.4599609375	0.12548828125	0	0	0	-0.565106263323283	-0.419344846642551	-0.567811859452129	0.427076694532314	0.00347918371970185	-0.0110496254420309	0.999932898277797	0.958947222762219	-0.283510793163375	-0.00646947575168078	0.283563254384753	0.95890538424678	0.00960962149426448	-33.9495827924622	-89.3362463961102	-72.5224048942586
18059	1647946288989	9.71013857479328	-0.0904625225549515	0.0130187214987273	-0.0491739844700195	-0.0685888760252697	-0.102485429574525	-0.00783780536500265	0.00151435907465102	0.00421599549825245	0.564453125	0.464599609375	0.1240234375	0	0	0	-0.565139357334851	-0.419331345165154	-0.567809389852845	0.427049442744133	0.00350743951384547	-0.0110040732090996	0.999933301896115	0.958926660877074	-0.283579992827817	-0.0064843447564536	0.283632432784409	0.958885445734048	0.00955745950626846	-34.1552849757268	-89.3382456754737	-72.3208333749811
18060	1647946288990	9.78072543624592	-0.0665818715572951	0.0448107034099461	-0.0167340076532802	-0.04619387037397	-0.0317560543709678	-0.00631584891841113	0.00762487104017014	0.00430448518533672	0.569091796875	0.457275390625	0.12939453125	0	0	0	-0.565140233527057	-0.419284953955075	-0.567834979774257	0.427059807966804	0.00352712626332086	-0.0110894012533517	0.99993228998776	0.958908588423561	-0.283640095612495	-0.00652803251129985	0.283693282310062	0.95886668590622	0.0096332876717482	-34.1236733344759	-89.3332446226612	-72.356067148366
18061	1647946288991	9.78302690932722	-0.0668046709046847	0.0215480444322061	-0.0235100198798398	-0.0686558121233166	-0.0296777946764841	-0.0031974126054154	0.0137396718668249	0.0029412389126698	0.567138671875	0.455322265625	0.129150390625	0	0	0	-0.565130467747151	-0.41926907664746	-0.567852222512456	0.427065392157614	0.00351458950970063	-0.0111366053943203	0.999931809515464	0.9589035229851	-0.283657184376899	-0.00652957564729517	0.283710558963431	0.958861083667317	0.00968199158214633	-33.9958912783279	-89.3308831195747	-72.4848799866363
18062	1647946288991	9.7517649171255	-0.0430942244440734	0.0936988318833724	0.019469572356435	-0.00729113966739456	-0.060399262970396	0.00137459823313945	0.0152676270573502	0.00316225295414359	0.56005859375	0.45849609375	0.129638671875	0	0	0	-0.565090808279721	-0.419231534568502	-0.567885677377991	0.427110238989949	0.00350155570455973	-0.0112918013164395	0.999930114723363	0.95890734821909	-0.283643528346576	-0.00656097237745379	0.28369779103666	0.958863308324046	0.0098345976422205	-33.7085118741269	-89.3226190109782	-72.7714843053059
18063	1647946288991	9.79802954597195	-0.0193425001240272	0.12395671725653	0.0512267474062923	0.0139283028760088	-0.0139984653439207	0.00268347726096025	0.00914483810808169	0.00779049876412319	0.568603515625	0.454345703125	0.123046875	0	0	0	-0.565095144138898	-0.419216461660693	-0.567872598093536	0.427136686176479	0.00355654121437182	-0.0113240657851036	0.999929555793149	0.958912813095297	-0.28362361918973	-0.006622651990143	0.28367863489564	0.958868816977491	0.00985007268665239	-33.9147356509559	-89.3199155865423	-72.564098144469
18064	1647946288992	9.77601927270038	0.00460441865200525	0.0982153103494565	0.0671709061968455	-0.018182585771076	-0.0364213218674472	-0.00326740259511119	0.00609788329180963	0.00444405150100731	0.563720703125	0.459228515625	0.134033203125	0	0	0	-0.565094104259345	-0.419181619536829	-0.56788720881495	0.427152831242137	0.00358177581369251	-0.0113951345147096	0.99992865835089	0.958903381771294	-0.283654457208614	-0.00666733329463781	0.283710195991606	0.958858852915838	0.00991084634761791	-33.9299433297718	-89.3155971895395	-72.5507623214414
18065	1647946288992	9.82693533776658	0.00406952100671614	0.0796702193699526	0.0618485079462763	-0.0368639266858747	0.014307985449781	-0.00196348068965778	0.016778588113559	0.00911812611908659	0.5556640625	0.45849609375	0.126220703125	0	0	0	-0.565085547629475	-0.419138540277033	-0.56790371017119	0.427184484606513	0.00361652005647123	-0.0115010443410805	0.999927320739736	0.958897570601344	-0.283672600331812	-0.00673089264724569	0.283729395511854	0.9588522210435	0.0100024158294691	-33.9376629178531	-89.3092108465249	-72.544169737317
18066	1647946288993	9.74703049793467	0.00286615202107293	0.147926035033956	0.0798938655638334	0.0273955159840258	-0.0648999448220024	-0.00951446063047408	0.0305318067954332	0.00726832929226014	0.56494140625	0.4580078125	0.13330078125	0	0	0	-0.565034439682805	-0.419025700843451	-0.567994371174399	0.427242247816379	0.00359971269370701	-0.0118144795976541	0.999923727161407	0.95887028795275	-0.283763047426924	-0.00680468929452371	0.283821797876647	0.958821647120476	0.0103070880099868	-33.4325982011837	-89.2923388637045	-73.0547279161852
18067	1647946288993	9.72735549412696	-0.0220454383549003	0.0999013442671745	0.0416616410498592	-0.0139310887161223	-0.0848931331648046	-0.0202566208117331	0.0320564945925229	0.00828657407668241	0.56494140625	0.45556640625	0.135498046875	0	0	0	-0.565002855473607	-0.418901487411431	-0.568114986468014	0.427245455565777	0.0035338119898764	-0.0120880193153443	0.999920692836113	0.958810165513744	-0.283965729085764	-0.00682137906121943	0.284025665530998	0.958758230469925	0.0105866343023213	-32.795253581922	-89.278399691584	-73.7042453298626
18068	1647946288993	9.72966973541754	-0.0470619374616179	0.0783473631604768	0.0114505460212778	-0.0305026492374585	-0.0826429559476214	-0.0232311869825055	0.0274787985278078	0.00660301051062791	0.559326171875	0.459716796875	0.121337890625	0	0	0	-0.56498813254802	-0.418758118366282	-0.568227349561802	0.427256044535594	0.00351863502460043	-0.0123704049712633	0.999917292723959	0.958743874111616	-0.284187821420259	-0.00688955803051772	0.284249543642576	0.958688820857557	0.0108600967644644	-32.3907131570346	-89.2630933387019	-74.1221404179573
18069	1647946288994	9.75863475144213	-0.0230097509514638	0.035277337634421	0.0216447378077407	-0.0813855166979023	-0.0543251506211604	-0.0293284554355668	0.0351185619102286	0.00633258413586088	0.562255859375	0.459716796875	0.13037109375	0	0	0	-0.564965668705608	-0.418612748073129	-0.568373343211301	0.427234014401356	0.00343021975494434	-0.0126531879101123	0.999914061521361	0.958660512485422	-0.28446892817833	-0.00688844701369778	0.284531642165896	0.958601755546475	0.0111543206693774	-31.6977621144324	-89.2488363370119	-74.83194908945
18070	1647946288994	9.71001894925524	-0.0234833661559249	0.0344306540780635	0.0201551586691475	-0.0852880543360856	-0.102974539068896	-0.021561363903794	0.0442927925136503	0.00368119604652536	0.5634765625	0.4619140625	0.129150390625	0	0	0	-0.564893363605537	-0.418446517334514	-0.568535940442647	0.427276121858025	0.00333879311122343	-0.0130883422062452	0.999908769717944	0.958598984870711	-0.284675255641165	-0.00692712281396218	0.284739949191192	0.958534659844875	0.0115959997700767	-30.8529024351738	-89.2260543906238	-75.6892452003284
18071	1647946288994	9.71000134242584	-0.0240674157852949	0.0387254984777284	0.0194865798384583	-0.0843753054285981	-0.102965199782064	-0.0233073070732123	0.0442789496779781	0.00817949824866279	0.564453125	0.454833984375	0.13427734375	0	0	0	-0.564832550716259	-0.418307081914016	-0.568690026378111	0.427287992775375	0.00322167823728892	-0.0134419276446195	0.999904463121619	0.958535751885294	-0.284888312901144	-0.00691820280382693	0.284954089542562	0.958466464595156	0.0119667497438914	-30.0330134780836	-89.2079973926888	-76.5219385556502
18072	1647946288995	9.70760298163512	-0.0250247135149251	0.0671676222151895	0.0262337916246996	-0.0610079811438444	-0.105046978768168	-0.0294036314838177	0.0412261526744433	0.00787212094321136	0.569580078125	0.457275390625	0.123046875	0	0	0	-0.564794254279339	-0.418113404151084	-0.568851473109551	0.427313272837775	0.00317836562057178	-0.0138594728626492	0.999898901391511	0.958451666069479	-0.285169096251722	-0.00699931079576371	0.285237272810938	0.958377014308537	0.0123772632044748	-29.4880486735566	-89.1852696810648	-77.0838074705179
18073	1647946288995	9.68805154672994	-0.0499208297588511	0.0197085877722156	-0.0116997571946719	-0.101726421000135	-0.125028350653398	-0.032526554628188	0.0351117708685634	0.00922551676065071	0.554443359375	0.459228515625	0.125732421875	0	0	0	-0.564800355402716	-0.417962058030883	-0.568977889178882	0.427284961365479	0.00314375934426614	-0.0141011529498342	0.999895631684963	0.958361628632607	-0.28547055967498	-0.00703905700437052	0.285540024413115	0.958283735145463	0.0126165531671096	-29.1581244864361	-89.1721993871646	-77.4318209579998
18074	1647946288995	9.70994464931628	-0.0265381374083946	0.0497473178807148	0.0192405259267979	-0.0831989214076352	-0.102954557845978	-0.0324520661406374	0.0305347702888863	0.00768463270291644	0.5673828125	0.454345703125	0.127197265625	0	0	0	-0.564798698691918	-0.417783005069294	-0.56911562675049	0.427278824679603	0.00312952812733508	-0.0144155170120179	0.999891193542066	0.958268707406963	-0.285780333311374	-0.00711937476387614	0.285851868033583	0.958186721866733	0.0129195812623724	-28.8570962024519	-89.1547816747647	-77.7514705569651
18075	1647946288996	9.68322329426415	-0.0518813376591077	0.074181685284523	0.001321474111576	-0.0536430680782067	-0.129189643207589	-0.0309285587384323	0.0259513326209084	0.00774212235929301	0.56005859375	0.45654296875	0.1328125	0	0	0	-0.564819637504601	-0.417672155541071	-0.569219270906766	0.427221452180502	0.00307878422809055	-0.0145464960748841	0.999889454159619	0.958184238028776	-0.286063602564918	-0.00711205179926866	0.286135434857152	0.958100211219852	0.0130574951496938	-28.5758920665899	-89.1480524979099	-78.0496368742409
18076	1647946288996	9.70749593847008	-0.0527581633744068	0.0788653198925991	0.00205161560548408	-0.0516758760980923	-0.104865488387677	-0.0294805159870849	0.0213616584272398	0.00932310892406399	0.55908203125	0.454833984375	0.12939453125	0	0	0	-0.564841082336323	-0.417516861796657	-0.569321170671876	0.42720911325182	0.00310614948055116	-0.0147770327346639	0.999885989070235	0.958099737178218	-0.28634408734013	-0.00720813875955667	0.286417955886906	0.958012892892839	0.0132684436412049	-28.5132105955074	-89.1348030093207	-78.1291823014689
18077	1647946288997	9.68318163301211	-0.0538081574838075	0.0781396635228293	0.000828056194286921	-0.0525899398171374	-0.129183811762747	-0.026584861054909	0.0137089199106424	0.0124903628087643	0.5693359375	0.45263671875	0.137939453125	0	0	0	-0.564897055752079	-0.417413450378629	-0.569383951846026	0.427152482406274	0.00313585364642005	-0.014836278646241	0.999885019018607	0.958018795247058	-0.286613536434331	-0.00725731947645436	0.286688252942609	0.95793139919753	0.0133146556912805	-28.5931447744022	-89.1311300102677	-78.0653966582514
18078	1647946288997	9.68073374923769	-0.0797405043114569	0.103460765381005	-0.0158725200703988	-0.0224185932274946	-0.131111364305376	-0.023612784682041	0.0121728984258279	0.0141589285117568	0.567626953125	0.46142578125	0.126220703125	0	0	0	-0.564942075944298	-0.41728087449075	-0.569437424980603	0.427151192955659	0.00323538163138959	-0.0149927038148136	0.999882368650443	0.957950797761439	-0.286837060281585	-0.00740067005357198	0.286914275305226	0.95786205670824	0.0134342452239649	-28.8495324316651	-89.1211729267995	-77.8224757258466
18079	1647946288997	9.65641789055978	-0.0810311102319331	0.102055655673504	-0.016738414809007	-0.0230661913686342	-0.155432293485195	-0.0189660907777162	0.00912075748555496	0.0128484482119044	0.5625	0.45458984375	0.131103515625	0	0	0	-0.565005507559952	-0.417217079519372	-0.56944715858322	0.427116633445414	0.00331968427764529	-0.0149808110451967	0.999882270568253	0.957900602151291	-0.287002579983164	-0.00748033964485595	0.287080852887286	0.95781266142364	0.0133973699684948	-29.1765401118903	-89.1208066085741	-77.5054011035324
18080	1647946288998	9.68311289616768	-0.0820448572404234	0.0811239616901197	-0.0227670758202428	-0.0444601668903061	-0.129015920807772	-0.0173657759067736	0.0106541405728659	0.0114070346686155	0.559814453125	0.457763671875	0.129638671875	0	0	0	-0.565035907488254	-0.417113149872298	-0.569489034920549	0.427122093268186	0.00339771861774285	-0.0151148830503328	0.99987999070817	0.957850511703844	-0.287166675291625	-0.00759590880925343	0.287247023895599	0.957761369503035	0.0135020869050713	-29.3609283801959	-89.1123343585698	-77.3309103894827
18081	1647946288998	9.63208718592843	-0.0833695697945245	0.101218689145709	-0.0178413573778418	-0.0238629731300947	-0.179753677386451	-0.0159209759366107	0.00300726030582705	0.0129718627867307	0.5576171875	0.453125	0.138427734375	0	0	0	-0.565103520232152	-0.417067133744543	-0.569488540211563	0.427078236320988	0.00347561703563015	-0.0150601118127869	0.999880549424985	0.957804533621486	-0.287318372022133	-0.00765692318625727	0.287399365796709	0.957716735851859	0.0134260347426842	-29.6962910660659	-89.1144031242419	-77.0046368856347
18082	1647946288998	9.65634336117606	-0.109098708271224	0.103394928634437	-0.0405632889312181	-0.0150882481568131	-0.155271197644108	-0.0144000884786344	-0.00310511621101671	0.0130192365694195	0.56201171875	0.449462890625	0.1298828125	0	0	0	-0.565170038962981	-0.41699666352323	-0.569481899798153	0.427067881573133	0.00360829682556096	-0.0150668159403663	0.99987997842313	0.957762898223794	-0.287453614278262	-0.00778783823164952	0.287536451567409	0.957676046842451	0.0133932193381534	-30.1769818845063	-89.1122889248084	-76.5320968438688
18083	1647946288999	9.65636340461366	-0.0858809778560925	0.103237869064249	-0.0170826566779439	-0.0212448461974768	-0.155428717776976	-0.0158491832764505	-0.00462407756066854	0.0114122462360056	0.56787109375	0.46044921875	0.138671875	0	0	0	-0.565268701954845	-0.41692966981781	-0.56947595823725	0.4270106298509	0.00373356683075565	-0.0149899886949158	0.999880673239385	0.957699161752417	-0.287663144839899	-0.00788864243940335	0.287747069589662	0.957614335387553	0.013281890031794	-30.7077599854978	-89.114862227336	-76.0138809174579
18084	1647946288999	9.65874830776388	-0.111179275166355	0.0781008985383961	-0.047299060704791	-0.0378084221870072	-0.153173263088869	-0.0158511241756337	-0.00767946357476145	0.0113975642033585	0.56591796875	0.456787109375	0.134033203125	0	0	0	-0.565347958031071	-0.416869061947022	-0.56946307579292	0.426982056824377	0.00386398099975321	-0.0149488848990404	0.999880793140417	0.957653176651348	-0.287813016682869	-0.00800379144461477	0.287898355154065	0.957569944321657	0.0132037430830171	-31.2232356957173	-89.1153070467314	-75.5074133817975
18085	1647946288999	9.68303710284585	-0.11242046806946	0.0794628080147172	-0.046764427328447	-0.0349628193848782	-0.128847697803003	-0.0174550784883477	-0.0137958287768937	0.0128159995543345	0.5654296875	0.45068359375	0.126708984375	0	0	0	-0.565464698448302	-0.416842247725549	-0.569420615766326	0.426910268862417	0.00400540570282065	-0.0147638645239295	0.999882985668561	0.957602168166491	-0.287980325701862	-0.00808823413893722	0.288066041469647	0.957522511648144	0.0129844306397648	-31.9195169559574	-89.1234808820317	-74.8211352053167
18086	1647946289000	9.70974629977203	-0.113287542384525	0.0560101292868247	-0.0528003841213149	-0.0563581975661538	-0.102425781787737	-0.0111356352715797	-0.0183641466133452	0.00852362316824503	0.56884765625	0.44970703125	0.130126953125	0	0	0	-0.56555821193437	-0.416825729063249	-0.56937412578009	0.426864528154599	0.00413883296609951	-0.0146128070546087	0.999884661314326	0.957569663123613	-0.288085972388485	-0.00817390838657517	0.288172188677204	0.957493048738719	0.0128004410089796	-32.5608602373214	-89.1297795124317	-74.1861139317051
18087	1647946289000	9.71211540022151	-0.138369847908792	0.0296744180109412	-0.0821371174488986	-0.0715443802881847	-0.100151808379579	-0.00968708696162793	-0.0183735086816857	0.010123072160784	0.56787109375	0.45361328125	0.129150390625	0	0	0	-0.565707152439855	-0.416832001115722	-0.569263519883022	0.426808558319355	0.00438025555251026	-0.014323395656185	0.999887820556972	0.957542773244111	-0.288171074782434	-0.00832280401756458	0.28825795872668	0.957471812637643	0.0124530010485074	-33.7562808620253	-89.1417805952066	-72.9957783764511
18088	1647946289000	9.71214995705514	-0.114872842747186	0.0282009113394241	-0.0586829251708327	-0.0783407983774263	-0.100310382067253	-0.00808643548094792	-0.0168401357696385	0.00868214129735334	0.563232421875	0.461181640625	0.1298828125	0	0	0	-0.56579063637652	-0.41682031339035	-0.569213959917783	0.426775409282845	0.00451258835977369	-0.0141869806912697	0.999889176921703	0.957519102162415	-0.288247152753261	-0.00841117849779621	0.288334537543422	0.957450943134166	0.0122835642676478	-34.4014179043106	-89.1469848475803	-72.3551970637393
18089	1647946289001	9.73883958016299	-0.11570630355112	0.00488794323310282	-0.0645989988170053	-0.0982618389677656	-0.0738691813052572	-0.00213657835755713	-0.0122807011910612	0.0120543399646882	0.562255859375	0.451416015625	0.127197265625	0	0	0	-0.56588111297996	-0.416860167569743	-0.569113657691605	0.426750291499808	0.00467449064521802	-0.0139522474700711	0.999891736103336	0.957525429795586	-0.28822357879711	-0.00849823041376402	0.288310944003149	0.957461489259971	0.0120123333325758	-35.2778319557593	-89.1568916788064	-71.477349695278
18090	1647946289001	9.73407556545462	-0.0928806088183991	0.0527522670761259	-0.0276270276413985	-0.0583210627558027	-0.078239663642119	-0.00358115023928404	-0.00768764099041217	0.0104787368694263	0.566162109375	0.459716796875	0.1337890625	0	0	0	-0.565932678157908	-0.4168370217439	-0.569076537086286	0.426754022868648	0.00479758448311268	-0.0139080189016809	0.999891769239731	0.957514787185247	-0.288255802538202	-0.00860375642667061	0.288344265600548	0.957452431880189	0.011934202193387	-35.7890659062114	-89.1570207163401	-70.9680765640776
18091	1647946289001	9.70732832273495	-0.118401357481932	0.0734222297743276	-0.0448166753864238	-0.028831184459055	-0.104505610463512	-0.0080828740976374	-0.012256122523024	0.00870605133611963	0.5634765625	0.4619140625	0.132080078125	0	0	0	-0.566035453044131	-0.416853111764068	-0.569001817407091	0.426701629827173	0.00494083000008105	-0.0136807257839987	0.999894207374427	0.95749528566492	-0.288318404630894	-0.00867614433667391	0.2884065986214	0.957436857078899	0.0116746982194775	-36.6181779433986	-89.1665699468353	-70.1426815823546
18092	1647946289002	9.73401947811607	-0.119076469262864	0.0499488078886634	-0.050831882101723	-0.0502025332410949	-0.0780736181663624	-0.00961497086242985	-0.0198921500697885	0.00859151112394178	0.553466796875	0.451171875	0.12939453125	0	0	0	-0.566130671752808	-0.416844334271387	-0.568946648745014	0.426657443821594	0.00508102373532326	-0.0135139196939952	0.999895773154535	0.957467371603645	-0.288408453234936	-0.00876335649400495	0.288496820627559	0.957412104622214	0.0114737269731178	-37.371720163474	-89.1727606223732	-69.3945197156769
18093	1647946289002	9.75837038545306	-0.0955842223319692	0.050645513201478	-0.0269813281504357	-0.053949394735836	-0.0539038831133816	-0.00961498541438342	-0.0198920121696339	0.00859151492290301	0.568359375	0.464599609375	0.1328125	0	0	0	-0.566240223640497	-0.41687211754575	-0.568880664043653	0.426572897429892	0.00518485538034807	-0.0132386241686984	0.999898922944116	0.957437668443071	-0.288506401582378	-0.00878449157793371	0.288593534787216	0.957386439780775	0.0111792934889635	-38.1596379562853	-89.1853565308873	-68.6123993802621
18094	1647946289003	9.73634443270984	-0.144943334595664	0.0215792810088269	-0.0813819120907342	-0.0656911627187305	-0.0758019013738291	0.00105524130677967	-0.0183818487539581	0.00912202612468247	0.5673828125	0.45849609375	0.129638671875	0	0	0	-0.566309109185834	-0.41688939557934	-0.568806659478412	0.426563253034821	0.00532443197300397	-0.0130875135508483	0.999900178724467	0.957440562509076	-0.288494046027687	-0.00887438273220459	0.288581391788292	0.95739224061804	0.0109944494132782	-38.9094058716414	-89.1904329933404	-67.8618875728045
18095	1647946289003	9.76068938417598	-0.121652429279642	0.0226500575013357	-0.0572213238114059	-0.0689654631563834	-0.0516249807445241	0.000911631408792571	-0.0138144061084634	0.0121942844264406	0.56005859375	0.45654296875	0.132568359375	0	0	0	-0.566387284190677	-0.416956287369064	-0.568690019846574	0.426549598590152	0.00547823150062093	-0.0128315209171794	0.999902665788315	0.957466477833946	-0.288405788731974	-0.00894677875806599	0.288492517760658	0.957422296114332	0.0107057974610315	-39.8853272089186	-89.2005820219042	-66.880644705551
18096	1647946289004	9.75361117549277	-0.0991193937239244	0.0943794962622857	-0.0135171687034336	-0.00564748474864707	-0.0581269813041913	0.0086045430885028	-0.0153475629159847	0.0110341362772195	0.56005859375	0.443603515625	0.13427734375	0	0	0	-0.566435224410671	-0.416983540597223	-0.568604805895262	0.426572898964115	0.00562660316763319	-0.0127144700438515	0.999903337122294	0.957491131618828	-0.288320577480711	-0.00905414117889319	0.288407826190781	0.957449521830104	0.0105517268356742	-40.6319689936455	-89.2033437113249	-66.1289134990902
18097	1647946289004	9.75822978296384	-0.148586593922838	0.0436368302009437	-0.0733467982153044	-0.0382742161209849	-0.0535795343454861	0.00547807511791426	-0.0184050201622946	0.012393675590734	0.561767578125	0.458984375	0.12744140625	0	0	0	-0.566551848189098	-0.416974770664341	-0.568509873489882	0.426553124109361	0.00585712874787708	-0.0125236713120391	0.999904421282204	0.957474979184469	-0.288368945883929	-0.00922037339227039	0.288456856875569	0.957437469867699	0.0103020878858761	-41.8285574035719	-89.2078239841226	-64.9352299743401
18098	1647946289005	9.75578396873133	-0.1743072334544	0.0661191401920074	-0.0900501055889143	-0.00810171581085636	-0.0555412259037009	0.00715673608552056	-0.0138093743874298	0.00944352411226848	0.55908203125	0.45458984375	0.1337890625	0	0	0	-0.566595174994851	-0.416998676902064	-0.568435700471848	0.426571055702989	0.00598591578201535	-0.0124175570751961	0.999904982030061	0.957495310322981	-0.288298475796731	-0.0093123339062291	0.288386718698608	0.957460073908864	0.0101640222689656	-42.496088128761	-89.2101512360409	-64.2634873410487
18099	1647946289006	9.75821206916825	-0.150497983385182	0.0409627193163362	-0.0734913276721622	-0.0372112276399002	-0.0535765106206476	0.00876136313910704	-0.00922161047873697	0.00801715436317995	0.560302734375	0.448486328125	0.133056640625	0	0	0	-0.56663774857153	-0.417055137839653	-0.5683552252886	0.426566538517123	0.00607469977738467	-0.0122442735276543	0.999906583530879	0.957521010870256	-0.288212000438136	-0.00934647235333763	0.28829951745471	0.957488339651835	0.00997334779067033	-43.1415603436899	-89.2168359650917	-63.6128049519446
18100	1647946289007	9.73153831594902	-0.151433005868836	0.0623862642824353	-0.0674970229799736	-0.0158271257465967	-0.0800178619327525	0.0133447764555568	-0.00159219432260551	0.00827813321369715	0.56787109375	0.45458984375	0.131591796875	0	0	0	-0.566630381901537	-0.417074262756078	-0.568305498592699	0.426623874064609	0.00615583923155544	-0.0122514893501162	0.999905998907927	0.95755928449723	-0.288082258849156	-0.0094249036875354	0.288170647909371	0.957527291070637	0.00995813930518391	-43.4241666098367	-89.2143891336303	-63.3224664133105
18101	1647946289008	9.75589798114369	-0.127919623496113	0.0651588285870496	-0.0423295195325367	-0.0199322500226473	-0.055845384767581	0.0148780152808566	0.00451546427783515	0.00838295742774709	0.559814453125	0.4560546875	0.1357421875	0	0	0	-0.566659771683944	-0.417064578097658	-0.568238793020119	0.426683155231561	0.00632362360652022	-0.0122484050570373	0.999904989665539	0.957583279466156	-0.287997245475724	-0.009583813710485	0.288087269193425	0.957552903589119	0.0099076817026445	-44.048068850253	-89.2101829726152	-62.6935349632304
18102	1647946289008	9.75596187237531	-0.104224698184851	0.0657823818603224	-0.0189026630634937	-0.026723121451256	-0.056001926337224	0.0073291689258813	0.00301057825852932	0.00648138446075085	0.572998046875	0.45068359375	0.133056640625	0	0	0	-0.566648553593181	-0.417061459704405	-0.5682185296851	0.426728084454831	0.00637488270346831	-0.0122950636466033	0.999904091541005	0.95760415525045	-0.287925761533484	-0.00964560482472121	0.28801674034262	0.957573802510955	0.00993831107997334	-44.1437062691452	-89.2064586575159	-62.5936566846036
18103	1647946289009	9.75587771945714	-0.12903324836537	0.0659911008698903	-0.0414330711443546	-0.0194077099080939	-0.0558404792765117	0.00298376110938278	0.00609711304531627	0.00170227280894092	0.569091796875	0.453125	0.130615234375	0	0	0	-0.566678919353313	-0.417029514347022	-0.568201245834676	0.426741995538252	0.00646745679081684	-0.012306997972406	0.999903350231194	0.957594336086837	-0.287955306815034	-0.00973800654496987	0.288047321628008	0.957564764952202	0.00992277304809558	-44.4615661531068	-89.2033977331507	-62.277601984345
18104	1647946289009	9.72927870731132	-0.104994155845722	0.088983495064976	-0.0119838891679796	-0.00484243884933608	-0.0824438481000982	0.00444101203196366	0.0106697263451867	0.00332296971539911	0.5625	0.45751953125	0.1298828125	0	0	0	-0.566645608900978	-0.417010208738373	-0.568215681665228	0.426785869999159	0.00646684983539753	-0.0124188407963609	0.999901971318429	0.957606855390277	-0.287912613954079	-0.00976919831274664	0.28800571237868	0.957576158391281	0.0100304794424379	-44.2439555181341	-89.1977351606413	-62.4927024509097
18105	1647946289010	9.72223167071758	-0.0819007376113137	0.16286200304182	0.0323953052067556	0.0595248660312512	-0.0889829409014968	0.0132791787901169	0.0045113291275753	0.00983403175107109	0.565673828125	0.45556640625	0.124267578125	0	0	0	-0.566662074230697	-0.417035377636455	-0.568131924377116	0.426850915346024	0.00661522060634906	-0.0123789996772281	0.99990149476002	0.957651528153452	-0.287759579735762	-0.00989822689462633	0.287853764056837	0.957622673414372	0.00995117485636615	-44.8471647869173	-89.1957874205707	-61.8803734606975
18106	1647946289011	9.70258781614518	-0.10677153057099	0.111371275512647	-0.00533358444603825	0.0176019313137883	-0.108890394342117	0.0177521349428505	-0.0107819835198433	0.0115066739602673	0.564208984375	0.447998046875	0.135498046875	0	0	0	-0.56667839801325	-0.417076579247248	-0.568040220792059	0.426911030345973	0.00675486921184609	-0.0123086963192308	0.999901429010306	0.957701847425937	-0.287588198424709	-0.0100099732156767	0.287683060291842	0.95767506186689	0.00984544053710273	-45.4747728970073	-89.1955190653324	-61.2425326530717
18107	1647946289012	9.70969284358085	-0.107113872400535	0.0369281281713127	-0.0246461386238839	-0.0516894968427849	-0.102502372939526	0.0101875741907103	-0.0214520428284148	0.00956139865526007	0.568115234375	0.4560546875	0.13330078125	0	0	0	-0.566786652226237	-0.417121912064638	-0.567895198639239	0.426915969127667	0.00700870767607992	-0.0120487939613935	0.999902847571096	0.957725322398685	-0.287504131558652	-0.0101774836301262	0.287598826237256	0.957703608065033	0.0095244026674311	-46.8985535730123	-89.2013288851632	-59.8137053582213
18108	1647946289012	9.78731063787294	-0.107999675378884	-0.00531691790144056	-0.0359340458670574	-0.0924098055499832	-0.0252816399426052	0.00711354804550339	0.00604566419724624	0.0110668329846174	0.565185546875	0.458740234375	0.123291015625	0	0	0	-0.566777205480821	-0.417098070741141	-0.567874038648608	0.426979946789413	0.00709655122587621	-0.0121382957183324	0.999901145482769	0.957745011502754	-0.287434648847457	-0.0102866701866774	0.287531097278692	0.957723333963935	0.00958559746274029	-47.0204969419133	-89.1943628810077	-59.6876722900921
18109	1647946289013	9.70484157132393	-0.134111540476632	0.0858955716352569	-0.0342154871309414	0.00316784261628345	-0.106599959762237	0.00859122029595929	0.0213120805549687	0.0127361128631443	0.563720703125	0.44970703125	0.131591796875	0	0	0	-0.566745816379459	-0.417098236466211	-0.567830280409166	0.427079633562179	0.00719566757445045	-0.0122401350923606	0.999899195649781	0.957794857238263	-0.287264095466343	-0.0104091740229213	0.287362547692099	0.957773208306029	0.00965648150631365	-47.1482424895361	-89.1864562447244	-59.5498004696721
18110	1647946289013	9.69552196263006	-0.0872801956519632	0.184501229884631	0.0397054881770239	0.0830329964357647	-0.115454067353806	-0.000521970817895125	-0.00157488815425915	0.0106613909430244	0.56396484375	0.456787109375	0.13134765625	0	0	0	-0.56677343030171	-0.417070619726538	-0.567804042519204	0.427104842121702	0.00730133491954238	-0.0122546202315174	0.999898252219382	0.957792803513398	-0.287267103994235	-0.0105145851421383	0.287366727451768	0.957772120729011	0.00963995372990806	-47.48486290777	-89.1826580584155	-59.213403165603
18111	1647946289014	9.72939672367787	-0.0629927954873782	0.0889333396610324	0.0373116713647315	-0.0147572098130141	-0.0827630254513778	-0.00650232754197598	-0.0183512069758709	0.00723910225899283	0.571044921875	0.455810546875	0.130615234375	0	0	0	-0.566885880218856	-0.41706280634339	-0.567736106161455	0.427053542467566	0.00746865865120971	-0.0120533984849459	0.999899462307544	0.957761462807022	-0.287367774861757	-0.0106180192482835	0.287466866785907	0.957744474040945	0.00939802874693757	-48.487898303136	-89.1875330090417	-58.21636382326
18112	1647946289015	9.73176579865236	-0.0636245361119032	0.063586747591947	0.0305421801962892	-0.0381121607155838	-0.0806284088674189	-0.0127168165281138	-0.00307346356873794	0.0100624520865015	0.569091796875	0.461669921875	0.12548828125	0	0	0	-0.566942511767321	-0.417005315897292	-0.567732459101823	0.42703935386163	0.00757284279119413	-0.0120521225719613	0.999898694065339	0.957724287432505	-0.287487913533683	-0.0107186208978085	0.287587971434761	0.957708434709416	0.0093655097287218	-48.854315612435	-89.1844346979774	-57.8571692235274
18113	1647946289016	9.73165571907067	-0.0892347466278719	0.0637129775836005	0.00755986924688701	-0.0298981578592442	-0.0804628518126993	-0.0205316511414426	0.0106736853924147	0.014329780605325	0.55908203125	0.454345703125	0.13671875	0	0	0	-0.567000344870544	-0.416956234002581	-0.567699905604452	0.427053772983877	0.00772863220616166	-0.0120481162711703	0.999897550321301	0.957705430172718	-0.287545147813239	-0.0108672437513442	0.287646618721497	0.957691302489157	0.00931621568613722	-49.3943431793909	-89.1798436751009	-57.3206178595538
18114	1647946289017	9.72700018892836	-0.0665525332358559	0.113792362603838	0.0445118183281341	0.010049877369521	-0.0849009733028776	-0.0112294322328168	0.0152475940237973	0.0117479600060579	0.56640625	0.45458984375	0.141845703125	0	0	0	-0.567005378458848	-0.416859578294299	-0.567741044732157	0.427086758059152	0.00779639622147565	-0.0122261185136361	0.999894863589191	0.957672610333455	-0.287649986149645	-0.0109843928013599	0.287754040150722	0.957657562751007	0.00946598556607547	-49.2463265282827	-89.1691588298242	-57.4750071242884
18115	1647946289018	9.70484038198198	-0.116251801595526	0.0877492519965915	-0.0103147057668432	-0.00255148747081435	-0.106759886158891	-0.00979587137586905	0.00759830514392582	0.0133089173099208	0.5625	0.454345703125	0.126708984375	0	0	0	-0.567041698123543	-0.416707515042725	-0.567827034397549	0.427072615023921	0.00785461182840275	-0.0124256790215414	0.999891947949316	0.957587826824216	-0.287927656807093	-0.0111003767346869	0.288034475351649	0.957571546646218	0.00963711899217179	-49.0361559808948	-89.1577169760369	-57.7018988751622
18116	1647946289019	9.75352499065867	-0.0933349801312271	0.0933893728402718	0.0146086743438244	-0.00534237346268423	-0.058281145216986	-0.00667682998011378	0.00606970562443081	0.0119257510426622	0.567138671875	0.45703125	0.118408203125	0	0	0	-0.56706295131056	-0.416641962356867	-0.567833563202481	0.427099670984597	0.00794903940838637	-0.0125186144077651	0.999890042487569	0.957567497663398	-0.287990692496535	-0.0112182197350416	0.28809946232359	0.957551379994137	0.00969816890875319	-49.1565330066321	-89.1503226077557	-57.5853683604155
18117	1647946289020	9.75339532290557	-0.118923196507853	0.0938079769798823	-0.00860723709842585	0.00354296381586752	-0.0581204217688231	-0.00362521047288002	0.00758906901618084	0.0120818411689413	0.57275390625	0.447998046875	0.130126953125	0	0	0	-0.567083521486574	-0.416697197046292	-0.567740042493822	0.427142797880596	0.00806938024575438	-0.0124079126501258	0.999890458403378	0.957616368228511	-0.287824952385	-0.0112999152832756	0.287933631941957	0.95760265271575	0.00955945126429936	-49.7695977654441	-89.1519311178487	-56.9623804810274
18118	1647946289021	9.72907679838894	-0.119957796444873	0.0920913628742245	-0.0093776320905967	0.001550841097505	-0.0824399058705758	-0.00820100710568622	0.00607427536296611	0.0118513012477383	0.560302734375	0.44921875	0.1328125	0	0	0	-0.567107985538777	-0.416628827944307	-0.567748896962674	0.427165240230957	0.00816321944684045	-0.0124981172580875	0.999888573248672	0.957592258589597	-0.287900554528364	-0.011416522742667	0.288011159744785	0.957578752775595	0.00961790492780756	-49.887375302999	-89.1446646970941	-56.8492002819484
18119	1647946289021	9.70951743303054	-0.120432936081876	0.0417012326322192	-0.0222919394802024	-0.0469913611696807	-0.102472810332367	-0.00965069375307164	0.00608598177138719	0.0102528942659981	0.56494140625	0.449462890625	0.130859375	0	0	0	-0.567194083045877	-0.416511247311912	-0.567738140535913	0.42717988810482	0.00838356928699768	-0.0125672006991907	0.99988588410508	0.957538060688688	-0.288071448122858	-0.0116491677361888	0.288184972020674	0.957526451980825	0.00961850604084491	-50.4541318685616	-89.1344048178025	-56.29277967322
18120	1647946289022	9.73130125817174	-0.146159248049171	0.0686359955542488	-0.0382344928949331	-0.0148046881623884	-0.0801328941179129	-0.00500774344867368	0.00455233325501521	0.00894431607260819	0.56689453125	0.450927734375	0.12451171875	0	0	0	-0.567210450471728	-0.416462776353108	-0.567741951534755	0.427200347911175	0.00845566475953913	-0.0126350404789269	0.999884422063656	0.957523196398739	-0.288117237313665	-0.0117382247841618	0.28823225026325	0.957511782337344	0.00966212157584062	-50.5410726988058	-89.1288773997409	-56.2086359038081
18121	1647946289024	9.75783954719354	-0.171436459328197	0.0469817882327551	-0.0665864796930306	-0.0283967862375452	-0.0534973278081683	-0.00203029250146225	0.00606361365245811	0.010625024744258	0.5673828125	0.460693359375	0.128662109375	0	0	0	-0.567265449260852	-0.416428463961728	-0.567679592650691	0.427243636073501	0.00865442898084379	-0.0126240271890974	0.999882860537446	0.957525945966122	-0.288100419674341	-0.0119252247422554	0.288217216107401	0.957516987902042	0.0095944889547197	-51.1814392857365	-89.1230123383611	-55.5673298111944
18122	1647946289025	9.72662183039362	-0.124283088388277	0.118576235775731	-0.000167684757038881	0.0261041345574739	-0.0845838857950909	-0.00210482367658585	0.0060562723932544	0.0121490729491145	0.5625	0.455322265625	0.13818359375	0	0	0	-0.567278423215414	-0.416376018401829	-0.567674107593765	0.427284810661106	0.00875423773492567	-0.012714784793425	0.999880841685317	0.957519309528231	-0.288117403756286	-0.012047137972051	0.288236248938715	0.957510676650863	0.00965240370814824	-51.2976067352884	-89.1154872064856	-55.4522573548721
18123	1647946289026	9.75553581840864	-0.149559675912927	0.0728521217616505	-0.0371394719328897	-0.0114989870068187	-0.055810664797054	-0.00209691140523278	0.00911168103442219	0.0121647034977099	0.568603515625	0.449951171875	0.13427734375	0	0	0	-0.567264123502141	-0.416345216759272	-0.567692263578751	0.427309686927241	0.00876430870901734	-0.0128053979231929	0.999879597090011	0.95751621576022	-0.288126183879636	-0.0120829929729978	0.288246220181775	0.957506827102025	0.00973614933804717	-51.139071275786	-89.1108797950126	-55.6113645691859
18124	1647946289027	9.73121531712506	-0.150515867949936	0.0713519602131733	-0.0379007042897952	-0.0134956866685049	-0.0801296853876625	-0.00354633834916855	0.00912392877226055	0.0105660660482531	0.563720703125	0.4482421875	0.124755859375	0	0	0	-0.567267683542435	-0.416286844818429	-0.567702443962196	0.427348304265815	0.0088383959009341	-0.0129212052109277	0.999877455098272	0.957505501808285	-0.288157379344499	-0.0121876468678453	0.288279546212983	0.95749588363878	0.00982527607903477	-51.1253933651344	-89.1030056875548	-55.6269913874022
18125	1647946289027	9.73132662972374	-0.127136919251243	0.07241244660371	-0.0131645079747599	-0.0197294814778107	-0.080289782591004	-0.0020264119399919	0.00759141149010016	0.010632880719062	0.566650390625	0.45361328125	0.130126953125	0	0	0	-0.567326432556963	-0.416217812706476	-0.567659014353735	0.427395244160453	0.00905195161756689	-0.0129667923803395	0.99987495441544	0.957492259778048	-0.288192075309727	-0.0124056516878733	0.288316899672984	0.957484824957575	0.00980690261605416	-51.6729616565621	-89.093899570103	-55.0816003555519
18126	1647946289027	9.72891318470179	-0.128627605870625	0.0975157876270103	-0.00640138390530309	0.0036535327185179	-0.0824380549890318	-0.0052946449516031	0.00910681475372355	0.0150634072417654	0.5595703125	0.450439453125	0.134765625	0	0	0	-0.567343565687719	-0.416141519364177	-0.56766266521108	0.427441940922358	0.00917066877345629	-0.0130952359604117	0.999872198648102	0.95747608966752	-0.288239246003603	-0.0125568618002271	0.28836684370649	0.957468877749254	0.00989502866803865	-51.7612663592424	-89.083969404109	-54.9962251037851
18127	1647946289028	9.70459160609183	-0.129714969830765	0.0960052393547061	-0.0071768369376733	0.00174166696539288	-0.10675687960221	-0.00354606476054092	0.00912415883234159	0.0105661138871268	0.561279296875	0.44775390625	0.13134765625	0	0	0	-0.567362425599588	-0.416066855720429	-0.56768587175899	0.427458770636307	0.00924224515230337	-0.0132032087531234	0.999870119657132	0.95744601064567	-0.288334741954025	-0.0126575385047199	0.288464413062058	0.957438641303414	0.00997649917733473	-51.7553034284133	-89.0765485998859	-55.0079826407279
18128	1647946289029	9.7290099641656	-0.106502048590307	0.099238079280191	0.0170304485157455	-0.00302116725936288	-0.082603780306691	-0.000515588837945067	0.00300310033168458	0.0106840807914674	0.55908203125	0.447021484375	0.134033203125	0	0	0	-0.56737740700393	-0.416029485850568	-0.567671904801442	0.427493805128813	0.00933615080402944	-0.0132609834584339	0.999868482654534	0.957443907134727	-0.288337026958801	-0.012764151955746	0.288468370846362	0.957437154701172	0.010004689848819	-51.9102413126707	-89.0707471379169	-54.8532456759881
18129	1647946289030	9.73124601180903	-0.131862933464599	0.0747567605909492	-0.0128831953491566	-0.0198665840495577	-0.0802896850392241	-0.000678930552964237	-0.00159487799717309	0.0137082999125865	0.565673828125	0.458984375	0.13037109375	0	0	0	-0.567448372559157	-0.415930364077604	-0.567672280916356	0.427495565120222	0.0095002274349868	-0.0133167486792977	0.999866195989891	0.957392781454394	-0.288498948081628	-0.0129390484508459	0.288632651821831	0.957387602364062	0.010008553436472	-52.277495919261	-89.0627034087135	-54.4957714650546
18130	1647946289031	9.72883469312358	-0.133364950786325	0.0989713235524474	-0.00611846998264951	0.00350342939195239	-0.0824378177738918	0.000924634853851346	-6.50301812379195E-05	0.0122671021338584	0.570068359375	0.4580078125	0.133056640625	0	0	0	-0.567472268909663	-0.415898698328169	-0.567643517251958	0.427532845602863	0.00961822010152324	-0.013350540483772	0.999864617291196	0.957394452391217	-0.288487877319308	-0.0130616679762971	0.288623201376122	0.957390467734347	0.0100069934949094	-52.5430315613762	-89.0571901096771	-54.2296354019247
18131	1647946289031	9.72881882578856	-0.134630885021818	0.0988171924255357	-0.00666418594500642	0.0042706904521142	-0.0824384827352205	0.00084033148309983	-0.00312781880956668	0.0137752455954728	0.56298828125	0.439697265625	0.130126953125	0	0	0	-0.567488043635894	-0.415931676931173	-0.567581929940888	0.42756159001962	0.00970318585959984	-0.0132799576081252	0.999864736306917	0.957424972119597	-0.288383853730234	-0.0131215726758832	0.288519099794041	0.957422788340462	0.00991632091105654	-52.9206901629871	-89.0576046249514	-53.8457481813493
18132	1647946289032	9.72625890924421	-0.160541646742186	0.122332310714619	-0.0233612749518219	0.0344453408041449	-0.0844234473966843	-0.000623194446781787	-0.00769786712365415	0.0121525546971634	0.568603515625	0.45166015625	0.130859375	0	0	0	-0.567536345964976	-0.415912776980409	-0.567535128033612	0.427577988676966	0.00984088078463369	-0.0132398217210566	0.999863922834591	0.957422292471487	-0.28838725108681	-0.0132418763487758	0.288523328249253	0.957422320886341	0.00983811590633432	-53.3893188605737	-89.0547750380487	-53.3773546839239
18133	1647946289033	9.755484353195	-0.137022848973415	0.0757102798872772	-0.0109219355454883	-0.0169468012475422	-0.0559678496015579	0.000905739043124858	-0.00617576949531769	0.0122352934561836	0.56591796875	0.4521484375	0.126220703125	0	0	0	-0.567648111391219	-0.415835142287494	-0.567452845307499	0.427614340761796	0.0101568055823261	-0.0132058823799525	0.999861212354459	0.957398015058333	-0.288454220027188	-0.0135352765346944	0.288592931415042	0.957402615214244	0.00971351214544269	-54.3351081308171	-89.0454074132048	-52.4356753559861
18134	1647946289036	9.73101685512449	-0.162283414555686	0.0726130371063216	-0.0351171159362187	-0.0121534944071557	-0.0801174749520808	-0.00503092880930499	-0.00308261696110866	0.00890410707886623	0.563720703125	0.4521484375	0.123779296875	0	0	0	-0.567686577238913	-0.415802468270321	-0.567434735201212	0.427619081298071	0.0102522573348766	-0.013200880286972	0.999860304232141	0.957382800366454	-0.288500457380205	-0.0136256982903397	0.288640026299241	0.957388752206261	0.00968051480615212	-54.6077258007106	-89.0422893636661	-52.1658582902441
18135	1647946289033	9.73116300783155	-0.138903180303324	0.0727855781737454	-0.0112711989532221	-0.0172896993811934	-0.0802827656648706	0.000930880013779955	0.00146237509379803	0.0122749932415734	0.564208984375	0.447021484375	0.132568359375	0	0	0	-0.567712764038385	-0.415864671525825	-0.56732003819608	0.427676006792308	0.0104090984758334	-0.0130749727422362	0.999860338125636	0.9574417012936	-0.288299616381808	-0.0137375331890581	0.288438969788998	0.957450978526782	0.00951758504923089	-55.2851570496492	-89.042405555038	-51.4764011352222
18136	1647946289033	9.75527586603488	-0.164763065133783	0.0748365796154905	-0.0339426933347047	-0.00843937793226432	-0.0557958938135918	-0.00373150330435366	-0.00311037143004039	0.0135509339500768	0.56005859375	0.449462890625	0.129638671875	0	0	0	-0.567758341661994	-0.415823521417433	-0.567288362142688	0.427697531775313	0.010549426426945	-0.0130811186985502	0.999858786997273	0.9574302104746	-0.288331240698621	-0.0138739939367589	0.288472011939852	0.95744137155796	0.00948252901845625	-55.6483669115131	-89.0371024426899	-51.1151395641326
18137	1647946289035	9.7313012174704	-0.116850162119174	0.0725789391918295	0.0125201665017864	-0.024044908997102	-0.0804517475104447	-0.00198839368730406	-0.00462168923332594	0.00904553813883875	0.573974609375	0.455810546875	0.126220703125	0	0	0	-0.567823742631585	-0.415768607948202	-0.567270110055595	0.427688302606217	0.0106821737646539	-0.0130630069100948	0.99985761437023	0.957396155045583	-0.288438360917255	-0.013996937354347	0.288580133528966	0.9574093533081	0.00942532389734857	-56.0442772649737	-89.0331126824704	-50.7256797957023
18138	1647946289037	9.70938327270136	-0.117370677785787	0.0457405784284363	0.00501679354276765	-0.0494019525183707	-0.102613942883163	-0.00356593212473055	0.0014876827991834	0.0105269417300122	0.564453125	0.4560546875	0.1259765625	0	0	0	-0.567849663957437	-0.415726484294068	-0.567257682500903	0.427711317413538	0.0107804238003963	-0.0131047725816371	0.999856013333053	0.95738535020001	-0.288469038425739	-0.0141033716583376	0.288612324208595	0.957399539797943	0.00943649879983977	-56.2137080062542	-89.0276917276054	-50.5581440617374
18139	1647946289038	9.73127793906125	-0.118828021469171	0.0724888053943775	0.0128094705997463	-0.0222246835799106	-0.0804477970766424	-0.00509538689348764	-3.38117839861337E-05	0.0104442218805908	0.570068359375	0.455810546875	0.135986328125	0	0	0	-0.567874070462291	-0.415805502784779	-0.567142028830032	0.427755471133966	0.0109114059769039	-0.012945884710103	0.999856662371502	0.957446538258151	-0.288262081537712	-0.0141809282146176	0.288404347396308	0.957464034006823	0.00924964790097188	-56.8852099234292	-89.0298856575593	-49.8742209602284
18140	1647946289038	9.72887664371831	-0.1200825163182	0.0967739317316399	0.0195781776560128	0.00118396667479412	-0.0826081761172617	-0.00814350527023683	-2.12990975634575E-05	0.0102948539759485	0.56787109375	0.453125	0.125732421875	0	0	0	-0.567913662409938	-0.41575529605618	-0.567134557352917	0.427761615512051	0.0110118553146976	-0.0129705632328058	0.999855241288433	0.957423014631178	-0.288335068191517	-0.0142849398157761	0.288478612893704	0.957441722999586	0.00924321169873882	-57.0947136868275	-89.025088431456	-49.669135423737
18141	1647946289040	9.70456950097534	-0.120884878003727	0.0942261826722023	0.0190092780126941	-0.000248176605158884	-0.106926216007903	-0.00967867238418125	-0.00307029023356197	0.0102038979583242	0.560791015625	0.449951171875	0.128173828125	0	0	0	-0.567967110879192	-0.415740489252088	-0.567089232460743	0.427765132967922	0.0111392960470406	-0.0129081527444721	0.99985463727299	0.957415850968513	-0.288353673226741	-0.0143891435076475	0.288497494612716	0.957436963318928	0.00914641311195608	-57.5580503410062	-89.0230565575648	-49.2069256489532
18142	1647946289042	9.7312449979836	-0.121780776260758	0.0720088103982037	0.0130394408634793	-0.0215315719503804	-0.0804465443594822	-0.00503177804817315	-0.00308184953729351	0.00890384250953122	0.569091796875	0.44970703125	0.125244140625	0	0	0	-0.568005825318626	-0.415709774529051	-0.567069471039165	0.427769775440568	0.0112351967527342	-0.012899213422463	0.999853679618678	0.957401507720038	-0.288396805161063	-0.0144788047949666	0.288541372023712	0.957424092586965	0.00910953153022415	-57.8234066778765	-89.0198436947542	-48.9441810699659
18143	1647946289043	9.75534922732784	-0.14725291715137	0.073893276033689	-0.00904890389246873	-0.0115647396882725	-0.0559580688147356	-0.0141704407872181	-0.00151525706668919	0.00846427373735319	0.568115234375	0.45166015625	0.130126953125	0	0	0	-0.568078747775291	-0.415699602760611	-0.567011402593036	0.427759799326919	0.011383819188297	-0.0127891480046765	0.999853412433044	0.957389587152412	-0.288430788688929	-0.014589672663168	0.288575097804408	0.957415331937816	0.00896075318145562	-58.4423919637251	-89.0189491828943	-48.3272241125599
18144	1647946289044	9.73361599652809	-0.12300477377227	0.0473901710550156	0.00691362048842762	-0.0436880219233653	-0.0782793205505587	-0.0093684321351004	1.60680966630117E-05	0.00412438123302078	0.566162109375	0.450439453125	0.134521484375	0	0	0	-0.568108230532774	-0.415664033554825	-0.567019037091421	0.427745089025896	0.0114256455697032	-0.0127948998022011	0.999852861756352	0.95736353419799	-0.288515100046324	-0.0146321711715864	0.288659865605266	0.957389851410757	0.00895289921970771	-58.5390357858485	-89.0171081378745	-48.2356443871734
18145	1647946289044	9.73084779587282	-0.172708420866581	0.0712078692150424	-0.0328695866972162	-0.00676672404731557	-0.0801043889529165	-0.00958671106623751	0.00152030896839037	0.00870494025152924	0.55517578125	0.4482421875	0.132080078125	0	0	0	-0.568163843427885	-0.415585009988372	-0.567025484141457	0.427739461387847	0.0115423996142213	-0.0128375972676811	0.999850973449313	0.957319103451719	-0.288656105289199	-0.014757609754606	0.288802540116156	0.957346775716963	0.00895789298843797	-58.7421815173302	-89.0108210893292	-48.0410038019366
18146	1647946289045	9.73102441150292	-0.149006671770117	0.0713172974680766	-0.00939401730929408	-0.0134993927279552	-0.080274777279266	-0.00641263605324344	-0.00458790764923851	0.005772119811726	0.565185546875	0.458740234375	0.125732421875	0	0	0	-0.568203531760792	-0.415562693999638	-0.567010475499961	0.427728318589773	0.0116135360581425	-0.0128044938195248	0.99985057419509	0.957301255414019	-0.288712265664258	-0.0148166810640689	0.288858844702684	0.957330283963187	0.00890478770065234	-58.9942396740228	-89.0094968973741	-47.7923146045733
18147	1647946289046	9.73101901512521	-0.14964626629031	0.070712165768714	-0.0109228967138894	-0.0126282940226992	-0.0802752038085312	-0.00649911956164505	-0.00765115468566617	0.00727906332868039	0.567626953125	0.456298828125	0.132080078125	0	0	0	-0.568211094534468	-0.415623371953368	-0.566995313657153	0.427679411504552	0.0115470539538778	-0.0126608219580017	0.999853173787198	0.95730806632492	-0.288695067322465	-0.0147113647538313	0.288838937288983	0.957337381329605	0.00878672946810788	-59.151186328309	-89.0181509084548	-47.6342350897764
18148	1647946289046	9.75511861595654	-0.174991454648915	0.0720646917262753	-0.0336084905239871	-0.00374079612903977	-0.0557918041235865	-0.00497505886817074	-0.00765789257434857	0.00735360739204123	0.57275390625	0.451904296875	0.1357421875	0	0	0	-0.568259130003565	-0.415608119016009	-0.566965485277744	0.42766995578289	0.0116400598234949	-0.0126019917694047	0.999852838577132	0.957294424307225	-0.288736600657272	-0.0147837962371328	0.288880415046786	0.95732563177026	0.00870290515113342	-59.5155866731178	-89.0170307197689	-47.2723217661224
18149	1647946289047	9.71166648502481	-0.126009003332302	0.0187320942956133	-0.00153454258327865	-0.0682547788303782	-0.100425321687386	-0.0065556251067282	-0.00307603960099826	0.00882909065392212	0.558837890625	0.4501953125	0.12890625	0	0	0	-0.568307377265201	-0.415555755922917	-0.566954300502496	0.427671555994794	0.0117524697221177	-0.0126136522356633	0.999851376571892	0.957267259259705	-0.288820907824651	-0.0148955547985307	0.288965869619307	0.957300046474783	0.0086802773305647	-59.7688140856312	-89.0121599120901	-47.0241872509685
18150	1647946289048	9.7288125109365	-0.12771078234267	0.0933961737250973	0.0194704729666761	0.00392867360368282	-0.0826086810965361	-0.00795498556945392	-0.00916364652827137	0.00567178381022072	0.564697265625	0.451904296875	0.134033203125	0	0	0	-0.568362515251946	-0.415539717687923	-0.566930249817731	0.427645748396881	0.0118336697308929	-0.0125362236798863	0.9998513926362	0.957245020208651	-0.288891713803827	-0.0149515544752969	0.289036218399079	0.957279698307311	0.00858158856064684	-60.145916232187	-89.0122133013486	-46.6513092421094
18151	1647946289049	9.73356973701583	-0.127967412881818	0.0436020895232011	0.00514622967336779	-0.0426886438616693	-0.0782737918434115	-0.00972697137327587	-0.0152915843944085	0.0101345710238783	0.56591796875	0.450927734375	0.130859375	0	0	0	-0.568436608603716	-0.41552258872654	-0.566918915843827	0.427578932029585	0.0118878422329086	-0.0124086668998459	0.999852341194846	0.957201671435649	-0.289034470284869	-0.0149678050476507	0.289177522307396	0.957238267085533	0.0084416005142019	-60.5777031678742	-89.0153709399943	-46.2280153342321
18152	1647946289051	9.7335657398162	-0.128745769717461	0.0421787847437251	0.00513808840787522	-0.042631194767255	-0.0782735357789423	-0.00492550325302112	-0.0137604373484828	0.00579403497593523	0.562744140625	0.45361328125	0.126708984375	0	0	0	-0.568498203690728	-0.41552479208384	-0.566875645127724	0.42755226876386	0.0119823002494165	-0.0122877405854171	0.999852707108421	0.957188132139922	-0.289076409277115	-0.0150236243941188	0.289218436776113	0.957227162710479	0.00829787912819369	-61.0871612685745	-89.0165917323496	-45.7210337395727
18153	1647946289050	9.73356281187844	-0.129376514982016	0.0409050371044949	0.00471978590763696	-0.041715627863742	-0.0782693573704343	-0.0095657448149662	-0.0122196741003419	0.00710446587352826	0.56396484375	0.451171875	0.13525390625	0	0	0	-0.568556872463783	-0.415565824454149	-0.566818921159959	0.427509577594473	0.0120427123216073	-0.0120954242063283	0.999854326286189	0.957186646024268	-0.289081213221477	-0.015025872194754	0.289220845985819	0.957228161346953	0.00809625663988867	-61.6832768713153	-89.0220120616012	-45.1251200033749
18154	1647946289051	9.73355883110112	-0.130071453669164	0.0396288711928569	0.0047049842495016	-0.0416504617105372	-0.0782690711617704	-0.00957206405795111	-0.0137472412253428	0.00709554244666779	0.56884765625	0.44970703125	0.1279296875	0	0	0	-0.56863089576892	-0.415551684433645	-0.566782443857261	0.427473231064341	0.0121489177991033	-0.0119775920568394	0.999854459951462	0.957159698287987	-0.289166868575545	-0.0150941740900965	0.289305575075144	0.957203771099306	0.00795140388279264	-62.2203537120505	-89.0224608597917	-44.5931414440517
18155	1647946289052	9.75569584211633	-0.106709606889465	0.065005624194306	0.0359246756372388	-0.022955734143501	-0.0562845306931034	-0.00639489871702839	-0.0183277938100157	0.00416832887356264	0.574462890625	0.442138671875	0.1337890625	0	0	0	-0.568724141390508	-0.415544271172967	-0.566735075683445	0.427419189654649	0.0122686253708158	-0.0118067759297876	0.999855029928667	0.957127011260149	-0.289271590020581	-0.0151601953542678	0.289408647327141	0.957174251246402	0.0077516193899132	-62.9187058260146	-89.0243769478624	-43.9010036395723
18156	1647946289054	9.78472050822919	-0.106907630148669	0.0171229866792109	0.0231777347281814	-0.0675803343932482	-0.0276286836408026	0.00116448423437933	-0.0153170649556355	0.00607964940713076	0.567626953125	0.451904296875	0.125	0	0	0	-0.568777581023873	-0.415566599705841	-0.566674061528841	0.42740726774818	0.0123698183986654	-0.0116712940136037	0.999855373786045	0.95713115535362	-0.289254857369922	-0.0152177179415874	0.289390633995345	0.957180969505743	0.00759292906711451	-63.4829506781963	-89.0255347125119	-43.3357158516639
18157	1647946289052	9.78707335576162	-0.107253044897758	-0.00807318372146336	0.0187179202049149	-0.0905282797755931	-0.0254595882931898	0.0073124760218195	-0.00312518671805366	0.00644681497481947	0.564697265625	0.454833984375	0.1298828125	0	0	0	-0.568861516170938	-0.415535400215358	-0.566561510142213	0.42747510081049	0.0126767727864744	-0.0116176817483606	0.999852153521966	0.957146072905184	-0.289190738709848	-0.0154955402176361	0.289328005132417	0.957200995671884	0.00745381317512828	-64.3110692826772	-89.0147453963882	-42.5038315853785
18158	1647946289052	9.76040814806616	-0.108043006784589	0.013718025892869	0.02471134951858	-0.069142482391097	-0.0519477744797392	-0.00196669725822603	-4.25469488807354E-05	0.00907084183294959	0.5703125	0.4521484375	0.1298828125	0	0	0	-0.568885313639187	-0.415507166333569	-0.566543280593842	0.427495036070664	0.0127650118788289	-0.0116370310681091	0.999850805860381	0.957140729624119	-0.289203577720779	-0.0155857090987672	0.289341801622827	0.957196881598254	0.007446589302183	-64.4623146680721	-89.0102650374812	-42.3533950622271
18159	1647946289052	9.76039864052506	-0.10892731044221	0.0134880768385069	0.0243489625809402	-0.0683720342874242	-0.0519414365084358	-0.001986397797945	-0.00462539141344831	0.00904384646745482	0.5625	0.45703125	0.13671875	0	0	0	-0.568909359237534	-0.415541185804088	-0.566490674554997	0.427499683642802	0.0128276770855138	-0.0115386288124991	0.999851144293848	0.957159707822934	-0.289139086771674	-0.0156167288878671	0.289276242406639	0.957217555494032	0.0073353277449415	-64.8401044207308	-89.0113882650012	-41.9717100419105
18160	1647946289054	9.7846891278255	-0.109966597435373	0.0156111526163181	0.0251199504672114	-0.0662628608880514	-0.0276244664805265	-0.00646508379052315	-1.1751131464244E-05	0.0073258486086723	0.573486328125	0.454345703125	0.122802734375	0	0	0	-0.568938920929727	-0.415505463268134	-0.56648559057528	0.427501801067817	0.0128985713298186	-0.0115527606754391	0.999850069049568	0.957141680324154	-0.289194840156211	-0.0156891112966682	0.289332733446987	0.957200542283486	0.00732742849130213	-64.965586023601	-89.0078240319118	-41.8495971643293
18161	1647946289055	9.73822553875068	-0.134288529333292	-0.0136160260788376	-0.00746342073834277	-0.0859285948911999	-0.0739083834609637	0.0012358711937177	0.0014865881551003	0.00617907455389064	0.57177734375	0.45361328125	0.12646484375	0	0	0	-0.568911569368601	-0.415577454629146	-0.56644786446852	0.427518212806857	0.0128643920860259	-0.0114799135171329	0.999851348452307	0.957187201146237	-0.289047113844782	-0.0156341913713302	0.289183625708806	0.957246038155103	0.00727001088503187	-65.0612351721958	-89.0120664644144	-41.745052984495
18162	1647946289059	9.76015834100553	-0.135484469878028	0.0130358983937759	3.47414383973649E-05	-0.0604462610361303	-0.0517671688668404	0.00572096672966583	-0.00159973936032747	0.00790604273015416	0.56396484375	0.441650390625	0.12548828125	0	0	0	-0.568920494836695	-0.415578589912136	-0.566411761966853	0.427553063451797	0.0129443030244932	-0.0114798139754195	0.999850318242836	0.957204522040813	-0.288985627079249	-0.0157101981602171	0.289122721355189	0.957264603551549	0.0072478123228219	-65.2340252877041	-89.0086489201802	-41.5686088559403
18163	1647946289060	9.7139074497668	-0.135416299724474	-0.0159718114709366	-0.00673718639021218	-0.0865609457270024	-0.098210927378144	0.00123597666630446	0.00148673913021052	0.00617902439372555	0.570556640625	0.45458984375	0.130859375	0	0	0	-0.568977112429818	-0.415598881604208	-0.566304021487501	0.427600713735889	0.0131546497128309	-0.0113715043906712	0.999848810610297	0.957236510727568	-0.28887039844378	-0.0158794027924091	0.289007297003111	0.957300674705093	0.00708523028071556	-65.9540505296896	-89.0036687342064	-40.8416938488579
18164	1647946289061	9.71389849273543	-0.136091614381179	-0.0156777650704995	-0.00672466115063255	-0.0864771091845372	-0.0982101720350918	0.00117592319270513	0.0045336961921967	0.00772111843609011	0.565185546875	0.448974609375	0.131591796875	0	0	0	-0.568978512110646	-0.41557476945255	-0.566294295627912	0.427635165170152	0.0132167634674955	-0.0114284813038403	0.999847341837009	0.957240937279187	-0.288851553008714	-0.0159551973136801	0.288989801135453	0.957305682705134	0.00712212750163088	-65.9448317501342	-88.9988407338799	-40.8498377568344
18165	1647946289062	9.71152867217691	-0.137185174218516	0.00928542085954832	-6.79141712490658E-05	-0.0628052282020501	-0.100388431877967	0.00264695743445769	0.0091005684878492	0.00934588371689043	0.56298828125	0.44921875	0.12841796875	0	0	0	-0.56897212702281	-0.415545170223428	-0.566291899991876	0.427675594555866	0.0132713910151473	-0.0115112112902355	0.999845669188578	0.957245688794552	-0.288831594650538	-0.0160312574638471	0.288971558228085	0.957310713376937	0.00718586035024527	-65.8561407074974	-88.9933707734018	-40.9374000332025
18166	1647946289063	9.71173925735787	-0.11361022478011	0.0109790687633546	0.0233961423506278	-0.0695019129231304	-0.100554281433645	0.0027696237322834	0.0198022770169643	0.00788461421820487	0.567626953125	0.452880859375	0.132568359375	0	0	0	-0.568927165905584	-0.415492392515965	-0.566322070727612	0.427746728640664	0.013290767936298	-0.0117150075626088	0.999843044725257	0.957254644880361	-0.28879761579714	-0.0161084438994131	0.288940998030111	0.957318492304257	0.00737590331199989	-65.3974068704822	-88.9848475466288	-41.3942251481778
18167	1647946289063	9.68483204156853	-0.139099533306815	0.0346257492473665	0.00544102604642322	-0.0409494377109305	-0.126882680695624	0.00552882160955487	0.0212813935324813	0.0141377324685934	0.562255859375	0.4541015625	0.13232421875	0	0	0	-0.568881564408057	-0.415444943473329	-0.566346176941073	0.427821542799466	0.0133150136133479	-0.0119122516179704	0.999840391599513	0.957268129092067	-0.288748452918254	-0.0161882661792184	0.288895204939527	0.957330888041698	0.0075585292381688	-64.9714674623058	-88.9763033560771	-41.8173458454962
18168	1647946289064	9.70956294960486	-0.0918162034040121	0.0395585474502486	0.0531162666475344	-0.0523740150592464	-0.102896274404838	0.00102358021731781	0.0197859934123483	0.0123825251899714	0.567626953125	0.453857421875	0.13134765625	0	0	0	-0.568849551571075	-0.415374587214196	-0.566370459682432	0.427900271527296	0.0133769093914938	-0.012128851624674	0.999836961335896	0.957271442307936	-0.288730619847005	-0.0163099633490783	0.288881366717924	0.957333546952697	0.00774827994804739	-64.5892799921305	-88.9653610231963	-42.1986151804941
18169	1647946289065	9.68501670462329	-0.117064427324184	0.0384472432996044	0.0274120854964064	-0.0472422062553594	-0.127040899436716	-0.0126549545731057	0.0122286159054694	0.0101458704040157	0.563720703125	0.451904296875	0.140625	0	0	0	-0.568824322211951	-0.415333738952626	-0.566441603237137	0.427879288900373	0.0132835908195476	-0.0122333956904211	0.999836931826796	0.957241125896352	-0.288834398835486	-0.016251675052972	0.288986112309265	0.957300910936172	0.00787355149549368	-64.150911259748	-88.9652673929104	-42.6432245020613
18170	1647946289066	9.68737977981236	-0.117763400276025	0.0154648527939833	0.0206624602751831	-0.0705246605382528	-0.124858221020006	-0.0233088479754068	0.0153411297840682	0.00964363736393348	0.569580078125	0.448486328125	0.131103515625	0	0	0	-0.568850765594228	-0.41521209807269	-0.566510145006058	0.427871447636029	0.0133303384385816	-0.0123995919432068	0.999834262363896	0.957174471433748	-0.289049875823848	-0.0163462693524742	0.289204656450477	0.95723373290219	0.00801544019387124	-63.8788444798613	-88.9568321380347	-42.9283036148441
18171	1647946289067	9.68712866706539	-0.1431229510509	0.016629169923842	-0.00317531533917384	-0.064626956359292	-0.124703281549761	-0.0187366742994236	0.0153165949370643	0.00986696951636862	0.561767578125	0.452392578125	0.137451171875	0	0	0	-0.56888084685548	-0.415020451711789	-0.566646686548149	0.427836580210176	0.0133391145698933	-0.0126699890560836	0.999830755378034	0.957058733184668	-0.289427770590009	-0.0164361445070331	0.289587032267417	0.957115999755838	0.00826521348387005	-63.3036336653589	-88.945852958664	-43.5263001100177
18172	1647946289068	9.61422488806703	-0.143301654782099	0.0100564343557193	-0.00546970625636923	-0.0707093482073942	-0.197650863036493	-0.00663366994946746	-0.00308185668507842	0.0103514768800487	0.563232421875	0.453369140625	0.135986328125	0	0	0	-0.568925079083243	-0.414982722939318	-0.566627409896557	0.427839891087676	0.0134454360315777	-0.0126634617420071	0.999829413943513	0.957039775607731	-0.28948473451191	-0.0165365168421919	0.289644762001014	0.957098858645896	0.00822718810398942	-63.5489023383692	-88.9416834957582	-43.2844761485418
18173	1647946289069	9.64326811671447	-0.144166817438301	-0.0378577858839416	-0.0204034487302288	-0.116171100541685	-0.168988679024048	-0.00235391120451476	-0.0321496140126231	0.0134450082557904	0.572998046875	0.44482421875	0.13037109375	0	0	0	-0.569007176767231	-0.414976089891705	-0.566636563575578	0.427725007948842	0.0134356992749035	-0.0124805106485691	0.999831845281468	0.956978003989304	-0.28969232478671	-0.0164759473268921	0.289849239891433	0.957038449495955	0.00805135521115297	-63.9564759910609	-88.9492527903886	-42.8892162137678
18174	1647946289070	9.73061105070767	-0.120305869319496	-0.17940522638791	-0.0352133152806369	-0.256933655153545	-0.0831346897452878	0.000612176476739234	-0.03370258476799	0.0151082787322593	0.56591796875	0.451171875	0.126708984375	0	0	0	-0.569131792525954	-0.415010616813344	-0.566506201074088	0.427698392343257	0.0136738241536252	-0.0121961103751861	0.99983212662163	0.956979055432308	-0.289680546238402	-0.0166213295168904	0.289834632155828	0.957045681262257	0.00771038133680374	-65.1141334975225	-88.9501321871281	-41.7307663992254
18175	1647946289071	9.7860172766031	-0.146011986982366	-0.249358809702631	-0.0759177724558657	-0.314997755864579	-0.0277680406910132	0.00224832439551766	0.00294355687940598	0.0169316577792747	0.56982421875	0.451904296875	0.12744140625	0	0	0	-0.569205403855153	-0.414985750976146	-0.566389917761945	0.427778559264572	0.0139785750887615	-0.0121546620473461	0.999828417094154	0.957003189961391	-0.289584661440583	-0.0169002444380152	0.289740390422546	0.957075225909049	0.00758406941771211	-65.8316024630486	-88.9385956834298	-41.0076383032731
18176	1647946289071	9.74986716740814	-0.148625144787068	-0.128903489775577	-0.0429747683059718	-0.200177135103081	-0.0629849573830299	0.00555519729629342	0.0243301448165054	0.0141627833023543	0.56396484375	0.450927734375	0.130615234375	0	0	0	-0.569153559635046	-0.414912830817694	-0.566415768092123	0.427884033394814	0.0140410409589158	-0.0124222976630696	0.999824252401171	0.957018756055647	-0.289525193577266	-0.0170371019175558	0.28968595017103	0.957089780953081	0.0078231367552074	-65.3362471915889	-88.9257912365956	-41.499620000752
18177	1647946289073	9.7234520774491	-0.125500854110979	-0.105048081982399	-0.0137809781885027	-0.184291506788246	-0.0896141643676458	0.00250143268061508	0.00908009691122795	0.0123969781690685	0.569091796875	0.454833984375	0.131591796875	0	0	0	-0.569147439755856	-0.414942609360186	-0.566364797583404	0.4279307640437	0.0141070939913401	-0.012402793588715	0.999823564740457	0.957056888640571	-0.289395784244671	-0.0170936235784557	0.289556733309294	0.9571291714145	0.0077876455134297	-65.5065713833905	-88.9236916583436	-41.3215603643141
18178	1647946289074	9.70653132131886	-0.101242711749885	-0.17994750031111	-0.011340040436127	-0.263149900955913	-0.107533842895521	-0.00528228510162288	-0.00768762655356221	0.013447116974063	0.56640625	0.448486328125	0.136962890625	0	0	0	-0.569207903178647	-0.414909996175612	-0.566323343690206	0.427936827609013	0.014255130930198	-0.0123611323374697	0.999821980979363	0.957041328061393	-0.289439533298974	-0.0172236159431719	0.289600910952726	0.957116481401824	0.0077041160650424	-65.9010524336108	-88.9188715975398	-40.929724897185
18179	1647946289075	9.7796675096342	-0.0789254244693628	-0.172760343308537	0.0137694966355513	-0.263742469942377	-0.0347416599388133	-0.00667467832272698	0.00302348328457822	0.0119142576423214	0.5654296875	0.4521484375	0.1279296875	0	0	0	-0.569240378516668	-0.414838498684575	-0.566356622083716	0.4279189036456	0.0142983932621029	-0.0124237615599909	0.999820586954891	0.956995057617966	-0.289588863823751	-0.0172843757207662	0.289751644766531	0.95707049902187	0.00774882295065787	-65.8526514351739	-88.9146466968481	-40.9871199124461
18180	1647946289076	9.80132795195223	-0.105222363042561	-0.145202496299797	-0.00221757559068216	-0.23148046262905	-0.0124528512652464	-0.00367591279915888	0.0213198667203339	0.0152237497385737	0.566650390625	0.450927734375	0.1357421875	0	0	0	-0.569218720607142	-0.414743042398955	-0.566391092210953	0.427994611597052	0.0143786788914851	-0.0126656630956196	0.999816400431441	0.956983678995807	-0.289617642451095	-0.0174315609375734	0.28978525105496	0.957058620022524	0.00795651378405426	-65.4660054831273	-88.9020562184956	-41.3756696173688
18181	1647946289076	9.82141232263828	-0.058899787370611	-0.0910908014052768	0.0580950472777264	-0.195437598187045	0.00720748575979435	0.000797548221816973	0.0304410341040834	0.0185517718889386	0.56640625	0.445556640625	0.130615234375	0	0	0	-0.569162564663309	-0.414670508454914	-0.566442714204734	0.428071250994507	0.0143820418842341	-0.0129258224078155	0.99981302251287	0.956985542737562	-0.289606746979483	-0.0175100855296118	0.289778929293578	0.957058438769046	0.00820468880725694	-64.8936531841168	-88.8920017949931	-41.9475358241668
18182	1647946289077	9.79419734313094	-0.109289707687581	-0.0661237165278821	0.0171384861047016	-0.160502091574888	-0.0189872534789171	-0.000425430935450432	0.0442254395289936	0.0139898600929534	0.56494140625	0.449951171875	0.13525390625	0	0	0	-0.569066238787894	-0.414538921621487	-0.566538501624955	0.428199981911777	0.0143832172748922	-0.013383342379604	0.99980698597658	0.956983762212919	-0.289604515903297	-0.0176437872698348	0.289784751016388	0.957052825352481	0.00864219666539001	-63.9036809819799	-88.8742575374938	-42.9376678631816
18183	1647946289078	9.79689185356172	-0.0862664631009605	-0.0857120305302065	0.0338515317039828	-0.190307623935863	-0.0169478012862587	-0.00376535071773111	0.0457385731935884	0.0199454953153452	0.56689453125	0.454345703125	0.131591796875	0	0	0	-0.569017349225687	-0.41435111668616	-0.5666496161101	0.428299685901568	0.0144427293264186	-0.0138457570614752	0.999799831256737	0.956937653323323	-0.289745062315102	-0.0178361014818022	0.289934018738153	0.957003706301816	0.00906481676220955	-63.05902065514	-88.8535819741906	-43.7910659227427
18184	1647946289078	9.77020460414541	-0.0879513067811638	-0.059428868568076	0.0398011346942172	-0.168948372096859	-0.0434480973705664	-0.00507184948589767	0.0442468051341402	0.0152887036057512	0.565185546875	0.45458984375	0.1337890625	0	0	0	-0.568933528438458	-0.414202305967733	-0.566752464238029	0.428418877069743	0.0144561880222667	-0.0143077497675956	0.999793132065055	0.956922067453869	-0.289787431002625	-0.0179833715612875	0.289984784855477	0.956984081962436	0.00950217989915664	-62.1486089632385	-88.8345552042254	-44.7043238629182
18185	1647946289079	9.79422546137105	-0.114147179213563	-0.0523197021913221	0.0152952997486513	-0.158870495874244	-0.0189575983145644	-0.0141358285990958	0.0580556994159819	0.0149202805930401	0.563720703125	0.44873046875	0.12744140625	0	0	0	-0.56878866870494	-0.414092431176339	-0.566926302983308	0.428487427798075	0.0142440508562958	-0.0147794213336155	0.99978931566618	0.956903751931943	-0.289851965322917	-0.0179178050277985	0.290055712844576	0.956957369428486	0.0100138175906629	-60.8002562480319	-88.8238536175983	-46.0567650294844
18186	1647946289080	9.77052729307464	-0.0664544110990506	-0.0483217321619415	0.0613878100456471	-0.174443112293102	-0.0435649464997674	-0.0171658832190015	0.0611320038402757	0.0147874015651319	0.564208984375	0.451171875	0.13330078125	0	0	0	-0.568681266255809	-0.413875108727747	-0.567103614624423	0.428605298690065	0.0142017693110189	-0.0154011864625201	0.999780532519004	0.956853270074744	-0.290009784620792	-0.0180594676408669	0.290224274132448	0.956899748291193	0.0106180235705705	-59.5466959648007	-88.7995870751796	-47.320172806055
18187	1647946289081	9.77546557137337	-0.0673273331123619	-0.0906381349789043	0.0471028205157616	-0.219444285406294	-0.039146695967327	-0.0171295673841599	0.0672441694617448	0.0148265883593901	0.559326171875	0.449462890625	0.1376953125	0	0	0	-0.568553760482369	-0.413733370550864	-0.567266930533294	0.428695170321889	0.0140658552319128	-0.0159098594784128	0.999774488616294	0.95682851413337	-0.290090298070616	-0.0180779840311141	0.290312497591686	0.956867020717445	0.0111426390679568	-58.351767266931	-88.7831696676751	-48.5202058981673
18188	1647946289081	9.746275976557	-0.0690834520937396	-0.0378269373753398	0.059774220404447	-0.174719121397496	-0.0678428287659578	-0.0171885077730932	0.0702921361226783	0.0163704794395082	0.565673828125	0.447998046875	0.135498046875	0	0	0	-0.568423398419703	-0.413492361557398	-0.5674667219821	0.428836130130813	0.0140111727531527	-0.0166229993115541	0.999763653536159	0.956777932819733	-0.29024728085623	-0.0182346709529942	0.290481796860458	0.956807290863449	0.0118378141253631	-57.0086635830512	-88.7542791348283	-49.8731728847608
18189	1647946289082	9.72200433997896	-0.0704290044012152	-0.0332550491259208	0.0576924658241649	-0.176685646091958	-0.0921480953498914	-0.0126667350611645	0.0748370446917249	0.0181575763093198	0.57568359375	0.440673828125	0.134033203125	0	0	0	-0.568274633000893	-0.413227991834208	-0.567739523221414	0.42892703578195	0.013828921073979	-0.0173836907726767	0.999753253676651	0.956691632393798	-0.290528449479955	-0.0182849815549059	0.290774623118352	0.956708433817688	0.0126131365047373	-55.4017565996441	-88.727165595282	-51.4973574936589
18190	1647946289083	9.70054776806158	-0.0473655628634509	-0.0523063931799721	0.0735710752447907	-0.208839743660308	-0.114410475299477	-0.0159307212924318	0.0778879308825285	0.0225932779712419	0.5654296875	0.453369140625	0.13671875	0	0	0	-0.568132303445685	-0.412956306232843	-0.567945469516461	0.429104554368458	0.0138100655965066	-0.0181883402399175	0.999739199175233	0.956643610169865	-0.290672741125547	-0.0185029913183821	0.290933472136479	0.956649644251164	0.0133855498480523	-54.1170350284616	-88.6914161695187	-52.7912790821741
18191	1647946289083	9.70532529812977	-0.0734352002615374	-0.0937987695225827	0.0379403539772204	-0.248034486167109	-0.109875157358864	-0.0175529669303958	0.0748353662504376	0.0240180094858307	0.57080078125	0.44970703125	0.1357421875	0	0	0	-0.568070326028382	-0.412658878541022	-0.568095955951861	0.429273501952327	0.0139592695848136	-0.0188985535702108	0.999723953632008	0.956575608255431	-0.290873820965704	-0.0188553962452374	0.29114986601991	0.956574756592377	0.0140175092945472	-53.3720894654007	-88.6537099381433	-53.548859680821
18192	1647946289084	9.70824109731084	-0.0511197604572329	-0.110419000190494	0.0545747439709358	-0.278125969803386	-0.107821919524904	-0.0160990597287606	0.0763447998431291	0.0256318204019516	0.5732421875	0.452880859375	0.14111328125	0	0	0	-0.567939223047587	-0.41238081039949	-0.568290901044859	0.429456118745542	0.0139750380077645	-0.019697535246222	0.999708310167473	0.956526483478306	-0.291019018572549	-0.0191054241956803	0.291310461050248	0.956514473457822	0.014774212276725	-52.2852417929792	-88.6160868597443	-54.6450020103924
18193	1647946289085	9.75204740579087	-0.0309557293041995	-0.0488501192499036	0.0931601936259259	-0.233403215593211	-0.0637073451279662	-0.0135122328075052	0.0793238086416027	0.034955738456586	0.565185546875	0.449462890625	0.1435546875	0	0	0	-0.567834617326222	-0.412087005885054	-0.568451908843382	0.429663326662854	0.0140934538260147	-0.0204913418192973	0.999690691899099	0.95648041098669	-0.291147450603403	-0.0194521311396011	0.29145599660667	0.956458711559252	0.0154962938933492	-51.4578642144697	-88.574902847357	-55.4807388675096
18194	1647946289086	9.70418797709676	0.015295114509854	-0.0453735199382151	0.138503187528865	-0.251065592296439	-0.112618622902948	-0.0240672411789527	0.083998591713128	0.032900410768728	0.5673828125	0.441650390625	0.13916015625	0	0	0	-0.567713718423603	-0.411748762790879	-0.568669309604907	0.429859635889792	0.0141563453073176	-0.0213851223762744	0.999671083121089	0.956406807097586	-0.291367299545752	-0.0197766552484926	0.291694390115651	0.956372193916348	0.0163281805076534	-50.4559308049907	-88.5304220902864	-56.4965691799902
18195	1647946289086	9.68743002421192	-0.0109013506618854	-0.114098532442148	0.0940090214830277	-0.316803422851639	-0.130217014770531	-0.0256673663087952	0.0611021372345385	0.0311330818825178	0.5703125	0.450927734375	0.135498046875	0	0	0	-0.567703852845939	-0.41137301463915	-0.568889838822949	0.429940611683257	0.0142731882213931	-0.0221015998328675	0.99965383777727	0.956253781302845	-0.29184662650425	-0.0201060275066957	0.292189975601505	0.956209739483403	0.0169691565811482	-49.8361844445062	-88.4923865806248	-57.1456714381952
18196	1647946289087	9.67997457241209	0.00958244560581496	-0.0356778138819654	0.137655718903477	-0.253483260529082	-0.136941029018732	-0.0288114822243083	0.0473751481086172	0.0308705299936242	0.56640625	0.446044921875	0.14208984375	0	0	0	-0.567692922673499	-0.411104865271323	-0.569017759901111	0.430042235383677	0.0144231573347379	-0.0226406938994273	0.999639620819548	0.956165983864117	-0.292112931072915	-0.020411927913736	0.292469799866008	0.956115805998281	0.0174350705933361	-49.4973428467944	-88.4617372611298	-57.500999833083
18197	1647946289088	9.67472988877361	0.00624093029151988	0.0177579085560267	0.150953244460703	-0.205699456845786	-0.141304274615795	-0.0544235909969568	0.0537245786191933	0.024950731071703	0.56103515625	0.4423828125	0.144287109375	0	0	0	-0.567728138873897	-0.41079667533634	-0.56921418428812	0.430030306221086	0.0144826078756389	-0.023117036061043	0.999627859112016	0.956000363838182	-0.292640054528017	-0.020618021900845	0.293007778754055	0.955943199740231	0.0178617037267828	-49.0971218925383	-88.4368351016608	-57.93323932776
18198	1647946289089	9.61489331216482	-0.0453864996631588	0.113479547389203	0.129514831582436	-0.102784040055749	-0.198439054779421	-0.066525847660663	0.0431497744841001	0.0211625591768712	0.56201171875	0.4482421875	0.1298828125	0	0	0	-0.567790215270488	-0.410457695030719	-0.56942839325567	0.429988438202039	0.0145515710886709	-0.0235875249259626	0.999615866444065	0.955802977009645	-0.293268847205281	-0.0208339242195766	0.293647613506994	0.95573898734265	0.018277504066324	-48.7396749809369	-88.4118458391425	-58.3288129476867
18199	1647946289091	9.58793224921136	-0.0471123868906091	0.137975763656118	0.134554969787054	-0.0799811788240803	-0.224924365224115	-0.0846701817389718	0.0173694096622806	0.0138680349804978	0.569091796875	0.443359375	0.13623046875	0	0	0	-0.56796225011756	-0.410198957784373	-0.569623860617337	0.429749176717552	0.0145309448960303	-0.0236357241597659	0.999615027990212	0.955545816396129	-0.294104920286401	-0.0208443908806539	0.294484370397284	0.955480846698024	0.0183113949480242	-48.7013185267781	-88.4101134293059	-58.4173242693862
18200	1647946289092	9.61072717334383	-0.14658056654662	0.138948462456889	0.0414299191945367	-0.0506853772739277	-0.200061108422677	-0.0879687237946608	-0.0162198852270379	0.0134197836103981	0.568603515625	0.4462890625	0.1396484375	0	0	0	-0.56822319567686	-0.409948713034599	-0.569730006239332	0.429502238139201	0.0146995453436119	-0.0235158900614355	0.999615389177913	0.955285361197981	-0.294939760229386	-0.0209861029416236	0.295319830095331	0.955226434281658	0.0181289051521045	-49.1778117565229	-88.4108594823281	-57.9909129711947
18201	1647946289094	9.57014028187301	-0.145959872746011	0.0587402249031315	0.0205407933140618	-0.123353140061841	-0.242070814440485	-0.0865145129524425	-0.0253987261973586	0.0134216624785516	0.56640625	0.443603515625	0.141357421875	0	0	0	-0.568559865724112	-0.409759026312045	-0.569737016690961	0.429228320658912	0.0149945443357784	-0.0231494518245213	0.999619560893236	0.955039599741396	-0.295721178200271	-0.0211742222911993	0.296098845938238	0.954993763144068	0.017674438887171	-50.1477444060029	-88.4195019060984	-57.0677462223336
18202	1647946289093	9.64483645222458	-0.196809795983891	0.0388902112154473	-0.0309376830028192	-0.12683949451708	-0.166648243376084	-0.0833021077629661	-0.0253970334815753	0.0105397462591536	0.565673828125	0.442138671875	0.14794921875	0	0	0	-0.568831117114269	-0.409549816667732	-0.569813030900737	0.428967618458173	0.0151641149662864	-0.0229333182057441	0.999621984818943	0.954792037121944	-0.296511459963501	-0.0212866145462566	0.29688754683519	0.954753903907383	0.0174002157399202	-50.7365695165471	-88.4245452544196	-56.5262707653416
18203	1647946289093	9.61491106802688	-0.222806142122634	0.0817049144786759	-0.0415973427227436	-0.0757954410094907	-0.195236705670759	-0.0772903174806455	-0.0254614793009163	0.0123929040971575	0.57080078125	0.439697265625	0.150146484375	0	0	0	-0.569146249612222	-0.409253472508116	-0.569941348995493	0.428661871989555	0.0153569078904935	-0.022774093131775	0.99962268184654	0.954474409206866	-0.297521189484919	-0.0214416411844879	0.297897243272321	0.95444354599395	0.0171682835847831	-51.3158072866283	-88.4259985178142	-56.0076294577146
18204	1647946289095	9.6145252314686	-0.248556181330976	0.0782953900206224	-0.0651041674218342	-0.0689624685945945	-0.195098767909942	-0.0682780877642886	-0.0316660703155846	0.0143477972585646	0.56689453125	0.437255859375	0.139404296875	0	0	0	-0.569410769976366	-0.40908869870089	-0.569960847907125	0.428441878769017	0.0155821368964055	-0.0225111711724152	0.999625151835521	0.954269214836029	-0.298167986224174	-0.0215897569984096	0.298542229217193	0.954247923321538	0.0168356232602695	-52.0530086635885	-88.431159140761	-55.309182640185
18205	1647946289096	9.63878735664662	-0.250425847776973	0.0772525881209327	-0.0624645127203815	-0.0675066108373416	-0.170776646612868	-0.065302487162501	-0.0408593074190917	0.0144162085099623	0.56982421875	0.446044921875	0.13330078125	0	0	0	-0.569805472802474	-0.408794161698699	-0.569973473050386	0.428181382762362	0.0160351467598778	-0.0222377584859234	0.999624107435345	0.953970360828396	-0.29909607363354	-0.021956534287992	0.299471909750028	0.953963846712506	0.0164181130508141	-53.2125057226272	-88.4289749757595	-54.2054757008086
18206	1647946289097	9.66566193759176	-0.251900259936945	0.0510419252334273	-0.0685216492628793	-0.0887659297251354	-0.144259215790502	-0.0593619262917436	-0.0500951557533319	0.0161677590800032	0.559814453125	0.4462890625	0.143798828125	0	0	0	-0.570107449233593	-0.408687669661752	-0.569918178809238	0.427954617287364	0.0163353162584161	-0.0218064624266731	0.999628748905899	0.953790001963004	-0.299658468417745	-0.0221231657080411	0.30002964786526	0.95379729528971	0.0159037699896262	-54.2886219416925	-88.438705110027	-53.1629586664222
18207	1647946289098	9.68952979661264	-0.278145967227581	0.0486925329001756	-0.0922155357046783	-0.0779954545447561	-0.119796384872922	-0.0514019195907846	-0.0378935159784261	0.0121375716363434	0.559814453125	0.446044921875	0.142333984375	0	0	0	-0.570345421002901	-0.40868955437383	-0.569861203353392	0.427711535733335	0.0164621141166889	-0.0212839889845917	0.999637929758426	0.953660852779911	-0.300071380692705	-0.0220939893243885	0.300432982000814	0.953679274338117	0.0153578977734883	-55.19619665453	-88.4581321576597	-52.2798193396289
18208	1647946289099	9.71417852960153	-0.255548993174899	0.0475715013733948	-0.0680693017031943	-0.082694319222746	-0.0956220111695831	-0.0455429581784678	-0.0471474762098022	0.0154050219420466	0.569580078125	0.444580078125	0.14111328125	0	0	0	-0.570607561077639	-0.408618744521356	-0.569787511764089	0.427527688348378	0.0167458261269581	-0.0208779850646762	0.99964177936247	0.953521765952426	-0.300501594642566	-0.0222493476812792	0.300858470318343	0.953552778485237	0.0148754657336403	-56.2341101956989	-88.4663512790152	-51.267577807021
18209	1647946289100	9.74319104854069	-0.280767009967192	-0.00336037008616332	-0.105452989392654	-0.119628513642152	-0.0667558843595337	-0.0331417930368225	-0.0411160716269155	0.0130719974202374	0.573974609375	0.43994140625	0.147216796875	0	0	0	-0.570824768855231	-0.408602012550357	-0.569743160040589	0.427312777936881	0.0168742538535239	-0.0204367661192829	0.999648737381023	0.953397363590642	-0.300896370303328	-0.0222450317306442	0.301245293167049	0.953437839048183	0.0144069572023405	-57.0709561673524	-88.4813198685478	-50.4541525916974
18210	1647946289101	9.73801904032499	-0.2831215728237	0.041096729600718	-0.091973658212516	-0.0728979400462196	-0.0711737834942987	-0.02247533487297	-0.0412154856037865	0.0136332645836011	0.56982421875	0.439453125	0.141845703125	0	0	0	-0.571016756637756	-0.408589314773619	-0.569643284310688	0.427201549776514	0.0171226009851136	-0.0200822971168679	0.999651698281964	0.953327678392369	-0.301107215442738	-0.0223781683642188	0.301451744308308	0.953378805171811	0.0139892709834449	-57.9892487761882	-88.4877344988636	-49.5483723480702
18211	1647946289102	9.73543695915987	-0.28508612857287	0.0613757016396087	-0.0832110791726355	-0.0499484874405251	-0.0733673929666825	-0.0134000948837578	-0.0397902201085105	0.0156541960191833	0.56591796875	0.44189453125	0.138671875	0	0	0	-0.571289103344205	-0.408466050467473	-0.569524411226813	0.427113791667314	0.0175948612645117	-0.0197990540161341	0.999649147609875	0.953207868888581	-0.301458589166147	-0.0227481363378685	0.301803213279734	0.953273683932386	0.0135684920313553	-59.1853564106659	-88.4822069895117	-48.3734092165268
18212	1647946289103	9.71368405268862	-0.285646468594408	0.030737886922748	-0.0907741659125033	-0.0753702261062909	-0.0954719887346513	-0.00119679300804636	-0.0383783543796651	0.0163087235117818	0.56787109375	0.44677734375	0.139892578125	0	0	0	-0.571433445043807	-0.408499106067047	-0.569383357305873	0.427077148359501	0.017862145531032	-0.0194811381686857	0.999650653484847	0.953201344077518	-0.301467179383081	-0.0229071474353024	0.301808120178768	0.953277517310915	0.0131845964555807	-60.0766926629025	-88.4854679016692	-47.4824649422036
18213	1647946289104	9.70815737950879	-0.312719145611704	0.0752105943648192	-0.101031581501815	-0.0204497145239319	-0.0997504773911597	0.00646095379355122	-0.0338679632198088	0.0167593750252164	0.570556640625	0.446044921875	0.13720703125	0	0	0	-0.57156586487238	-0.408597941556893	-0.569213605401159	0.427031679965751	0.0180871871633662	-0.019063212645558	0.999654664163654	0.953225756049718	-0.301383332922197	-0.0229944480288767	0.301717602509303	0.953312477921242	0.0127203685363158	-61.0489369024854	-88.4941873078162	-46.5049442271446
18214	1647946289105	9.7085422987414	-0.290028299487378	0.0728207741353188	-0.077628876784192	-0.0272467528633531	-0.0998894460181159	0.0125290042277546	-0.0278323226069595	0.0186714230275242	0.5673828125	0.43896484375	0.134521484375	0	0	0	-0.571655626000773	-0.40864099233214	-0.569069497206544	0.427062398247094	0.0183448934697887	-0.0188525239301761	0.999653963741976	0.953260213055002	-0.301260494778489	-0.0231749971337982	0.301593154912232	0.953355493311536	0.012444769294937	-61.7645933159581	-88.4926609235539	-45.7818628167868
18215	1647946289107	9.68169998825022	-0.292037527989828	0.0918488088858377	-0.0707318426397206	-0.00392231506379723	-0.126407509400485	0.0184530463111095	-0.0294524344920971	0.0220162702035821	0.571044921875	0.436767578125	0.1376953125	0	0	0	-0.571785446287865	-0.408778823893579	-0.56879802293653	0.427118350873693	0.0187373644793535	-0.018420582567699	0.999654737051866	0.953355711579774	-0.300939574966238	-0.0234149400461281	0.301266988517812	0.953465287442079	0.0119225530991385	-63.0154553096883	-88.4943462373161	-44.5115492565506
18216	1647946289108	9.70802410358412	-0.318665647004082	0.0670044719729962	-0.100227109272373	-0.0183486285043374	-0.0997379463961785	0.0153007294379042	-0.0233435449548226	0.0249781031491593	0.56884765625	0.442626953125	0.145263671875	0	0	0	-0.571869642052592	-0.408802433380448	-0.568646960724642	0.427184172248332	0.0190424090417047	-0.0182705599423624	0.999651726001251	0.953397364932382	-0.300788506885463	-0.0236587967911144	0.301116009534329	0.953515841905632	0.0116913659217309	-63.7029969482956	-88.4877946797174	-43.8149592267548
18217	1647946289108	9.70336464815803	-0.29785999161685	0.113982492535463	-0.061939006663784	0.0215845357432132	-0.104304655402771	0.0166806339415862	-0.0218631014047969	0.0281219092961332	0.568115234375	0.43798828125	0.13671875	0	0	0	-0.572031142252708	-0.408733754724137	-0.568491610954201	0.427240422147612	0.0195080120476133	-0.0181483185187247	0.999644974979064	0.95338206488707	-0.300804678864479	-0.0240662320462867	0.301134647321789	0.953513074744222	0.0114341800843433	-64.5869988397849	-88.4732077010917	-42.9320643056265
18218	1647946289109	9.70419019331167	-0.251684458787258	0.11317596920238	-0.0150740781253926	0.0079749212879239	-0.104589219720999	0.0137387935614087	-0.0187602890725894	0.0264768144090764	0.561767578125	0.446044921875	0.1416015625	0	0	0	-0.57210896122264	-0.408738148440006	-0.568353593912049	0.427315638358632	0.019814636594186	-0.0180472425597463	0.999640774084686	0.953418272624054	-0.300668942447982	-0.0243266206814242	0.300999962796021	0.95355780322076	0.0112489249971756	-65.1836052304412	-88.4642007119085	-42.327370835111
18219	1647946289109	9.75476188570159	-0.279143583767939	0.0914664896177683	-0.0444334901601029	-0.0036145441779864	-0.0536055177787631	0.0152486746367047	-0.0203033361813231	0.0265375041875961	0.5693359375	0.442626953125	0.14111328125	0	0	0	-0.572207755444064	-0.408754697151816	-0.568234009453161	0.427326564429101	0.020059416114225	-0.0178577585338676	0.999639295088635	0.953428189671703	-0.300623209779097	-0.0245025076564206	0.300952333376061	0.953575789437977	0.010995764331987	-65.8313276664763	-88.4610421923027	-41.6768566916251
18220	1647946289110	9.72838098294188	-0.257158160890231	0.112244713384619	-0.0149962594098723	0.0108429888599569	-0.0802784750803767	0.0124280585399864	-0.0126011827254346	0.0234206474916684	0.57080078125	0.441650390625	0.13818359375	0	0	0	-0.572264465995532	-0.408750984382721	-0.568122988686946	0.427401782226534	0.0203178049831386	-0.0178062281714795	0.999634995905492	0.953460883383183	-0.300500698631478	-0.0247320435903277	0.300831399057391	0.953615367095298	0.0108720274500101	-66.2700566912956	-88.4518975098904	-41.2308523569586
18221	1647946289110	9.75511030482035	-0.25936518969808	0.0897025064758136	-0.0205988517049756	-0.0098473504382808	-0.0537441695201153	0.0110682409693333	-0.00340302341571746	0.0219224048186268	0.571044921875	0.442626953125	0.136962890625	0	0	0	-0.572334554974715	-0.408713573207695	-0.568034883834847	0.427460808735053	0.0205791716450607	-0.0177834995996281	0.999630053988171	0.953467103735434	-0.300460944142746	-0.0249740493155002	0.300793915810754	0.953628317630533	0.0107727445153871	-66.6666836891211	-88.4414519545277	-40.8319495034259
18222	1647946289111	9.75302498017997	-0.237503112934653	0.114447458359355	0.00959666506946816	0.00669882392804466	-0.0561067661199086	0.00509425107792701	0.00126050370743997	0.020138773276176	0.57177734375	0.436767578125	0.135986328125	0	0	0	-0.572360943242826	-0.408668569458594	-0.567985514442008	0.42753409965861	0.0207649114414292	-0.0178544952941583	0.999624947393082	0.953478206850225	-0.300409187931538	-0.0251719857777106	0.300745951784075	0.953643296418585	0.0107859019736998	-66.805432334793	-88.4307313489138	-40.6902510621324
18223	1647946289111	9.73119421868724	-0.238502093823563	0.087364718307944	0.00366187172012103	-0.0175311454942893	-0.0781953049650461	0.000356505570422017	-0.0078722085524364	0.0213265277139892	0.567138671875	0.439453125	0.13916015625	0	0	0	-0.572489347362237	-0.408640129929533	-0.567832881490102	0.427592107114458	0.0211581258196432	-0.0177174739916972	0.999619139886364	0.953485959149211	-0.300356468289185	-0.0255052477376455	0.300693963053985	0.953662457619153	0.0105383827358683	-67.5503259896343	-88.41862757591	-39.9422641171571
18224	1647946289112	9.75543154632792	-0.240943885595749	0.0895261401732222	0.00440951224924477	-0.0154152874120184	-0.0538833261599194	-0.00854182237328569	0.00142404299926629	0.0179148840046302	0.576904296875	0.4423828125	0.138427734375	0	0	0	-0.572540269152644	-0.408562288824545	-0.567816080874947	0.427620619999647	0.0213235089005294	-0.0177830034805789	0.999614462057937	0.95345645471748	-0.300434923003134	-0.0256835744723344	0.30077582503543	0.95363652500694	0.0105489926981342	-67.6706149186937	-88.4089451684367	-39.8268338438356
18225	1647946289113	9.76085684241596	-0.217362952383394	0.041851792043746	0.0153258402763569	-0.0682955106823285	-0.0495718220010257	-0.0146706861445184	0.00605821737759025	0.019179235721622	0.573486328125	0.43603515625	0.137939453125	0	0	0	-0.572644652201273	-0.408438662090286	-0.567786107806889	0.427638746369741	0.021593590182801	-0.0178342475008941	0.999607751310029	0.953395109893875	-0.300605923826427	-0.0259584859131834	0.300950961609133	0.953581678817571	0.0105119232303594	-67.9544485304662	-88.3951569044948	-39.5534603709295
18226	1647946289112	9.72903763015885	-0.220041704904074	0.112984727359236	0.034890657194954	-0.000331638165038811	-0.0805684066609196	-0.0251363622145704	0.0107903118818999	0.0156386850268135	0.564208984375	0.438720703125	0.142578125	0	0	0	-0.572700041012227	-0.408299927962541	-0.567834681361516	0.427632560141815	0.0217098869377001	-0.0179824260770006	0.99960257760849	0.953315968034747	-0.300843124664682	-0.0261166504736844	0.301193203607131	0.953504088451841	0.0106116637007544	-67.8872103435404	-88.3846070592308	-39.6351509606871
18227	1647946289113	9.70173076677679	-0.245804739071683	0.134763212436338	0.018476725586616	0.0276641088609662	-0.106964609675753	-0.0265950829953453	0.00167291256963487	0.0124082002932375	0.565185546875	0.443115234375	0.1455078125	0	0	0	-0.572850001325909	-0.408098429396644	-0.567885356291947	0.427556744788416	0.0219237880663202	-0.0180480570564517	0.999596726261801	0.953164800340327	-0.301301803819851	-0.0263455196776954	0.301655782157424	0.953358007598086	0.0105970958097972	-68.0882718277634	-88.3727578063311	-39.4618263966647
18228	1647946289114	9.70670353873683	-0.245943597312005	0.0860801369227029	0.00491927708363444	-0.0190196362155864	-0.102506849778782	-0.0235150111906003	-0.00292803468288737	0.010987113902593	0.57666015625	0.4375	0.141357421875	0	0	0	-0.572931566480368	-0.408006391888966	-0.567901275691494	0.427514146404623	0.0220378504914425	-0.0180521757607935	0.999594143688336	0.953091140716587	-0.301524877603348	-0.0264579982961805	0.301880126264171	0.953287400072291	0.010560408616198	-68.2411497968967	-88.3675553237578	-39.3224183759457
18229	1647946289114	9.68239624887135	-0.246483683749211	0.0834718919929994	0.00444915909136971	-0.0217171830619832	-0.126819958688392	-0.0234688769601813	0.00165523271074642	0.0110407442250247	0.578857421875	0.4404296875	0.13818359375	0	0	0	-0.573049358780479	-0.407803730320475	-0.567991110525682	0.427430284726983	0.0221644318010149	-0.0181698718519033	0.999589212486721	0.952936536525646	-0.301998938469832	-0.0266195138498248	0.302358554232296	0.953135088494795	0.0106210998759741	-68.2481604158807	-88.3576673941249	-39.3440816614457
18230	1647946289115	9.68187411361319	-0.271823173190117	0.0832159973454211	-0.018982674280274	-0.0148878217654996	-0.126670790226534	-0.0263137682742733	0.00630571960573808	0.00789140717824134	0.574951171875	0.436279296875	0.1337890625	0	0	0	-0.57310437959814	-0.407692225540592	-0.568046135917475	0.42738975980762	0.0222212734059681	-0.0182538032079803	0.999586421314666	0.952854603149685	-0.302250084890688	-0.0267018995584296	0.302612491917756	0.953053873006147	0.0106768386383794	-68.2058442506792	-88.3520968895946	-39.4016064803943
18231	1647946289115	9.70613558467439	-0.272930752477531	0.0860963750073652	-0.0153097905217909	-0.0113202979937443	-0.102352186570894	-0.0306816464166521	0.00335219621602375	0.00304957908071885	0.56201171875	0.440673828125	0.1396484375	0	0	0	-0.573244487627711	-0.407624727850706	-0.567952030810399	0.427391307056454	0.0225451438859618	-0.0181382650645218	0.99958127224734	0.952812778109174	-0.302357503794427	-0.0269768376775394	0.302720211348761	0.953022005642919	0.0104656772981619	-68.7962126348749	-88.3418696874199	-38.8177525833501
18232	1647946289116	9.68183843266851	-0.272921200342608	0.0837714021346686	-0.0160524245655404	-0.0134151867261491	-0.126663339199903	-0.0294083531480638	0.00175700147222841	0.0076806878070195	0.579833984375	0.439208984375	0.13720703125	0	0	0	-0.573319283890242	-0.407514568686647	-0.567999859461027	0.427332463873236	0.0226160719207812	-0.0181776374577262	0.999578954754116	0.952721480234803	-0.302637683256332	-0.0270594488570408	0.303002135949701	0.952932319826385	0.0104737500554327	-68.8403520557671	-88.3372871485337	-38.7905337899203
18233	1647946289117	9.70809541734677	-0.298263140675274	0.0614013816307309	-0.0448544567643375	-0.0269067943570712	-0.0999579995164357	-0.0234851364397259	0.000125708169028438	0.0110215713832403	0.576171875	0.437744140625	0.142578125	0	0	0	-0.573426923538143	-0.407434866808604	-0.567981275275181	0.427288735642558	0.0227882004908702	-0.0181157575294974	0.99957616880732	0.95265224639442	-0.30284233140328	-0.0272069798009817	0.303206852425952	0.952868480767078	0.0103567853404719	-69.1598480422046	-88.3317949615842	-38.4833716541139
18234	1647946289117	9.73384862617196	-0.22685334687121	0.0655770193010554	0.0262764543634281	-0.0452665729615692	-0.0761154710108247	-0.0236575707352209	-0.00143615560152303	0.0140504457267697	0.5693359375	0.441650390625	0.14111328125	0	0	0	-0.573511620703036	-0.407329580212383	-0.56799438064991	0.427258022221592	0.022929993268258	-0.0181438160031357	0.999572417261282	0.952576806834699	-0.303066391062595	-0.0273530562991172	0.303433093925706	0.952796706831598	0.0103340680051628	-69.303282295032	-88.3244276367964	-38.3535119203874
18235	1647946289118	9.75759389346428	-0.253171049629861	0.0669536926380283	0.00440972184313562	-0.0363210559723902	-0.0516485800034303	-0.0374359134500377	-0.00738751410077679	0.0132728067563332	0.56982421875	0.444580078125	0.144775390625	0	0	0	-0.57368907206511	-0.407147577981814	-0.568023849045061	0.427154076713134	0.0231595133191544	-0.018115173167879	0.999567645256647	0.952419637991654	-0.303540488981787	-0.0275681830475659	0.303908654221406	0.952646320545981	0.0102233966732311	-69.6531834830668	-88.3151028607632	-38.0322134187188
18236	1647946289118	9.75505965405618	-0.255193640918886	0.0905586604371171	0.0112352814959126	-0.012972034079374	-0.053885243932724	-0.0451802768646188	-0.00427788156421788	0.015969963026951	0.56201171875	0.4375	0.1435546875	0	0	0	-0.573831834217612	-0.406981283082203	-0.56806850910361	0.427061389292004	0.0233288083711311	-0.0181226210950545	0.999563573418234	0.952277885748247	-0.303969609993494	-0.0277363392547419	0.304339604742521	0.952509342109068	0.0101665225184294	-69.87001275504	-88.3071868515716	-37.8412903378286
18237	1647946289119	9.7812875144179	-0.281195365753778	0.0677492679815202	-0.0198094221094743	-0.0278490199273319	-0.0271838982847399	-0.0436244470850781	-0.00123993252805205	0.0160873126491721	0.577880859375	0.44091796875	0.14404296875	0	0	0	-0.573966609529811	-0.406747171382963	-0.568241512194563	0.426873111750608	0.0233166447815886	-0.0182154552836881	0.99956216978482	0.95205263486177	-0.304672170072622	-0.0277605698068414	0.305044446808806	0.952283080796906	0.010238139433623	-69.7559506791297	-88.3044666290769	-37.9977047846098
