// Start Time : 22/03/2022 10:50:49																																
// Update Rate : 100Hz																																
// Filter Profile : 46.1 human																																
// Firmware Version : 4.4.0																																
PacketCounter	Time_Of_Arrival	Acc_X	Acc_Y	Acc_Z	FreeAcc_X	FreeAcc_Y	FreeAcc_Z	Gyr_X	Gyr_Y	Gyr_Z	Mag_X	Mag_Y	Mag_Z	VelInc_X	VelInc_Y	VelInc_Z	OriInc_q0	OriInc_q1	OriInc_q2	OriInc_q3	Mat[1][1]	Mat[2][1]	Mat[3][1]	Mat[1][2]	Mat[2][2]	Mat[3][2]	Mat[1][3]	Mat[2][3]	Mat[3][3]	Euler_X	Euler_Y	Euler_Z
18017	1647946288951	6.64573733679868	0.532354319998573	7.20457183003847	-1.38777878078145E-15	-4.33680868994202E-16	0.00337501588870914	0.0265926984744214	-0.00939893172993281	-0.00565102247160465	0.650390625	-0.377197265625	0.26708984375	0	0	0	0.184971598704781	-0.314304452547582	0.406820310788035	0.837553254134738	0.471419891678182	0.565192556161734	0.676993840584607	-0.797742144432763	0.600565484805848	0.0541162587004476	-0.375993027496452	-0.56557799897033	0.733996437562724	4.21668706643823	-42.6091754235206	50.168946283145
18018	1647946288951	6.64165306327268	0.579868036362492	7.1856174066572	-1.04083408558608E-15	1.04083408558608E-15	-0.0106008881602442	0.0294910802766151	-0.00660950056438844	-0.00789701256332174	0.65771484375	-0.3701171875	0.265869140625	0	0	0	0.185132422799789	-0.314921164092967	0.400337694121381	0.840404888788842	0.481108782143812	0.5562872744132	0.677553546275149	-0.789495746811043	0.610911433387712	0.0590227610625316	-0.381091597272061	-0.563322011714529	0.733101292869222	4.6030153596759	-42.652763051978	49.1448910323134
18019	1647946288951	6.64354479213771	0.486731630750923	7.14487713943047	0.0732019181366419	-0.0126535102877825	-0.044507115395028	0.0218182442130446	-0.0101308823685682	-0.00839467654622515	0.65087890625	-0.369873046875	0.258544921875	0	0	0	0.185084666542923	-0.314624675511182	0.403508010207175	0.839009097369525	0.47638519851626	0.560629376544266	0.677312221054819	-0.793558189156915	0.605849903818683	0.0566682844710441	-0.378579638988446	-0.564482591581425	0.733509959540358	4.41768631317026	-42.6339658707504	49.6443508144401
18020	1647946288951	6.59446154836258	0.581748548593269	7.18927847749839	-0.0411821702140715	-0.00997648553342188	-0.0398022539489276	0.0297144826327941	-0.0111025631525133	-0.00702271671088048	0.652099609375	-0.378173828125	0.264892578125	0	0	0	0.185242765172107	-0.314604797972783	0.403515014243423	0.838978290734645	0.476398908745269	0.560524148445645	0.677389665374075	-0.793637199297207	0.605721502463043	0.0569337979200339	-0.378396717266419	-0.564724836060181	0.733417878087792	4.4388574268301	-42.6399975054526	49.6382299561014
18021	1647946288952	6.71286979752661	0.541023641488404	7.11720751541554	0.0762525648911978	0.0701222035407637	-0.0147672696402523	0.027807294748338	-0.00545580636324803	-0.00960424348682753	0.65478515625	-0.36962890625	0.254150390625	0	0	0	0.185383638571007	-0.314567835430234	0.403513605526849	0.83896171165175	0.47644769413492	0.560433470516224	0.677430380097216	-0.793696390154073	0.605619353409794	0.057194746541062	-0.378211098475324	-0.564924352369982	0.733359966925823	4.45947118573769	-42.6431687451314	49.6307604104461
18022	1647946288953	6.6202987183973	0.556043094695034	7.17189828471945	0.000633901536771855	-0.00557439266385996	-0.0365105920196402	0.0174308425497198	-0.0126686645301098	-0.00456613947848947	0.655029296875	-0.383544921875	0.26220703125	0	0	0	0.185489498185939	-0.314581575806674	0.403510122095438	0.838934836320583	0.476436027059028	0.560334239197826	0.677520665738546	-0.793740553737513	0.605546454858506	0.0573535034741622	-0.378133105496827	-0.565100903725068	0.733264156451437	4.47238124579076	-42.650201603718	49.6264459761168
18023	1647946288953	6.66481485624351	0.605975749233015	7.1475246092158	-0.00761850100723938	0.0612750073483688	-0.021351474840559	0.0296287546993018	-0.00780944972662443	-0.00611159974928081	0.65625	-0.373291015625	0.262939453125	0	0	0	0.185639380972951	-0.314549992535223	0.403523787407085	0.838906952781244	0.476453710385466	0.560252089938277	0.677576163674398	-0.793823553535418	0.605413146457243	0.057611526183063	-0.37793653926595	-0.565325143449797	0.733192644856141	4.49285584774178	-42.6545250460815	49.6212508104537
18024	1647946288954	6.66812111945488	0.553903936311682	7.14270173383739	0.0384243577037138	0.0322593885377725	-0.0256388088448691	0.0234195525843157	-0.00799309061604417	-0.00577732552899522	0.6533203125	-0.373291015625	0.260986328125	0	0	0	0.185762826896214	-0.314530903086526	0.403528964893757	0.83888429335569	0.476469370990695	0.56017192171976	0.677631431254869	-0.793884520534049	0.605313093270601	0.0578223760459635	-0.377788706242199	-0.565511695044381	0.733124966294203	4.50964591380007	-42.6588308418431	49.616274964277
18025	1647946288956	6.66865069205621	0.555749947888627	7.14206389626301	0.0383935304430007	0.0322066646499022	-0.0256385142215176	0.0204348501468007	-0.00748797607893982	-0.00261716235618419	0.660888671875	-0.365478515625	0.25830078125	0	0	0	0.185869386813664	-0.314521055462541	0.403542614421029	0.838857815760504	0.47645972803394	0.560110080761398	0.677689327783229	-0.793949423636632	0.605211858783507	0.0579906776548778	-0.377664454600751	-0.565681273702138	0.733058153432484	4.5231281089225	-42.6633417739076	49.613725401812
18026	1647946288957	6.644891354108	0.556058891232051	7.14411337160423	0.0269994679567979	0.0162805688651783	-0.0402186814840739	0.0218536219535052	-0.00624341504954775	-0.00449032549932613	0.657958984375	-0.379150390625	0.262451171875	0	0	0	0.185980704908233	-0.314498972651819	0.403552342808044	0.838836742290731	0.476471805630179	0.560047583916383	0.677732485711685	-0.794010546423184	0.605113368031951	0.0581813028195828	-0.377520688980449	-0.565848491717041	0.733003147205574	4.53827351084524	-42.6667045802292	49.6098532500778
18027	1647946288960	6.64719862898655	0.567331276540173	7.16603488208664	0.0119099635285317	0.0102046823915214	-0.0219302932493068	0.0217941792664916	-0.00654238046755419	-0.00598682460401155	0.65966796875	-0.374755859375	0.26171875	0	0	0	0.18609674073582	-0.314481440934813	0.403554787558773	0.838816404127544	0.476489913491916	0.559968809177264	0.677784844245624	-0.794064693896755	0.605023073051798	0.0583810155925019	-0.377383921553529	-0.566022979943002	0.732938852790138	4.55418393541576	-42.670784529292	49.604800771535
18028	1647946288961	6.64808649916513	0.537422484654461	7.15219883673357	0.0424420540700804	-0.00130500751842005	-0.0332179572576603	0.0217947279379536	-0.00654251377951254	-0.00598693615031246	0.65673828125	-0.378662109375	0.255859375	0	0	0	0.186210763556363	-0.314459331063242	0.403557857534895	0.838797911457141	0.476512769458209	0.559895551815357	0.677829293849598	-0.794118400394194	0.604933214315205	0.0585813312723569	-0.377242026686628	-0.566191466975309	0.73288176128603	4.57009855729899	-42.674248398737	49.5997445195496
18029	1647946288961	6.65046114813414	0.548912003630613	7.1740448364438	0.0273134508923559	-0.00738596641267765	-0.0149296535037013	0.0249151476120346	-0.00824726683046187	-0.00735790658476668	0.65185546875	-0.37548828125	0.26611328125	0	0	0	0.18634488547065	-0.314443132208046	0.403558153424407	0.838774056031066	0.476532666823752	0.559798479467712	0.677895478547748	-0.794177957301076	0.604832800927227	0.058810331231992	-0.377091487025275	-0.566394690395455	0.732802200532247	4.5883833681525	-42.6794063987347	49.5936602075211
18030	1647946288962	6.65095306549112	0.551089725457398	7.17342181434092	0.0273134494232921	-0.00738596760455276	-0.0149296535005039	0.0233486244584461	-0.00649674919448182	-0.00607128445875386	0.65576171875	-0.3671875	0.257568359375	0	0	0	0.186465459586339	-0.314417606963627	0.403563343978716	0.83875433126109	0.476556391655965	0.559724958231694	0.677939508145361	-0.794237052569733	0.604734519555944	0.0590225819732094	-0.376937010516597	-0.566572265461318	0.732744401625042	4.60523375460008	-42.6828380131176	49.5885377375197
18031	1647946288964	6.62526487060911	0.542350254626004	7.15304415048153	0.0307882258695694	-0.0173849002550124	-0.0477977839656667	0.0249621003281996	-0.00615133436416251	-0.0046592442662635	0.655517578125	-0.370361328125	0.26025390625	0	0	0	0.186589703074947	-0.314396689324629	0.403577654197746	0.838727656322575	0.476559597547914	0.559657110281219	0.677993266114528	-0.794309849916535	0.604618719477295	0.0592289319776082	-0.376779527456764	-0.566762845438294	0.732678008896232	4.62168153583005	-42.6870281021974	49.5849190892937
18032	1647946288964	6.62991924803587	0.531442847926172	7.18414706207002	0.0312770835362457	-0.0408873532539802	-0.0225096703675085	0.0248425094184739	-0.00675096150119043	-0.00765181425856695	0.660400390625	-0.369873046875	0.26318359375	0	0	0	0.186719533130689	-0.314367729537373	0.403578315323216	0.838709300040157	0.476594948052784	0.559572581331095	0.678038186028648	-0.794366964093387	0.604520718696664	0.0594628205143746	-0.376614367553365	-0.566950815229085	0.73261749314595	4.64023410630564	-42.690529538307	49.5785492327439
18033	1647946288965	6.67475762730031	0.549796541774672	7.14645773864085	0.0533624874321107	0.0144583715628842	-0.0186347477299886	0.0265603200514	-0.0114966492356336	-0.00835013016380977	0.655517578125	-0.3740234375	0.2607421875	0	0	0	0.186863202910813	-0.314363830375664	0.403576208013228	0.838679777909971	0.47660325295441	0.559456344565948	0.678128260580683	-0.79442847345918	0.604416775447153	0.0596972538345252	-0.376474089188874	-0.567176304232621	0.732515051098907	4.65909657428348	-42.6975513016998	49.5721806507514
18034	1647946288966	6.65307767874898	0.560177207675686	7.17074725034743	0.0269470654892785	-0.00746385184936448	-0.0149286979954919	0.026471626901864	-0.00820236996809552	-0.00744270629726307	0.6572265625	-0.372802734375	0.2646484375	0	0	0	0.187002457116525	-0.31433785272825	0.403578938560649	0.838657162209228	0.476631509384906	0.559364833031543	0.678183889390674	-0.794492636331203	0.604308242765284	0.0599416261159938	-0.376302876785392	-0.567382173929997	0.732443590749151	4.6785386196149	-42.7018882432558	49.5658768995645
18035	1647946288967	6.65185934666765	0.553182744199607	7.14748778017887	0.0416711450396127	-0.00148315004673337	-0.0332146673591112	0.0249490164347103	-0.0118436850585777	-0.00976175895316733	0.65966796875	-0.376220703125	0.260009765625	0	0	0	0.187140842305083	-0.314341147577074	0.403568740467473	0.838629965955647	0.476643829314851	0.55923754390056	0.678280199820209	-0.79454181241544	0.604221153717683	0.0601673144128858	-0.376183423743872	-0.567600358432004	0.732335896162544	4.696762807955	-42.7093975276633	49.5587084351645
18036	1647946288968	6.60355907497106	0.584539017009972	7.16524052055825	-0.011647467895134	-0.0218250855197768	-0.05109233044187	0.0248452175383281	-0.00675151328575522	-0.0076537217359417	0.65380859375	-0.37353515625	0.25927734375	0	0	0	0.187270672910125	-0.314312159792005	0.403569375958338	0.838611543006219	0.476679249990964	0.559152974828791	0.678325027820856	-0.794598773501125	0.604122907712773	0.0604011715711913	-0.376018193414307	-0.5677882203047	0.732275122549348	4.71532549200624	-42.7128930582012	49.5523286123203
18037	1647946288969	6.67977075655395	0.536705641275028	7.15248294453543	0.0682472334271504	-0.00304981300475039	-0.0116295085455729	0.0236688375841407	-0.0142833116374148	-0.00609520656441656	0.662841796875	-0.379150390625	0.261962890625	0	0	0	0.187401000375587	-0.314332289957595	0.403570979047476	0.838574112061006	0.476651352721352	0.559035979639852	0.678441052278691	-0.794660721993461	0.604022659857781	0.0605884749697605	-0.375922631494482	-0.568010034987448	0.732152153096487	4.73067223479213	-42.7219411535657	49.5480647998329
18038	1647946288970	6.63162391258584	0.567892585153116	7.17010552437792	0.0149291756884076	-0.0233917795980513	-0.0295089220766282	0.0249215801969755	-0.00824905492699719	-0.00736000539667304	0.655029296875	-0.365478515625	0.257080078125	0	0	0	0.18753370343965	-0.314309692046129	0.403571555038679	0.8385526384931	0.47667883489906	0.558944663444122	0.678496979777074	-0.794719305749669	0.603922220075743	0.0608208612858335	-0.375763906499865	-0.568206666016972	0.732081055120154	4.74919292245178	-42.7263030961785	49.5418127209411
18039	1647946288971	6.65698210054798	0.539689939800148	7.15346267913271	0.0564300502430434	-0.01892863524882	-0.0262088815753358	0.0234595130402364	-0.0115906551432277	-0.00818100218625938	0.657470703125	-0.36865234375	0.269775390625	0	0	0	0.187657530839201	-0.314320515151946	0.403568044319764	0.838522568854214	0.476670894717072	0.55883260292992	0.678594857062884	-0.794771049992	0.60383496944651	0.061010718469348	-0.375664526172275	-0.568409580827155	0.731974529747899	4.7646398941202	-42.7339375586708	49.536611824681
18040	1647946288972	6.65965627281673	0.551585083571376	7.17498909140659	0.0414059160487557	-0.0249251112109221	-0.00792322395090927	0.0296724785368511	-0.0114053775416546	-0.00852064971907557	0.658447265625	-0.3720703125	0.262451171875	0	0	0	0.187818340839768	-0.314300462584474	0.403568243145834	0.838493985182701	0.476695784686741	0.558716306161488	0.678673130520985	-0.794841871792638	0.603713887936763	0.061285727192001	-0.375483059147903	-0.568652469212558	0.731878980126765	4.78663912318986	-42.7400435921297	49.5292467118388
18041	1647946288974	6.65421520883958	0.557688482221206	7.1199992415085	0.0554100179320456	0.00468929730345299	-0.0514941521316263	0.0249387466217449	-0.0100479345760056	-0.00856148396071086	0.6572265625	-0.3828125	0.2587890625	0	0	0	0.187940638325232	-0.314304740978113	0.403569176128227	0.838464528971721	0.476688899755732	0.558615611043572	0.678760850335438	-0.794898145635865	0.603620473090177	0.0614757068365558	-0.37537265605573	-0.568850528315486	0.731781692529172	4.80204330819552	-42.7468872409389	49.5245560993011
18042	1647946288975	6.70902497120462	0.591250392512134	7.18116124370656	0.0331169829656707	0.0185528210489556	0.0325261166663413	0.0250001734242099	-0.00974643782428475	-0.00706581548664758	0.664794921875	-0.372802734375	0.262939453125	0	0	0	0.188076223814727	-0.314288484244019	0.403569681393255	0.838439976961581	0.476708521863487	0.558517526129368	0.678827782422803	-0.794958291349646	0.603517692591478	0.0617066426206268	-0.375220335532578	-0.569055856428338	0.731700165414379	4.82053205360383	-42.7521095990158	49.5184234628489
18043	1647946288976	6.61088058509125	0.578130434163277	7.16861631064564	0.00188270430585454	-0.0390818519734115	-0.0440894405114598	0.023508471562129	-0.00949123276500613	-0.00548502152070433	0.660400390625	-0.378173828125	0.25439453125	0	0	0	0.188185060671307	-0.31430404432695	0.403582732641267	0.838403440220558	0.476667891267061	0.558435651618294	0.678923666133877	-0.795024954221912	0.603414721707889	0.0618546343505324	-0.375130702021922	-0.569245374709222	0.731598701319718	4.83270548710372	-42.7595916665604	49.5166872087665
18044	1647946288976	6.68235236907334	0.575303465401923	7.1373466059657	0.0510780624086623	0.0146927270269061	-0.018622916328038	0.0281837528087809	-0.0111507443937587	-0.00694057467733776	0.659912109375	-0.378662109375	0.268798828125	0	0	0	0.188336593325263	-0.31428740051889	0.403587450960384	0.838373381565167	0.476681198604758	0.558330315360286	0.679000952758106	-0.795097588715407	0.603292994083869	0.0621078715483609	-0.374959810267285	-0.569477674925897	0.731505514979427	4.85301183513343	-42.7656232103715	49.5105600028443
18045	1647946288978	6.68537690571935	0.555056205947229	7.14584149302785	0.0658461748400908	-0.00269560308726693	-0.0116129796695841	0.0218808963590566	-0.00804131506941071	-0.00569623330330667	0.65869140625	-0.372314453125	0.259033203125	0	0	0	0.188433246514758	-0.314300842422449	0.403599574097906	0.838340787417883	0.476644728481056	0.55825851326155	0.679085587523564	-0.795157425741492	0.603200590791795	0.0622391802371537	-0.374879275366596	-0.569645924798407	0.731415784120894	4.86381669635056	-42.7722288859545	49.5090859491637
18046	1647946288978	6.66365158269752	0.565183201731784	7.1702197710075	0.0394280960660328	-0.0246170679914218	-0.00791429277343702	0.0266171605393961	-0.00939849363705979	-0.00565617728515672	0.65673828125	-0.37353515625	0.263671875	0	0	0	0.188572619841109	-0.314281239955179	0.403608881963258	0.838312316299161	0.476654345225208	0.558170919864547	0.679150836998302	-0.795230267005588	0.603080474893258	0.0624720996985307	-0.374712499946491	-0.569858899219875	0.731335338516992	4.88246529712756	-42.7773220361371	49.5040752592994
18047	1647946288979	6.65799770737706	0.570963875057419	7.11540950314911	0.0531921943228555	0.00501074376940417	-0.0514819741963546	0.0248518189094011	-0.0067545155899339	-0.00765974275025472	0.66162109375	-0.376953125	0.269287109375	0	0	0	0.188680612565625	-0.31428313810438	0.403618949900442	0.838282457663518	0.476635704769055	0.558095100531059	0.679226224245306	-0.795291640597386	0.602982739446249	0.0626340348837298	-0.374605941404066	-0.570036555576153	0.731251471090247	4.89561850478247	-42.7832070276964	49.5013381106907
18048	1647946288980	6.6646166151904	0.569785962399335	7.16895845546752	0.0386401612338254	-0.0244856370054923	-0.00791082679295663	0.0280810374420478	-0.00605574988904429	-0.00483984416890893	0.659912109375	-0.367919921875	0.2578125	0	0	0	0.188818097776215	-0.314247321401304	0.403637107246288	0.838256185541226	0.476651413291908	0.558031440809807	0.679267503473085	-0.795373766642867	0.60284962321204	0.0628721172654468	-0.374411540344532	-0.570239636346714	0.731192693888555	4.91452969986717	-42.7864296652841	49.4971778769948
18049	1647946288981	6.6631329345572	0.562549770468366	7.14597098922694	0.0527649542305792	-0.0183393625944707	-0.026187312492894	0.0232998902499611	-0.00680200445431138	-0.0075742158092146	0.660888671875	-0.373046875	0.264404296875	0	0	0	0.188916273463926	-0.314257265517339	0.403646557469118	0.838225786607283	0.47662365542579	0.557957283270747	0.679347894037867	-0.795430529312744	0.602760196527667	0.0630112570829672	-0.374326280303434	-0.570406710625897	0.731106025380135	4.92593340939887	-42.7927061764596	49.4950652193145
18050	1647946288982	6.68778972198833	0.56619262913584	7.14270936094444	0.0641511555005076	-0.0024126817755243	-0.011601664935359	0.0249149125396864	-0.0064522432467726	-0.00616453057833839	0.659912109375	-0.369873046875	0.258544921875	0	0	0	0.189043401226873	-0.314228199094536	0.403653771190124	0.838204548037274	0.476648543795592	0.557883318651466	0.679391174852874	-0.79549438872437	0.602652450913133	0.0632352822120199	-0.374158847557534	-0.570592872527181	0.731046462692761	4.94376081433947	-42.7960855992991	49.4898363697099
18051	1647946288983	6.63785668042115	0.555849407659371	7.12511390795166	0.055385966718618	-0.0281297984236636	-0.0590470762933783	0.0234231926524843	-0.0061957073317614	-0.00458342159971787	0.65576171875	-0.37841796875	0.255615234375	0	0	0	0.189133927052291	-0.314243721597606	0.403677254647891	0.838166997175507	0.476591115032856	0.557829606477987	0.67947556189193	-0.795566202947115	0.602546063435442	0.0633455457531443	-0.374079304158957	-0.570757717052575	0.73095848214853	4.95293154461488	-42.8026751808365	49.4905213942444
18052	1647946288984	6.66440585983066	0.568794111994386	7.14428945724176	0.051738218460419	-0.0181990134530689	-0.0261815685986697	0.0234238047623185	-0.00619585688010852	-0.00458354689506234	0.660400390625	-0.373779296875	0.25390625	0	0	0	0.189251838662157	-0.314218084022325	0.403688927757711	0.838144371121206	0.476604490558338	0.557766504683911	0.679517980507006	-0.795631905252411	0.602437982337645	0.0635480037559416	-0.3739224932042	-0.57093344944016	0.730901474472664	4.96906803359347	-42.8059878138571	49.4865261099699
18053	1647946288984	6.66911132691927	0.557812953753219	7.17548643535439	0.0509406392827111	-0.0415041133046581	-0.000883812759001401	0.0251000642320542	-0.0055417012835322	-0.0016787389919676	0.656982421875	-0.37255859375	0.263671875	0	0	0	0.189336110404969	-0.314239667711843	0.403731080314824	0.838096941481648	0.476509292048352	0.55773773434685	0.67960835359582	-0.795725400024891	0.602306104169085	0.0636273890387256	-0.3738448640102	-0.57110067113102	0.730810537066136	4.97586032312414	-42.813045988062	49.490719168312
18054	1647946288985	6.6669648010863	0.582042887005538	7.16578971014282	0.035430103855204	-0.0240006749265648	-0.00789750248897469	0.0185351883526485	-0.00184739998103867	-0.00521953242063095	0.660400390625	-0.37744140625	0.26220703125	0	0	0	0.189425659953374	-0.314205322987204	0.403736528993898	0.83808695820523	0.476543660324933	0.557695537666238	0.679618883692383	-0.795769740337095	0.602229469014377	0.0637980173241623	-0.373706649884569	-0.571222683301204	0.730785868715471	4.98930429059944	-42.8138684451901	49.4865373806917
18055	1647946288986	6.66524980967795	0.574309422031263	7.14306080574385	0.0492262419785484	-0.0175878727966722	-0.0261674935560077	0.023410231169796	-0.00439593280039478	-0.00338610350518274	0.65673828125	-0.37255859375	0.261962890625	0	0	0	0.189494566477714	-0.314217585528389	0.403774066373066	0.838048698790644	0.476467624538536	0.557679611559958	0.679685260703025	-0.795849712157463	0.602116625199964	0.0638655252596418	-0.373633294053793	-0.57135717419854	0.730718236440265	4.99501697441027	-42.8190530982243	49.4902446313362
18056	1647946288986	6.66352946781565	0.566460548142375	7.12034841984676	0.0642588545132149	-0.0115943279870004	-0.0444428762451441	0.0170434914098394	-0.00159039123705565	-0.00363856828596243	0.66015625	-0.37744140625	0.267578125	0	0	0	0.189574815221623	-0.314186616183618	0.40378411585972	0.838037318634534	0.476490315980945	0.557648576108358	0.679694817061819	-0.795896054940824	0.602039554426143	0.0640144095966145	-0.373505620447687	-0.571468669719251	0.73069631928955	5.00675173130644	-42.8197995732522	49.487322243213
18057	1647946288988	6.64141076891318	0.57587373727636	7.14515430375206	0.0365278023426247	-0.033023773458395	-0.0407493457627215	0.0173191029667322	-0.00397436579615235	-5.13928107885874E-05	0.658203125	-0.374755859375	0.26318359375	0	0	0	0.189607458475227	-0.314214098812143	0.403828734925059	0.83799812926227	0.476383705912999	0.557660775433388	0.679759534161625	-0.795970122204805	0.601942729078783	0.0640040269549768	-0.373483773807999	-0.571558755030677	0.730637023596476	5.00634800012687	-42.824855051669	49.4942730663803
18058	1647946288988	6.62202415833213	0.56259031425866	7.17901625401999	0.0256086453768577	-0.0724478475111926	-0.0300455137228113	0.0112887127596564	-0.010756018203683	-0.00150381248497081	0.663330078125	-0.37451171875	0.257568359375	0	0	0	0.18967869784138	-0.314235048708655	0.403830111914512	0.837973487921534	0.476355149748365	0.557590465107133	0.679837219141336	-0.796005244527854	0.601886464592623	0.0640962902541562	-0.373445340033002	-0.571686589804068	0.730556651496536	5.0140767636123	-42.8309240825385	49.4924014591209
18059	1647946288989	6.59933083707801	0.562320447698891	7.18021540119575	0.0128080686808741	-0.0879163864337644	-0.0446286692669347	0.0117949438390564	-0.0326455040361741	-0.00958483829935262	0.66064453125	-0.367431640625	0.25537109375	0	0	0	0.18976005434809	-0.314390439668918	0.40379895953455	0.837911793387233	0.476210103447198	0.557378326866799	0.680112739267525	-0.796013314539175	0.601875044105249	0.064103310052296	-0.373613089239611	-0.571905439755972	0.730299546437188	5.01637951629146	-42.8524535157285	49.4902512225187
18060	1647946288990	6.7231402883116	0.539121439257822	7.15145859719089	0.100231775251829	-0.0197811074869216	0.0170729956902136	0.0101658336758296	-0.0311963435190076	-0.00979727623559404	0.666015625	-0.374755859375	0.26171875	0	0	0	0.189880870473957	-0.314491526879272	0.403744403863409	0.837872777274794	0.47617107174025	0.557141040187341	0.680334455820598	-0.796004739709421	0.601871422754066	0.0642436365108098	-0.373681100402307	-0.572140412670669	0.730080669098393	5.02880394744746	-42.8697841321645	49.4805213267912
18061	1647946288990	6.74309176643096	0.650418147651237	7.15463031883214	0.0180745591012254	0.0545779707797404	0.0401173014140106	0.00327580459148632	-0.0122092289600759	-0.0070538944005328	0.66357421875	-0.372802734375	0.263671875	0	0	0	0.18988383929986	-0.314582711160509	0.403727640244409	0.837845951183349	0.47608342068317	0.557054791574138	0.680466410438389	-0.795991483464204	0.601896240150853	0.0641753406280335	-0.373820992994065	-0.572198283182116	0.729963690823297	5.02428621913607	-42.880100759529	49.4813497264425
18062	1647946288991	6.6879322980251	0.57806690311348	7.0569101303378	0.0860472870371201	0.0351676773776584	-0.0733886500663825	0.00779870070266685	-0.00336745257603682	-0.00282686921484791	0.654541015625	-0.3740234375	0.263427734375	0	0	0	0.189927722367844	-0.314578765012715	0.40372474361182	0.837838882050009	0.476093063997291	0.557018118999	0.68048968362532	-0.796007032375616	0.601867583343466	0.064251198656995	-0.373775599554381	-0.57226412365892	0.729935321758477	5.030389187053	-42.8819205094851	49.4789135140361
18063	1647946288991	6.67745582349516	0.506161589372852	7.14157105804721	0.105222147680438	-0.0621877477189418	-0.0233199682235465	-0.00612218045962484	-0.00348544338419983	-0.000550517481885021	0.66455078125	-0.378662109375	0.25830078125	0	0	0	0.189857338254136	-0.314651632420205	0.403732258472054	0.837823850696201	0.47598922736871	0.557035188069423	0.680548348525953	-0.795990873703898	0.601908909160218	0.0640639840601663	-0.373942220682613	-0.572204040815878	0.72989708265271	5.01606799831712	-42.8865078053338	49.4859531476966
18064	1647946288991	6.64723800778006	0.61406205060795	7.15181832657392	0.00174690566090638	-0.0200858077617019	-0.0294903410017948	0.0181196975063009	0.0092368623891909	-0.00432921191204382	0.6630859375	-0.369384765625	0.267578125	0	0	0	0.189921352984106	-0.31457247376117	0.403751367649747	0.837829858356351	0.476057983745474	0.557061842681784	0.680478434294702	-0.796037961994898	0.601829425603291	0.0642254275269673	-0.37375441024181	-0.572261693551113	0.72994807686493	5.02829443097447	-42.8810409082115	49.483219903131
18065	1647946288992	6.67917782906277	0.48555701557928	7.1514416841896	0.119064152062391	-0.0791499785758839	-0.0162666284280846	0.0123368843739242	0.00367363365221115	0.000203398885055845	0.653076171875	-0.3720703125	0.260498046875	0	0	0	0.189908714763111	-0.314591521707551	0.403801551726693	0.837801385383115	0.475952962585685	0.557123655787245	0.68050129284827	-0.796098342038654	0.601757973760277	0.0641464793985806	-0.373759558017205	-0.572276657900864	0.729933709053502	5.02224345528058	-42.8828282644043	49.4926028377804
18066	1647946288992	6.60128209794396	0.527260081875349	7.14117127395464	0.0539516167682066	-0.0919401380700525	-0.0741098656218639	0.0197511996855238	0.00778715123884438	-0.00411741304543855	0.66064453125	-0.37109375	0.269287109375	0	0	0	0.18998219569441	-0.314515306358214	0.403822687737638	0.837803153642835	0.476014717869498	0.557143225635371	0.680442072846937	-0.796152459561105	0.601668004374962	0.0643185326811324	-0.373565589296479	-0.572352198073934	0.72997377477106	5.03536994756257	-42.8781978402997	49.4899255189426
18067	1647946288993	6.62949191019605	0.517619075167661	7.17039609039716	0.0645052202987288	-0.0985648151617988	-0.0342009573623745	0.0199366389624483	0.00119169112285132	-0.00591143433030088	0.662841796875	-0.377685546875	0.268798828125	0	0	0	0.190005908098237	-0.314499248548168	0.403856680318413	0.837787418927136	0.475980008849657	0.557178661007675	0.680437337962267	-0.796205522274106	0.60159507329991	0.0643438736904601	-0.373496716820508	-0.572394363615655	0.729975955100804	5.03732867098717	-42.8778276336939	49.4937885062611
18068	1647946288993	6.6046017060077	0.550138907116637	7.1861471505992	0.0225866558916668	-0.102981194433037	-0.0375652815862253	0.0261366491820569	0.00318131409057839	-0.00506246220690835	0.65576171875	-0.370849609375	0.254150390625	0	0	0	0.190116915279315	-0.314428220689243	0.403879650955587	0.837777822637284	0.476032243156379	0.557166582381751	0.680410686977024	-0.796279075958561	0.601473572137342	0.0645691506133262	-0.373273273441974	-0.572533790703558	0.729980905117749	5.05483975037131	-42.8757439135408	49.4900699864518
18069	1647946288994	6.65351095225856	0.52337299246311	7.1675560443934	0.0741894961501885	-0.0815997416382894	-0.0195865319092707	0.0247074540850753	-0.00376726510400114	-0.00826337865911612	0.6591796875	-0.369873046875	0.25927734375	0	0	0	0.19016224117884	-0.314437072575829	0.403913751132319	0.837747772940044	0.475966018072324	0.557167574080452	0.680456202876924	-0.796343807803385	0.601384007352121	0.0646050731313839	-0.373219626243828	-0.572626903048058	0.729935298839567	5.0579517487707	-42.8793026386906	49.4940571928961
18070	1647946288994	6.60094745147975	0.535708540274939	7.14085184576918	0.0510162464794921	-0.0899783195977822	-0.0740757225772466	0.0294312389904081	-0.00332036066335247	-0.00702871188411555	0.659423828125	-0.369140625	0.260498046875	0	0	0	0.190303169251013	-0.314384817707868	0.403927568315862	0.837728720841208	0.476009411898451	0.557106595887075	0.680475775177344	-0.796420304583911	0.60125444665491	0.0648674712330281	-0.37300098958389	-0.572822250961687	0.729893780335622	5.07867513404518	-42.880832989849	49.4883804779596
18071	1647946288994	6.67581053140441	0.552348543168012	7.15461411235547	0.0686678229985461	-0.0472846350715802	-0.0120197057466012	0.0261555869314682	-0.0061349331148454	-0.0125354107416141	0.658447265625	-0.379638671875	0.26513671875	0	0	0	0.190377165616089	-0.314388150872294	0.403933209587811	0.837707936929795	0.475996105566378	0.55705146118977	0.68053021760388	-0.796460761455173	0.601188994008147	0.0649772956171464	-0.372931579445731	-0.572944554970037	0.729833250806167	5.08764824418293	-42.8850900233333	49.486370906142
18072	1647946288995	6.67667291648061	0.523182704401078	7.14107641502	0.0992224862294522	-0.0588030066466195	-0.0232364023548079	0.0292643595443297	-0.00604074265126112	-0.0127092727144907	0.6650390625	-0.375244140625	0.25390625	0	0	0	0.190531927203765	-0.314342301945352	0.403920174030116	0.837696242641207	0.476074820438355	0.556940335041391	0.680566108874495	-0.796509313406653	0.601092155454999	0.0652773644299754	-0.372727352096742	-0.573154153657151	0.729773003847432	5.11143884198825	-42.887896641225	49.4760459161045
18073	1647946288995	6.67657739881453	0.558294723815406	7.15343692310922	0.0663036876458847	-0.0460583217876994	-0.0119975869403213	0.035620373926845	-0.00704143033484314	-0.0112619922127347	0.65087890625	-0.371826171875	0.257080078125	0	0	0	0.19061338345397	-0.314364234139401	0.403969686028265	0.837645604723384	0.475967242128346	0.556922803273668	0.680655695351574	-0.796610924498576	0.60095006163691	0.0653456837757218	-0.372647580684833	-0.57332016763096	0.729683332684356	5.11738555795135	-42.8949026626307	49.4815504165194
18074	1647946288995	6.65264239790689	0.560016772739952	7.15564549994427	0.0549325525118157	-0.0619956168113989	-0.0265915968516612	0.0322810425794774	-0.00264870984290624	-0.0119898051986991	0.662841796875	-0.377197265625	0.256103515625	0	0	0	0.190772537442226	-0.314299157545369	0.403967785963698	0.837634709421544	0.476052134939719	0.556835582420964	0.680667686150328	-0.7966741736245	0.600831733722885	0.0656619283243426	-0.372403847857477	-0.573528867539775	0.729643757048251	5.14229642493678	-42.8958404515251	49.4720712512253
18075	1647946288996	6.64800717873362	0.60773421809744	7.13637567489883	0.0219801051774427	-0.0259298475223874	-0.0406843963268617	0.0293909435071297	-0.00542857795623941	-0.00971977006851943	0.656494140625	-0.3720703125	0.263671875	0	0	0	0.190834021032854	-0.314316689463673	0.404000940535646	0.837598134660854	0.475976517541821	0.5568162329316	0.68073639354204	-0.79674550384395	0.600731232925492	0.0657159637551478	-0.372347897608152	-0.573652916432646	0.729574790282058	5.14698936591338	-42.9012142658838	49.4755833512041
18076	1647946288996	6.65319240943882	0.565541437088676	7.1546995419005	0.0529429943006603	-0.0609284511454623	-0.0265739286864886	0.0279609000877014	-0.00486190613248855	-0.00664341106420548	0.654052734375	-0.3759765625	0.257568359375	0	0	0	0.190970875095347	-0.314275205598428	0.404012655591058	0.837576858642623	0.476009738536654	0.556748479775841	0.68076857968443	-0.796818123911448	0.600607797975157	0.0659632505086939	-0.372149978133152	-0.57384789210968	0.729522440022767	5.16662140691399	-42.9037318032078	49.470164579327
18077	1647946288996	6.67822753400181	0.537459843298044	7.13856200004389	0.0931887954610674	-0.0550897222605571	-0.0231555061059563	0.0279617663855274	-0.00486211779327232	-0.0066435894479126	0.665771484375	-0.3779296875	0.266357421875	0	0	0	0.191011618749385	-0.314275687387054	0.404060670262962	0.837544224842354	0.475931534128081	0.556776746166595	0.680800139358556	-0.796897977292103	0.600499072498771	0.0659884665367419	-0.372079008558997	-0.573934246108607	0.729490707640268	5.16880938828119	-42.906200439234	49.4762510458053
18078	1647946288997	6.6786503062016	0.540049473695358	7.13797102325937	0.0931597364293249	-0.0550837064123896	-0.0231551956777132	0.0311652576847305	-0.00806638613148793	-0.00771008151495425	0.663330078125	-0.36865234375	0.254150390625	0	0	0	0.191169753756431	-0.314240214493296	0.404070211496158	0.837516851785898	0.475960703553314	0.556684774015346	0.680854955957961	-0.796977671715552	0.600362778860311	0.0662655607837345	-0.371870944629842	-0.574166000507352	0.729414425687825	5.19093543899502	-42.9104884951914	49.4698415831772
18079	1647946288997	6.63257269403168	0.549239024686245	7.16519286133398	0.0531515177742251	-0.0919215956024354	-0.0340679477709784	0.0264092867721867	-0.00491007306994982	-0.00655707759951685	0.6591796875	-0.37158203125	0.2626953125	0	0	0	0.191212757508505	-0.314274680918813	0.404122636467423	0.837468805982642	0.475832639255995	0.556693546958675	0.680937290940394	-0.797066860373042	0.600245152121226	0.0662584141828548	-0.371843676178222	-0.57428046469433	0.729338212598744	5.19091807758245	-42.9169297510806	49.4779029166501
18080	1647946288997	6.65460368520136	0.575782944842839	7.15256988335402	0.0489789921043491	-0.0584797221027493	-0.0265383468399101	0.0340418713587327	-0.00348480141259302	-0.0087901741851576	0.65771484375	-0.371826171875	0.2568359375	0	0	0	0.191375409045069	-0.314213486381632	0.404136350025929	0.837447997416229	0.475887391127239	0.556620885057112	0.680958428455326	-0.797151822992161	0.600098526801104	0.0665637230886204	-0.371591391270552	-0.5745040891494	0.729290675577464	5.21504351842709	-42.9185834963216	49.4709528837368
18081	1647946288998	6.67953135141944	0.548325478248142	7.13651553045179	0.0891795182833327	-0.0528649064060071	-0.0231058948558633	0.0355974986024192	-0.00343750070337192	-0.00887780216274493	0.656005859375	-0.375732421875	0.2685546875	0	0	0	0.191457015972677	-0.314197376434548	0.404183228902019	0.837412763904888	0.47583185223197	0.556625805440478	0.680993216647003	-0.797246973914888	0.599960257018353	0.0666704775896059	-0.371458356999875	-0.574643718069041	0.72924843935297	5.22366199652192	-42.9213053323255	49.4745059483616
18082	1647946288998	6.63119544632634	0.548595447059222	7.14164711541418	0.0664435346787988	-0.0847528636859859	-0.0522962432281648	0.0369353095929392	-0.000707705005727061	-0.0110645597187309	0.656494140625	-0.382080078125	0.25830078125	0	0	0	0.191629646761061	-0.314116714999714	0.404194626625587	0.837398036567451	0.475914786329582	0.556555423180481	0.680992787833516	-0.797331723729041	0.599809564578467	0.0670120032193232	-0.371170093741595	-0.574869156563984	0.729217535680039	5.25049277851679	-42.9212717811291	49.4659953376039
18083	1647946288999	6.68164937732384	0.564606692691262	7.15816139475738	0.0716679104237215	-0.0566551055076179	-0.00482589144431067	0.0370933672927496	-0.00369902524641044	-0.010459731714663	0.664306640625	-0.369140625	0.26953125	0	0	0	0.191669319109622	-0.314102475588391	0.404274190741601	0.837355889476823	0.475804027058936	0.556635133908564	0.681005033412452	-0.797450364415259	0.599650501624555	0.067023818120049	-0.371057197920307	-0.57495791463377	0.729205013882595	5.25150299112991	-42.9222299060923	49.4766350922326
18084	1647946288999	6.65559359833959	0.556651343719812	7.13823232030234	0.0753564735589542	-0.0666187868724932	-0.0376666419547611	0.0355068573943307	-0.000138021913933952	-0.00798953420743783	0.659423828125	-0.373779296875	0.26318359375	0	0	0	0.191829329594114	-0.314025286759296	0.404297584995128	0.837336903731301	0.475863164085698	0.556588055542456	0.681002191988995	-0.797545096480996	0.59948994214916	0.0673322236460008	-0.370777653244457	-0.575170883902745	0.729179255166429	5.27571669915282	-42.9220075846311	49.4707244686519
18085	1647946288999	6.65696377565567	0.601493329376581	7.17318639765271	0.0280758214441732	-0.0593726459743479	-0.00823685083659953	0.035446645439254	-0.000447774767592926	-0.00948411974970029	0.660400390625	-0.380859375	0.257080078125	0	0	0	0.191890278940624	-0.313979308295074	0.404362469256976	0.837308848792987	0.475815974837896	0.556653393156646	0.680981760384414	-0.797651701357948	0.599338228608981	0.0674199603130909	-0.370608852309052	-0.575265753904264	0.729190229621274	5.28247325592375	-42.9204089784648	49.4768527657479
18086	1647946288999	6.66007710567655	0.550084299773509	7.16947798366785	0.0740929313386127	-0.0883760512367604	-0.012313207280096	0.0342519703148239	-0.00436246592234403	-0.00549823910256548	0.6640625	-0.37744140625	0.26025390625	0	0	0	0.192049733892686	-0.313924311285244	0.404390309594622	0.837279465890452	0.475840008580102	0.556597243967767	0.681010862058731	-0.79775356574687	0.599170754435429	0.0677026983763064	-0.370358656673018	-0.57549449609598	0.729136852991668	5.30488627790257	-42.9226859593033	49.472568741125
18087	1647946289000	6.65576765293384	0.565580348654281	7.13736808869525	0.0705665915225242	-0.0634394350245032	-0.0376097391660028	0.0323228072209114	0.00126042392666226	-0.0081196254619034	0.662353515625	-0.3740234375	0.260986328125	0	0	0	0.192073531776552	-0.313946150615858	0.404480776247076	0.837222117810399	0.475666232320096	0.556679012333459	0.681065424653057	-0.797881996079224	0.599006120074889	0.0676460526968089	-0.370305219735068	-0.575586783500344	0.729091145808733	5.30080345929633	-42.9269552869466	49.4870620863559
18088	1647946289000	6.66199941954809	0.565587520382448	7.19135180329062	0.055805721367928	-0.0928387843547196	0.00596489608506623	0.0338957450000471	-0.000497362519674575	-0.00939773727130031	0.6591796875	-0.366943359375	0.257568359375	0	0	0	0.192229240580332	-0.313872805171815	0.404495785409795	0.837206629706907	0.475734043518577	0.556622044513171	0.681064622043636	-0.797964168421158	0.598862157303244	0.0679507355812586	-0.370040951454556	-0.575791642968254	0.729063562478968	5.32474204761222	-42.9268924834889	49.4801322318626
18089	1647946289001	6.63353478246616	0.57960983745464	7.16190907998898	0.0422831407398173	-0.0843767267104032	-0.0339469003702195	0.0327012818218516	-0.00441011231736083	-0.00540980523045998	0.65771484375	-0.376708984375	0.2587890625	0	0	0	0.192303622870736	-0.313878275243339	0.404548184694362	0.837162177371597	0.475642389181527	0.556625019361494	0.681126203749721	-0.798064737240342	0.598720165782572	0.068020866348444	-0.369941877579699	-0.575936412207204	0.728999489922114	5.33067176313861	-42.9317113820548	49.4857358229523
18090	1647946289001	6.68279249569643	0.553234164427319	7.14314477116241	0.0954593969428081	-0.0639818881455883	-0.0158973774133457	0.0310860788577657	-0.00476904285432681	-0.00681642260045886	0.6611328125	-0.365478515625	0.263916015625	0	0	0	0.192452185706086	-0.313831390165812	0.404565232122112	0.83713737685133	0.475673663009152	0.556558280406729	0.681158899839209	-0.798148428329088	0.598578258349864	0.0682872974033219	-0.369721047108848	-0.576148374241868	0.728944029527089	5.35183528642194	-42.9342700733546	49.4804821889762
18091	1647946289001	6.65586884575046	0.608831778951443	7.14865482248269	0.0363436953472102	-0.0495611486499923	-0.0264340342531355	0.0327035647821268	-0.00441038717403994	-0.00541036535834773	0.657470703125	-0.36669921875	0.261474609375	0	0	0	0.192511418320801	-0.313825113607303	0.404624365938663	0.837097529786233	0.475585841116197	0.556590278986694	0.681194075919128	-0.798249949887607	0.598436952609698	0.0683390902460049	-0.369614833623101	-0.57626424068194	0.728906303770954	5.35614640680499	-42.9370229594822	49.487334064263
18092	1647946289001	6.65912024959971	0.557160973144986	7.14496212344435	0.0823316722222423	-0.0785685485114002	-0.0304666319699578	0.030947826041019	-0.00358604079304197	-0.00861556481987583	0.649169921875	-0.37451171875	0.2578125	0	0	0	0.192659748644905	-0.313771991836251	0.404634807233998	0.837078270632979	0.475635619827633	0.556519543196721	0.681217113108072	-0.798324475512655	0.598305788053574	0.0686164395683444	-0.369389752089345	-0.576468717296701	0.728858716782387	5.37810581213171	-42.938825920587	49.4807758367688
18093	1647946289002	6.63455983003615	0.59014448773604	7.16009902252152	0.0389445983280416	-0.0815499200761785	-0.0339090517654785	0.0249137332673121	-0.00284414671698282	-0.00378277472612968	0.662841796875	-0.363037109375	0.260009765625	0	0	0	0.192675563587239	-0.313767751063508	0.404673395170899	0.837057566019055	0.475578483266812	0.556559097845516	0.681224688967615	-0.798380610932164	0.598231140874394	0.0686141543393545	-0.369341991034357	-0.576507998811383	0.728851851177776	5.37797810948906	-42.9394188421394	49.4861865529888
18094	1647946289002	6.63474468404209	0.592566912890698	7.15972767750155	0.0388616249077395	-0.0815310042875221	-0.0339085639411145	0.0325662703194559	-0.003227340878573	-0.00720994709878922	0.662841796875	-0.37060546875	0.259765625	0	0	0	0.192827400719835	-0.313711442578714	0.404692918468623	0.837034268156425	0.47561754507306	0.556499357579897	0.681246222618399	-0.798468005773991	0.59808247054596	0.0688926859757028	-0.369102688386283	-0.57671988299243	0.728805448653628	5.40002240682639	-42.9411041957017	49.4808247969993
18095	1647946289003	6.65981270158567	0.564652876212417	7.14372846732999	0.079376451973906	-0.0764817575617662	-0.0304256679065595	0.0279987550865453	-0.00667339910407693	-0.00782931463670563	0.657470703125	-0.3720703125	0.2626953125	0	0	0	0.192910442970591	-0.313725018850318	0.404708430515965	0.837002544685237	0.475575397633344	0.556442307680118	0.681322243427815	-0.798525637109605	0.59799329452439	0.068998743340474	-0.369032313008746	-0.576867383310489	0.728724347080516	5.40888459038368	-42.9470544123399	49.4804314307196
18096	1647946289004	6.66198997546449	0.576756891311912	7.16560361113129	0.0641897860612492	-0.082429931184748	-0.0121915256038267	0.0263920583659516	-0.00130106148176168	-0.00417728811937387	0.65625	-0.383544921875	0.265869140625	0	0	0	0.193028164049877	-0.313676399699258	0.404732142255754	0.836982160610555	0.475598018593559	0.556410406708073	0.681332506208854	-0.798603924866966	0.597864041817203	0.0692124171596047	-0.368833696802446	-0.577032102061016	0.72869448831049	5.42575589760037	-42.9478577334404	49.4774630282388
18097	1647946289004	6.6330733298402	0.622142777780967	7.14881068863685	0.0193659171108746	-0.0607948874596291	-0.0409860692969133	0.0265070361184646	-0.00641010554429998	-0.00624724099479673	0.6572265625	-0.36962890625	0.260986328125	0	0	0	0.193004122027134	-0.313693687035707	0.404829813623174	0.836933988792608	0.475418185431541	0.556543312092059	0.681349462997207	-0.798720010699184	0.597724461764723	0.069078305688307	-0.36881417200221	-0.577048533118033	0.728691359188958	5.41532819788005	-42.9491850521839	49.4949232021702
18098	1647946289005	6.63640668256886	0.569944039395213	7.1451907112543	0.0653330777841798	-0.0897956985468472	-0.0449779018459164	0.024855880255237	-0.0031565063743487	-0.00527781887858826	0.65869140625	-0.37158203125	0.267333984375	0	0	0	0.19312006637358	-0.313654955643462	0.404845767720903	0.836914041656988	0.475440946317542	0.556496083717518	0.681372156293274	-0.798788347126589	0.597609088644674	0.0692860279136717	-0.368636790159979	-0.577213553181444	0.728650417528324	5.43181850695855	-42.950961449697	49.4911672069509
18099	1647946289006	6.66719973483412	0.570867107906634	7.19618396470873	0.0605435969568949	-0.101397015463677	0.0132252108120063	0.0264910277133246	-0.00460319774752507	-0.00505979303380817	0.651611328125	-0.379150390625	0.263916015625	0	0	0	0.193141255988236	-0.313636928810531	0.404902246468452	0.83688858453583	0.475372095382198	0.556563675135204	0.68136498769157	-0.798868596554239	0.597501252080175	0.0692908305772344	-0.36855167395007	-0.577260018780634	0.72865666424317	5.43214647815115	-42.9504002966624	49.4987017736492
18100	1647946289007	6.66128072350879	0.575889748577566	7.14146235380665	0.0751940848282676	-0.0719882157359386	-0.0303585248315432	0.026588786667358	-0.00790555768391727	-0.0059406465271732	0.66357421875	-0.36962890625	0.262451171875	0	0	0	0.193274956234647	-0.313613724163758	0.404913812771753	0.836860817301943	0.47538247248556	0.55648565096136	0.681421473926106	-0.7989403662107	0.597379191038274	0.0695154180996554	-0.368382676157048	-0.57746153325444	0.728582446617267	5.45019927670353	-42.9548221375488	49.4941170660434
18101	1647946289008	6.64200960218223	0.563989023738747	7.17542918564798	0.0620888164867148	-0.109271762608521	-0.0195589827028009	0.0235407475774658	-0.00768909912966841	-0.00427079188078918	0.65380859375	-0.37353515625	0.26708984375	0	0	0	0.193264530661851	-0.313639955164277	0.404992184378769	0.836815469685353	0.475222618233327	0.556576492516377	0.681458781657136	-0.799038407442889	0.597260303560335	0.0694100368977535	-0.368376283914414	-0.577496959099512	0.728557599425209	5.44217122255925	-42.9577428259876	49.5082518122671
18102	1647946289008	6.63547377718715	0.601091798156713	7.13344303609607	0.0461472579082604	-0.0683208320042948	-0.0520503296590498	0.0294626258249365	-0.00332590626167133	-0.00703813738159787	0.66796875	-0.37890625	0.264892578125	0	0	0	0.193402164355322	-0.313590860349232	0.405008718984955	0.836794068259492	0.475257419703188	0.556519485052794	0.68148106927019	-0.79911608950715	0.597127080737686	0.0696615025712962	-0.368162817932323	-0.577689633113026	0.728512750256211	5.4621028636891	-42.9594877094157	49.5032816467131
18103	1647946289009	6.63820727480261	0.580899272996638	7.14263538472183	0.0593050630767023	-0.0833262852383559	-0.0448821112696329	0.0203344002412705	-0.00448321409669456	-0.00321425441627696	0.6650390625	-0.37255859375	0.2626953125	0	0	0	0.193359211534942	-0.313605816505808	0.405119700976942	0.836744665384049	0.475058839468157	0.556686350444205	0.681483239905633	-0.799240644093544	0.596980486389877	0.0694887882945311	-0.368148736072942	-0.577680366724382	0.728527214336622	5.44853454820988	-42.9596576497651	49.5235880736125
18104	1647946289009	6.66278774591641	0.584384755418537	7.13936610086975	0.0705035162192603	-0.0672995812192443	-0.0302902144362189	0.0248952857703553	-0.00677393963035337	-0.00765269805361476	0.65869140625	-0.37060546875	0.260986328125	0	0	0	0.193485144525905	-0.313579744308252	0.405123885490411	0.836723299671112	0.475084762729447	0.556607144190481	0.681529863805264	-0.799299232781994	0.596876272505884	0.0697097682796168	-0.367988049665231	-0.577864345980611	0.728462485614723	5.46623929404852	-42.9633079761248	49.5180185588492
18105	1647946289010	6.66519881713982	0.596159349825625	7.16103014208936	0.0534024035074174	-0.0719311095260153	-0.0120441300386194	0.0204947521933474	-0.00747200944340885	-0.00259985905058003	0.659912109375	-0.3740234375	0.25732421875	0	0	0	0.193496245508485	-0.31362315766162	0.405186380604629	0.836674198792454	0.47492902390175	0.556648173683906	0.681604895074928	-0.799387787732064	0.596766399893281	0.0696349681069063	-0.367996721562256	-0.577938296613734	0.728399435904948	5.4608791557574	-42.9691828563421	49.5293797708529
18106	1647946289010	6.64393607566952	0.574006611349125	7.1728508204296	0.0574447042986764	-0.105337830612986	-0.0194875355887021	0.0220328793955566	-0.00561542412814452	-0.00150262351646604	0.659912109375	-0.379638671875	0.267578125	0	0	0	0.193598118730112	-0.313604394769298	0.405212858977579	0.836644841569444	0.474909645001197	0.556612054696734	0.681647892721101	-0.79946493810806	0.596644614686756	0.0697926679613924	-0.367854103987863	-0.578098801530995	0.728344104011088	5.47358447296891	-42.972549785885	49.5286984178057
18107	1647946289012	6.6665543792648	0.567264418396338	7.14736994992031	0.0810924151198383	-0.0812750339479956	-0.0230779924711033	0.0188427625923245	-0.00421774589914627	-0.00163324953196592	0.662109375	-0.37109375	0.264892578125	0	0	0	0.193549328187062	-0.313650738074742	0.405324266241368	0.836584790239102	0.474670907402132	0.556762453225221	0.681691352699056	-0.799590011784191	0.596501793508467	0.0695803377121677	-0.367890394983334	-0.578101358777001	0.728323744127013	5.45718448734325	-42.9759531056248	49.5505656275862
18108	1647946289012	6.64209027892981	0.5995469273161	7.16236692945762	0.0390457884663232	-0.0856538281410259	-0.0266024270551508	0.0218303742649457	-0.00474982407504149	-0.00479721687259218	0.65673828125	-0.370849609375	0.256591796875	0	0	0	0.193653052663438	-0.313626108695379	0.405338189899049	0.836563273726553	0.474679231507914	0.556712779529056	0.681726124102699	-0.799651392904318	0.596398894006988	0.0697567849991989	-0.367746212762606	-0.578255341813868	0.728274318277451	5.47130842949335	-42.9786761649736	49.5475456785963
18109	1647946289013	6.64489169680322	0.579250789552673	7.1715439098097	0.0526734898170122	-0.10187956585273	-0.0194241239283972	0.0249420158660607	-0.00465333753257553	-0.00497468192023035	0.65966796875	-0.37939453125	0.2646484375	0	0	0	0.193681233067062	-0.313644541527143	0.40538604187726	0.83652665144569	0.474578517242633	0.556738333213352	0.681775373053767	-0.799726579404274	0.596299474017421	0.069744788198731	-0.367712699217913	-0.578333265183117	0.728229363055701	5.47070882965403	-42.9825332135417	49.5548464684765
18110	1647946289013	6.6674414071095	0.57301798818851	7.146083476836	0.0789538050161508	-0.0799067742638829	-0.0230492469825982	0.0200103377798728	-0.00424811236996797	-0.00949654121911264	0.65869140625	-0.371826171875	0.26171875	0	0	0	0.193783524949707	-0.313617436018824	0.405377945143771	0.8365170475693	0.474625650831986	0.556663339167921	0.681803797583098	-0.799758908117588	0.59623333409816	0.0699392607678634	-0.367581528995783	-0.578473627866139	0.728184098566091	5.48620905296434	-42.9847594582005	49.5482266307556
18111	1647946289014	6.64305189863773	0.605606220099193	7.16096518844622	0.0345906195816136	-0.0821249545534084	-0.0265554148666816	0.0236095594332052	-0.00737508161683361	-0.00277641391445731	0.666015625	-0.371337890625	0.2646484375	0	0	0	0.193764917367058	-0.313651372994051	0.405483133080855	0.836457650932561	0.474412490011761	0.55678967323866	0.681848992883048	-0.799888202719687	0.596077171169342	0.0697916123945032	-0.367575369782457	-0.578512978061462	0.728155946033368	5.47490797032868	-42.9882993765873	49.5673519155681
18112	1647946289015	6.67017572775271	0.586815266145326	7.16727821032867	0.0611889390828324	-0.0835424626577252	-0.00479515628723703	0.0233263342071695	-0.00501672500321622	-0.00637985322982265	0.662109375	-0.364990234375	0.25927734375	0	0	0	0.193877097850184	-0.31362411955473	0.405493230328606	0.836436980722626	0.474430303582386	0.556729998328866	0.681885324672313	-0.799948134789227	0.595973822173725	0.069987034019722	-0.367421921896287	-0.578676863408571	0.728103165125421	5.4905401315501	-42.9911452090022	49.5632582285549
18113	1647946289016	6.64878013249097	0.565182618348198	7.17923965129862	0.0640289181017264	-0.116275040922152	-0.0121990790194513	0.0265003462199706	-0.00460489620674908	-0.0050646356069595	0.653564453125	-0.370849609375	0.268798828125	0	0	0	0.193946304944943	-0.313627322910421	0.405531794291309	0.836401038342921	0.474363732285828	0.556720706836137	0.681939223150957	-0.800028148469139	0.595857589234148	0.0700620796801611	-0.367333650988989	-0.578805483674732	0.728045466244492	5.49682442194414	-42.9953672652409	49.5667553420759
18114	1647946289017	6.64664940000474	0.58973394970862	7.16906025201274	0.0483919267176999	-0.0987455618187496	-0.0193699297872545	0.0249014317007384	-0.00677837952709705	-0.00765320664458507	0.660400390625	-0.372802734375	0.269775390625	0	0	0	0.194070998176356	-0.313603316999902	0.405536694206443	0.836378740096615	0.474385898437538	0.556641921203488	0.681988116408564	-0.800087156249837	0.595752874637886	0.0702784089514352	-0.367176472241427	-0.578989018824698	0.727978814466983	5.51419413330112	-42.9991974959543	49.561430548487
18115	1647946289018	6.64764688365779	0.559893477699498	7.1558829736956	0.078225655046092	-0.107317739781693	-0.0303709649168677	0.0265199981024005	-0.00641454657359605	-0.00624931667025093	0.656982421875	-0.372802734375	0.2587890625	0	0	0	0.194066442280651	-0.313537820958218	0.405616107298027	0.836365843581443	0.474339216658336	0.556792576633492	0.681897597990925	-0.800181254368649	0.595627578961853	0.070269106562256	-0.367031698490705	-0.578973068273368	0.728064501618606	5.51282385379513	-42.9921065954478	49.571868258717
18116	1647946289019	6.64756330252111	0.594454291156266	7.16782293436392	0.0474575949783687	-0.0956941791227946	-0.0193350660089369	0.0280947672188781	-0.00817607082087978	-0.00752236922456851	0.659423828125	-0.3671875	0.249755859375	0	0	0	0.194206744808376	-0.313512338083728	0.405626078579413	0.836337992988777	0.474354996491124	0.556708579653021	0.681955199880917	-0.800253422199037	0.595502449294444	0.0705073977895105	-0.366853918559739	-0.579182518922174	0.727987508280417	5.53198415549295	-42.996618834083	49.5666600935199
18117	1647946289020	6.65003953583493	0.606798133972302	7.18936446167446	0.0295828630493379	-0.10139867677692	-0.00111084354984037	0.028157832544471	-0.00786033885559284	-0.0060295917619178	0.665283203125	-0.379638671875	0.26171875	0	0	0	0.194271994797372	-0.313602879016711	0.405635821010128	0.836284166431076	0.47422562997174	0.556605115134529	0.682129604755566	-0.800302142657631	0.595435945501779	0.0705160638578791	-0.366914884319937	-0.579350309062213	0.72782325261976	5.53390073809099	-43.0102828444285	49.5691177441113
18118	1647946289021	6.64652103365407	0.589419501158455	7.14434477990284	0.0596881165235945	-0.0894936721675702	-0.0375276561584865	0.0263617935212352	-0.00342716032027011	-0.00686942167983867	0.654296875	-0.37548828125	0.268798828125	0	0	0	0.19439411945219	-0.313563313066399	0.405650074734497	0.836263709537325	0.474252131133441	0.556551144271018	0.682155216886897	-0.800370600815235	0.595317886380609	0.0707355321318987	-0.366731260551986	-0.579523457649424	0.727777950042461	5.5513599570982	-43.0122897210773	49.5647944226001
18119	1647946289021	6.65128974850841	0.579140854262716	7.17580177079801	0.0573052436668071	-0.109948662039248	-0.0120844431435358	0.0219178174299685	-0.00624462004395856	-0.00448922078466077	0.6572265625	-0.373779296875	0.266357421875	0	0	0	0.194343808172155	-0.313583426220221	0.405788983207521	0.836200466474719	0.474001471814787	0.556755879634243	0.682162367189891	-0.800527868559482	0.595131570665102	0.0705233667467903	-0.366712061946466	-0.579518165453327	0.727791838050264	5.53470769778103	-43.0128500054142	49.590149320745
18120	1647946289022	6.66939275394711	0.584930776218477	7.11842975043549	0.0832178504341504	-0.0645668982047437	-0.0411014371099512	0.0218818100054719	-0.00262384661323358	-0.00212358933588744	0.66064453125	-0.376220703125	0.252197265625	0	0	0	0.194437215562584	-0.313554382218091	0.405817950907849	0.83617558521943	0.473990880225573	0.556736843173978	0.682185262898328	-0.800603407197704	0.595011919850449	0.0706753112431156	-0.366560813298987	-0.579659298802803	0.727755637192202	5.54683227597185	-43.0146441045905	49.5898142751298
18121	1647946289024	6.64732273034301	0.594987750961085	7.14313722384409	0.0537035355066549	-0.0848414670084995	-0.0374514610577812	0.0186459553938458	-0.00335459556669427	-0.00493058802597294	0.66162109375	-0.365478515625	0.26123046875	0	0	0	0.194402514264699	-0.313620068128162	0.405901252043051	0.836118585431956	0.473773252914342	0.556826101830629	0.682263583333502	-0.800700220902553	0.594903672074894	0.0704895538247365	-0.366630687572067	-0.579684667100928	0.727700230629701	5.5327625994216	-43.0207816610492	49.6073350543343
18122	1647946289024	6.65387321519278	0.594267420850457	7.19701603053402	0.0386207357626117	-0.114048625088887	0.0061579542490886	0.0217400456202843	-0.00144674392297683	-0.0039269770158223	0.65673828125	-0.370361328125	0.27001953125	0	0	0	0.19449503053857	-0.313585722710763	0.405924104652505	0.836098857115492	0.473779231548061	0.556803630520998	0.682277770993871	-0.800767089381357	0.594794608715726	0.0706501380495321	-0.366476886470947	-0.579818152942233	0.727671355215538	5.54550714224628	-43.0218935382625	49.6058369825905
18123	1647946289026	6.67244308460659	0.567921826851041	7.12720038719451	0.0948796010248309	-0.0785737131057385	-0.0338407533705709	0.0218395131600178	-0.00475150989917984	-0.00479896148737532	0.660888671875	-0.373046875	0.266845703125	0	0	0	0.194514962719047	-0.313543785305788	0.40595413488582	0.836095367971639	0.473783070130447	0.556854828154848	0.682233319926844	-0.800810658993025	0.594730339295026	0.0706973264358705	-0.36637670627501	-0.579834910886416	0.727708447949051	5.54890687831193	-43.0184100059048	49.6082079137261
18124	1647946289026	6.65484958462289	0.565859720509403	7.18381470653225	0.0685274989909645	-0.123774183254646	-0.00481309800312957	0.0216787998686969	-0.00176408674137136	-0.00542027133752228	0.659912109375	-0.378662109375	0.258544921875	0	0	0	0.194610329705753	-0.313508954643118	0.405970356619309	0.836078360249079	0.473800409809942	0.556821898086405	0.682248155347734	-0.800870222201617	0.594629778236419	0.0708682864562105	-0.366224055537951	-0.579969654935464	0.727677909860796	5.56247314129829	-43.0195726032375	49.605500685976
18125	1647946289027	6.65253126640342	0.590078493974686	7.17375951995771	0.0502002258016993	-0.104086403369199	-0.011981462408027	0.0233968007883362	-0.00470302147849345	-0.00488837231222368	0.659912109375	-0.37060546875	0.26025390625	0	0	0	0.194587145248364	-0.313543246738811	0.40609135783858	0.83601213174056	0.473560883026606	0.556971632906482	0.682292232261622	-0.801017574085718	0.59445130398582	0.0707000225982284	-0.366211600134257	-0.580008833835352	0.727652950657154	5.54953775764585	-43.0230268786216	49.627402290947
18126	1647946289027	6.65274269717589	0.592250633488828	7.17338444722575	0.0499545684077495	-0.103987508580204	-0.0119791574115027	0.0246676342702556	-0.00230211853842047	-0.00858522447311375	0.656982421875	-0.375244140625	0.265380859375	0	0	0	0.194700317095127	-0.313502134541915	0.406099213698182	0.835997384442343	0.473599680542763	0.556917830940924	0.682309220346501	-0.801073690962164	0.594350430313552	0.0709119710228944	-0.366038637630031	-0.580163852343588	0.72761639632144	5.56634802303876	-43.0243582742526	49.6223544049347
18127	1647946289028	6.62933613245527	0.560765745308687	7.16330206434072	0.067199717639373	-0.129527510296839	-0.0375066130339263	0.023336001664117	-0.00502064899174725	-0.00638094123221174	0.656982421875	-0.376953125	0.2646484375	0	0	0	0.194693329984014	-0.313514794456597	0.406174484422294	0.835957695772254	0.473461523722242	0.557010893494272	0.68232913618233	-0.801167850822306	0.594233590928038	0.0708273550369874	-0.366011284475464	-0.580194195025667	0.727605961833147	5.55982682897459	-43.0259191612881	49.6353282122916
18128	1647946289029	6.67541993839795	0.588078470851395	7.14762878661121	0.0740065303995825	-0.0799376599783496	-0.0155552508881982	0.0232994266180867	-0.00139775673542891	-0.00401848684926668	0.653076171875	-0.379638671875	0.26513671875	0	0	0	0.194791259852273	-0.313477475837154	0.406200691928183	0.835936142958896	0.473465740039664	0.556990334448101	0.682342993178714	-0.80124102426262	0.594114725924459	0.0709965737081228	-0.36584561504449	-0.580335644063931	0.727576474455862	5.57325112387291	-43.0270052152459	49.6340328327126
18129	1647946289030	6.65139098420775	0.588483806650003	7.15010738067804	0.0598349899412431	-0.0924169127784572	-0.0300890705831396	0.0250803357841959	-0.00401822711922829	-0.00199282656335589	0.659423828125	-0.36474609375	0.261962890625	0	0	0	0.194714972905453	-0.313480570106088	0.40636877772982	0.835871059421705	0.473188697304668	0.55726508008467	0.682310843575959	-0.801422522943042	0.593900991625602	0.0707357891433827	-0.365806501394823	-0.580290653607615	0.727632022984782	5.55248637750334	-43.0244854920231	49.6645223393916
18130	1647946289030	6.6541118034528	0.568205071188756	7.15950510583612	0.0750154437882158	-0.109734922780902	-0.022850547959985	0.021619732100799	-0.00208362376028547	-0.00691431666791208	0.660888671875	-0.3671875	0.26318359375	0	0	0	0.19481049167662	-0.313446893059804	0.406381233298928	0.835855376716757	0.473210676907196	0.557226390996413	0.682327197492629	-0.80147736440237	0.593806331110312	0.0709089238667549	-0.365657886024168	-0.580424663768196	0.727599835127739	5.56623623063123	-43.0257672163548	49.6612465546007
18131	1647946289031	6.65421962173951	0.570271719588353	7.15924058042407	0.0743678266263458	-0.10904834296502	-0.0228379351253931	0.023176614861964	-0.00203494218557462	-0.00700417418239531	0.6572265625	-0.383544921875	0.263671875	0	0	0	0.1948664949188	-0.313422828465737	0.406367109402513	0.835858212946696	0.473263805984766	0.55717935570969	0.682328759115244	-0.801481787752308	0.593785643107815	0.0710320627632667	-0.365579422077035	-0.580490978060792	0.727586359509197	5.57594419301437	-43.0258896086009	49.6556864028143
18132	1647946289031	6.65173853528178	0.594644222122873	7.14927433602201	0.058629198857066	-0.0914703337422122	-0.0300728731168043	0.0230961996979788	-0.000541614648882863	-0.00731627564172067	0.662109375	-0.375	0.261474609375	0	0	0	0.194966065503172	-0.313379386909139	0.406381133548972	0.835844463676178	0.47329546831181	0.557146149087773	0.682333912562002	-0.801539533389657	0.593685215195331	0.0712196719450711	-0.365411789750954	-0.580625553877142	0.72756318632533	5.59075508035926	-43.0262935119649	49.6521101777508
18133	1647946289033	6.65879357283908	0.562213449133153	7.19077282023256	0.0705437922508493	-0.129484681052114	0.00266217335382279	0.0232401629091271	-0.00171642239316388	-0.00551186179018839	0.6591796875	-0.37255859375	0.25830078125	0	0	0	0.194905959977717	-0.313423040057603	0.406556369683755	0.835756892281351	0.472955832461234	0.557388539125043	0.682371450892366	-0.801740613131289	0.593447170069462	0.0709397321140502	-0.365410412819295	-0.58063626547831	0.727555329452431	5.56897793167457	-43.0292356731772	49.6846984257333
18134	1647946289034	6.65180955628894	0.59871537316098	7.14886846204675	0.054491256878909	-0.0885513684885012	-0.0300220911710127	0.0232218721391878	9.57905037214522E-05	-0.00433194356638504	0.66015625	-0.373046875	0.25390625	0	0	0	0.194998878764737	-0.313380504133872	0.406584870227468	0.835737303350406	0.472962805861827	0.557378592188291	0.682374742528991	-0.801813979919624	0.593328361165217	0.0711041309802108	-0.365240367260742	-0.580767217400566	0.72753619381859	5.58194820255315	-43.0294936702157	49.6837772452713
18135	1647946289033	6.65195354120587	0.600735974357174	7.14856497543958	0.0509293104571646	-0.0879775555790611	-0.0299977217184697	0.0233415365978508	-0.00502271226849069	-0.00637924521695132	0.66015625	-0.37744140625	0.2626953125	0	0	0	0.195019807892768	-0.31348847068072	0.406640403986151	0.835664906003424	0.472737121192486	0.557357307291058	0.682548493702756	-0.801903152606066	0.593221712750895	0.0709882621378143	-0.365336759835489	-0.580896575588249	0.727384506559462	5.57406420461687	-43.0431137511036	49.6961882757854
18136	1647946289033	6.65268589861782	0.570444005561958	7.13584546493308	0.0812308415044503	-0.0993967496894854	-0.0409194505246173	0.0217286910855314	0.000366096506829755	-0.00275061238861992	0.654296875	-0.377197265625	0.258056640625	0	0	0	0.195102954041762	-0.313451114705787	0.406673358857308	0.835643473743194	0.472730355770829	0.557357399695103	0.682553103969133	-0.801978353402232	0.593103233039786	0.0711285851960946	-0.365180409396547	-0.581017455815974	0.727366472027755	5.58515050741853	-43.0434751838018	49.6965974525829
18137	1647946289035	6.62791009977041	0.603061540073118	7.15089877260821	0.0356098643887533	-0.10148096445695	-0.0445420963036547	0.0247990847579629	-0.00166835742109837	-0.00560219032577209	0.666259765625	-0.36865234375	0.2626953125	0	0	0	0.195055572421087	-0.313502499944079	0.406811918730848	0.835567812313771	0.472440490614679	0.557537070750136	0.682607059417876	-0.802138709078272	0.592914772892017	0.0708912087966601	-0.365203332714811	-0.581037422913332	0.72733901239259	5.56683737219784	-43.0477053066707	49.7230410099086
18138	1647946289037	6.63058705571712	0.582808877103651	7.16038415469086	0.050687648155121	-0.118777962775746	-0.0372705212297326	0.0218301333879218	-0.00294006639844701	-0.00361726573427589	0.656494140625	-0.37109375	0.258544921875	0	0	0	0.195146092721547	-0.313478987051617	0.406839208611158	0.835542210489244	0.472425566027477	0.557514264406461	0.682636015418863	-0.802211062300187	0.592799721664319	0.0710345093451857	-0.365063687713287	-0.581176681378416	0.727297854345211	5.57833303419629	-43.0499755858563	49.7227777603006
18139	1647946289037	6.65298639454211	0.576263970054438	7.13509765144316	0.0751640626984244	-0.0961086039912679	-0.0408380089288087	0.0232436968396233	-0.00171781835978857	-0.00551268054635314	0.661376953125	-0.37060546875	0.268310546875	0	0	0	0.195182954818462	-0.313502171117797	0.406882218562148	0.835503957543414	0.472326497844744	0.557522847523888	0.682697556698847	-0.802283967926987	0.592700948732558	0.071035344574765	-0.365031661970642	-0.581269180208603	0.727240005705524	5.57883914801524	-43.0548009748732	49.7291393705732
18140	1647946289038	6.63086112658396	0.586817766285456	7.15980292182574	0.0483427193931424	-0.117895820564919	-0.037247964719354	0.026501270845559	-0.00279311690615072	-0.00388729282200144	0.65966796875	-0.372314453125	0.260009765625	0	0	0	0.195293118727931	-0.313468996400184	0.406915509406372	0.835474448608653	0.472313913000829	0.557498345840182	0.682726271628173	-0.802371697566208	0.592560731964143	0.0712140286659948	-0.364855076065233	-0.581435614079134	0.72719557214676	5.59312300696175	-43.05705261312	49.7286503959492
18141	1647946289039	6.65973368811947	0.578172123882114	7.18863643040554	0.058208521892337	-0.123388056611171	0.00282160931104691	0.0233886280082163	-0.0028913381443599	-0.00370740601044622	0.656005859375	-0.374755859375	0.260498046875	0	0	0	0.195299525944197	-0.313457065238325	0.40699939851127	0.835436564336044	0.472192315727283	0.557608325868375	0.682720566476779	-0.802480390847991	0.592419169554874	0.0711670559203439	-0.364773408121482	-0.581474403964768	0.727205526836297	5.58938112551759	-43.0566052456227	49.7415001366439
18142	1647946289041	6.62935612908509	0.580960155459406	7.13687097380083	0.061535551612997	-0.110069653159274	-0.0553874145834374	0.0248406732763154	-0.00529671154340772	-0.00796007925130562	0.6611328125	-0.3759765625	0.259765625	0	0	0	0.195414016186715	-0.313433863291453	0.407010832103062	0.835412926743862	0.472202791785935	0.557545480857947	0.682764644811408	-0.802542960996749	0.592311089657102	0.071360835363569	-0.364622159480384	-0.581644745393695	0.727145151239946	5.6049659669486	-43.0600617179824	49.7376883993043
18143	1647946289043	6.66031943177856	0.582621344681167	7.18773449198518	0.0543551571820585	-0.121322866247938	0.00286944795408139	0.0264604802792747	-0.00492724937068461	-0.00655832255111255	0.66064453125	-0.3720703125	0.26123046875	0	0	0	0.195405077068318	-0.313493916575886	0.407124679970649	0.835337006892806	0.471942118457416	0.557656017339828	0.682854598835365	-0.802689229055667	0.592132701629442	0.0711959635024077	-0.36463768097105	-0.58172040533722	0.727076840251672	5.59262050914446	-43.0671162097891	49.7588918738365
18144	1647946289043	6.63257584738435	0.563177237216119	7.14569724700816	0.0731286957921417	-0.125446462005102	-0.0480503917369219	0.0251729608171798	-0.0055072302273777	-0.00167828612778621	0.6591796875	-0.376708984375	0.268310546875	0	0	0	0.19551070152019	-0.313478127388079	0.407163299074818	0.835299393706745	0.471899023071547	0.557629856519909	0.682905743965962	-0.802783170907425	0.591987226955187	0.0713463638157375	-0.364486615024392	-0.581893517956243	0.727014058480692	5.60484058097414	-43.0711275419815	49.7601464939321
18145	1647946289044	6.63676324995306	0.585130732977673	7.18962468079431	0.0404995405948863	-0.134722579274702	-0.0116712533721888	0.0217720125051175	-0.00326154681130722	-0.00511039774967199	0.646484375	-0.37548828125	0.263671875	0	0	0	0.195481685191425	-0.313474273867258	0.407284347963488	0.835248615851635	0.471706679054704	0.557810417149617	0.682891168089434	-0.802924334428537	0.591812741317354	0.0712052834902583	-0.364424645321461	-0.581897944431674	0.727041580756231	5.59361751675321	-43.0699843236523	49.7808104735949
18146	1647946289044	6.65460734097317	0.59074004549872	7.13240169439221	0.0662450185341747	-0.0893177954015101	-0.0407090460117629	0.0232284061339214	9.44537644200645E-05	-0.00433771951091781	0.656982421875	-0.364990234375	0.25927734375	0	0	0	0.195571363964202	-0.313436616245584	0.407314963727358	0.835226825190307	0.471704015840598	0.557802314902066	0.682899625808763	-0.802999221123959	0.591692723841925	0.0713580508901258	-0.364263053732006	-0.58202774679771	0.727018658387399	5.60571760674503	-43.0706476787438	49.7805596349224
18147	1647946289046	6.6566247290929	0.602600120300196	7.15435493095911	0.0492641616454585	-0.0930402801546069	-0.0225142039673116	0.021897839293287	-0.00261931954229292	-0.00212649241373872	0.661865234375	-0.367431640625	0.263427734375	0	0	0	0.19552444334164	-0.313441887777103	0.407344107000937	0.835221619412643	0.471649922956671	0.557874108159897	0.682878341741607	-0.80301631067018	0.591681941095103	0.0712550726586157	-0.364295422662185	-0.581969896151623	0.727048750085336	5.59744908897111	-43.0689783423775	49.7874349983175
18148	1647946289046	6.63710612365618	0.590602251873949	7.18886073583628	0.0378339255123736	-0.132229473211534	-0.0116266485755947	0.0202790658715437	-0.00299003947316333	-0.00352812700022932	0.666015625	-0.370849609375	0.267333984375	0	0	0	0.195606192500233	-0.313424133478859	0.407371174501722	0.83519593880339	0.471628077476228	0.557854098283841	0.682909775566289	-0.803084903833779	0.591573887281299	0.0713790804170429	-0.36417247805177	-0.582098909906912	0.727007060017176	5.60744799642906	-43.071443753103	49.7877301837291
18149	1647946289047	6.61353109772047	0.590817830157987	7.19096087863482	0.0257943553655538	-0.147138820032015	-0.0261935058318521	0.0240478758560055	-0.0148346343510379	-0.0011896471982751	0.652587890625	-0.375	0.263671875	0	0	0	0.1956807510873	-0.313442956790516	0.407436437338661	0.835139572778771	0.471498124734396	0.557863078011443	0.682992170206619	-0.803202090842612	0.59140918636538	0.0714253144809058	-0.364082297891568	-0.582257640975401	0.726925112984657	5.61168541708938	-43.0779065818917	49.7959694510834
18150	1647946289047	6.63485805739781	0.574148698749199	7.14270481786168	0.0669973392956994	-0.119171267000232	-0.0479277977477732	0.0222225017730778	-0.0143565698953102	-0.0058897112103257	0.6611328125	-0.371826171875	0.26513671875	0	0	0	0.195797760916042	-0.313466305361646	0.407445190555773	0.835099113229175	0.471454584191779	0.557762233220368	0.683104579283133	-0.803266236070105	0.591303307026469	0.0715803959847093	-0.363997155255811	-0.582461750068269	0.726804224446369	5.62472111191641	-43.0867247672397	49.7934713260183
18151	1647946289049	6.65947144431511	0.609714285583639	7.15110221494999	0.0454753454065426	-0.0889033524096966	-0.0224574309662966	0.02255536988057	-0.0145616284307362	0.000392256984452304	0.65869140625	-0.371826171875	0.262451171875	0	0	0	0.195774132432059	-0.313508044469694	0.40755855988571	0.835033661229982	0.471217452633349	0.557896702020916	0.68315838735093	-0.803403763687019	0.591137018668721	0.0714102069244242	-0.364000693443392	-0.582501755391039	0.726770390246526	5.61169283492407	-43.0909463126252	49.8144909648804
18152	1647946289050	6.68524227627149	0.580670869798279	7.13491509764011	0.0868952670324574	-0.0842230136492587	-0.0187090234077889	0.0190274292265533	-0.0129631505309474	-0.00602396408601969	0.654296875	-0.37109375	0.25927734375	0	0	0	0.195874508712806	-0.313532038050709	0.407563930243051	0.834998491446016	0.471178607761212	0.5578046660037	0.68326032679551	-0.803456401679329	0.591049639202708	0.0715411392057235	-0.363934788373838	-0.582678537945967	0.726661675904571	5.62275184453697	-43.098944833004	49.8121595321738
18153	1647946289050	6.66375022660206	0.590903139087897	7.15906810805111	0.0580971270237646	-0.104503745246725	-0.0151012729589368	0.0222289519182929	-0.00859036136722525	-0.00087019534396017	0.6572265625	-0.37353515625	0.266845703125	0	0	0	0.195863428811178	-0.313590685567316	0.407629964833407	0.834946831211225	0.470997387390673	0.557856801051867	0.683342703620474	-0.803540588725717	0.590950658048489	0.0714131782123384	-0.363983493226671	-0.582729018731894	0.726596798359499	5.61325702818788	-43.1054091661821	49.8256640449119
18154	1647946289050	6.66224772643062	0.582435629645352	7.1363552345604	0.0728512366486953	-0.0984535168181181	-0.0332527440357513	0.0188061902718947	-0.00453318821578346	-0.00312714354977118	0.6611328125	-0.373046875	0.26123046875	0	0	0	0.195940675693648	-0.313583380719633	0.407655700735633	0.834918885043872	0.470964585988372	0.55783140727094	0.683386040102463	-0.803606365288953	0.590848162532913	0.0715210353571462	-0.363880706292432	-0.582857246582389	0.726545429890325	5.62207552809797	-43.1088101716459	49.8263453513597
18155	1647946289052	6.66439418836077	0.594145003101166	7.15820030093845	0.0555070089862566	-0.102076415540149	-0.0150606668021336	0.0218194646442143	-0.0011270602069605	-0.00244921177820126	0.668212890625	-0.380126953125	0.265869140625	0	0	0	0.195912269369011	-0.313576264227575	0.407774697122371	0.8348701130179	0.470779445799674	0.558010939854625	0.683367034919823	-0.803744690034949	0.590676358194886	0.0713856645990713	-0.363814769701804	-0.582859529279727	0.726576618447524	5.61126304018766	-43.107318639911	49.8465366566215
18156	1647946289054	6.66489870319814	0.563465699702699	7.14587862772553	0.0857034299434085	-0.113442980823065	-0.0258730123110098	0.0185219191413202	0.00357514216088944	-0.00172374722609003	0.66015625	-0.3720703125	0.260986328125	0	0	0	0.195969103707498	-0.313537277221079	0.407814327687719	0.834852058940676	0.470763699850813	0.558042023879391	0.683352499437418	-0.803816500663007	0.590567169049388	0.0714804316080231	-0.363676466333266	-0.582940407267831	0.726580972369745	5.61863110404306	-43.1061779159541	49.8490541534132
18157	1647946289055	6.65940334899296	0.609553286021665	7.12633976620022	0.0517521140165506	-0.0767120975869848	-0.040514458700601	0.0229041692646984	0.0060618735555085	-0.00561202089957734	0.6591796875	-0.371826171875	0.267333984375	0	0	0	0.195952904104732	-0.313529824193342	0.407990813956302	0.834772426737664	0.470485090137133	0.558284804557692	0.683346074078599	-0.804033122854217	0.590291910200392	0.0713175862271639	-0.363558134707436	-0.582986738916035	0.726603017428429	5.60574347142183	-43.1056736697205	49.8780515354247
18158	1647946289052	6.66344363177636	0.598926202139223	7.15868674791961	0.0514570514562993	-0.0998003928505725	-0.0150151111767247	0.0138120278893859	0.00705897803569613	0.000899395241969596	0.662353515625	-0.373046875	0.26171875	0	0	0	0.195978348010519	-0.313489191925579	0.408037769564835	0.834758762916251	0.470459410308805	0.558352019584642	0.683308836089249	-0.804100395395551	0.590195331439245	0.0713584253752717	-0.363442564068396	-0.583020147999254	0.726634027313832	5.6086952276675	-43.1027514064035	49.8829915327605
18159	1647946289052	6.6845131303301	0.623927565729425	7.14638978423213	0.0454019543420774	-0.0644461184476639	-0.00775628465130218	0.0230739504470852	0.00884638125304641	3.76062246883881E-05	0.656005859375	-0.36865234375	0.270751953125	0	0	0	0.195954199248028	-0.313433945556698	0.408169257696326	0.834720893857016	0.470314037688783	0.558577419621038	0.683224686499527	-0.804252210895889	0.589999617737389	0.0712659269132837	-0.363294766301345	-0.583002330492115	0.72672222713965	5.60079570604407	-43.0961482536895	49.9031105443158
18160	1647946289053	6.66477024664924	0.579450036754427	7.16949597494189	0.0646113725092778	-0.115151548978562	-0.00762934938181914	0.0151431560092401	0.00976967762998923	-0.00131637876143232	0.662841796875	-0.372314453125	0.25634765625	0	0	0	0.195982864811735	-0.313377269209627	0.408211971854029	0.834714555927922	0.470315346355526	0.558647799648032	0.683166239601237	-0.804314099594356	0.589907405470462	0.0713307939450336	-0.363156032823637	-0.583028205938203	0.726770807685805	5.60548882092964	-43.0915623901302	49.9065885931293
18161	1647946289054	6.63991389363854	0.579140847886674	7.17283867248733	0.051904715629591	-0.129808443871518	-0.022185293913461	0.0167829689506103	0.00832627155931018	-0.0010905079937383	0.6630859375	-0.3701171875	0.258056640625	0	0	0	0.195946508080837	-0.31334218257002	0.408283605516763	0.83470122802079	0.470242348176976	0.558793040793149	0.683097702779149	-0.804386266829244	0.589818926874317	0.0712486297225612	-0.363090715548494	-0.582978533963281	0.726843285186365	5.59851827844902	-43.0861852878141	49.918308081285
18162	1647946289058	6.64072689597494	0.622303113680687	7.20765038913672	0.00544242118944074	-0.123917807748516	0.00675018436280617	0.00278642263555694	0.00606798461370781	-0.00144875775762729	0.657470703125	-0.383544921875	0.259521484375	0	0	0	0.195931237083834	-0.313326251654747	0.40830283776993	0.834701385543242	0.470230905386017	0.558841088620486	0.68306627298478	-0.804402689010707	0.589799486007641	0.0712241547332587	-0.36306915254837	-0.582952145527052	0.72687522071757	5.59636298586134	-43.0837196000814	49.9214218963253
18163	1647946289060	6.70780166089793	0.565007906796699	7.12070764755335	0.110995237919708	-0.068186513048814	-0.0146597533322854	0.013934469580842	0.00193469373576126	-0.00113281307647719	0.664794921875	-0.368896484375	0.259521484375	0	0	0	0.19586019877723	-0.313431046992239	0.408463226565437	0.834600235957339	0.469837542650203	0.559029676209108	0.683182629048747	-0.804584344876529	0.589593150157393	0.0708798227077897	-0.363175874055566	-0.582980049748721	0.726799522632586	5.57005440565363	-43.0928483051638	49.9545641997656
18164	1647946289061	6.66103743759391	0.572972802931329	7.14872240374985	0.0728551341037406	-0.106011916122935	-0.0256856195788231	0.0106360118927627	0.00663727813076606	-0.000411091109879812	0.65625	-0.372802734375	0.2666015625	0	0	0	0.195874063763911	-0.31339927959798	0.408500078825357	0.834590874795403	0.469817154294289	0.559087295330615	0.683149498814655	-0.804634457232769	0.589522073488577	0.0709021516137357	-0.363091216865053	-0.582996673292075	0.726828485384158	5.57157744257908	-43.0902489369278	49.9586973244972
18165	1647946289062	6.63347767903658	0.594548423829336	7.14231797885495	0.0445571618501089	-0.103537258770965	-0.0476213367556983	0.0116389781087611	0.0153168318730154	-0.00389540252581319	0.6552734375	-0.37646484375	0.262939453125	0	0	0	0.195817649922767	-0.313353313845382	0.408564682001158	0.834589749099601	0.46976920264682	0.559247571859182	0.68305127890531	-0.804688009910037	0.589460697200035	0.0708046125861352	-0.363034575421674	-0.582905000687126	0.726930297361685	5.56318645079042	-43.0825433397962	49.9696661069253
18166	1647946289062	6.66167748873727	0.553011572528068	7.16023608851361	0.0860535918100908	-0.122067874115878	-0.0182785759726833	0.0163118299789894	0.0154641807772419	-0.0041669861667634	0.658935546875	-0.374267578125	0.26611328125	0	0	0	0.195842985788697	-0.313269778853531	0.408603314770456	0.83459625073027	0.469810753631311	0.559334211390686	0.682951752132125	-0.804740966782847	0.589377712151927	0.0708935032282159	-0.362863379460905	-0.582905783456057	0.727015141148856	5.56948082328545	-43.0747362044056	49.9715415641854
18167	1647946289063	6.5878486649142	0.550183796404342	7.16969369691224	0.0500495394686827	-0.167625353531989	-0.061976817150251	0.0206346102597077	0.0176241590481644	-0.00954676731514243	0.654541015625	-0.36962890625	0.267578125	0	0	0	0.195756769385847	-0.313186108644711	0.408730879000367	0.834585416325487	0.469707059807141	0.55962505994158	0.68278479058391	-0.804858263320835	0.589236711582407	0.0707338227987247	-0.362737444898512	-0.582769156706954	0.727187497183199	5.55570587429097	-43.0616415454932	49.9924380018345
18168	1647946289064	6.58935971440136	0.529984600299429	7.18041826230393	0.0649236720243692	-0.184817072963563	-0.0545841264565947	0.019549977972389	0.010437532958338	-0.00637813232965728	0.657470703125	-0.371337890625	0.263427734375	0	0	0	0.195808585275403	-0.313115016241152	0.408761296729566	0.834585038706489	0.469746377800535	0.559670908588189	0.68272015835432	-0.804913342022848	0.589146400456819	0.0708592313138059	-0.362564273442498	-0.582816431570734	0.727235969073497	5.56512552773111	-43.0565732429646	49.9923877839386
18169	1647946289065	6.60951602998843	0.587992413425641	7.18053677624627	0.0288659641849183	-0.137670811040612	-0.0366064186505586	0.0257608134403192	0.0124509569952484	-0.00556539492293472	0.656982421875	-0.371337890625	0.27099609375	0	0	0	0.195780263244603	-0.313009673965238	0.408816222052318	0.834604294929591	0.46978848118209	0.559837316789464	0.682554731635931	-0.804961782257551	0.589078770221488	0.0708712323801902	-0.362402141347664	-0.582724961885376	0.727390065056099	5.56489039071243	-43.0436027890851	49.9982466516742
18170	1647946289065	6.633081879114	0.59146347727684	7.17815234262777	0.0394404261403551	-0.12135765570788	-0.0220187510726237	0.0183219054067668	0.00441891914716828	-0.0050171823331003	0.66162109375	-0.374755859375	0.265625	0	0	0	0.195836871725407	-0.312967316320534	0.408844891437937	0.834592854829845	0.469794627320449	0.559856969894553	0.682534381113017	-0.80501913061659	0.588987548835816	0.0709779307791255	-0.36226676287254	-0.58279828463789	0.727398757175858	5.57314958513399	-43.0420073746055	49.9988679485828
18171	1647946289067	6.58678787966204	0.567996099132567	7.1939706124729	0.0314821344107407	-0.168343828350732	-0.0437428841109817	0.0196541447742073	0.00712778724093614	-0.00723443876899613	0.6533203125	-0.3740234375	0.2724609375	0	0	0	0.195798369484478	-0.312872421354745	0.408952835229629	0.834584582304566	0.469736853026535	0.560091642428937	0.682381594849967	-0.805131282260615	0.588841154129736	0.0709204732678721	-0.362092401513904	-0.5827207283806	0.727547692925679	5.56753362624413	-43.0300307556142	50.0141603664905
18172	1647946289067	6.65712954410455	0.56429137125544	7.1635850651438	0.0796169164652503	-0.113966610850695	-0.0181265238313202	0.0200447246124006	0.00148398114820933	-0.00447099523300996	0.65283203125	-0.37255859375	0.27099609375	0	0	0	0.195866992061357	-0.312838937859099	0.408984152039654	0.834565685707501	0.469727524679191	0.560098635064687	0.682382276702315	-0.805197922097213	0.588736169602482	0.0710354056237246	-0.361956294059227	-0.582820076524884	0.727535840760054	5.5765897110945	-43.0300841995061	50.0150727831667
18173	1647946289069	6.65241131294197	0.578320083384616	7.13158215354414	0.0791064314366914	-0.0865352495110518	-0.0436163835161185	0.0244309522250599	0.00396621178278852	-0.00835999172041991	0.66357421875	-0.379150390625	0.262451171875	0	0	0	0.195794063259242	-0.312685687850643	0.409080736133356	0.834592892810859	0.469761223875924	0.56038774723089	0.682121664584906	-0.805275752620043	0.588635272234055	0.0709892845728354	-0.361739346470379	-0.582644050030058	0.727784690811613	5.57109823536645	-43.0096606938608	50.027606250996
18174	1647946289070	6.6349026174108	0.54490103373276	7.17654301146816	0.0830197261111658	-0.143008137750852	-0.0252323591164671	0.0277319927965849	0.00504024319613443	-0.0040669323714699	0.65771484375	-0.37109375	0.258544921875	0	0	0	0.195886183468277	-0.312620864854536	0.409130571270747	0.834571131561299	0.469760741018549	0.560420911465681	0.682094750155489	-0.805373343821309	0.58848155755581	0.0711564015305063	-0.361522645569799	-0.582767413646871	0.727793595967669	5.58406255142601	-43.0075518657257	50.0293045524737
18175	1647946289071	6.65741105922339	0.613272684459985	7.19827839747946	0.0288252781108457	-0.102767333661431	0.0108071713768414	0.021173208051136	0.00503302227696824	-0.00998991280389886	0.658203125	-0.373291015625	0.263916015625	0	0	0	0.195879250150169	-0.312677554270374	0.40924883262489	0.834493534673139	0.469496280101324	0.560536920057461	0.682181503870865	-0.805525099534541	0.588293424711544	0.0709940875075648	-0.361528086033282	-0.582845783800191	0.727728132832209	5.57190307072625	-43.0143495450039	50.0510259886973
18176	1647946289071	6.6355073731404	0.591760628324728	7.21110090126913	0.032538561622826	-0.13601186793078	0.00365394070527003	0.0230399189334855	0.000931991494869167	-0.00763258515418895	0.65625	-0.375244140625	0.26318359375	0	0	0	0.195965244786863	-0.312637303586541	0.409272543721259	0.834476796680227	0.469507802724135	0.560524791053685	0.682183539669038	-0.805588973961051	0.588187215583111	0.0711491704587578	-0.361370762809524	-0.582964628462834	0.727711078483524	5.5841278018851	-43.0145090711619	50.0497235156881
18177	1647946289072	6.65387696131885	0.671588763791618	7.20043995210711	-0.0207953830850642	-0.0715797719087227	0.0141070978141862	0.0106595649581172	-0.000956145592202238	-0.00659382941319752	0.658935546875	-0.370361328125	0.265380859375	0	0	0	0.195891928317199	-0.312683948877533	0.409360758050794	0.834433262941142	0.469305035764864	0.560663942721854	0.682208712006322	-0.805672989519679	0.588100244376497	0.0709164051734609	-0.361446838918481	-0.582918558544751	0.727710201069043	5.56598083979971	-43.0164816222813	50.0689063352865
18178	1647946289073	6.70041808880677	0.588951394397135	7.12571743139988	0.0928712621982122	-0.0505068122037113	-0.0143641200265971	-0.0349862780354834	-0.0178766517943967	0.0040884005537715	0.658447265625	-0.374267578125	0.271484375	0	0	0	0.195755403946576	-0.312853000183941	0.409324732445394	0.834419609974578	0.469152527368827	0.560611836346257	0.682356413476066	-0.805582498053879	0.588266170468439	0.0705673544329746	-0.361846300095377	-0.582801236813097	0.727605644203239	5.53954680923077	-43.02805706086	50.075450945499
18179	1647946289075	6.58070030133579	0.623146145154242	7.17406944833465	-0.00969889973492701	-0.123019908258916	-0.0584077061128436	0.0193459233164308	0.0170556949462765	-0.00467817586169857	0.658447265625	-0.3720703125	0.259521484375	0	0	0	0.195700608807593	-0.312719547006734	0.409433415071924	0.834429167308276	0.46914152708489	0.560887555742793	0.682137359611195	-0.805685178683803	0.588131100669758	0.0705209279166611	-0.361631885228205	-0.582672256279509	0.727815513264481	5.53433857026483	-43.0108904807551	50.0899771049398
18180	1647946289076	6.68775151059556	0.615786669199609	7.24966158806309	0.0192208124101489	-0.110531433651034	0.0691252184699085	-0.00904008126116499	0.00133078661213869	0.00799491301402206	0.65771484375	-0.372802734375	0.267578125	0	0	0	0.195626688496375	-0.312758808708405	0.409473502773271	0.834412114515261	0.469026756203774	0.560971362482639	0.682147368564401	-0.805707242665425	0.588123298549061	0.0703336677577041	-0.361731587066217	-0.582599447457809	0.727824252646483	5.5196677838292	-43.0116747471251	50.1010884691414
18181	1647946289076	6.60744807609916	0.462153474031921	7.11116190646942	0.152306356169854	-0.162954838836553	-0.0971931434455175	-0.0171571750169851	0.00127274300574786	0.00216185574640971	0.6552734375	-0.376708984375	0.26318359375	0	0	0	0.195449052114039	-0.312851304490423	0.409519414510424	0.834396535494608	0.468835820835361	0.561110179539968	0.682164451960272	-0.805696143201143	0.588187034333526	0.0699266578118384	-0.362003726406837	-0.5824013899868	0.727847458612728	5.48774798854488	-43.013013365075	50.1195437759382
18182	1647946289077	6.58216442381358	0.600110134976458	7.1851086863699	0.00232436591987209	-0.138449953039726	-0.0509440014136189	0.0197583679022958	0.00959547823559843	-0.0030819788728949	0.6513671875	-0.375732421875	0.2685546875	0	0	0	0.195495386796045	-0.312786760123529	0.40956656530799	0.834386735881334	0.468839342546485	0.561177081796864	0.682106995819964	-0.805770556416987	0.588073564646562	0.0700235173020063	-0.361833499405512	-0.582451513372437	0.727891992865782	5.49496873071888	-43.0085113421379	50.1226931267462
18183	1647946289078	6.61361286453226	0.428563377362755	7.15396710878794	0.164783480680417	-0.199989436651832	-0.0640650157615532	-0.0111518505122455	0.00412908547100306	-0.000327452354592826	0.6591796875	-0.368408203125	0.26318359375	0	0	0	0.195262188572838	-0.312822162234774	0.409670787948273	0.834376904060957	0.468624280633205	0.561475007400887	0.682009603792487	-0.805804367529084	0.588085046431174	0.0695363173823389	-0.362036745195932	-0.582152724143947	0.728029945057013	5.45594040009526	-43.0008808636517	50.1505877281158
18184	1647946289078	6.46808321413322	0.527520383734164	7.22956411909584	-0.0100479500402803	-0.26766783624952	-0.10139353780969	0.0338023075375308	0.00244599428502559	-0.0100697327427222	0.6552734375	-0.3701171875	0.265869140625	0	0	0	0.195391777709572	-0.312751931137511	0.40970488822818	0.834356151373732	0.468656268263384	0.561461275868017	0.681998928091604	-0.805897899096258	0.587927915530856	0.0697806733399777	-0.361787062302782	-0.582324653299343	0.728016565546501	5.47509670564627	-43.000044500605	50.1479744937872
18185	1647946289079	6.6607861840798	0.499064788186763	7.17242688332184	0.123896978588746	-0.143258770825934	-0.0135561767702139	0.00209412390386952	-0.0125370661478838	-0.000519225664200436	0.65380859375	-0.374755859375	0.260498046875	0	0	0	0.195346418031891	-0.312826828528638	0.409683888698219	0.83434900590576	0.468596973387639	0.561419489707237	0.682074067172188	-0.805857891376621	0.58799777660643	0.069653956182832	-0.361952946441895	-0.582294402585805	0.727958304629647	5.46564928921291	-43.0059313397102	50.1494430740265
18186	1647946289080	6.56316308890285	0.559276593639736	7.20736803309564	0.0173273105303981	-0.184395539020856	-0.0505282211599241	0.0371047959234424	-0.00225665512290616	-0.010785828485204	0.654052734375	-0.37158203125	0.263916015625	0	0	0	0.195500603451815	-0.312768810969169	0.4097154234399	0.834319157595205	0.468617885360792	0.561373871305522	0.682097246831734	-0.805959836447038	0.58782557169088	0.0699273859124908	-0.361698796727669	-0.582512209212598	0.727910369869818	5.48733337950175	-43.0077474849243	50.1458948107137
18187	1647946289080	6.60714327395173	0.608793463000724	7.1809869616019	0.00594776502071611	-0.115494764145131	-0.0362784768025648	0.0100922644005685	-0.018908388987588	-0.00267139056081658	0.6484375	-0.375244140625	0.268798828125	0	0	0	0.195444530028222	-0.312903075381867	0.40975061692418	0.834264666055606	0.468392194693648	0.56137053416387	0.682254992889491	-0.805991312213447	0.587811735224603	0.0696804748023928	-0.36192092587541	-0.582529387503165	0.727786202197234	5.46900269443182	-43.0201084436302	50.1593050496364
18188	1647946289081	6.63819476398604	0.535577745293226	7.18486815921876	0.0780271688970189	-0.145364509500923	-0.0174036043326264	0.0330500692838451	-0.0107047100709217	-0.00562090020415772	0.655517578125	-0.3740234375	0.2666015625	0	0	0	0.195590473662085	-0.312894207222492	0.409789565942138	0.834214656634732	0.468339453463125	0.561306671696294	0.682343737891021	-0.806103176483372	0.587633756515191	0.0698873169270525	-0.36173999667341	-0.58277044238111	0.727683163398499	5.485910170722	-43.0270635832548	50.1592723200659
18189	1647946289082	6.59191257742002	0.577707151701497	7.22373742344174	0.00817805370953111	-0.168300094688946	-0.017737298193337	0.0315971060118931	-0.0140646261552808	-0.00638244564321015	0.664794921875	-0.381591796875	0.26513671875	0	0	0	0.195580578216258	-0.312869633686457	0.40989167079237	0.834176029358634	0.468202821063884	0.561461165092099	0.682310397430117	-0.806226060542923	0.587474111279268	0.0698119465283307	-0.361642997511718	-0.582782574096085	0.727721659482994	5.47974176616263	-43.0244505260966	50.1752516378582
18190	1647946289082	6.53719438012736	0.642268971099056	7.19803588219625	-0.0610093331311011	-0.148163318268787	-0.0693067721668221	0.00134494618027391	-0.0256858950979747	0.00394711183353244	0.654296875	-0.370361328125	0.265869140625	0	0	0	0.195609268496968	-0.312997190556527	0.409907374501689	0.83411373152043	0.468017406065708	0.561368436473955	0.682513872496607	-0.806269042419428	0.587425916814427	0.0697210405171133	-0.361787145785455	-0.582920466946836	0.727539545563605	5.47401120368195	-43.0403996080837	50.1817593113785
18191	1647946289083	6.67194261866301	0.466044952139566	7.18603915308899	0.146055299547	-0.169350326223786	0.0016471634364148	0.0411528736152007	-0.0146062386522071	-0.00362891862131101	0.66015625	-0.373046875	0.263916015625	0	0	0	0.195701906226196	-0.313010242336115	0.410087981756041	0.833998320928392	0.467704870823887	0.5615119742479	0.682610032583639	-0.806538778621905	0.58705722223738	0.0697066452930933	-0.361590033583196	-0.58315359948744	0.72745070418424	5.4735521822261	-43.0479384122111	50.2077866178369
18192	1647946289084	6.5720553064588	0.581717041702193	7.22215952092658	-0.00670437663965166	-0.181602839952658	-0.032254435449337	0.0275258726925455	-0.0264761122093792	-0.00504376047116182	0.6630859375	-0.368408203125	0.270263671875	0	0	0	0.195855016065395	-0.313078944569435	0.410106814407878	0.833927327724385	0.467587950487021	0.561362396204677	0.682813128671885	-0.806634723078212	0.586906426916492	0.0698660831065595	-0.361527221774354	-0.583449317568766	0.727244774298625	5.48753933263388	-43.0638638816786	50.2073244986762
18193	1647946289085	6.62487847512582	0.565068850833392	7.22461374677383	0.0303802018492163	-0.165390109281606	0.00439385004860782	0.0273824154443049	-0.0253120330644279	-0.00685508818673431	0.656982421875	-0.371826171875	0.271240234375	0	0	0	0.195976166832681	-0.31311206202682	0.410148443840442	0.833865956051778	0.467478181257153	0.561292645082133	0.682945617619153	-0.806742651902503	0.586743192097667	0.0699908574626477	-0.361428338194198	-0.583680557414536	0.727108357293764	5.49830464568785	-43.0742550300149	50.2104385518299
18194	1647946289085	6.64400919578275	0.603424699623188	7.17755508626287	0.0252275648608264	-0.108386031595069	-0.0141216064303933	0.0354665085763323	-0.0331767477065004	-0.0086898117802699	0.6572265625	-0.378662109375	0.264892578125	0	0	0	0.196182014632844	-0.313188643957292	0.41015769773888	0.833784236728144	0.467367072563468	0.56108208763143	0.683194635826871	-0.806850004158109	0.586566560240281	0.0702334763339004	-0.361332381988541	-0.584060408987839	0.726850980861583	5.51918835417685	-43.0937903733652	50.2065645346953
18195	1647946289086	6.59954367926814	0.537054439207555	7.15655480351888	0.0630654270614957	-0.160709943424396	-0.0644118915017806	-0.00444144409396121	-0.0409452472200096	-0.000237481686680258	0.66162109375	-0.371337890625	0.26025390625	0	0	0	0.196108534306708	-0.31335329470619	0.410240656710879	0.833698841938908	0.467024632556404	0.561131810142216	0.683387945629768	-0.806936831522252	0.586488092707003	0.069890393086108	-0.361581170027401	-0.584091438697248	0.7267023109377	5.49350972308405	-43.108959719935	50.2297118122791
18196	1647946289087	6.67126568363116	0.597578099722791	7.14771748637289	0.0494346699310024	-0.0829964068832274	-0.0176163023181388	0.0384395543208246	-0.0261287862786388	-0.0056933430838399	0.65478515625	-0.373779296875	0.263916015625	0	0	0	0.196307098214543	-0.31339703960929	0.410274748288961	0.833618887544632	0.466913852961127	0.560981431643139	0.68358707365237	-0.80706968538205	0.586276308214032	0.07013282658103	-0.361427692423139	-0.584448392741857	0.726491637509439	5.51403694528091	-43.1245895639068	50.2288442210331
18197	1647946289087	6.65886793636023	0.54324276091337	7.20056897945352	0.0670586007671132	-0.155769257871969	0.00846662934354292	0.0416835733875621	-0.0311602956808567	-0.00789584790105384	0.65478515625	-0.3759765625	0.2705078125	0	0	0	0.196460634630728	-0.313502758554213	0.410334192307416	0.833513701172819	0.466683742004639	0.560856440887738	0.683846720883626	-0.807220244503916	0.586058139327824	0.0702234589766579	-0.361388657558017	-0.584787063846617	0.726238478838781	5.52303141640791	-43.1449756477547	50.2364539527896
18198	1647946289088	6.65572829811487	0.590608836328333	7.17835148236056	0.0354835827755657	-0.120728847649933	-0.00654479048022516	0.0338534292102578	-0.0277704378259977	-0.00509690246532098	0.65380859375	-0.37353515625	0.254150390625	0	0	0	0.196642273993702	-0.313563845746339	0.410361988066565	0.83343420224359	0.466561506781645	0.560699616971161	0.684058696252036	-0.807339247650243	0.585869709657285	0.0704274272540812	-0.361280638276094	-0.585126159759143	0.726019061438704	5.54063734809017	-43.1616238389531	50.2359554208618
18199	1647946289090	6.70258646471494	0.543558632226026	7.11452035700223	0.116223278019739	-0.0859384083076071	-0.0241416611987635	0.0337304773532489	-0.022639690878083	-0.00308113686060045	0.662109375	-0.37646484375	0.259765625	0	0	0	0.196679697712947	-0.313651989251799	0.41046792144576	0.833340033605688	0.466277030204772	0.560740746037117	0.684218931948799	-0.807496659769551	0.585666363943081	0.0703139716323006	-0.361296105105543	-0.585290291974357	0.725879052291865	5.53282738175231	-43.1742114940711	50.2552023419474
18200	1647946289091	6.68521193325348	0.608234958152099	7.19397119806492	0.0276839442124251	-0.107617123837251	0.0261581301379259	0.0477378949539997	-0.0203720612331008	-0.00274718097857414	0.659423828125	-0.3701171875	0.260498046875	0	0	0	0.196899656182395	-0.313656472786927	0.410535188270481	0.833253263819494	0.466160952541169	0.560641867776	0.6843790341781	-0.807677274380514	0.585382769173951	0.0706005241021604	-0.361042084493171	-0.585668600533505	0.725700284948236	5.5565946035406	-43.1867912562588	50.2572480036767
18201	1647946289093	6.63747561982472	0.533519183864804	7.15213739239074	0.0794828083455875	-0.156541631953631	-0.0421719871474053	0.0397165055826519	-0.0179680270470176	-0.00441771235342626	0.66015625	-0.373779296875	0.265625	0	0	0	0.197033048802168	-0.313747481842394	0.410644707170236	0.833133494579561	0.465866884221256	0.560606474027859	0.684608229182231	-0.807880965633498	0.585097804305587	0.0706321793792926	-0.360965914669331	-0.585987150605568	0.725480990634559	5.56074025462612	-43.2048043800764	50.2732430280373
18202	1647946289092	6.66230458004129	0.570727025160243	7.1598025548482	0.0590491009870931	-0.128490260014362	-0.0170349370879688	0.0411498440034951	-0.0185776056700643	-0.00749143200643369	0.65673828125	-0.377197265625	0.268310546875	0	0	0	0.197229112493756	-0.313754197649883	0.410683465204374	0.833065466845032	0.465794789729611	0.56048950144468	0.684753044995815	-0.808015349219389	0.584879537185306	0.0709022031235407	-0.360758103563339	-0.586316847576629	0.725317961284006	5.58311142747236	-43.2161886323513	50.2717247022596
18203	1647946289093	6.66438723302961	0.541893089804574	7.14618917450868	0.0881514652759027	-0.137119663927622	-0.0275378497895229	0.0445222348206131	-0.022952161355103	-0.00671041016497081	0.662353515625	-0.383056640625	0.26953125	0	0	0	0.197342152310107	-0.31374459870863	0.41084545939715	0.832962430242517	0.465540670547811	0.560607595857443	0.684829181280144	-0.808267733396771	0.584524166828718	0.0709561099753889	-0.36052067238307	-0.586558285134675	0.725240803405551	5.58792008003122	-43.2221747059629	50.2930262344407
18204	1647946289094	6.62204482473829	0.530295260145896	7.18257541305269	0.0654173175691245	-0.192265632789127	-0.0310293338285703	0.033212598596436	-0.017666942537164	-0.00883886250737446	0.65771484375	-0.380126953125	0.260009765625	0	0	0	0.197504914405353	-0.313762293819638	0.41086768736496	0.832906222357681	0.465481932912817	0.560489316775021	0.684965908577074	-0.808367696712921	0.584359104530207	0.0711765682208806	-0.360372358877306	-0.586835720396879	0.725090063525546	5.60632901269506	-43.2329261109305	50.2906374548458
18205	1647946289096	6.66382945386233	0.603290063763314	7.14500098607699	0.0372704570080685	-0.104529099229385	-0.0244646624336813	0.0504656008220314	-0.0204317089074721	-0.0107120693476499	0.65966796875	-0.371826171875	0.257080078125	0	0	0	0.197617458637938	-0.31378849297047	0.411163091695775	0.832723864043764	0.464963387412987	0.560750467876866	0.685104343250951	-0.808790805999477	0.58378450413731	0.0710850537023922	-0.360092322184405	-0.587158041335577	0.724968243441609	5.60010144482791	-43.2438137063997	50.3351374479532
18206	1647946289097	6.67324269833812	0.541279155191019	7.17353453872653	0.0828632717092022	-0.156159681113895	-0.00180080889165346	0.0425029166257508	-0.0234956467476234	-0.015879726089308	0.652587890625	-0.37109375	0.26318359375	0	0	0	0.197840941782269	-0.313804908462958	0.411165838655053	0.832663253844161	0.464938265095283	0.56055845291574	0.685278505802496	-0.808892287420581	0.583603229755583	0.0714180479315465	-0.359896758809647	-0.587521481380524	0.724770882358519	5.62768912655761	-43.2575139887462	50.3270165918305
18207	1647946289097	6.66955223814143	0.589629808805709	7.15151834561318	0.0494622959430091	-0.120356672283922	-0.0168785273172993	0.0440004480160416	-0.0237774273501939	-0.0174640574132425	0.6484375	-0.373779296875	0.265625	0	0	0	0.197990168132895	-0.313884573377421	0.411158513604965	0.832601371971328	0.46485030257166	0.560370166135736	0.685492139345188	-0.808954403965006	0.583497140025727	0.0715811419817867	-0.359870766393516	-0.587806400515343	0.724552735836764	5.64214529680025	-43.2743234187509	50.3228852647404
18208	1647946289098	6.67562800366387	0.582036156556542	7.18199505209197	0.0487901615066776	-0.143121265520929	0.00876683087866325	0.0423824848167187	-0.0183615363137478	-0.0138739102591749	0.661865234375	-0.3740234375	0.261962890625	0	0	0	0.198199169790131	-0.313882427824706	0.411174536258171	0.832544540148003	0.464826644471492	0.56021975720612	0.68563110651814	-0.80906470363239	0.583305179654761	0.0718983499404564	-0.359653299617293	-0.588140196742106	0.724389821194742	5.66825197037466	-43.2852603319942	50.3167600451602
18209	1647946289100	6.627853128746	0.615388163368857	7.19829733887167	-0.00628265033660193	-0.161388076475184	-0.00980325021678929	0.0438796232465369	-0.0186437430146807	-0.0154584148513653	0.664306640625	-0.375	0.2705078125	0	0	0	0.198294846384476	-0.313890043768781	0.4112428521757	0.832485141521809	0.464704713914457	0.560221571965145	0.685712271416069	-0.809192684008132	0.583116940863506	0.0719849527727938	-0.359522918620493	-0.588325100248908	0.72430438864038	5.67569994669245	-43.2916490340405	50.324237735397
18210	1647946289100	6.69366401161602	0.582771602003625	7.09982021615836	0.0874641311579232	-0.0892655195371339	-0.0384054070811892	0.0407851017109092	-0.020567568040809	-0.0164347073967238	0.661376953125	-0.3779296875	0.26318359375	0	0	0	0.198505205723602	-0.313897922740186	0.411244110601461	0.832431413928884	0.46469275119002	0.560044289456298	0.68586517686703	-0.809285776375305	0.582947929592488	0.0723065940316158	-0.359328789756779	-0.588661282259351	0.724127554800055	5.70227627884012	-43.303686446669	50.3160513587682
18211	1647946289102	6.62829440365165	0.613088856242718	7.17332695178421	0.00629786565550153	-0.152716916100421	-0.0278306618184683	0.0405746536906529	-0.013940896069578	-0.0147565408497055	0.65673828125	-0.375	0.261474609375	0	0	0	0.19862946055822	-0.313858605810181	0.411436482496193	0.832321532719417	0.464425592860097	0.560211756328572	0.6859093648346	-0.809578018583097	0.58253271653902	0.0723813925586968	-0.359015738545838	-0.588912915661498	0.724078225914479	5.70852244771271	-43.3071655684067	50.3406594314069
18212	1647946289102	6.72397822566522	0.612989397912068	7.13824919926487	0.0649614241264923	-0.0817331485903221	0.0123489685687446	0.042157176488116	-0.0157143292509653	-0.0160159141079517	0.657470703125	-0.36767578125	0.2607421875	0	0	0	0.198834496717863	-0.313843872269578	0.411446878941213	0.83227299160992	0.464426979296744	0.560066272868522	0.686027223145309	-0.809678226431349	0.582352617448978	0.0727089993969732	-0.358787890743663	-0.589229326277542	0.723933733507582	5.73532498191384	-43.3164460688385	50.3332634910668
18213	1647946289104	6.69601656235256	0.627055765011692	7.10784427367198	0.0515265560208569	-0.073509812004095	-0.0278405631694447	0.0388694030575775	-0.0128348383060103	-0.0164777682425643	0.662353515625	-0.3681640625	0.261474609375	0	0	0	0.198940321233581	-0.313874504832902	0.411463246211285	0.832228058179157	0.464361584466343	0.559977927176044	0.686143600092232	-0.809747106449999	0.582241491209501	0.0728317891445101	-0.358717078583891	-0.589423079790533	0.72381108760676	5.74591290652895	-43.3256113134177	50.3327866799818
18214	1647946289104	6.67850084389397	0.552939236054564	7.11835052843852	0.101419185954886	-0.135500287938531	-0.0376997941149781	0.0417968212508433	-0.00792963803332701	-0.0161569917943151	0.65771484375	-0.37744140625	0.2578125	0	0	0	0.199127797723483	-0.313828430255429	0.411480314183342	0.83219215784384	0.464391334805983	0.559877452781431	0.686205454673812	-0.809845309500556	0.582064142426748	0.0731567411860566	-0.358456779594229	-0.589693625510732	0.723719673074419	5.77210071578129	-43.3304832222012	50.3259310831255
18215	1647946289106	6.62650372964431	0.640827026429392	7.13706815000545	-0.000819963051644335	-0.12664157278884	-0.053439828051852	0.0398730225567188	-0.00600096862145301	-0.0211824025813437	0.659912109375	-0.376708984375	0.262451171875	0	0	0	0.199252481116457	-0.313855067605824	0.411543419017804	0.832121060645755	0.464254021602559	0.559835090806883	0.686332918143301	-0.809980694532618	0.581860926064145	0.0732743966487185	-0.358328728837513	-0.589934347042978	0.723586890614159	5.78237467248579	-43.3405239762744	50.3321266406316
18216	1647946289107	6.66259572991121	0.525635883676315	7.16223430197105	0.101978730854599	-0.190841581154076	-0.0189519170215711	0.0292831300863391	-0.0104938640663125	-0.0180471807120435	0.65771484375	-0.373046875	0.26708984375	0	0	0	0.199395850286631	-0.313844353198325	0.411530394903215	0.83209720040678	0.464288912072658	0.559708055635248	0.686412921340644	-0.810025102289799	0.58176805791855	0.0735204763727688	-0.358183109298566	-0.590146438812171	0.723486033707994	5.80246481374096	-43.3468269629632	50.3236215750246
18217	1647946289108	6.60541718560773	0.656792166582073	7.16038699930273	-0.0303687327483869	-0.145726907275173	-0.0499062802510224	0.0340925271947864	-0.00967322403563634	-0.0153553867232564	0.656982421875	-0.37744140625	0.260498046875	0	0	0	0.199452737334646	-0.313828063791945	0.411656858759123	0.832027152551458	0.46410115402634	0.55983163529179	0.686439115259276	-0.810207100794732	0.581514472412576	0.0735212363641786	-0.358014765970922	-0.590279136088378	0.723461103892631	5.80272297066923	-43.3488907717128	50.3412242537678
18218	1647946289109	6.68144511639293	0.535324851773105	7.10326943877674	0.125105751736078	-0.142782742970388	-0.0480225634090967	0.0358489602729365	-0.0144276414866448	-0.0159592657947273	0.650634765625	-0.370361328125	0.264892578125	0	0	0	0.199627729885346	-0.313822429010775	0.41165944884406	0.831986027940376	0.464103962454363	0.559694501234736	0.686549034899736	-0.810285137596841	0.581370535276455	0.0737990277851671	-0.357834469865366	-0.590550900431087	0.7233285050212	5.82555781657209	-43.3575520630433	50.3341570377989
18219	1647946289109	6.63193459323612	0.632797531422199	7.14346882666339	0.00786737100372455	-0.13792307532945	-0.0457507667307198	0.0263417758164155	-0.01357909695614	-0.0172022879452203	0.659423828125	-0.369873046875	0.26513671875	0	0	0	0.199620573302688	-0.313866067492609	0.411698037230511	0.831952188849561	0.46398563563454	0.559717917771713	0.686609920151252	-0.810334415104253	0.581312705709703	0.0737134579172188	-0.357876327273069	-0.590585633677083	0.723279436782062	5.81924151657889	-43.3623501444974	50.3425133032932
18220	1647946289109	6.65763722461666	0.604941978291028	7.12767186063582	0.0488541387320487	-0.132830906666151	-0.0416197277569896	0.0296569509932714	-0.0124722986107339	-0.0129271574919564	0.660888671875	-0.371337890625	0.263671875	0	0	0	0.199760347871351	-0.313868338896998	0.411706202142932	0.831913740945177	0.463969337910164	0.559611196462381	0.68670791627383	-0.810404990717851	0.581187613070719	0.0739236730199435	-0.35773761963037	-0.590809840140718	0.723164938512712	5.83663997051235	-43.370073556863	50.3381339908923
18221	1647946289110	6.71074478819561	0.632244602357112	7.16471359845889	0.0386985504293351	-0.110406725323908	0.023636213360982	0.0340980239824175	-0.00967396548464269	-0.0153591740262169	0.6630859375	-0.367919921875	0.262451171875	0	0	0	0.19986080230957	-0.313843633144199	0.411748309682642	0.831878093898686	0.463931006816673	0.559598717409705	0.686743981690034	-0.810498878689505	0.581037978347324	0.0740704756371282	-0.357574591598905	-0.590968817444261	0.723115667270049	5.84854622274721	-43.3729162442747	50.3398320874977
18222	1647946289111	6.65529027348296	0.58988660660642	7.08163854358187	0.0774246126417029	-0.119340300776278	-0.0776875159188925	0.0144347719008525	-0.0207716177606844	-0.0118170540962138	0.6650390625	-0.37646484375	0.25830078125	0	0	0	0.199952514633484	-0.313912912428193	0.411728945813637	0.831839498029391	0.463875917180084	0.559449446787696	0.686902795124084	-0.810520151651447	0.580996534141876	0.0741627337821671	-0.357597842872763	-0.59115086382756	0.722955350605193	5.85706976622009	-43.3854355546008	50.3356647658951
18223	1647946289111	6.66422530876713	0.634432399745909	7.16850712327879	0.0130267255158184	-0.141971143845783	-0.00546700308764691	0.0370218407420837	-0.0047654933877419	-0.0150499477065656	0.660400390625	-0.3720703125	0.26171875	0	0	0	0.200093545878346	-0.313932134176173	0.411848775444925	0.831739006055349	0.463654402592218	0.559469794482414	0.687035766185909	-0.810732970052283	0.580686318124692	0.0742660838673541	-0.35740263880819	-0.591436344000429	0.722818376058846	5.86627877576841	-43.395919692018	50.350134829678
18224	1647946289111	6.68881435722434	0.563250900983339	7.11886929392719	0.100220482260895	-0.142602195666981	-0.0297732350077133	0.0132935008693678	-0.0264483916996699	-0.00891596217520882	0.66357421875	-0.3720703125	0.261962890625	0	0	0	0.200187575947386	-0.314031053511673	0.411833728113325	0.831686486757443	0.463554955637257	0.55930286217617	0.687238758704487	-0.810763323674994	0.580635829649179	0.0743294444422061	-0.357462775806961	-0.591643762486476	0.722618863733316	5.87285838115138	-43.4119281883327	50.3477726993379
18225	1647946289112	6.6468296861275	0.62720845672649	7.20130776292179	-0.00117430541709332	-0.17973694699324	0.00567604010031886	0.0540277047597192	-0.00304446567641861	-0.0179324703591771	0.66162109375	-0.375732421875	0.263671875	0	0	0	0.200372602228683	-0.313977728159373	0.411954489757129	0.831602251599242	0.463422969177645	0.559339493610603	0.687297957603549	-0.810989631343178	0.580288637290099	0.0745715447463501	-0.357120385153847	-0.591949683942338	0.72253761299197	5.89251055528942	-43.4165975581255	50.3576322631001
18226	1647946289112	6.63691897466422	0.610059877535602	7.1021071633146	0.0441024375935278	-0.138927828570459	-0.074127602183669	-0.00407844769027792	-0.0262013106272432	-0.0111547368434941	0.65283203125	-0.3740234375	0.26708984375	0	0	0	0.200397244264839	-0.314109634766161	0.411903057961945	0.831571976848503	0.463342016377336	0.559160669950368	0.687498015298983	-0.810947490767062	0.580353630665315	0.0745240269456259	-0.357321064419648	-0.592054903327591	0.722352163676256	5.8902833755714	-43.4323799655409	50.3535491068074
18227	1647946289113	6.69461327302666	0.550197518188128	7.12553007960059	0.110129770706142	-0.15519834747374	-0.0220017086567736	0.0573477667988837	-0.00774419360565001	-0.0186362749085846	0.653564453125	-0.370849609375	0.265380859375	0	0	0	0.20052494520508	-0.314020022376933	0.4120490836794	0.831502690636571	0.463213956370716	0.559302147946644	0.687469226893582	-0.811177539068374	0.580010597978934	0.0746907380007507	-0.356964747187122	-0.592257387910349	0.722362343793781	5.90328444224261	-43.4301086155085	50.3684507453734
18228	1647946289113	6.63968239962341	0.691468514349531	7.14493444685353	-0.0361145189349569	-0.118176684259854	-0.0352475724432431	0.00376654738511083	-0.0237827127603146	-0.00898293549015224	0.668212890625	-0.374755859375	0.26416015625	0	0	0	0.200573218077887	-0.314127880948655	0.412022169555732	0.831463643459638	0.46312281241059	0.559151628630189	0.6876530497461	-0.811174188509625	0.580016231968936	0.074683375314109	-0.357090599877197	-0.592393979419748	0.722188117201176	5.90412059052542	-43.4446133524384	50.3664137114784
18229	1647946289114	6.69969070353033	0.533974600307795	7.13315515736567	0.122879208232218	-0.169967130377382	-0.0142743817075939	0.0467842087093424	-0.0140651006542546	-0.0166488989773703	0.66845703125	-0.370361328125	0.26220703125	0	0	0	0.200722809416477	-0.31409007226168	0.412139744118746	0.831383552642427	0.462976515648773	0.559202325872791	0.687710334876671	-0.811382492729546	0.579702370195382	0.0748572807537442	-0.356806945629859	-0.592653288802414	0.722115560573218	5.91836167734383	-43.4491342071392	50.3778579041451
18230	1647946289114	6.59568131934493	0.704533329125588	7.17022735597463	-0.0761412835643899	-0.153963663938636	-0.0463146077518246	0.014269572343979	-0.0177996156762482	-0.0124636817512079	0.666015625	-0.3720703125	0.25830078125	0	0	0	0.200807612669733	-0.314147991398698	0.412121133558131	0.831350415570238	0.46293442154985	0.559067534942131	0.687848248320831	-0.811400767653188	0.579664947937289	0.0749489318448164	-0.356820004478623	-0.592817037125782	0.721974684388093	5.92670426521039	-43.460019511077	50.3736320528707
18231	1647946289115	6.72935639614017	0.487339306754829	7.12636410536445	0.176752439921235	-0.181992152071613	-0.00236431554026417	0.0434904479279326	-0.011189378520156	-0.0171176159984898	0.651123046875	-0.370361328125	0.264892578125	0	0	0	0.201030786206397	-0.314165005038885	0.412261910329625	0.831220241510951	0.462680933800572	0.559047213416906	0.688035294638453	-0.811674565262921	0.579253480577212	0.0751651870511422	-0.35652595081239	-0.593238247595329	0.72177394521231	5.94532395156503	-43.4747859321946	50.3880240056204
18232	1647946289116	6.61418927649014	0.745791966260684	7.12232803613022	-0.0840840455798585	-0.0969588300846457	-0.0651343200989771	0.0174812710508273	-0.0191867383802678	-0.0123258016538811	0.66845703125	-0.37060546875	0.259521484375	0	0	0	0.201131681934189	-0.314222944283137	0.412247031704064	0.831181311543727	0.46263265227445	0.558903678411624	0.688184355610808	-0.811704435555544	0.579196862747026	0.07527883821804	-0.356520600174747	-0.593428742514178	0.721619975616722	5.95551016634751	-43.4865561741197	50.3837342880928
18233	1647946289116	6.70739154122296	0.491648498564142	7.12691100550222	0.162989034343185	-0.19633646967825	-0.0168430723532467	0.0327738017617303	-0.0163610392719227	-0.0169375748085596	0.666259765625	-0.37109375	0.264892578125	0	0	0	0.201230421018604	-0.314252766797577	0.412273910754874	0.831132804506972	0.4625508421419	0.558834310203636	0.688295672057471	-0.811783176479387	0.579073080335115	0.0753819740802704	-0.356447461512712	-0.593614842612976	0.721503032433486	5.96457038788831	-43.4953475062405	50.3852182652196
18234	1647946289117	6.67981377277232	0.689000832827295	7.19862041968884	-0.0340452224253203	-0.143224419538849	0.0307417107127517	0.0450129104806697	-0.0133019071967199	-0.0198678480861372	0.658935546875	-0.371337890625	0.263671875	0	0	0	0.201445255198065	-0.314222134549972	0.412276952649695	0.831090833562088	0.46258432894548	0.558682076305546	0.688396743331186	-0.811876308638745	0.578895046944134	0.0757455219446855	-0.356191799575992	-0.593931698294065	0.721368518634092	5.99423651722312	-43.5033308239154	50.3755129386861
18235	1647946289118	6.6498517246722	0.691650593425563	7.14617904906384	-0.0311633028131307	-0.128962561728739	-0.0275363530020964	0.0223881424879474	-0.0198444279657897	-0.00930801901567069	0.659912109375	-0.3623046875	0.26806640625	0	0	0	0.201515630285482	-0.314263338209318	0.412368192955013	0.831012923152942	0.462382055393105	0.558708645535944	0.688511063276284	-0.812024544235425	0.578687848379324	0.0757397761903175	-0.356116518024225	-0.594108595747865	0.721260010016361	5.99468028652173	-43.5123618870812	50.389160410387
18236	1647946289118	6.68305074621573	0.554531664287786	7.12743176185526	0.102390688744273	-0.181319492101677	-0.0286394023649379	0.0298137543175656	-0.0176191079886368	-0.0149238934356712	0.651123046875	-0.374267578125	0.261962890625	0	0	0	0.20166829570891	-0.314286999943598	0.412363642018958	0.830969197331151	0.462359816814626	0.558559521949904	0.688646977946059	-0.812086416518271	0.578572250493448	0.0759592197528401	-0.356004286352929	-0.594361347496657	0.721107160344633	6.01318684923708	-43.5231006521478	50.3830014027773
18237	1647946289119	6.67733209798149	0.666883795481118	7.12851686470599	0.00898423123236112	-0.121397253397576	-0.0232833442077567	0.0361935324755073	-0.0225544397972311	-0.0173002182176378	0.66748046875	-0.3701171875	0.264892578125	0	0	0	0.201744386163506	-0.314288274211937	0.412292255843897	0.830985667214269	0.462475952928066	0.558406120700883	0.688693398637644	-0.812029700537983	0.578628596845322	0.0761361435653788	-0.355982806336868	-0.594450629805878	0.721044166688785	6.0276124351763	-43.526768839139	50.3682020579703
18238	1647946289119	6.6310634092618	0.634798637229236	7.12145407240034	0.0170922976543747	-0.165018588198321	-0.0627358405580107	0.0359924408856159	-0.0177483523147218	-0.0168060976997333	0.651611328125	-0.372314453125	0.269775390625	0	0	0	0.201925714619957	-0.314297493997629	0.412289814310481	0.830939348001922	0.462468388565279	0.558246166824502	0.688828140252403	-0.812105151139434	0.578486229582098	0.0764127324251946	-0.35582047871171	-0.594739354179323	0.72088618208406	6.05066348573551	-43.5374174547444	50.3605986273028
18239	1647946289120	6.66643565296276	0.61631267300609	7.18124185433236	0.0272031434288493	-0.192016418714955	0.00331126900268508	0.016580669563834	-0.0256735075654447	-0.00609810749111663	0.6650390625	-0.367431640625	0.26171875	0	0	0	0.201932333982731	-0.314333309288108	0.412355191939095	0.830891749173829	0.462315532705718	0.558296935836242	0.688889599032306	-0.812193171008496	0.578373056346318	0.076333876226634	-0.355818213679672	-0.594801764564028	0.720835806328546	6.04488487959648	-43.5422751601666	50.3724629159585
18240	1647946289120	6.66113077349218	0.620093193651552	7.12532155074816	0.0417067408831711	-0.162801074142309	-0.0404235347518576	0.0456272947549634	-0.0218999036486762	-0.0164075125195199	0.665283203125	-0.369384765625	0.26708984375	0	0	0	0.202161330897536	-0.314339901507314	0.412365827346971	0.830828289748584	0.46228970151364	0.558115644485049	0.689053814484375	-0.812305135856726	0.57817044145237	0.0766766384993371	-0.355596116591866	-0.595168772712253	0.720642445220218	6.07344293473717	-43.555256679374	50.3648943802952
18241	1647946289121	6.67110174499099	0.55797445325328	7.15457087630994	0.0872131658665936	-0.213591729933464	-0.0173012239971282	0.0301824657234377	-0.023579073971133	-0.0135997232240883	0.660888671875	-0.366943359375	0.248291015625	0	0	0	0.20231853539432	-0.314363698641903	0.412416338156102	0.830755944446979	0.46217645799619	0.558031442839732	0.68919796174706	-0.812437855201216	0.577959948515619	0.0768572010150714	-0.355440083713337	-0.595452102787479	0.720485350424161	6.08895513445909	-43.5666540782318	50.3675433603874
18242	1647946289121	6.66062981897668	0.681601084870378	7.12305714296598	-0.00636253902871094	-0.132637036337409	-0.0377767183724131	0.0362692960746724	-0.0222186051018842	-0.0158163100543798	0.661376953125	-0.367431640625	0.25390625	0	0	0	0.202508510035909	-0.314391466677003	0.412414139266697	0.830700238820616	0.462145166827185	0.55785115299416	0.689364878624782	-0.812518942933216	0.577809762191891	0.0771287630552926	-0.355295387182219	-0.595766707544855	0.720296618087438	6.11189587536963	-43.5798545141766	50.3603537844065
