// Start Time : 15/03/2022 10:58:44																																
// Update Rate : 100Hz																																
// Filter Profile : 46.1 human																																
// Firmware Version : 4.4.0																																
PacketCounter	Time_Of_Arrival	Acc_X	Acc_Y	Acc_Z	FreeAcc_X	FreeAcc_Y	FreeAcc_Z	Gyr_X	Gyr_Y	Gyr_Z	Mag_X	Mag_Y	Mag_Z	VelInc_X	VelInc_Y	VelInc_Z	OriInc_q0	OriInc_q1	OriInc_q2	OriInc_q3	Mat[1][1]	Mat[2][1]	Mat[3][1]	Mat[1][2]	Mat[2][2]	Mat[3][2]	Mat[1][3]	Mat[2][3]	Mat[3][3]	Euler_X	Euler_Y	Euler_Z
21584	1647341966841	9.58519719059026	-1.21808470615861	1.14469287615626	-1.70168241477031E-13	3.93704302015588E-14	-0.082833442295767	-5.54323024431704E-05	0.00453129902412884	-0.0016595089643357	0.276123046875	-0.362060546875	0.005859375	0	0	0	-0.409088639452371	0.523291394311253	-0.530979127062655	-0.52618795913112	-0.111545433472869	0.130644517348796	0.985134318942371	-0.986934775492494	0.101415303389578	-0.125198582907239	-0.116264204271696	-0.986228648095917	0.117625203421586	-46.7864068086032	-80.1083323771626	130.490990089812
21585	1647341966842	9.55985540403953	-1.21946747886333	1.12163426297151	7.16479420280816E-13	-3.53985233052939E-14	-0.11031653412547	-0.00315825932178378	0.00290172093132462	-0.00460462164446261	0.278564453125	-0.365478515625	0.0029296875	0	0	0	-0.407591042460492	0.525427089077076	-0.528776406637036	-0.527438553723545	-0.11135622830397	0.129475376371728	0.985310061519375	-0.986112876267356	0.108530107779987	-0.1257084363318	-0.123211954280564	-0.985625356115935	0.11559183233992	-47.4007410152861	-80.1671208172316	130.697414587958
21586	1647341966842	9.60867725508149	-1.21853565677371	1.11996626371699	-0.00264660686186637	0.0174726495429961	-0.0625324995271867	-0.00166149856802222	0.00286350522119826	-0.00615950833966423	0.27490234375	-0.37060546875	-0.006103515625	0	0	0	-0.408344968269101	0.524354307672964	-0.529857253918536	-0.526837961222072	-0.111392299009963	0.130062944529368	0.985228595901906	-0.9865327170433	0.105011354719038	-0.125402605971534	-0.119770421747836	-0.985929128204273	0.116613893828834	-47.079754622547	-80.139826237395	130.57837428949
21587	1647341966842	9.58461211947309	-1.24265357758895	1.1224472467812	0.0240154864677625	0.00939716706528177	-0.0829288780671042	-0.00466706004201904	-0.000156286767005286	-0.00448509059145771	0.2783203125	-0.369873046875	0.001953125	0	0	0	-0.408344847064377	0.52435792614441	-0.529832884001206	-0.526858962339141	-0.111348239358397	0.130056692639193	0.985234401699796	-0.986532121272925	0.105063201814478	-0.125363859714223	-0.119816289751195	-0.985924429317714	0.116606502331615	-47.0727361347842	-80.1417689598399	130.568536483652
21588	1647341966843	9.58558513529836	-1.24088303213176	1.14689562081955	0.0194260386183011	-0.0144405006979996	-0.0793417531541181	-0.00160264998153077	0.0029537843783642	-0.00310954495325791	0.278564453125	-0.37158203125	-0.0048828125	0	0	0	-0.408336935419687	0.524356893321187	-0.529823974121363	-0.52687508201172	-0.111327190254403	0.130073525864015	0.985234558153216	-0.98653067340386	0.105095007236607	-0.125348593479402	-0.119847766534828	-0.98591881883005	0.116621591197224	-47.0655592815086	-80.1418213171606	130.55952192489
21589	1647341966843	9.60784708475824	-1.21883141777101	1.09590655683646	0.00165500642445604	0.0411079354072592	-0.0661190327261334	-0.00314075098311739	-0.00014929821781788	-0.00451505774522395	0.27587890625	-0.364501953125	0.00146484375	0	0	0	-0.4083408943571	0.524356388349528	-0.529803540366686	-0.52689306373078	-0.111282826776072	0.130067307957425	0.98524039090236	-0.986531934279445	0.105131845221138	-0.12530777217418	-0.119878584874798	-0.985915711671696	0.116616183985366	-47.0575772411809	-80.1437734500157	130.549593801057
21590	1647341966844	9.61003199493958	-1.24006350581279	1.1461424335564	0.0165975746411678	-0.0103081824253785	-0.0554473230408163	-0.00309951542490873	0.00299178290635985	-0.00155465167753659	0.28759765625	-0.374755859375	0.00634765625	0	0	0	-0.408328918182545	0.524353879658015	-0.529797354718117	-0.526911061183144	-0.111264456357452	0.130094467921935	0.985238879748252	-0.986529877624246	0.105164515019117	-0.125296549575336	-0.119912556916161	-0.985908643940656	0.11664100692692	-47.0489363088079	-80.1432676528675	130.539012071987
21591	1647341966845	9.60810958764066	-1.2429634372635	1.09777238120288	0.0254888542548017	0.037164699884494	-0.062620631793072	-0.00152329395261584	0.00461441097565922	0.00142065384074318	0.287353515625	-0.359130859375	-0.00390625	0	0	0	-0.408308956702384	0.524348658241783	-0.52980652459516	-0.526922505661933	-0.111272937807121	0.13014145572145	0.985231716305598	-0.98652647010144	0.105177684746017	-0.125312323498769	-0.119932719059334	-0.985901037698089	0.116684560953305	-47.041865510494	-80.1408703324327	130.53094944673
21592	1647341966845	9.5855244597875	-1.24045324732021	1.1478672521339	0.019397939351868	-0.0144651658783885	-0.0793417337382909	2.94086107647482E-06	0.00462147709464163	0.00139081518811433	0.29052734375	-0.37158203125	0.0068359375	0	0	0	-0.408292939783272	0.524340408954829	-0.529819628467918	-0.526929949946228	-0.111283406345598	0.130186686579598	0.985224558214799	-0.986524634656918	0.105176073226502	-0.125328124679531	-0.119938103566611	-0.985895237973123	0.116728021720433	-47.0348271613282	-80.138475379428	130.523777920176
21593	1647341966846	9.60769090218378	-1.21893530583754	1.09715954158926	0.00162686913498601	0.0410832366630815	-0.0661189238487338	0.00156731019012467	0.00314806776671737	0.00293067769312849	0.281005859375	-0.36181640625	-0.003662109375	0	0	0	-0.408281046084557	0.524333945691142	-0.529837885318455	-0.526927239839929	-0.111308542645549	0.130220805258112	0.985217209660922	-0.986523252635802	0.105156805378735	-0.125355168586765	-0.119926145368729	-0.985892787355941	0.116761001608117	-47.0329201686677	-80.1360173002332	130.522753793118
21594	1647341966846	9.58418260748977	-1.21781821237942	1.12280114933001	-3.00282504534857E-05	0.0131747994841373	-0.0864267090998982	0.00456115254054504	0.00307207287124041	-0.000178786813783035	0.281982421875	-0.3701171875	0.007568359375	0	0	0	-0.408285347142632	0.524315225192563	-0.52985547978645	-0.526924843293769	-0.111306569656914	0.130247583849814	0.985213892742331	-0.986528478769466	0.105112491697783	-0.125351205282944	-0.119884978742184	-0.985893975532039	0.116793239879784	-47.024127766051	-80.1349079950491	130.516433541224
21595	1647341966847	9.55999919581024	-1.24254132367541	1.12563381743669	0.0266324100420873	0.00509936068328794	-0.106822653776472	0.00769272704013955	0.00474681799918225	0.00429179753565489	0.27783203125	-0.36962890625	0.004638671875	0	0	0	-0.408281787163013	0.524291099698613	-0.529896643738574	-0.526910212467352	-0.111343220537171	0.130298891918835	0.985202966908411	-0.98653292063328	0.105031058451142	-0.125384501703375	-0.119814372039341	-0.985895874585829	0.11684965009559	-47.0179184714832	-80.1312548489601	130.514604803204
21596	1647341966848	9.55964766727858	-1.21844826312504	1.12450877812598	0.00274002758254561	0.00899021297377041	-0.110321086193355	0.00463722482289418	0.000111245503483535	0.00296074191723376	0.284423828125	-0.361083984375	0.0068359375	0	0	0	-0.408285733065689	0.524287246628007	-0.52991671603781	-0.526890802028219	-0.111377685826146	0.130298481389628	0.985199125480514	-0.986534492695658	0.104982068477432	-0.125413157283917	-0.119769385995474	-0.985901146690558	0.116851286396473	-47.0240485068802	-80.1299707527497	130.523452045264
21597	1647341966850	9.53550025666081	-1.24338341048018	1.12678724902925	0.0294025770136115	0.000914869606191398	-0.130716922846002	0.0108268550178893	-0.00434698412959261	0.00602632456199447	0.28466796875	-0.3681640625	-0.004638671875	0	0	0	-0.40830997510238	0.52428231311861	-0.529952098820935	-0.5268413360189	-0.111442341787428	0.130261947105527	0.985196645139036	-0.986540739969839	0.104867474374359	-0.12545987883824	-0.119657732038915	-0.985918170009367	0.116822040765787	-47.0418450447476	-80.1291417226013	130.547812498959
21598	1647341966849	9.55863381799137	-1.2209429665872	1.09966914988372	0.00710555119670143	0.0326735601617012	-0.113907217584586	0.00634471123437426	-0.00575754483763213	0.0107353576673829	0.28564453125	-0.36962890625	-0.006591796875	0	0	0	-0.408313054832534	0.524306211469625	-0.529985505989107	-0.526781557487697	-0.111563279888321	0.130211038836024	0.985189687291642	-0.986535322327363	0.104791625389589	-0.125565811623439	-0.119589683422128	-0.985932959492404	0.116766891735387	-47.0794535578211	-80.126816497256	130.589578073195
21599	1647341966849	9.53325816470007	-1.22347814838099	1.07566866649037	0.0143747222704774	0.052271171735196	-0.141387858129981	0.00938507171344147	-0.0088401206656338	0.00924078120968308	0.278076171875	-0.361328125	0.0009765625	0	0	0	-0.408336973648222	0.524323489848099	-0.530016399229158	-0.526714733507122	-0.111665010916664	0.130133558834286	0.985188399344057	-0.986536227063275	0.104687064999938	-0.125645895728655	-0.119487229563407	-0.985954296753568	0.116691587890642	-47.1161016755058	-80.1263861407915	130.632235229956
21600	1647341966850	9.58352169473684	-1.27113769545086	1.10017194516796	0.0518604076431034	0.0288014044030497	-0.0830142803385545	0.0063411509014106	-0.0103791621199546	0.0093455626546429	0.279541015625	-0.366943359375	0.001220703125	0	0	0	-0.408357693234307	0.52435957809168	-0.530034818535965	-0.526644204733535	-0.111779751993876	0.130026995508249	0.985189457659432	-0.98653206644758	0.104614171031806	-0.125739242442433	-0.119414274334588	-0.985976092843243	0.116582054479742	-47.1641460879571	-80.1267397662933	130.684519638011
21601	1647341966851	9.58327389869829	-1.24749559091829	1.09769583203008	0.0280211840068222	0.032737798371659	-0.0865132470563115	0.0109073468443351	-0.0134554567356636	0.00782098690126726	0.27490234375	-0.36328125	-0.000732421875	0	0	0	-0.408401567083413	0.524382069538358	-0.530056534124882	-0.526565927289262	-0.111872968443625	0.129902502914584	0.985195299759463	-0.986536338714218	0.104496461270662	-0.125803584918139	-0.119291623041847	-0.986004984428799	0.116463210300964	-47.2078928369902	-80.1286920713288	130.735267276467
21602	1647341966851	9.5833254606118	-1.24806021593937	1.09660329447982	0.0278331557370761	0.0325337186068543	-0.0865120223821112	0.00934314183251967	-0.0119821220576946	0.00628091098072982	0.28271484375	-0.366455078125	-0.001708984375	0	0	0	-0.408441855858459	0.524412325960816	-0.5300715482936	-0.526489426724689	-0.111968267860014	0.129770243867357	0.98520190357055	-0.986538018469304	0.104398808145048	-0.125871470050019	-0.119188275879332	-0.986032744215171	0.11633392552653	-47.2550235021319	-80.1308993843364	130.788257902919
21603	1647341966852	9.63314394556849	-1.24661357216406	1.11784360915179	0.0177389910535561	0.0170731791719219	-0.0351377873399592	0.00933022021910634	-0.0150786575529704	0.00484648606281612	0.279296875	-0.37109375	-0.006591796875	0	0	0	-0.408493671361426	0.524437186855715	-0.530077975038954	-0.526417987799742	-0.112034045157068	0.129626618279637	0.985213333526871	-0.986543705708234	0.10430052167253	-0.125908371073184	-0.1190793410009	-0.986062037101228	0.116197115001054	-47.296998180669	-80.1347209840515	130.836288904884
21604	1647341966853	9.63323062328343	-1.24679898910723	1.11688939254768	0.0174989135998958	0.0168121012323313	-0.0351369023265562	0.012281448028367	-0.00752944011151992	0.00150949170794453	0.28125	-0.37255859375	0.008544921875	0	0	0	-0.408542502879227	0.52444108481414	-0.530096774743169	-0.526357275343502	-0.112082084068284	0.129527641239053	0.985220887205483	-0.986553534849717	0.104180865496133	-0.125930417850519	-0.118952634718361	-0.986087692560619	0.11610914380029	-47.3236243464436	-80.1372473570248	130.870095458115
21605	1647341966854	9.60867880969517	-1.22255204265646	1.1155672457423	-0.00351540845172084	0.0166112368644077	-0.0625312684387271	0.0168636684209747	-0.0136575103123393	7.52914395587806E-05	0.2822265625	-0.375244140625	0.005126953125	0	0	0	-0.408622883498978	0.524432483654929	-0.530113290481296	-0.526286811941547	-0.112099061314767	0.129393039887274	0.985236642477877	-0.986573494573704	0.104014476672149	-0.125911589805107	-0.118770957127484	-0.986122928377264	0.115995818337008	-47.347236876214	-80.1425188651249	130.903868902362
21606	1647341966855	9.60811788247094	-1.24832813717995	1.09159509414567	0.0245204095190359	0.0361203765123194	-0.062614223401793	0.00925413106643569	-0.0121188416455112	0.00170675409283965	0.28173828125	-0.36962890625	0.00537109375	0	0	0	-0.408676010235903	0.52445791875626	-0.53011473996977	-0.526218749740352	-0.11215549215873	0.129245891823781	0.98524953439487	-0.986579370919516	0.103924562248893	-0.125939788142699	-0.118668826802514	-0.986151704763547	0.115855620223033	-47.3881579458537	-80.1468344092314	130.95040974828
21607	1647341966856	9.65605490352237	-1.24936916936235	1.06431206388523	0.0233156365102411	0.0681307236299506	-0.0184087102983081	0.00921577015305447	-0.0106392979695827	0.000136223555553698	0.28076171875	-0.365478515625	0.00048828125	0	0	0	-0.40872809943566	0.524461755478715	-0.530117531855975	-0.526171654682032	-0.112169461081771	0.129141124738216	0.985261681941389	-0.986590150912237	0.103833486301284	-0.125930461944249	-0.118565956849325	-0.986175023524663	0.115762415543796	-47.4090192889469	-80.1509024899802	130.976943526482
21608	1647341966857	9.63342128692314	-1.22215610679844	1.11178473462114	-0.00689157694482723	0.020023159024797	-0.0386355876352447	0.0122516385371749	-0.00757536286540598	-1.6342683379572E-05	0.2890625	-0.375	-0.001953125	0	0	0	-0.408783966899914	0.524469052986774	-0.530128803201939	-0.526109620592902	-0.112208671050327	0.129022647043533	0.985272739240765	-0.986600807028231	0.1037182408425	-0.125941947292315	-0.118440118677595	-0.986202658213015	0.115655761729453	-47.4379341328074	-80.154606905823	131.012896143207
21609	1647341966858	9.60912013596251	-1.22224820976928	1.11209339289831	-0.0040653535809611	0.0158875504302531	-0.0625302761506532	0.00920750064914934	-0.00911385312866152	9.07392264560449E-05	0.2802734375	-0.3623046875	0.003662109375	0	0	0	-0.408832110206496	0.524468801324443	-0.530134557284215	-0.526066662386503	-0.112220344779256	0.12893286076662	0.985283163172984	-0.986611607898394	0.103627313674346	-0.125932184213507	-0.118339044181415	-0.986223958984557	0.115577564202811	-47.4550267811673	-80.1581003952395	131.035598878934
21610	1647341966858	9.60917537694513	-1.22235958338818	1.11149349359594	-0.00433907195539532	0.0154126733812196	-0.0625296318886335	0.0108079362209651	-0.00591799732993647	0.004543011456247	0.287109375	-0.364990234375	-0.00146484375	0	0	0	-0.408869537652608	0.524485419864098	-0.530155549725441	-0.525999846601726	-0.112299725109407	0.128831253410535	0.985287409787125	-0.986615697912007	0.103521588550116	-0.125987084011278	-0.118229591786304	-0.98624834035284	0.115481491059446	-47.4912010992069	-80.1595239627496	131.078036194945
21611	1647341966859	9.65890596775631	-1.22098268626398	1.13353748759394	-0.0144384521995908	-5.57810925694048E-05	-0.0111588111789977	0.0139431438550957	-0.00424095900765182	0.00901022058886624	0.2783203125	-0.3642578125	0.000732421875	0	0	0	-0.408893830853294	0.524478031883736	-0.530207119766317	-0.525936345302914	-0.112393591559062	0.128798726336288	0.985280959255077	-0.986622052957637	0.103372490478449	-0.126059719299785	-0.118087277867314	-0.986268227363344	0.115457258322959	-47.5136389504276	-80.1573616691437	131.108916245476
21612	1647341966860	9.63341879326769	-1.22353672292027	1.11028683515305	-0.00738640713776631	0.0190734015306793	-0.0386340495284223	0.0109102142094221	0.00346624578763241	0.0118914261169632	0.27587890625	-0.37060546875	0.003173828125	0	0	0	-0.408888896486536	0.524483103285146	-0.530265973342825	-0.525875785916401	-0.11252905623366	0.128797436296573	0.985265665648911	-0.986618705608961	0.103255735689619	-0.126181546946031	-0.117986190910885	-0.986280626115421	0.115454689396812	-47.5418389953058	-80.1522369524611	131.143393215414
21613	1647341966861	9.58441462970133	-1.22542429533347	1.1124979485884	-0.00173107982585572	0.0108061933137367	-0.0864239430942248	0.00806423348275251	-0.000844326104080903	0.0212406591112461	0.275390625	-0.365966796875	0.00537109375	0	0	0	-0.408856654507165	0.524507373179018	-0.530341195555432	-0.525800787221634	-0.112739536444637	0.128810976513588	0.985239833366407	-0.986604295962847	0.103148904724088	-0.126381433137457	-0.117905725517911	-0.986290036340141	0.115456503092109	-47.586554907958	-80.1435868346238	131.19346491571
21614	1647341966861	9.53638338702891	-1.22614975241315	1.13866498776819	-0.000742640205719481	-0.0216406472872834	-0.130634885539276	0.00496703541689847	-0.00400048090937348	0.0183448080339541	0.281494140625	-0.369873046875	0.009033203125	0	0	0	-0.408838780111685	0.524559855052329	-0.530387578539248	-0.525715537981846	-0.112948050002494	0.128745159910986	0.985224553997782	-0.986586804851612	0.103079736816124	-0.126574264171694	-0.117852511612275	-0.98630586110872	0.115375620688538	-47.6500421978843	-80.1384739686687	131.26045696056
21615	1647341966862	9.55744667776278	-1.20773278501536	1.0627053329467	-0.0140706743706259	0.0576413460464223	-0.120978155969672	0.00803531156027183	-0.00703948539909224	0.0183756025938237	0.281005859375	-0.370361328125	0.004638671875	0	0	0	-0.408830358652977	0.524594623960103	-0.530442573684369	-0.525631900077363	-0.113137686929479	0.128694659253218	0.985209393213415	-0.986575492297348	0.102976827733562	-0.126746088492614	-0.11776528263666	-0.98632320140491	0.115316436711672	-47.7033708577383	-80.1334033768499	131.319258529667
21616	1647341966863	9.55882575148871	-1.25640470767406	1.08917278738786	0.0289937781519309	0.0255425227867779	-0.110393477461729	0.00183161560174674	-0.0118254936840152	0.0125383916320862	0.281494140625	-0.371337890625	0.00732421875	0	0	0	-0.408842718443072	0.524663904651828	-0.530446989066518	-0.525548675692216	-0.113292442108474	0.128541391164044	0.985211618546346	-0.986561459351284	0.102947246732688	-0.126879278500566	-0.117734062546755	-0.986346275477214	0.115150837463154	-47.7743031552239	-80.1341474877829	131.391963758182
21617	1647341966863	9.6073604676382	-1.23270478942678	1.08459702888867	-0.000501931286494697	0.0377428606825671	-0.0661052932367809	0.00177054941850388	-0.0119186431195772	0.00948863187391564	0.275634765625	-0.3720703125	0.000244140625	0	0	0	-0.408854075121575	0.52470989339597	-0.530452264587783	-0.525488599326916	-0.113400154467835	0.128433678712949	0.985213273935614	-0.986552791399149	0.102917480500349	-0.126970791877537	-0.117702993798881	-0.98636341293649	0.115035746057742	-47.8233706908845	-80.134701055946	131.442803359515
21618	1647341966864	9.60738518580424	-1.23340287340173	1.08358392810702	-0.00074511919263498	0.0371763009360409	-0.0661031313040805	-0.00291525375190216	-0.00902445520912694	0.00491455059768006	0.27734375	-0.3740234375	-0.001953125	0	0	0	-0.408866187728415	0.524773288306563	-0.530429080933446	-0.525439270051687	-0.113484028039965	0.128292430576497	0.985222019463938	-0.986540645822932	0.102946861265066	-0.127041323572075	-0.117723954737758	-0.986378728487413	0.1148828728247	-47.8771090203895	-80.137626102856	131.495107937057
21619	1647341966865	9.58327849085105	-1.25841069121048	1.0851248102122	0.0259204036918073	0.0291102739090376	-0.0864958879942961	-0.00752472723330273	-0.00908792571127359	0.00348303455375207	0.275390625	-0.37109375	0.001708984375	0	0	0	-0.40886133315327	0.524824230820804	-0.530400012712079	-0.525421510323387	-0.113529293483243	0.128206482140383	0.985227992628297	-0.986527820878515	0.103016473534315	-0.127084479041474	-0.11778776742041	-0.986382635754372	0.114783873990966	-47.9113609956773	-80.1396243931332	131.525504382055
21620	1647341966865	9.6319040745911	-1.23373663303211	1.08088344396202	-0.00389331914845295	0.0406494767759793	-0.0422051001408459	-0.0092274024992643	-0.00474957446035026	-0.00424881853951366	0.279052734375	-0.367919921875	0.002197265625	0	0	0	-0.408869268148127	0.524879422002724	-0.530343351245065	-0.525417399514192	-0.113524955703519	0.128089118641116	0.985243757715955	-0.986517379202178	0.103123702708338	-0.127078568105675	-0.117879366152777	-0.986386678552313	0.114655027844204	-47.9420433128944	-80.1449004458487	131.550463424794
21621	1647341966866	9.63422839945162	-1.25491643870469	1.13033058395628	0.0110475801319611	-0.010764201245036	-0.0315534109942135	-0.0107077447021164	-0.00775977289310067	-0.00260041646639691	0.28076171875	-0.37109375	-0.00341796875	0	0	0	-0.408868422880477	0.524922975731178	-0.530292669368139	-0.525425700870419	-0.113508891272122	0.128009936496531	0.985255899632338	-0.986507653380266	0.103232595171291	-0.127065656714791	-0.117976190073821	-0.986385567337821	0.114564964641513	-47.9615407137368	-80.1489658503462	131.564025802235
21622	1647341966867	9.63258593896698	-1.28195690746752	1.08265810593514	0.043531148706353	0.0320758461414548	-0.035195346034584	-0.010814809841195	0.00130042000203986	-0.0059265963120283	0.2724609375	-0.368408203125	0.004638671875	0	0	0	-0.408863237937305	0.524962481168645	-0.530236850968552	-0.52544659852704	-0.113473449519572	0.127946579817802	0.985268211690124	-0.986498019202657	0.103359469076751	-0.127037310509182	-0.118090788647394	-0.986380501056818	0.114490492057366	-47.9737120652053	-80.1530899192242	131.569224267719
21623	1647341966868	9.6082331740948	-1.28188866573815	1.08359877005965	0.0463569548187919	0.0279488756070473	-0.0590911294518825	-0.0076620938842604	-7.48580827889214E-05	-0.00136851696572312	0.28271484375	-0.36962890625	-0.001708984375	0	0	0	-0.408846777413338	0.52498034412	-0.530213049449306	-0.525465577445415	-0.113460479037371	0.127944368598334	0.985269992560711	-0.986490456193561	0.103436869584793	-0.127033042353229	-0.118166406121322	-0.986372674274015	0.114479901772751	-47.9753904896038	-80.1536865844021	131.566464541031
21624	1647341966869	9.63464077081757	-1.27846134311972	1.13127828250054	0.0342502457066195	-0.0160964459294263	-0.02805019222928	-0.00470981535483613	0.00132348063483449	-0.00605163783520584	0.284423828125	-0.3740234375	-0.004150390625	0	0	0	-0.408855274293998	0.525005941792239	-0.530177090984518	-0.525469673682524	-0.113437973443923	0.12788106931228	0.985280801747646	-0.986486862662058	0.103499233754346	-0.127010150804701	-0.118218001912169	-0.986374341071285	0.114412251529648	-47.9870980102515	-80.1573088766977	131.574897491171
21625	1647341966870	9.58417771157863	-1.30575148643469	1.08606513569335	0.0726392426842377	0.019192301766569	-0.0794791539093929	-0.00158795568832374	-9.81150423974976E-05	-0.00301850366935601	0.283203125	-0.3720703125	0.001220703125	0	0	0	-0.408859141810373	0.525004420451271	-0.530164859061581	-0.525480525691414	-0.113408838554321	0.127876904100871	0.98528469628597	-0.986488331270305	0.103518848748599	-0.126982755605999	-0.11823369911023	-0.98637282269502	0.114409121329422	-47.9817312360161	-80.1586143081818	131.568517813857
21626	1647341966871	9.58495750558572	-1.27969004142472	1.10886683418233	0.0438101959338058	-0.00136731099391544	-0.0794103476810779	0.00150306458282311	-0.00156583980645465	-0.00151026483960527	0.28271484375	-0.363037109375	-0.002197265625	0	0	0	-0.408873979355174	0.525039149794545	-0.530149587367103	-0.52544968855617	-0.113449387604977	0.127784178152946	0.985292058359262	-0.986483564127959	0.103526968041511	-0.127013167008509	-0.118234572598099	-0.986383987452102	0.114311920378571	-48.0127700406156	-80.1610825100894	131.599319333264
21627	1647341966872	9.60962925539257	-1.30385172235217	1.10907200641853	0.0648106262310262	-0.00118598281923927	-0.0520089726956634	0.00310642499159022	-0.00451866348358069	0.00160001146926879	0.270751953125	-0.37158203125	-0.000244140625	0	0	0	-0.408889783778963	0.525046308917462	-0.530152679247987	-0.525427116638952	-0.11347097964334	0.127741043816963	0.985295165167948	-0.986485330725777	0.103494562814748	-0.127025854575507	-0.118199107617759	-0.986392975031928	0.114271036426684	-48.0258066692742	-80.1621242798755	131.614337111893
21628	1647341966873	9.58328400261964	-1.30722306145481	1.0608813351895	0.0758777917763578	0.0415627318049267	-0.0830343015095938	0.00928857499913473	-0.00745405910883892	0.00461636592668486	0.27197265625	-0.377685546875	-0.004638671875	0	0	0	-0.408920137156158	0.525085167628437	-0.530171377207312	-0.525345789889771	-0.113592244946563	0.127610804341276	0.985298068862095	-0.986482399402416	0.103405264436583	-0.12712130803313	-0.118107059726562	-0.986419197857672	0.11413977632961	-48.0799431352901	-80.1630980404032	131.673749567254
21629	1647341966874	9.60743525022371	-1.28327536369107	1.05764299893116	0.0492000020564105	0.0496194772579146	-0.0626446137264303	0.0155403901615134	-0.0118224543951586	0.0107283617931106	0.281494140625	-0.3623046875	0.007568359375	0	0	0	-0.408963963135156	0.525097302466759	-0.5302161058623	-0.525254396348224	-0.113712591947299	0.127504933540847	0.985297893205588	-0.986488428934388	0.10323871588201	-0.127209854655979	-0.117940773319446	-0.986450332994914	0.114042599597839	-48.1240319371722	-80.1630391308765	131.727503694996
21630	1647341966875	9.58408284738375	-1.28246494210913	1.08198754312906	0.0467479530178005	0.0211119884084937	-0.0829686501554558	0.0169189984911186	-0.0135741921736045	0.00311863632515966	0.284423828125	-0.373779296875	0	0	0	0	-0.40903138413425	0.525134291145282	-0.530241798259292	-0.525138970592847	-0.11384477671581	0.127308452279343	0.985308035485739	-0.986494076133394	0.103073924343944	-0.127299661720131	-0.117765888814411	-0.98649294173784	0.113854606113124	-48.1911035898775	-80.1664410969004	131.804472489988
21631	1647341966877	9.60856604780802	-1.28240614480712	1.08002898767723	0.0439037423785348	0.0252281627516194	-0.0590723616171171	0.0153777057895162	-0.010528917256218	0.0030577253518384	0.2783203125	-0.361083984375	-0.006103515625	0	0	0	-0.409091426928135	0.52512780306447	-0.530268646371732	-0.525071573728454	-0.113888093752453	0.127207420747963	0.98531607832618	-0.986508549849088	0.102918734177986	-0.127313059934366	-0.117602649528329	-0.986522177278267	0.11376998972517	-48.215265713908	-80.1691396887774	131.837907703044
21632	1647341966878	9.60840791137237	-1.25815863967929	1.07766713798937	0.0192528917003659	0.0283139084432673	-0.0625766042267095	0.0169115520136116	-0.0120488202045416	0.00307242146513344	0.281982421875	-0.36865234375	-0.00634765625	0	0	0	-0.409157937822523	0.525168162028919	-0.530287704875665	-0.524960125691168	-0.114013296702267	0.127006356036426	0.985327536254534	-0.986513244779615	0.10276946394904	-0.127397233698473	-0.11744184113627	-0.986563643565876	0.113576367015974	-48.2825618265673	-80.1729854028706	131.914245163305
21633	1647341966878	9.58509602920073	-1.25686361986458	1.10231264921982	0.0176364963124864	0.000450265191133965	-0.0829106966727089	0.0183839762104603	-0.00751358502825841	0.00137638901196866	0.289306640625	-0.364013671875	0.006103515625	0	0	0	-0.409222327684268	0.52514243071695	-0.530323998860254	-0.524899009542057	-0.114036232612875	0.126933067748732	0.985334325984514	-0.98653309920379	0.102587085515077	-0.127390478690079	-0.117252641022826	-0.986592056625948	0.113525027970727	-48.2939199616713	-80.1752649963718	131.93641521119
21634	1647341966879	9.63396873785129	-1.2561593150516	1.09990545984153	0.0113190034877293	0.00785015752284008	-0.0351164926392293	0.0151909177605445	-0.0046613675744445	-0.00475265737663457	0.2802734375	-0.376708984375	-0.000244140625	0	0	0	-0.409290139824912	0.525146058585352	-0.530330571387934	-0.524835863528514	-0.114057795592765	0.126798799286112	0.985349117706064	-0.986547214273714	0.102462132986903	-0.127381730685954	-0.117112822838892	-0.986622306560811	0.113406397188747	-48.3217182525266	-80.1802330040107	131.971949383068
21635	1647341966880	9.60966686417028	-1.25554697612659	1.10103684157194	0.0141584682711675	0.00372654187183684	-0.0590130219243097	0.0166166189194788	0.00287755898005002	-0.00806784836398734	0.281982421875	-0.36767578125	-0.006591796875	0	0	0	-0.409347289059834	0.525078326812739	-0.530358491398291	-0.524830847276176	-0.113974757373472	0.126818213551623	0.98535622766248	-0.986575772051095	0.102309335082189	-0.127283329453729	-0.116952984927467	-0.986635667643642	0.113455095301799	-48.2875092147973	-80.1826218686853	131.946841207621
21636	1647341966881	9.60946628211024	-1.23029066795098	1.1001703913977	-0.0106176991690218	0.0068707446056807	-0.0625246865658351	0.0166328558746992	0.00597559314211754	-0.00663673279450374	0.275146484375	-0.37158203125	0.000244140625	0	0	0	-0.409383598824601	0.525055795886004	-0.530390374843867	-0.524792845314145	-0.113995077041004	0.126791685276042	0.98535729101442	-0.986588610490152	0.102182238572801	-0.127285913483631	-0.116824809272374	-0.986652248092058	0.113442960439867	-48.2911310628848	-80.182979192351	131.95787869954
21637	1647341966882	9.58685304610455	-1.20251825655951	1.14883945803167	-0.0405132731876015	-0.0407928277338274	-0.0828195213059928	0.0121787879100467	-1.61620677984627E-06	-0.0017789744528672	0.2783203125	-0.370849609375	0.00439453125	0	0	0	-0.409420175850413	0.525020444660744	-0.530417118060796	-0.5247726490233	-0.113977572887371	0.126788866708009	0.985359678573059	-0.986604717820264	0.102065600949394	-0.127254641870686	-0.116705799570979	-0.986664682849111	0.113457304589704	-48.2805399154338	-80.1837815429849	131.954137492098
21638	1647341966885	9.61054397541076	-1.22785061594089	1.12489864331907	-0.0158449938402747	-0.0172959261659047	-0.0589691293672345	0.0106442024293232	-0.0046310850398882	-0.00313080797661492	0.279541015625	-0.3720703125	-0.0048828125	0	0	0	-0.409459926202076	0.525029108550798	-0.530433962262227	-0.524715938091972	-0.114031506293704	0.126697548126229	0.985365184523581	-0.986611068290836	0.101964761026769	-0.127286242126826	-0.116599380351716	-0.986686839279594	0.113374008017889	-48.3085070526744	-80.1856320919008	131.988140162885
21639	1647341966882	9.58494805148696	-1.20492494756902	1.09995151545837	-0.0323929006253005	0.00626341222054762	-0.0899368208488269	0.00763135837210238	2.86823848575055E-05	-0.000159018068648503	0.2763671875	-0.36669921875	-0.001708984375	0	0	0	-0.409480134632262	0.525009083654614	-0.530453234172876	-0.524700722104728	-0.114030343128642	0.126696809510489	0.985365414100691	-0.986619970542697	0.101890771394161	-0.127276488131276	-0.116525167119779	-0.986694577447634	0.113382962843374	-48.3040786674588	-80.1857092602273	131.988015643996
21640	1647341966883	9.53719158423113	-1.2038289182705	1.12606768573335	-0.0317801418440806	-0.0262928150260479	-0.134177430820811	0.00773263793513704	-0.00750361530038574	0.00312673538118032	0.286865234375	-0.376953125	0.0029296875	0	0	0	-0.409507814849933	0.525050462688533	-0.530460304180674	-0.524630562296876	-0.114132245361793	0.126566839993903	0.985370319008358	-0.986615910640014	0.101830430530759	-0.127356225956555	-0.116459758889723	-0.986717486635297	0.11325072241478	-48.3551061561036	-80.1873581026371	132.042709940774
21641	1647341966885	9.58526923682132	-1.22957543452841	1.10048981268763	-0.00919279027604718	0.00171530481297487	-0.0864222815730748	0.00621406277090136	-0.00903479408543502	0.00320587105205021	0.279052734375	-0.36767578125	-0.00830078125	0	0	0	-0.409539437905569	0.525065083990029	-0.530465999073245	-0.52458548416989	-0.114175037196464	0.126479807196773	0.985376536788173	-0.98661924464124	0.101766545254428	-0.12738146007378	-0.11638954843428	-0.986735237355212	0.113168212749069	-48.3814777364914	-80.189448676868	132.072994816239
21642	1647341966886	9.58535333172092	-1.22983097026356	1.09947136834251	-0.00969640894038987	0.00112462112939377	-0.0864226843718612	0.00471079073381805	-0.0136168634555682	0.0033797692796135	0.282470703125	-0.365966796875	-0.0009765625	0	0	0	-0.409575189766822	0.525129780656285	-0.530447781116982	-0.524511228577067	-0.114272270048094	0.126291375610279	0.985389434053623	-0.98661189386831	0.101746630871085	-0.127454281936584	-0.116356431604113	-0.98676142585371	0.112973754790708	-48.4466532569672	-80.1937864695679	132.139751217195
21643	1647341966888	9.5623361764211	-1.25305282932716	1.12510801436064	0.0125267419261146	-0.0306841463845048	-0.103249478097119	0.00467920342030487	-0.0136645221559905	0.0018549427548713	0.2841796875	-0.372314453125	0.002197265625	0	0	0	-0.409618614218387	0.525157985029447	-0.530436245137089	-0.524460743517078	-0.114307038790644	0.126157002879045	0.985402613913466	-0.986614947172974	0.10169996146135	-0.127467893422738	-0.116296375256431	-0.986783425308379	0.11284336329124	-48.4825323337543	-80.1982212722947	132.178771023518
21644	1647341966889	9.61026590431315	-1.25436119239912	1.09715314364647	0.0110396608336025	0.000887933950239356	-0.0590083218095252	0.00318350464946519	-0.0197720281963733	0.00207664925280726	0.280517578125	-0.373779296875	-0.001220703125	0	0	0	-0.409676069207415	0.525224054097389	-0.530402417412133	-0.524383911766589	-0.114374062798262	0.125925537034457	0.985424443010017	-0.986612440777661	0.101677587844254	-0.127505136496223	-0.116251733155965	-0.9868152954088	0.112610422632529	-48.5495915390738	-80.2055707725881	132.247845531146
21645	1647341966891	9.58683739699594	-1.22868187127497	1.11935117921221	-0.0144040051543314	-0.0230349332675323	-0.0828713711773243	4.43877047948875E-05	-0.0153023161143386	-0.00105065431641567	0.281982421875	-0.365234375	-0.000244140625	0	0	0	-0.409719412027995	0.525262807585362	-0.530367625592353	-0.524346419934862	-0.114381670617855	0.125771994089311	0.985443168797403	-0.986613468825504	0.101680370261928	-0.127494962392651	-0.116235521931873	-0.986834589891434	0.112457972749954	-48.5858319170595	-80.2118797938394	132.284535468315
21646	1647341966891	9.61063242919724	-1.25429133553263	1.09401792476048	0.0107273181664948	0.000532928193744541	-0.0590079474292313	4.44243929030307E-05	-0.0153023409562748	-0.00105065943568666	0.27734375	-0.365966796875	-0.00146484375	0	0	0	-0.409761201624106	0.525320057067367	-0.530328506618669	-0.524295975908568	-0.114418974579301	0.125586648217201	0.985462476224128	-0.986609759501875	0.101694865422361	-0.127512104532786	-0.116230291713793	-0.986856700912699	0.112269190572613	-48.6374022745888	-80.2183889980493	132.335898360804
21647	1647341966893	9.61183278530291	-1.25269270661653	1.11693624075914	0.00627255428331948	-0.0232256194321965	-0.0554574199702582	-0.00454198779020983	-0.013793817157073	-0.00100050644208723	0.271484375	-0.367919921875	0.001953125	0	0	0	-0.409788412479721	0.525367150920177	-0.530284788875253	-0.524271739099957	-0.114425201156912	0.125447915474617	0.98547942334849	-0.986605398452912	0.101742999369756	-0.12750745006789	-0.116261176167153	-0.986869384762907	0.11212562746273	-48.6727237432962	-80.2241059992877	132.368979702527
21648	1647341966894	9.5611815672653	-1.25589320754831	1.06889623891533	0.0204591490079028	0.0159383777674537	-0.110351196265142	-0.00154618903979631	-0.0154033386150125	-0.00406800809183039	0.281494140625	-0.372314453125	0.006103515625	0	0	0	-0.409830352690223	0.525414895503681	-0.530247658721576	-0.524228661956735	-0.114446783993716	0.125280097408666	0.985498265258123	-0.986603985140549	0.101753004868188	-0.127510401556432	-0.116251925310008	-0.986889671236643	0.111956539193325	-48.7162566787403	-80.230466083194	132.412550792308
21649	1647341966895	9.58684917511228	-1.25376637551277	1.09053119055093	0.0131514978915902	-0.00371225950963242	-0.0829042984820489	-0.00461556770205064	-0.0185133286251295	-0.0054325961072924	0.27587890625	-0.369140625	-0.001953125	0	0	0	-0.409881409590742	0.52546555960431	-0.530182555429516	-0.524203809276377	-0.114415192824086	0.125090301812067	0.985526042295988	-0.986604558860077	0.10180737598027	-0.127462553844353	-0.116278149656502	-0.986908138880503	0.111766351483272	-48.7538899072669	-80.2398497034517	132.447932692663
21650	1647341966896	9.56295923330367	-1.27791591829575	1.09134060301902	0.0394108282682218	-0.0118443128802081	-0.103280121785049	-0.00459080183167978	-0.0169402729115245	-0.00395512875945535	0.27783203125	-0.37158203125	-0.00146484375	0	0	0	-0.409917449744247	0.525525935904997	-0.530134542425672	-0.524163659569673	-0.1144402847634	0.124910020802998	0.985545994830412	-0.98659902648554	0.101850102644592	-0.127471241968813	-0.116300396220552	-0.986926564286463	0.111580350172698	-48.8031266121931	-80.2465955726205	132.495346710571
21651	1647341966897	9.56321889637914	-1.27757460730323	1.08946330570185	0.0394017496277642	-0.0118596941026959	-0.103280103714193	-0.00151485259025754	-0.0215052443201152	-0.00387929054838614	0.283935546875	-0.362548828125	-0.004638671875	0	0	0	-0.409980420493684	0.525579348383256	-0.530075673217056	-0.524120390777098	-0.114427741566968	0.124692453469986	0.985575001716013	-0.986601422481841	0.101871670950613	-0.127435457446256	-0.116292412120007	-0.98695185024669	0.111364806729707	-48.8500550777009	-80.2564109301466	132.541973325704
21652	1647341966898	9.5868394255517	-1.27839356383115	1.06220397673325	0.04073467320982	0.0156178256830121	-0.0829312464181093	-7.75648688725048E-05	-0.0170182047723165	-0.00710392235969587	0.28759765625	-0.37255859375	0.0048828125	0	0	0	-0.410041450476808	0.525631113634619	-0.530012155270375	-0.524084970721121	-0.114401904710235	0.124481721252467	0.985604639433426	-0.986603898254383	0.101906248313056	-0.127388635694136	-0.116296827763812	-0.986974881964471	0.111155882540211	-48.8929278675311	-80.2664498729387	132.583808633281
21653	1647341966899	9.61230343579847	-1.25185686092263	1.08206051031581	0.00959050328302066	-9.22368208131526E-05	-0.0590067492606092	0.00157898710186164	-0.0229716249527754	-0.00237373479215522	0.278564453125	-0.3603515625	0.00146484375	0	0	0	-0.410112516537219	0.525683361673292	-0.529962076239348	-0.524027599261199	-0.114405597984108	0.124250856307215	0.985633341490041	-0.98660816173753	0.101895843055178	-0.127363936657782	-0.116257018466807	-0.987005046529651	0.110929454078753	-48.9452952634982	-80.2761816702906	132.637725373157
21654	1647341966900	9.58842791555325	-1.27622585545893	1.08254360450064	0.0362466803910533	-0.0081934524516776	-0.0793825950786573	0.00313043405008955	-0.0213927447000815	-0.000929727007401718	0.283447265625	-0.374755859375	-0.005126953125	0	0	0	-0.410185068856333	0.525727619405856	-0.529927619573528	-0.523961255718695	-0.114425623586028	0.124031842452195	0.985658601507065	-0.986614321514863	0.101849854600919	-0.127353004281559	-0.116185013012504	-0.987037339301653	0.110717358962354	-48.9971604735158	-80.2847543875741	132.693096563581
21655	1647341966901	9.61413733492317	-1.27424391592928	1.10386521451386	0.0289449851974472	-0.0278448071213935	-0.051937431543152	0.00305612013724381	-0.0199625298622997	-0.00402662760434806	0.2783203125	-0.37109375	-0.001708984375	0	0	0	-0.410256577319976	0.525764328473397	-0.529883243796182	-0.523913313072547	-0.114408762302093	0.123829223844908	0.985686034409776	-0.986622319350634	0.10182657741947	-0.127309650420586	-0.116133690493666	-0.987065180954634	0.110522823341233	-49.0373875972297	-80.2940730308502	132.735576753035
21656	1647341966902	9.588116237982	-1.30157096245428	1.05590111078614	0.0638436423057239	0.011275142504169	-0.0794050951300047	0.00312292419322984	-0.0198672982553771	-0.000977065479100789	0.277587890625	-0.371337890625	-0.007080078125	0	0	0	-0.410301100395307	0.525839892060101	-0.52984593609364	-0.523840337257142	-0.114488616153448	0.12360397502722	0.985705034038449	-0.986614720403255	0.101832582038911	-0.127363726071818	-0.116119551561642	-0.987092793304034	0.110290829865244	-49.1090198820053	-80.3005321845414	132.807505714371
21657	1647341966903	9.61329173382337	-1.25091458220443	1.07434281463039	0.0088669032095452	-0.000491988931164447	-0.059006076579422	0.00460769287210625	-0.0183836084267366	-0.00258316506229935	0.28173828125	-0.369140625	-0.004638671875	0	0	0	-0.410368585667169	0.525871577878517	-0.529812528465891	-0.52378945403441	-0.114484463479723	0.12341807873834	0.985728809288993	-0.986622781364618	0.101792617156214	-0.12733322576937	-0.116055137387816	-0.987120175527289	0.110113414954173	-49.1478720580806	-80.3086208746029	132.849463672762
21658	1647341966904	9.61352138926414	-1.25061678830654	1.07263315345189	0.00819790164560904	-0.000949840562523561	-0.0590055251857287	0.00460774991287155	-0.0183836490703766	-0.00258317342846461	0.2783203125	-0.362060546875	-0.007568359375	0	0	0	-0.410418386368202	0.52594219578204	-0.529769874649898	-0.523722669683412	-0.114542626781203	0.123192291507355	0.985750295948842	-0.986617680770609	0.101801256088706	-0.127365836273261	-0.11604110754766	-0.987147488256911	0.109883109653777	-49.2144728452269	-80.3159367087843	132.916289378111
21659	1647341966905	9.61266776823726	-1.25184602305589	1.04658124633349	0.0126467460570601	0.0227643333830162	-0.0625512611531747	0.00460780699602169	-0.0183836898819657	-0.00258318182263473	0.272216796875	-0.372802734375	-0.004638671875	0	0	0	-0.410485772165305	0.525974275155829	-0.529736167517219	-0.523671734532543	-0.114538690603061	0.123005802423873	0.985774041515091	-0.986625628329582	0.101762047348045	-0.12733560084592	-0.115977402446311	-0.987174786088864	0.109704985448306	-49.25371562169	-80.3240280341127	132.958595179344
21660	1647341966905	9.61504756550111	-1.24863954299303	1.09356058942981	0.00299840628573834	-0.0251361582805299	-0.055460599282851	0.00467573747841112	-0.0182881880962007	0.000466348839376958	0.280029296875	-0.369384765625	-0.0029296875	0	0	0	-0.410526666843406	0.526049850480381	-0.529706673648186	-0.523593592887258	-0.114635210595712	0.122787057441258	0.985790092776649	-0.986617024285988	0.101757391406036	-0.127405968005037	-0.11595523222666	-0.987202497879314	0.109478821240026	-49.3278238318902	-80.329501315795	133.033533186082
21661	1647341966906	9.61310857193178	-1.25127010016759	1.04321577095446	0.0118976543448976	0.0223125719659879	-0.0625492740009346	0.00141079901127502	-0.017061460767054	-0.00866071130821132	0.279296875	-0.361572265625	-0.0078125	0	0	0	-0.410597977464872	0.526074932128173	-0.529651141228216	-0.523568653839918	-0.114570331236026	0.122606863781672	0.985820062767081	-0.986628076288862	0.10175793899481	-0.127319915685134	-0.115925313366014	-0.987224837007838	0.109308933376191	-49.3526700470853	-80.3397289333461	133.059327350459
21662	1647341966908	9.61558451241344	-1.24742954264057	1.09021522571911	0.00271494202853716	-0.0256281578119833	-0.0554617961644936	0.00297944655770263	-0.0185331767074564	-0.00712310319309522	0.28369140625	-0.370361328125	0.001220703125	0	0	0	-0.41066877494284	0.526128565240211	-0.529585407970033	-0.523525726006314	-0.114543942993017	0.12237402368046	0.985852059617399	-0.986632317078986	0.101780905904322	-0.127268684634702	-0.115915296742769	-0.987251358834998	0.109079780250449	-49.4006943372314	-80.3506600924031	133.107077544351
21663	1647341966909	9.61476501983991	-1.248325370135	1.06412177508798	0.00716205039284344	-0.00192664327106672	-0.0590048535999514	0.0014876311147929	-0.0184914420244001	-0.00556356634382549	0.2734375	-0.366943359375	-0.000244140625	0	0	0	-0.410735980045586	0.52616377490224	-0.529534845887283	-0.523488761739685	-0.114510942056487	0.122182294045184	0.985879673779307	-0.986639869041011	0.101777603374248	-0.127212767716658	-0.115883618204102	-0.987275446100657	0.108895273353234	-49.43617707611	-80.3601038537569	133.143663528931
21664	1647341966909	9.61612309930891	-1.24609884896755	1.08698173678283	0.00226551780224512	-0.0256008717911692	-0.0554616098320366	-0.000140611619590029	-0.0124912584470517	-0.00876828228360732	0.283935546875	-0.37158203125	0.000244140625	0	0	0	-0.410781801792097	0.526185776798329	-0.529500875759025	-0.523465053448655	-0.11448529826887	0.122055325519433	0.98589837914089	-0.986645491401799	0.101774267773728	-0.127171823591646	-0.115861083961747	-0.987291494914986	0.108773679223156	-49.4586876430959	-80.3665061060906	133.166984507465
21665	1647341966910	9.59088737757564	-1.24706580499124	1.06234253396257	0.00956844509770552	-0.00599943568727692	-0.0829012565648899	-8.09391013630735E-05	-0.017019969342894	-0.00710094678180533	0.283203125	-0.3681640625	-0.009765625	0	0	0	-0.410845012657518	0.526218043426837	-0.529445327044016	-0.52343919610374	-0.114435567113427	0.121876755312976	0.985926243434979	-0.98665299016223	0.101788042491398	-0.127102601899803	-0.115846355071529	-0.987312134494533	0.108601892692949	-49.4880082050391	-80.3760509937887	133.196421399645
21666	1647341966911	9.64106201207977	-1.24430835365122	1.08279249990939	-0.000849223261824326	-0.0219360123482653	-0.0315658836236317	-0.000150272609234875	-0.0171157376687685	-0.0101504575416447	0.27587890625	-0.36376953125	-0.0029296875	0	0	0	-0.410908074517394	0.526269898499217	-0.529364573471995	-0.523419235969452	-0.114373715427126	0.121662099854457	0.98595993157856	-0.986656302529568	0.101855405298441	-0.12702289986523	-0.115879221166164	-0.987331661535522	0.108389096460063	-49.5257545957571	-80.3876033725526	133.231365771277
21667	1647341966912	9.59148376187351	-1.24527754410805	1.05905080221933	0.00931639715929481	-0.0064408160470306	-0.0829012941298064	-0.00167641493771411	-0.0171220908338858	-0.0101151829220578	0.2744140625	-0.37060546875	0.004638671875	0	0	0	-0.41097539213174	0.52630062997337	-0.529296344758197	-0.523404483528187	-0.114293947369509	0.121478944358068	0.985991764505336	-0.986665375488018	0.101889212975548	-0.126925273654667	-0.115880673141748	-0.987350725100697	0.108213747903593	-49.5498064592548	-80.3985322105054	133.254495523936
21668	1647341966913	9.61640284603386	-1.26861238070616	1.05808032814021	0.0297263591870317	-0.00603573406140175	-0.0554749102051311	-0.000114619347656608	-0.0109179406982067	-0.00729115626548131	0.283447265625	-0.3662109375	-0.00634765625	0	0	0	-0.411009432243244	0.526316190467493	-0.529281989533704	-0.523376623297331	-0.114296313585941	0.121385803659543	0.986002961136828	-0.986669478157429	0.101863644324662	-0.126913903247225	-0.115843401077539	-0.987364818410514	0.108125028517743	-49.5704720586282	-80.402379153706	133.27702069529
21669	1647341966914	9.6177558782385	-1.26638883837248	1.08114927514995	0.0252562453825852	-0.0298155954620868	-0.0519330108905791	-8.86435935418244E-05	-0.015494535977302	-0.00714863425009327	0.2822265625	-0.364013671875	-0.001953125	0	0	0	-0.411068646494214	0.526344504279421	-0.529229357704434	-0.523354867779041	-0.114244500482795	0.121222075124763	0.986029108399891	-0.986676966980001	0.101877709626334	-0.126844373593936	-0.115830725373635	-0.987383482130291	0.107968061368532	-49.5960609296278	-80.4113687952083	133.302652426043
21670	1647341966915	9.63987502102678	-1.24399988815122	1.02849918387602	0.00760038842751777	0.0253926423508852	-0.0386485879566347	0.00592848656829713	-0.012513258109958	-0.0104356061607869	0.292724609375	-0.37109375	-0.001220703125	0	0	0	-0.411147038584629	0.526353360384068	-0.529170465559137	-0.523343931898915	-0.114138483215348	0.121059053439042	0.986061414025386	-0.986693554922951	0.101873462086032	-0.126718690003158	-0.115793934741032	-0.987403921049056	0.10782050535098	-49.6067011956198	-80.4224872755461	133.314586559859
21671	1647341966916	9.61713002647503	-1.26612069090028	1.05444938079109	0.0298291889578161	-0.00644287253545394	-0.0554754843754956	0.0059901951112257	-0.0108919441893564	-0.0074336860942079	0.27734375	-0.363525390625	-0.002685546875	0	0	0	-0.411210952183975	0.52635297603373	-0.529142081577157	-0.52332280184278	-0.114077595750743	0.12094001648836	0.986083066764421	-0.986708450327155	0.101828420616283	-0.126638883474929	-0.115726989940607	-0.987423154056349	0.107716194848769	-49.6162568206647	-80.4299465631958	133.327461279428
21672	1647341966917	9.64030312078539	-1.2422969407522	1.02654306693292	0.00777271177316973	0.0251865538241826	-0.0386481902373283	0.00598136991307469	-0.00936644119975295	-0.00748128736153524	0.28759765625	-0.364013671875	-0.00048828125	0	0	0	-0.411275707757573	0.52634946577099	-0.529105926132557	-0.523312001603739	-0.113993682371993	0.120825464404088	0.986106813449137	-0.986724460655224	0.101798422279835	-0.126538215437053	-0.115673156453565	-0.987440270787491	0.107617064182203	-49.6198049679251	-80.438133835284	133.333517961013
21673	1647341966918	9.61610621968835	-1.24171932619608	1.02687220979468	0.0106367365604569	0.0210399605410121	-0.0625449876552793	0.00750759298754332	-0.00935978091832528	-0.00751715995876898	0.276611328125	-0.36376953125	-0.00390625	0	0	0	-0.411340023025883	0.526340703269202	-0.52908415651908	-0.523292274794537	-0.113929161194849	0.120721309640811	0.986127026111771	-0.986741297649663	0.101738681555121	-0.126454941335187	-0.115593069611019	-0.987459166788194	0.107529699078295	-49.6241547314436	-80.4451081391635	133.341990086812
21674	1647341966919	9.59189255685953	-1.24119682683597	1.02730110027651	0.013705096160742	0.0167508526149975	-0.0864418662461652	0.00906028322008953	-0.00777947538663746	-0.00607607223861833	0.283935546875	-0.3681640625	-0.002685546875	0	0	0	-0.411408257071755	0.526326314234117	-0.529063215158605	-0.523274279249371	-0.113854549378463	0.12062036199883	0.986147995920034	-0.986760328359067	0.10167072075844	-0.126361065669636	-0.11550409500331	-0.987478502455487	0.107447713915819	-49.6247228588799	-80.452349027646	133.347179361731
21675	1647341966920	9.61616164790185	-1.21584905450462	1.02393024461172	-0.0129700949217868	0.0247537587493562	-0.0660722661490425	0.0120862342321059	-0.00933960336634498	-0.00762503839124862	0.27783203125	-0.359130859375	-0.0029296875	0	0	0	-0.411485022476479	0.526305017747343	-0.529052946485294	-0.523245720848942	-0.113787983781605	0.120516116587412	0.986168423946745	-0.986782644816407	0.10156611218552	-0.126270886369957	-0.11537896964375	-0.987501995186951	0.107366209143002	-49.625993050492	-80.4594080739376	133.355181537028
21676	1647341966921	9.6407051491243	-1.21506824539035	1.021961165468	-0.0157074401249518	0.0285980036390883	-0.0421742435546299	0.0122376500114327	-0.0106722317719246	-0.00147829850933111	0.282958984375	-0.366455078125	0.001708984375	0	0	0	-0.411554496380136	0.526305079567419	-0.529044700893091	-0.523199354154575	-0.113770664643056	0.120385247724978	0.986186406313164	-0.986798135579685	0.101469201932464	-0.126227733385523	-0.11526350455862	-0.987527920207517	0.10725171946165	-49.6464944495762	-80.4656262905394	133.381903196824
21677	1647341966922	9.61758164006816	-1.21340494183681	1.04671105258782	-0.0172885253014476	0.000706973469555693	-0.0625318377440873	0.0106576229461326	-0.00767638191344854	-0.00306276763216653	0.2744140625	-0.36962890625	-0.0029296875	0	0	0	-0.411611294562453	0.526292549137585	-0.529045731659734	-0.523166234311333	-0.113746466930242	0.120301811483624	0.986199379139252	-0.986813641360004	0.101373512002475	-0.126183391498618	-0.115154585174438	-0.987547915403624	0.107184589821768	-49.6542621733252	-80.4701147280074	133.395649777536
21678	1647341966924	9.61771486808384	-1.2129839283755	1.04597462860132	-0.0177130196410804	0.000741985058967385	-0.0625326022800276	0.0137283257245644	-0.0107137301905324	-0.00303914018912521	0.27783203125	-0.363525390625	-0.000244140625	0	0	0	-0.411674549810578	0.526285644254263	-0.529065460173955	-0.523103454912176	-0.113773680994405	0.120195128843104	0.986209247835049	-0.98682875152368	0.101227607778359	-0.126182354509999	-0.114998107285292	-0.987575871731312	0.107094971380267	-49.677675614351	-80.473530577938	133.427869421034
21679	1647341966927	9.61586621109895	-1.24000814130294	0.997985864902179	0.0150576896302745	0.0442241020972499	-0.0660830104180405	0.0152545768534191	-0.0107068910803952	-0.00307544540036734	0.283935546875	-0.37255859375	0.00244140625	0	0	0	-0.411751337958003	0.526268832025448	-0.52907247566988	-0.523052834441139	-0.113753136145769	0.120081924623695	0.986225408005529	-0.98684950747199	0.101086302356678	-0.12613329884747	-0.114840209070225	-0.98760411646293	0.10700390425673	-49.6907303940948	-80.4791267169491	133.449657780009
21680	1647341966924	9.64206803068904	-1.18773612355493	1.0416286741987	-0.0445069107266054	0.00887928966241056	-0.0421641644834647	0.0123006367041863	-0.00904930973694273	0.00152316498324586	0.284912109375	-0.36572265625	-0.00341796875	0	0	0	-0.411805858165752	0.526255081073921	-0.529105917197912	-0.522989916929959	-0.113794963939925	0.120004268813504	0.986230034854165	-0.986863969916439	0.100925727133051	-0.126148731596602	-0.114674369685112	-0.987629977810112	0.106943049648498	-49.7102664591031	-80.4807295581866	133.478680411593
21681	1647341966925	9.6424379141412	-1.21210840958723	1.04245902740396	-0.0206537303858488	0.00488458444032019	-0.0386356907150063	0.0138268784599173	-0.00904245951692502	0.00148670903447869	0.28515625	-0.36962890625	-0.00439453125	0	0	0	-0.411862553506209	0.526246821803611	-0.529124717189169	-0.522934559214082	-0.113817367597839	0.119912481900063	0.98623861388493	-0.986877921110312	0.100792541357656	-0.126146075767958	-0.114531985305803	-0.987654727266181	0.106867039121887	-49.7297645809549	-80.4837022292498	133.506201942673
21682	1647341966926	9.61697116748773	-1.21381213628663	1.01873081559207	-0.0130126977458729	0.0240267954769797	-0.066070503756281	0.013772555221693	-0.00604029092976657	-0.000134886079497141	0.2763671875	-0.367431640625	0.001953125	0	0	0	-0.411922478870048	0.526242450031013	-0.52911267326364	-0.522903943548636	-0.113782674445678	0.119808017855392	0.986255312712459	-0.986892395869082	0.100719300786718	-0.126091321766478	-0.114441696823193	-0.98767487631639	0.106777510373822	-49.7411795180417	-80.4894910847298	133.522414533359
21683	1647341966929	9.61816284056474	-1.21217085777821	1.04279313553866	-0.0174439652267104	0.000235992325476098	-0.0625320918270393	0.0122640708630899	-0.00294721701374055	0.00132926003409693	0.27734375	-0.3701171875	-0.0029296875	0	0	0	-0.411959600482631	0.526222095417119	-0.529139025538894	-0.522868516471166	-0.113795604106866	0.119775786194701	0.986257735851737	-0.986904762967378	0.100602358443881	-0.126087883271282	-0.114322129608651	-0.987690703872913	0.106759187730015	-49.7452580329665	-80.490331386062	133.533363380768
21684	1647341966930	9.56825807319753	-1.21430222204717	1.02047142232724	-0.00789896402488682	0.0158325663404054	-0.113865718299746	0.00468747421785617	-0.00598344970363979	0.00313418199277631	0.27978515625	-0.368408203125	-0.00390625	0	0	0	-0.411965705413884	0.526243449139137	-0.529167381074289	-0.522813516091507	-0.113900569909754	0.119723210712687	0.986252002781682	-0.986900225688846	0.10053228073964	-0.126179257663815	-0.114256749076535	-0.987704213490017	0.106704179601972	-49.7802863239971	-80.488343378833	133.572304187282
21685	1647341966931	9.66760665941048	-1.26059452434185	1.04259230923318	0.0238909065294267	0.000534707307879878	-0.00768125875159775	0.0091760494818128	-0.00916120765366704	-0.00145241634803767	0.27587890625	-0.371337890625	-0.006591796875	0	0	0	-0.41201828937693	0.526241872352678	-0.529165843422564	-0.522775220488255	-0.11389399612473	0.119627028849642	0.986264432905977	-0.986912133030694	0.10044887874759	-0.126152544307111	-0.114160410491315	-0.987724352603984	0.106620842003313	-49.796376429103	-80.492654187343	133.593648648506
21686	1647341966932	9.66859152544109	-1.23416680971879	1.06484083289798	-0.00516901029593653	-0.0197729647029966	-0.00767343762107586	0.0136186256624193	-0.00471162022554704	-0.00628282786155249	0.284912109375	-0.365966796875	-0.001220703125	0	0	0	-0.41205728357579	0.526254652169648	-0.529159235551236	-0.522738308862834	-0.113906910998731	0.119529482938112	0.986274768173289	-0.986917732706701	0.100398596965945	-0.126148763752702	-0.114099099452153	-0.987741274036788	0.106529672243889	-49.819692442325	-80.4962399675834	133.620234998207
21687	1647341966933	9.61962845774795	-1.2095911686048	1.06546099802257	-0.0232688814502296	-0.0240674917863351	-0.0589983732388806	0.00905781241440792	-0.00163200332002818	-0.00474563384224868	0.280517578125	-0.36279296875	-0.002197265625	0	0	0	-0.412098029234501	0.526227476833406	-0.529164161115722	-0.522728560074235	-0.113860133567516	0.119503827701642	0.986283278347881	-0.986933052230004	0.100321009783471	-0.126090623806823	-0.114013246598615	-0.987752261531545	0.106519713853176	-49.8093125017724	-80.4991935457266	133.614623980749
21688	1647341966933	9.66612897094732	-1.21188626212049	1.01448018182436	-0.0194662724108327	0.031369560998335	-0.018274431988651	0.0106472596799696	-9.91454030467448E-07	-0.00178196974265147	0.281494140625	-0.37255859375	-0.00732421875	0	0	0	-0.412149837402952	0.526188714358701	-0.529164669096199	-0.522726220301382	-0.113779620276304	0.119479308654962	0.986295540298704	-0.986953680919788	0.100234529018062	-0.125997900424604	-0.113915010989164	-0.9877640072385	0.106515896820517	-49.7895451993271	-80.5034508321232	133.600254581145
21689	1647341966935	9.64288434563403	-1.2103107333207	1.04041625222483	-0.0210481026234659	0.00347680687903977	-0.0386359298720293	0.0106464422803318	0.00615038737881277	-0.000453316731331051	0.280517578125	-0.36181640625	-0.009033203125	0	0	0	-0.412163135236805	0.526145639668337	-0.529200712601712	-0.522722604821721	-0.113765256720326	0.119534677055604	0.986290488316993	-0.986966022803107	0.100136311467215	-0.125979319564595	-0.113822388815101	-0.987767270214474	0.106584631619529	-49.7671547624276	-80.5016965809863	133.583385477364
21690	1647341966936	9.64278972525703	-1.21037386162939	1.04121948186151	-0.0211642659877457	0.00248596043956705	-0.0386358784779883	0.0107457655283159	0.00782428016347674	0.00407159991837707	0.27734375	-0.361328125	0.0009765625	0	0	0	-0.412145574253413	0.526165287926139	-0.529193380697675	-0.522724096661608	-0.113791088785261	0.119530874279926	0.986287969209268	-0.986957653258051	0.100180782898181	-0.126009529057408	-0.113869130094275	-0.987763221036188	0.106572230809855	-49.777215692235	-80.5008219654526	133.590792038347
21691	1647341966937	9.59356418038075	-1.18705495039877	1.04278165986393	-0.0392574564520112	-0.00181274908198522	-0.0899602660740513	0.00632088448229718	0.00647634020524646	0.0103293888848053	0.27734375	-0.377685546875	0.00048828125	0	0	0	-0.412118309608748	0.526155669126576	-0.529246202232489	-0.522701796585472	-0.113882661463096	0.119599111582911	0.986269127533991	-0.986952651388929	0.100113912615431	-0.126101817660148	-0.11382092661038	-0.98776174101319	0.106637421462385	-49.7806229181087	-80.4942828038984	133.597479194241
21692	1647341966938	9.54488180908906	-1.21300556733037	1.04724424599398	-0.0102858534951004	-0.0137053712327626	-0.13422787943264	0.00492125898521661	0.00356732442324041	0.0150384190193745	0.278076171875	-0.366943359375	0.001708984375	0	0	0	-0.412071133281848	0.52616362553105	-0.52933722729697	-0.522638804607341	-0.114092122068846	0.119670668488774	0.986236238831892	-0.986938034345837	0.0999989618267387	-0.126307260263019	-0.113737874269758	-0.987764718309489	0.106698440567669	-49.8104467813555	-80.4828791710676	133.63294534564
21693	1647341966942	9.54466596217466	-1.2145414612176	1.04743140127354	-0.0102731584874001	-0.0137678323014641	-0.134227954600018	0.00502055058267939	-0.000909925499612125	0.0182355048881388	0.277587890625	-0.370849609375	-0.001953125	0	0	0	-0.412038989106135	0.52619300779223	-0.52939251687687	-0.522578561636175	-0.114271036749323	0.119674290010084	0.986215085298748	-0.986922430031792	0.0999348690623338	-0.126479796986064	-0.113693655321556	-0.987770766046493	0.106689580013921	-49.8513439749849	-80.4755516695269	133.676919168447
21694	1647341966943	9.56661271506565	-1.21894081973493	0.997098651085209	-0.00462920836649627	0.037937901140051	-0.117397764593008	0.00187719514356713	-0.0102746231060503	0.0125057668818917	0.275146484375	-0.371826171875	-0.003662109375	0	0	0	-0.412029689880895	0.526243282097852	-0.52942858451568	-0.522498724018785	-0.114453236110791	0.119595807087664	0.986203477823323	-0.986907232386392	0.0998738171087545	-0.126646497462656	-0.113642295855017	-0.987786446345149	0.106599085407069	-49.9124879523331	-80.4715332574953	133.741288551614
21695	1647341966944	9.59094926948401	-1.21986681350413	0.995006785265498	-0.00748336118148944	0.0419731494118581	-0.0934999716704787	-0.00274642688116547	-0.00881815917618875	0.0110417811561581	0.281005859375	-0.36474609375	-0.000732421875	0	0	0	-0.412016941720921	0.526299075991973	-0.529428638898923	-0.522452522875111	-0.114570802152741	0.119514384708639	0.986199697394901	-0.986890927591676	0.0998947120971457	-0.126757025573616	-0.113665422760484	-0.987794188251148	0.10650264468987	-49.9626540650886	-80.4702248668495	133.790165572603
21696	1647341966945	9.56653848252906	-1.22094395642111	0.99535847431777	-0.00497138602948874	0.037672679288637	-0.117396899819024	-0.00439007412913118	-0.00744797983611053	0.00645524473285537	0.2744140625	-0.373779296875	0.00244140625	0	0	0	-0.411998813475669	0.526362788872375	-0.529415294221629	-0.522416154449079	-0.114676678530555	0.119428515281257	0.986197794125963	-0.986871893173906	0.0999528478777351	-0.126859349929286	-0.11372390190523	-0.987798693023455	0.106398384370274	-50.0130554472851	-80.4695662206919	133.837177403716
21697	1647341966946	9.54335166678483	-1.22010148493903	1.01986162013344	-0.00657365304811229	0.00977693008672374	-0.137761654331122	-0.0074890495264737	-0.0121363367745459	0.00362724579459561	0.280517578125	-0.362548828125	-0.008056640625	0	0	0	-0.412001828710726	0.526424718138437	-0.529376701562486	-0.522390483369201	-0.114725352048621	0.119306808924111	0.98620686417286	-0.98685859513037	0.10002960196368	-0.126902292919793	-0.113790187690473	-0.987805630716557	0.106263018543769	-50.0585105506401	-80.4727054102219	133.878510468488
21698	1647341966947	9.59364613170409	-1.24276034600623	1.0422887847322	0.00663793324442647	-0.0100207278578701	-0.0829021265107954	-0.00910534699619107	-0.00919074624466042	0.000516418379313448	0.280029296875	-0.368408203125	-0.007568359375	0	0	0	-0.411988760693474	0.526499872999234	-0.529328412383026	-0.522373981586097	-0.114781368848288	0.119190720321886	0.986214383161422	-0.986838841050788	0.100153385812642	-0.126958265204755	-0.113904956691315	-0.987807102373441	0.106126289588093	-50.1072510633913	-80.4753085476598	133.920352729241
21699	1647341966948	9.61668032949309	-1.21977187193518	1.01434849163931	-0.0155930607680896	0.0217087233829526	-0.0660688516452836	-0.00919557267926206	-0.00623871619726351	-0.00263114668426996	0.27001953125	-0.3583984375	-0.002197265625	0	0	0	-0.411988006945164	0.526538286378371	-0.529281142363788	-0.522383754962924	-0.114762189368374	0.119120822787429	0.986225060252387	-0.986830659528817	0.100254708942871	-0.126941887289818	-0.113995128427921	-0.987805255560642	0.106046630222161	-50.1247832918427	-80.4790062584812	133.932361984676
21700	1647341966949	9.61615562656509	-1.2701414496041	0.992223817272712	0.0362761079263887	0.0369433933877523	-0.0625316937264735	-0.00905996353731364	-0.0106670250749812	0.00208998320093582	0.276123046875	-0.359619140625	-0.001953125	0	0	0	-0.411976969293231	0.526632328198777	-0.529211762250961	-0.522367953039935	-0.114813396817665	0.118965748937041	0.986237818424663	-0.986807310949724	0.100419774934391	-0.1269929126302	-0.114145586718738	-0.987807177227406	0.105866735335799	-50.1839640762193	-80.483426560148	133.982427468798
21701	1647341966951	9.59303606515381	-1.26886204425437	1.01671310338521	0.0346616040778103	0.00904090553115157	-0.0828993820893498	-0.0137656767216258	-0.00778294837606736	-0.00247074024661922	0.28369140625	-0.367919921875	-0.00390625	0	0	0	-0.411967816411709	0.526687615450838	-0.529149435792365	-0.522382569169666	-0.114797939337335	0.118880189751048	0.986249934655844	-0.986793577224532	0.100566785683181	-0.126983296404542	-0.114279784180371	-0.987802521814005	0.105765347943359	-50.2088288810984	-80.4876263337166	133.999170649518
21702	1647341966952	9.59200603228896	-1.27024352583395	0.991264778545297	0.0396617673195992	0.0323754131130524	-0.0864299714604257	-0.00919758703256287	-0.012389807238255	-0.00396018254100968	0.283203125	-0.365966796875	-0.00927734375	0	0	0	-0.412004158694433	0.526739397291739	-0.529058562794533	-0.522393738183194	-0.114714711050963	0.118716116207337	0.986279381727683	-0.986791405136919	0.100699220704552	-0.126895191782039	-0.114382069470694	-0.987808762211665	0.105596361118456	-50.2343246518324	-80.4978410549047	134.017948148741
21703	1647341966953	9.61628108519714	-1.24545452567018	0.987147495925291	0.0129687156813705	0.040355251677544	-0.0660632204022882	-0.0076258720674588	-0.0138598346046134	-0.00242394933775701	0.2841796875	-0.3623046875	-0.008056640625	0	0	0	-0.412027188755709	0.52679435459235	-0.528999674658245	-0.522379792782193	-0.114705895637801	0.118570286909515	0.986297949185805	-0.986784674809772	0.100785879875076	-0.126878729416634	-0.11444895397732	-0.987817439347981	0.105442607391393	-50.2717135708384	-80.5042874076194	134.050940145294
21704	1647341966954	9.61555253202911	-1.27131565949492	0.962788356785583	0.0421756263151679	0.058740628323036	-0.0660558451468347	-0.00909765494072314	-0.0168681891094621	-0.000764471846595823	0.279296875	-0.364501953125	-0.00341796875	0	0	0	-0.412060675744557	0.526914903285537	-0.528830753992417	-0.522402830995721	-0.114602563345191	0.118283543791048	0.98634439002964	-0.986767188221914	0.101088066273501	-0.126774284086732	-0.114702958651164	-0.987820938290597	0.105133368401064	-50.3312285048935	-80.520430014573	134.094462585172
21705	1647341966955	9.5916186148463	-1.295962930971	0.963745370902113	0.0688759502542711	0.0505970125992452	-0.086425568918262	-0.00752565825373158	-0.018338337108561	0.000771393441220738	0.2880859375	-0.37060546875	0	0	0	0	-0.412087715095277	0.526988279045691	-0.528770113903174	-0.522368869151713	-0.114628959217428	0.118095301293786	0.986363878860666	-0.986756884469509	0.101171763420757	-0.126787717221989	-0.114765206664553	-0.987834892124521	0.104934137632031	-50.3876028737752	-80.5272123547211	134.146663584327
21706	1647341966955	9.61471318836523	-1.27309444348635	0.934669633971335	0.0472865817143779	0.0821541639086074	-0.0695820674892911	-0.00445567185477937	-0.0213766992255582	0.000793413306749174	0.279541015625	-0.372314453125	-0.004150390625	0	0	0	-0.412154226730863	0.527046859865144	-0.528696674598625	-0.522331625658001	-0.114597132450708	0.117860805088862	0.986395624411362	-0.986759169003455	0.101217439312478	-0.126733469796402	-0.11477734803386	-0.987858218876995	0.10470100178835	-50.4381459610656	-80.5382704904903	134.195629176221
21707	1647341966958	9.63955715523806	-1.29741795039753	0.932933476254794	0.0682817011222935	0.0821857561883762	-0.0421549755825801	0.000160217744260241	-0.0213086684361785	0.00220476912299149	0.269287109375	-0.358642578125	-0.00244140625	0	0	0	-0.412205673904283	0.527110336502531	-0.528653707840595	-0.522270459378754	-0.114640099322842	0.117644686732499	0.986416430981794	-0.986756172652257	0.101223479175012	-0.126751974329296	-0.114760199372072	-0.987883361003371	0.104482351106608	-50.5010532477441	-80.5455251320985	134.25892444062
21708	1647341966958	9.66501655453674	-1.27164695217377	0.952378838804704	0.0362671738313341	0.0661854252274515	-0.0182521979967145	0.000243953583649691	-0.0227363701099165	0.00530264117284673	0.281494140625	-0.364990234375	-0.013427734375	0	0	0	-0.412234227021413	0.527214083685612	-0.528627796499769	-0.522169421551471	-0.114804074537321	0.117395160902745	0.98642708836804	-0.986737921954508	0.101231189679713	-0.126887822949762	-0.114753204079579	-0.987912254419718	0.104216504071198	-50.6027850137466	-80.5492431876048	134.360669077062
21709	1647341966960	9.66423886654453	-1.29793142915432	0.927619459846031	0.0645840446156056	0.085868352480235	-0.0182464901597203	0.000142560474562221	-0.0182576788895361	0.00210759606384247	0.273193359375	-0.3740234375	-0.0048828125	0	0	0	-0.412277546915736	0.527269720575598	-0.528590972036374	-0.522116318797751	-0.114843547908456	0.117209011015008	0.986444629586822	-0.98673487886242	0.101237617181568	-0.126906358011583	-0.114739872494979	-0.987933698486028	0.104027732146548	-50.6578272446399	-80.5553659724545	134.415966972517
21710	1647341966961	9.63847020826504	-1.27581311786295	0.901225124082943	0.0469622217427168	0.108146307385038	-0.049178134678387	0.00334598396856425	-0.0180492997729772	0.0081296880984266	0.27587890625	-0.36767578125	0.00048828125	0	0	0	-0.41226411127317	0.527433725819479	-0.528519392666287	-0.52203373358432	-0.115038167112317	0.116925911189669	0.986455549632068	-0.986693896111527	0.101411108263605	-0.127086358422147	-0.114897238799258	-0.987949451345165	0.103703934848651	-50.7851580121412	-80.5591796154795	134.533732198677
21711	1647341966962	9.61444094300275	-1.30089539271148	0.902460726502873	0.0736517554365673	0.099987033129062	-0.0695453289143408	0.00474114018922239	-0.0151389136425083	0.00342017740157054	0.2841796875	-0.369384765625	-0.0029296875	0	0	0	-0.412307364357747	0.527472734954404	-0.528504097296845	-0.521975641497318	-0.115088133959663	0.116770744201717	0.986468101217804	-0.986694316680208	0.101372112873631	-0.127114201262144	-0.114843575582875	-0.987971805280957	0.103550302352178	-50.8329068864104	-80.5635649333045	134.584209266226
21712	1647341966963	9.63866865831369	-1.27638301806405	0.898290906502934	0.0467672772243054	0.107925354846257	-0.0491747540484635	0.00767946359171769	-0.0152735545661739	-0.00123072164101171	0.275146484375	-0.364990234375	-0.002685546875	0	0	0	-0.412379838753076	0.527489526627394	-0.528501273412395	-0.521904274642269	-0.115117593400228	0.116602055626541	0.986484617372925	-0.986706239364704	0.10125854518293	-0.127112171825518	-0.114711537730531	-0.988003374311597	0.103395335776791	-50.874471118861	-80.5693384854583	134.632951900042
21713	1647341966964	9.64122921795099	-1.27303510239336	0.945960025039791	0.0378084847219793	0.0603464246015876	-0.0421352605932697	0.00916225654816572	-0.00763955967010449	-0.00151281277232036	0.279052734375	-0.365966796875	-0.012939453125	0	0	0	-0.412427830676697	0.52748691580504	-0.52850041882368	-0.521869854888166	-0.115110278084637	0.11651630496807	0.986495602907517	-0.986717442551326	0.101181183573016	-0.127086807559772	-0.114622477918811	-0.988021416148128	0.103321676275601	-50.8888615826781	-80.5731806391164	134.652205650205
21714	1647341966964	9.63979796126862	-1.25005437955976	0.91962620740771	0.0179010629267842	0.0867675690438914	-0.0491734462780062	0.0137615701951197	-0.00452063709108476	-0.000201723616091514	0.27783203125	-0.364013671875	-0.00048828125	0	0	0	-0.412454494989854	0.527544455929791	-0.528463527486585	-0.521827976153867	-0.115153705731648	0.116357941728478	0.986509226238144	-0.986710270349355	0.101215179358199	-0.127115419421056	-0.114640596837998	-0.988036596925539	0.103156273160811	-50.9400967795121	-80.5779475095955	134.70197172092
21715	1647341966966	9.71569811384632	-1.27068078067962	0.965798574742445	0.0241704161199675	0.0474409114053148	0.0330909977111098	0.0123205844623999	-0.00595395299528323	0.00293509080512478	0.283447265625	-0.3681640625	0.000244140625	0	0	0	-0.412494404033254	0.527538913884705	-0.528485596845605	-0.521779680425888	-0.115188663471819	0.116292391889126	0.986512874419935	-0.986719791438011	0.101102681135991	-0.127131038899405	-0.11452346917599	-0.988055832155157	0.103102121957194	-50.9582603647763	-80.5792244321114	134.726809173633
21716	1647341966966	9.640064795508	-1.27470407487024	0.920907579910397	0.0420737757287752	0.0826535420924758	-0.0456413057272957	0.01692358635512	0.00331661551955512	0.00557429642811217	0.282958984375	-0.369140625	-0.006103515625	0	0	0	-0.412548470183749	0.52747014000808	-0.528565865704743	-0.521725154425872	-0.115213245976696	0.11631821716222	0.986506959077185	-0.986746214473986	0.100843770721688	-0.127131593743998	-0.114270801925823	-0.988079251003093	0.103158022297809	-50.9431882810176	-80.5771540530579	134.726561116547
21717	1647341966968	9.64091410672878	-1.2492271521253	0.944049173324857	0.0137670454218689	0.0627850737214616	-0.0456565640874267	0.0154529849828898	0.000308791424732973	0.00723581393034562	0.285888671875	-0.3671875	-0.007568359375	0	0	0	-0.41256885956514	0.527448374210029	-0.52862048756231	-0.521675693117576	-0.115282814654834	0.1163193700358	0.986498695792211	-0.986754466945075	0.100694632493012	-0.127185741932963	-0.11412928900681	-0.988094325022451	0.103170297320634	-50.9517900232519	-80.5742626450874	134.74356955182
21718	1647341966968	9.61671519765762	-1.27426778153887	0.947146040192883	0.0409785028992721	0.0533369812999178	-0.0660196699673943	0.0138800204535074	0.00177863867902619	0.00570071119332844	0.27587890625	-0.36474609375	-0.00439453125	0	0	0	-0.412594463497955	0.527475894602832	-0.528584798585208	-0.521663780617758	-0.115265417364844	0.116219821330553	0.986512461497372	-0.98675435629759	0.10072783879094	-0.127160303633782	-0.114147815955618	-0.988102654394978	0.103069978607554	-50.9734514307655	-80.5790798939412	134.763773233892
21719	1647341966969	9.66565230416472	-1.29870762885503	0.946630652749196	0.0590990601169872	0.0573951180727614	-0.0146876360828543	0.0184968501984579	0.0018463981518838	0.00710917591459027	0.27197265625	-0.364013671875	-0.0078125	0	0	0	-0.412619308275467	0.527442060978108	-0.52864952611724	-0.521612746475255	-0.115330898305633	0.116235105769362	0.986503007640018	-0.986766219194058	0.100549969948586	-0.127209009904182	-0.113979000493422	-0.988118972457327	0.10310035749888	-50.9759251071786	-80.5757712950812	134.776275414942
21720	1647341966972	9.64089304670147	-1.27498203324969	0.946763777464602	0.0370879658983952	0.0562629404524466	-0.0421081313146594	0.0169240139309554	0.00331609294786023	0.0055738059447315	0.279541015625	-0.366455078125	-0.00390625	0	0	0	-0.412612939455023	0.527476997030465	-0.52868400030429	-0.52154751233254	-0.115477509148048	0.11617998185814	0.986492350044543	-0.986755318816735	0.100487580033078	-0.127342793459152	-0.113924912410969	-0.98813180197509	0.103037159596016	-51.0225619551337	-80.5720427995667	134.826258162554
21721	1647341966970	9.66489992790094	-1.25071309558657	0.944640019080944	0.0104021375168449	0.0641988737611523	-0.0217380277408665	0.0199213769128625	0.00632902081776064	0.00387267476400248	0.27685546875	-0.35986328125	-0.006103515625	0	0	0	-0.412637897680121	0.527421617015991	-0.528753133885382	-0.521513687939976	-0.11550687737875	0.116235699251714	0.986482348295029	-0.986772288197828	0.100300177609034	-0.127359042146285	-0.11374802206207	-0.988144289358119	0.103112806604735	-51.0055737138056	-80.5685450763926	134.819807476593
21722	1647341966970	9.66626056624247	-1.27358182505452	0.971706399358884	0.0298848740544772	0.0354462309889802	-0.0146943218418691	0.0183234779367456	0.0123750872824036	0.0021877404338184	0.274169921875	-0.367431640625	-0.0048828125	0	0	0	-0.41265902203052	0.527384744775222	-0.528782389122422	-0.521504599662527	-0.115490968135285	0.116264750270249	0.986480787508693	-0.986785042321283	0.100203432981596	-0.127336374495609	-0.11365349325981	-0.988150686820234	0.103155725030377	-50.9889244806717	-80.5679993679721	134.808702515894
21723	1647341966971	9.64293856424025	-1.27218204676869	0.998780677162319	0.0282618252317905	0.00750813069154577	-0.035089556798102	0.0198413883724328	0.0139064082619769	0.00209931357969964	0.283935546875	-0.373046875	-0.008544921875	0	0	0	-0.412668527107309	0.52730631666489	-0.528861901983074	-0.521495756235116	-0.115493725927696	0.116393032972249	0.986465337022472	-0.986803917102172	0.100019550731859	-0.12733467188165	-0.113486688484371	-0.988154214354682	0.10330547028078	-50.9478919732984	-80.5625989954909	134.777795678991
21724	1647341966974	9.66569126780603	-1.24903716832282	0.973343972584216	0.00508215388726501	0.0380324536001367	-0.0182191566417913	0.0181846722557096	0.0168003547230721	-0.00253610701693698	0.2763671875	-0.367919921875	-0.0009765625	0	0	0	-0.41264042655487	0.527305476857805	-0.528880043511914	-0.521500442975089	-0.115530332698802	0.116447240153647	0.986454653031301	-0.986797467734943	0.100027555894902	-0.127378356613664	-0.113505506026843	-0.988147017564842	0.103353624896755	-50.9444434052895	-80.5588664351464	134.77353563475
21725	1647341966975	9.64264497919005	-1.27152291596236	1.00244779761546	0.0272729050243398	0.00609852615108384	-0.0350857675540865	0.0212288568439103	0.0183374847679633	-0.00266290096564235	0.277099609375	-0.3671875	0.003173828125	0	0	0	-0.412654142892576	0.527202645012496	-0.528959628206978	-0.521512838933575	-0.115481834362073	0.116613763558278	0.986440660192566	-0.9868231859916	0.0998365401614579	-0.127328963075874	-0.113331132182461	-0.988146697306308	0.103547858890843	-50.8809219528838	-80.5539801060416	134.720570954182
21726	1647341966975	9.61906811004458	-1.24504624681142	1.02847774253406	0.00113654949010619	-0.01742584748125	-0.0590176664605888	0.0195813055920187	0.0197049444176067	-0.00724885366526137	0.281982421875	-0.364013671875	0.0068359375	0	0	0	-0.412681492936617	0.527066502938391	-0.529091247194686	-0.521495291455131	-0.115473292755467	0.116816005705309	0.986417730716185	-0.986858370943297	0.0995128750591529	-0.127309635914191	-0.113033067548186	-0.988155457662669	0.103789773735801	-50.8111996523354	-80.5459784944629	134.668814151901
21727	1647341966976	9.61799846940502	-1.27033466511582	1.00793118788163	0.02944730314202	0.00220086994280347	-0.0589856243521982	0.0227465387135392	0.0198691928874352	-0.00275114488089699	0.284912109375	-0.36572265625	-0.003173828125	0	0	0	-0.412695195461266	0.526955151722952	-0.529178349453727	-0.521508598380944	-0.115422914915861	0.116998399955059	0.986402009892661	-0.986885837313559	0.0993059002252323	-0.12725832896267	-0.112844560445956	-0.98815470073689	0.104001887431655	-50.7425835523229	-80.5404963344188	134.611622277699
21728	1647341966977	9.59437244536986	-1.24403781446016	1.03404686654033	0.00535458097097845	-0.021484068528048	-0.0829198946269756	0.022746692067847	0.0198690793904982	-0.00275116654785561	0.289794921875	-0.37158203125	-0.00341796875	0	0	0	-0.41277970077746	0.526767792746363	-0.529283321091844	-0.521524474176605	-0.115250282921773	0.117190307707648	0.986399414064018	-0.986946515183835	0.0989441692801183	-0.127069380780548	-0.112489770436852	-0.988168246375512	0.104257222302391	-50.6319853633444	-80.5395914207754	134.521801888726
21729	1647341966977	9.59421134716647	-1.24343631803858	1.03626271521746	0.00536528693579589	-0.0216021162938715	-0.082920161899267	0.0272883987945256	0.0198355833490724	-0.00438891796267301	0.28076171875	-0.367919921875	-0.010009765625	0	0	0	-0.412810142965161	0.526640238712518	-0.529378050416205	-0.521533052232976	-0.11518212258728	0.11737143636917	0.986385839598748	-0.986981165305653	0.0986933312052427	-0.126995297974013	-0.112255324899021	-0.988171833387418	0.104475689667812	-50.5567679834824	-80.5348607177919	134.46062001926
21730	1647341966981	9.61816883710639	-1.21833447243642	1.03552972304385	-0.0208635653862803	-0.0151587443921618	-0.0625505904360004	0.0273796870299892	0.0168873304479103	-0.00123769340148675	0.275146484375	-0.363037109375	-0.000244140625	0	0	0	-0.41283568592834	0.526600326850795	-0.529367737731104	-0.521563601523502	-0.115076211979822	0.117399073351695	0.986394912300615	-0.986996701933838	0.0986729893470593	-0.12689031304651	-0.112227339842399	-0.988170581807351	0.104517584369426	-50.5222455725333	-80.5380222958801	134.427527429613
21731	1647341966981	9.5936365166757	-1.21796425362637	1.03875971244221	-0.0179846400303708	-0.019353710352814	-0.0864536689914637	0.0288237757375907	0.0183153896939664	-0.00437556468052609	0.27197265625	-0.3642578125	-0.005615234375	0	0	0	-0.41287432816758	0.526473085746853	-0.529462519694053	-0.521565258969174	-0.115008939553176	0.11756406924531	0.986383106832907	-0.987032955549489	0.0984084587587883	-0.126813721276368	-0.111977178398522	-0.988177344846158	0.104721758248712	-50.4503779373875	-80.5339086318049	134.370553536865
21732	1647341966982	9.57025072252432	-1.21610657960509	1.06635986565309	-0.0206181990623475	-0.0477194898976035	-0.106862571899478	0.0228660402071829	0.018498640542012	0.00187189758017731	0.281005859375	-0.3544921875	-0.00244140625	0	0	0	-0.412860755414362	0.526416081651333	-0.529564958702737	-0.521529539078764	-0.115105873013949	0.11769445538333	0.986356250636512	-0.987040619914682	0.0982139023057023	-0.126904862130365	-0.111809895072563	-0.988181180030214	0.104864211235078	-50.4323467235398	-80.5245570709514	134.362935895994
21733	1647341966982	9.5686115902516	-1.19340388421232	1.04216410920399	-0.0399377980082826	-0.0201192128277097	-0.113891219047046	0.0275156428120606	0.0124667096702139	0.00349157633442672	0.279541015625	-0.360107421875	0.001953125	0	0	0	-0.412890487460433	0.526324128023354	-0.529664796480494	-0.521497421848295	-0.115123768740535	0.117809200053259	0.986340463660387	-0.987066103180259	0.0979532974679245	-0.126908074871924	-0.111566239622537	-0.98819337373713	0.105008715250284	-50.3943113458474	-80.5190641741979	134.339479229088
21734	1647341966983	9.5963306527852	-1.18809353078637	1.11562863015848	-0.054288853098168	-0.0876591549043933	-0.0794903645772127	0.0274257728203459	0.0154130101096935	0.00033869820202087	0.28173828125	-0.368896484375	-0.000732421875	0	0	0	-0.413004038034819	0.526153520585324	-0.529735251750142	-0.521508101946477	-0.114913928342233	0.11791539409276	0.986352243830218	-0.987129508604661	0.0976164552402952	-0.126674231429441	-0.111221051581417	-0.988214039316518	0.105180274685205	-50.2964386255463	-80.5231626500626	134.261425525502
21735	1647341966983	9.54530392417021	-1.21621669165204	1.07265986398276	-0.0157273447963193	-0.0524230933504088	-0.130765368099306	0.0260623152042394	0.0125658452339098	0.00657801365667859	0.282470703125	-0.36572265625	-0.00244140625	0	0	0	-0.413022236523245	0.526070867746007	-0.52983901346227	-0.521471661799208	-0.114959876155417	0.118034128940086	0.986332687930237	-0.987149994404807	0.0973665039013294	-0.126706955075965	-0.11099151058041	-0.988224523235175	0.1053241484926	-50.2652162863323	-80.5163598570543	134.244051413094
21736	1647341966984	9.57038400950229	-1.19037345627367	1.09547910438826	-0.0464648037918009	-0.0686271416089231	-0.106892972455771	0.0215002112604395	0.00949739506810562	0.00679311689221347	0.2822265625	-0.368408203125	-0.00634765625	0	0	0	-0.41305049344887	0.526013906333074	-0.529898351742577	-0.521446446940015	-0.114965785670559	0.118086618367386	0.986325716326867	-0.987167832654761	0.0971940533642915	-0.126700379487675	-0.110826613666811	-0.988235228350606	0.105397320411731	-50.2441925688461	-80.5139358562348	134.232791200951
21737	1647341966985	9.56904443557028	-1.19263075726472	1.07210280480056	-0.0419305703348492	-0.045019881630258	-0.110388721733814	0.0215978599584439	0.00502669773036329	0.00999952041269811	0.277587890625	-0.3642578125	-0.00341796875	0	0	0	-0.413068193413348	0.525969707800282	-0.529983470698555	-0.521390501306874	-0.1150532254744	0.118133980961334	0.986309848805214	-0.987179408926171	0.0969843767530948	-0.126770837569176	-0.110632589683662	-0.988250167320017	0.105461068133437	-50.2428206027811	-80.5084210641833	134.24308017988
21738	1647341966985	9.5935369991664	-1.21741324100022	1.07331738234279	-0.0210117378191192	-0.0461423823528831	-0.0829655424304185	0.0169463901291406	0.00490363589786969	0.00706066717914183	0.276611328125	-0.369140625	-0.007080078125	0	0	0	-0.41306289488111	0.525998991982074	-0.529976357251454	-0.521372387129159	-0.115099757623359	0.11808874433909	0.986309836844113	-0.987171409669736	0.0970082112538315	-0.126814884299903	-0.110655563464788	-0.988253234454484	0.105408210612557	-50.2667267880565	-80.508416908274	134.265628689834
21739	1647341966986	9.56992747169492	-1.1919855117356	1.09771223546813	-0.0464419154437112	-0.0700859334195367	-0.106903287279829	0.0138656988893019	0.00331385432044088	0.00566227869647438	0.27392578125	-0.365966796875	-0.00048828125	0	0	0	-0.413076387204204	0.52597124730183	-0.530025743469687	-0.521339483067881	-0.115146083457674	0.118114089008854	0.986301394829171	-0.98717929944377	0.0968812191874573	-0.126850542444487	-0.110536917878449	-0.988262663134837	0.105444290692159	-50.2650062443645	-80.5054841621773	134.271007075661
21740	1647341966986	9.59213396590021	-1.220119292701	1.05004515031349	-0.0178485299489249	-0.0232783641549874	-0.0864620195489643	0.0108854595656149	0.00340896164386454	0.00878472627430424	0.279541015625	-0.368408203125	-0.004638671875	0	0	0	-0.413021129303277	0.526035332259421	-0.530060551607527	-0.521283212460646	-0.115354718311511	0.118095920314846	0.986279190984106	-0.987150748247688	0.0968987167571405	-0.127059194570283	-0.110574360487871	-0.988263118959627	0.105400751927533	-50.3229177614828	-80.4977748539812	134.327257835684
21741	1647341966988	9.5687698325747	-1.21934202478936	1.07591174759357	-0.01946807075174	-0.0512232993949478	-0.106878056032835	0.00784085037530851	0.00187250486212538	0.00891097147736687	0.277099609375	-0.3662109375	0.002197265625	0	0	0	-0.413013802025132	0.526034664172368	-0.530099567584457	-0.521250016664346	-0.115436038928328	0.118109663580634	0.986268030651611	-0.987147970168008	0.0968280955670337	-0.127134593648005	-0.110514279211871	-0.988268398400825	0.105414262851617	-50.3360109516684	-80.4939022589454	134.344108174915
21742	1647341966988	9.59306084725295	-1.2198159675198	1.07484413148961	-0.0226786233932198	-0.0474249008060497	-0.0829754516910235	0.00473179224460333	-0.0012957814264471	0.00604116712495213	0.279052734375	-0.369140625	-0.00341796875	0	0	0	-0.413004985652985	0.526059164139829	-0.530119750704648	-0.521211749256598	-0.115530388525308	0.1180791700841	0.986260634375844	-0.987139400236867	0.0967998634772376	-0.127222603851626	-0.110492234239294	-0.988274807947182	0.105377275300563	-50.3653699199218	-80.4913366389882	134.374903009212
21743	1647341966989	9.59415035603285	-1.21863631778837	1.09917756463579	-0.0271604781675355	-0.0713149380642859	-0.0794883342341599	0.00472384972032669	0.000229584044378527	0.00598814696914702	0.28076171875	-0.364990234375	-0.001220703125	0	0	0	-0.413001491588484	0.526065106350119	-0.530139596248927	-0.521188334784605	-0.115584975260275	0.118073799554216	0.986254881535657	-0.98713649393523	0.0967635528694238	-0.127272766833082	-0.110461105531963	-0.988279005491322	0.105370543653051	-50.3782634400315	-80.4893415680411	134.389735157161
21744	1647341966990	9.61613575468505	-1.22249461739244	1.04941518910068	-0.0209128190355196	-0.0203295748476425	-0.0625601062928638	0.00170733757020358	0.000272220558201304	0.00758599169357719	0.27685546875	-0.36376953125	0.001220703125	0	0	0	-0.412981476850263	0.526104681583189	-0.530126243296253	-0.521177829501053	-0.115639939630294	0.118037112929252	0.986252829822875	-0.987123066441502	0.0968249318943558	-0.127330217398616	-0.110523554328602	-0.988277376314454	0.105320327589654	-50.4043785967913	-80.4886301393588	134.412252535783
21745	1647341966991	9.61745912829264	-1.24570432035005	1.07555362178313	-0.00157131182020434	-0.0482286701526734	-0.055547082064928	0.0016271024371352	0.00169082231631231	0.00448386402634281	0.2802734375	-0.37255859375	-0.00146484375	0	0	0	-0.412970033141634	0.526112058087358	-0.53013680549616	-0.521168707349557	-0.115677860413179	0.118044399148615	0.986247510739506	-0.987118455406814	0.0968214383706474	-0.127368614921826	-0.110525054198108	-0.988276848307943	0.105323708124163	-50.4119596739145	-80.4867859997401	134.419875332872
21746	1647341966992	9.5941641233329	-1.24460163258396	1.10114201355445	-0.00356519275933154	-0.0759567594620439	-0.0759656330168674	-0.00141779935704125	0.000154906709091728	0.00461023031741444	0.27734375	-0.3671875	-0.000732421875	0	0	0	-0.412949252934548	0.526127148678672	-0.530161341134293	-0.521144980107012	-0.115761648420123	0.118054217166993	0.986236504376179	-0.987109469148758	0.0968037337349739	-0.127451689089732	-0.110517585351442	-0.988277409912853	0.1053262758481	-50.4296193717916	-80.4829711900994	134.438231858437
21747	1647341966992	9.59180107478422	-1.24838971387944	1.05249250597555	0.00547005233408651	-0.0286288478568411	-0.0829383583778504	7.23758360368973E-05	0.000106760499970334	0.00304905867051024	0.27587890625	-0.367431640625	-0.001708984375	0	0	0	-0.412941646790313	0.52613978076834	-0.530160999907602	-0.521138601157234	-0.115787509459971	0.118044668735191	0.986234611457262	-0.987104778784682	0.096817021046152	-0.127477920190883	-0.110532385993885	-0.988277248862356	0.105312254878295	-50.4391545218372	-80.4823152563734	134.446946589692
21748	1647341966993	9.59315088967833	-1.27131357950062	1.07868340022684	0.0240489784946222	-0.0564923283715111	-0.0759235085355083	0.00158322706808963	0.0031627147116471	0.00290627685116185	0.275390625	-0.366455078125	0.003173828125	0	0	0	-0.412908537845589	0.526159696847098	-0.530187768853377	-0.521117493993692	-0.115886193655904	0.118068580705129	0.986220158164607	-0.987091905098785	0.0968149382649912	-0.127579146482478	-0.110543932481154	-0.98827459644525	0.105325025575975	-50.4580727239256	-80.4773083813117	134.465546532068
21749	1647341966993	9.59054123767634	-1.25072839784184	1.02835651829528	0.0092561977656253	-0.00515907891930618	-0.0864235587144098	0.000123963789233997	-0.00289057023974861	0.00467975267827377	0.275390625	-0.368408203125	-0.00244140625	0	0	0	-0.412904524585558	0.52618355866219	-0.530185778501443	-0.521098605299598	-0.115932194263176	0.11803099518527	0.986219250729218	-0.987085283721865	0.0968257877031862	-0.127622135601091	-0.110554823472569	-0.988278023134802	0.105281432340736	-50.4791931623422	-80.4769941167315	134.486033637845
21750	1647341966994	9.59167025735601	-1.24944942380539	1.05242721077861	0.00375149084617545	-0.0285696064641653	-0.0829373698475191	0.00317669111254382	-0.00288026541877749	0.00460647370655915	0.279052734375	-0.3681640625	-0.001220703125	0	0	0	-0.412889915675359	0.526195944613174	-0.53024842102726	-0.521033931144932	-0.116091120258505	0.118032840182353	0.986200334838522	-0.987076836982551	0.0967170590633851	-0.127769825775301	-0.110463431458771	-0.98828844935303	0.105279490812488	-50.5122374490458	-80.4704454709759	134.52482520042
21751	1647341966994	9.59047667119426	-1.25159215840452	1.02790766630375	0.00826355467588624	-0.00497710161669006	-0.0864225698755625	-0.00141005044161012	-0.00137025267211553	0.0046633496099792	0.27783203125	-0.368896484375	-0.007080078125	0	0	0	-0.412877658125635	0.526219925660694	-0.530245931935217	-0.521021958198018	-0.116136316992388	0.118010646435173	0.986197669437216	-0.987068448698506	0.0967425821736881	-0.127815297904011	-0.110490875004986	-0.988288601635332	0.105249258516689	-50.5303178642405	-80.4695230724185	134.541361240948
21752	1647341966995	9.61481581501414	-1.25194835603564	1.02653510816952	0.00479034802904656	-0.00179278820956066	-0.0625178261112573	0.00168653404684587	-0.00283206256629828	0.00616762902355576	0.28076171875	-0.36865234375	-0.004150390625	0	0	0	-0.412834034294586	0.526311826655422	-0.530204546212313	-0.521005816115795	-0.116241999403143	0.117920435225079	0.986196009184325	-0.987038174005523	0.0969023986077037	-0.127927980519969	-0.110650081927686	-0.988283712352077	0.105127842501379	-50.5875358926363	-80.4689485639131	134.589320797628
21753	1647341966996	9.61616344243028	-1.27509186908352	1.05245251809663	0.0241000799813865	-0.0296969921609348	-0.0555027172995359	0.0016351200069241	0.0001652669973596	0.00453688422808746	0.282470703125	-0.379638671875	0.00048828125	0	0	0	-0.412825806593508	0.526323987015117	-0.530212619674259	-0.520991834908274	-0.11628472273866	0.117912642293176	0.986191904268655	-0.987033140169284	0.096898862697158	-0.127969490956093	-0.110650094736323	-0.988284988854652	0.10511582820586	-50.5998654530117	-80.4675282595214	134.601740106417
21754	1647341966996	9.61493746326915	-1.27720693059683	1.02824589628347	0.0278217620423167	-0.00621266280029925	-0.0589825824373946	0.00315393667710092	0.00169563610347209	0.00444706993864443	0.27734375	-0.375	0.00390625	0	0	0	-0.412779581385583	0.526366892275707	-0.530222888551311	-0.52097466384025	-0.116396833655363	0.117918371349258	0.986177993474477	-0.987012393144444	0.0969534112948953	-0.128088140815458	-0.110717265565419	-0.988278955425351	0.105101823814314	-50.6296502947877	-80.4627166710075	134.627952172621
21755	1647341966997	9.6647669847183	-1.27565490008442	1.0505710339496	0.0175691180385719	-0.0220091532898793	-0.00769258029164632	0.00164879662778132	0.00479485192056508	0.00590198172412795	0.2783203125	-0.356201171875	-0.00537109375	0	0	0	-0.41275532592803	0.526370021200978	-0.530244191333213	-0.520969038673428	-0.11644860332346	0.11795755392296	0.986167195893541	-0.987005672561174	0.0969482769508669	-0.12814380175539	-0.110722739832801	-0.988274783179643	0.105135283397857	-50.6329137855087	-80.4589835654562	134.63117305595
21756	1647341966998	9.63908888943739	-1.27813738452477	1.02791255008059	0.0250486670157627	-0.00236042834458046	-0.0350781994419211	0.0032113831906545	0.0048532171670983	0.00738986224939819	0.28662109375	-0.355224609375	0.00341796875	0	0	0	-0.412739428406169	0.526359196478549	-0.530282886894008	-0.52095318445016	-0.116507887700373	0.118006729391941	0.986154310400667	-0.987003504955488	0.0968924482126116	-0.128202709351045	-0.110679687879843	-0.988274387656375	0.105184321042811	-50.6327249251743	-80.4545304879588	134.633813299696
21757	1647341966999	9.64037461750078	-1.30101290203698	1.05465233472738	0.0443492707620276	-0.0302684067854523	-0.028063415338055	0.0029721140181834	0.00910845457241847	-0.00191683823612756	0.27490234375	-0.3701171875	0.000732421875	0	0	0	-0.41272779814002	0.526331373845691	-0.53029621413235	-0.520976942700055	-0.116477579634791	0.118081022689483	0.986148997628161	-0.987007378766857	0.0968833798387763	-0.128179736974271	-0.110677042344829	-0.988266402743522	0.105262099096398	-50.6069199937692	-80.4526950542723	134.608332042447
21758	1647341967000	9.59121929900804	-1.27718789085476	1.05636464110502	0.0280190078873341	-0.0338708573312739	-0.079410917734334	0.00317394433798201	0.0124801659670073	0.0071238990317055	0.275634765625	-0.369140625	0.004150390625	0	0	0	-0.412761051468038	0.526211902491305	-0.530365516103654	-0.521000736463574	-0.116373093990827	0.11824209263516	0.986142033646402	-0.987041205304389	0.0966814674382103	-0.128071670892719	-0.110485121289072	-0.988266918086027	0.105458696134963	-50.5307636813461	-80.4502896972591	134.543578271243
21759	1647341967001	9.61523162432266	-1.25285358021363	1.05454078377149	0.00134612235040618	-0.0259625129425251	-0.0590366804620608	-0.00164253529480893	0.00904031254808905	-0.00333200335406255	0.28515625	-0.37841796875	-0.00537109375	0	0	0	-0.412741783328487	0.52619281470436	-0.53036283011571	-0.521038012509623	-0.116327219629684	0.118314868393509	0.986138717367011	-0.987041911256364	0.0967189774529504	-0.128037903856006	-0.110527116114605	-0.988254537716616	0.105530684096647	-50.504161695389	-80.4491444663967	134.514660126026
21760	1647341967002	9.64006504897561	-1.30092878406503	1.05758169550644	0.0450899378218653	-0.029856114251573	-0.0280655337530931	0.00287208786631729	0.00742245735817973	-0.00643696108108038	0.275390625	-0.372314453125	-0.011962890625	0	0	0	-0.412709973438297	0.526183188133293	-0.530387082563121	-0.521048244407968	-0.11635840964787	0.118392417256017	0.986125730340963	-0.987036615648696	0.0967200409494841	-0.12807791787619	-0.110541575314397	-0.988245146314925	0.105603460700888	-50.4935620621711	-80.4446608869903	134.503570927831
21761	1647341967002	9.66305951645684	-1.27738839996523	1.03137298756307	0.0229181829494463	0.00179338240855413	-0.0111751345300686	0.00434033896238939	0.0119498769751034	-0.00815753692403812	0.27294921875	-0.372314453125	0.000732421875	0	0	0	-0.412711021834908	0.526130856170819	-0.530393848500146	-0.521093369862016	-0.116262624683669	0.118489429199782	0.986125376039768	-0.987049442276316	0.0967039558583814	-0.127991184943938	-0.11052782728199	-0.988235093532531	0.105711869281894	-50.44564844183	-80.4445385989286	134.456521585516
21762	1647341967003	9.64091403245757	-1.27334642455712	1.08255367365296	0.0138884565272003	-0.0507714108829034	-0.0281185879776356	0.00588759621510396	0.0150590820249588	-0.00677578888792411	0.28173828125	-0.37353515625	0.0068359375	0	0	0	-0.412586817494751	0.52621957322612	-0.530389169196524	-0.521106906481093	-0.116439420094518	0.118556400340534	0.986096466572286	-0.987001436423776	0.0969188944571475	-0.128198644277565	-0.11077014916237	-0.98820600475584	0.105730157566548	-50.4863381219524	-80.4345656334934	134.483859959069
21763	1647341967003	9.63992692098663	-1.29860685316645	1.06168658488787	0.0422030576853732	-0.0312071203717909	-0.0280568718171033	0.00735581269587474	0.0195864756551887	-0.00849640635368411	0.277099609375	-0.367919921875	-0.003662109375	0	0	0	-0.412575637482177	0.526139798081902	-0.530418776445237	-0.521166171028827	-0.116334331062653	0.118727720326751	0.986088257633269	-0.987017570720288	0.0968745299010269	-0.128107925382765	-0.110736798335631	-0.988189786368219	0.105916512461023	-50.4168863211212	-80.4317356541963	134.416637589258
21764	1647341967005	9.64178196962499	-1.2701093429563	1.1110128805362	0.0088521250646762	-0.0740518667959836	-0.0246372902466589	0.0104773805130955	0.0273842833376682	-0.00426163956028606	0.281982421875	-0.368408203125	-0.004150390625	0	0	0	-0.412537110861404	0.526008164809741	-0.530544599215965	-0.521201468684025	-0.116324322407482	0.119045471427238	0.986051128364603	-0.987037025827717	0.096671120809793	-0.128111685831362	-0.1105737837899	-0.988171478101875	0.106257085431229	-50.3273557465092	-80.4189459194505	134.337623550068
21765	1647341967008	9.56671601150427	-1.2232241722182	1.08968131095949	-0.0256856191277016	-0.0545809301745452	-0.106910819805666	0.0105253895722654	0.0320676932993766	-0.00137297249516457	0.281982421875	-0.3720703125	-0.007080078125	0	0	0	-0.412482227107421	0.52590191500985	-0.530627268327178	-0.52126796392749	-0.116276244206782	0.119347605243987	0.986020275732548	-0.98704837781727	0.0965862288562774	-0.128088251778294	-0.110523006118462	-0.988143334500541	0.106571176218949	-50.2390809059711	-80.4083311188775	134.253190797856
21766	1647341967009	9.56663455089095	-1.24761660433891	1.09418422812003	-0.00194078806516581	-0.0600291166228989	-0.10337867414945	0.0137641349944935	0.023141162779906	0.00497540907045237	0.2802734375	-0.372802734375	0.001220703125	0	0	0	-0.412403969829608	0.525916751767651	-0.530609937759224	-0.521332552053001	-0.116270671677369	0.119468153535657	0.986006334258799	-0.987028778451144	0.0967521192398654	-0.128114081707816	-0.110703755207019	-0.98811253798005	0.106669071757885	-50.2188946989898	-80.4035383917642	134.222907037592
21767	1647341967011	9.54196499788251	-1.24805799718263	1.09745609962568	0.000901110128261558	-0.0642370950198709	-0.127284574754384	0.0106991423925884	0.0185010686528587	0.00368247500564262	0.278564453125	-0.373291015625	-0.001953125	0	0	0	-0.412372228707207	0.525856421212089	-0.530677547585996	-0.521349700056668	-0.116287270483745	0.119639991731085	0.985983540989415	-0.987034329311984	0.0966609709583288	-0.128140116485955	-0.110636808897768	-0.988100667478764	0.10684833852213	-50.1773050738932	-80.3957077438183	134.185834456093
21768	1647341967012	9.51709050775838	-1.22441185652167	1.09839750545182	-0.0212094370170798	-0.0641427854310629	-0.154731631519923	0.0093492884242732	0.0110855005559527	0.0100844832105239	0.285400390625	-0.36279296875	-0.00341796875	0	0	0	-0.412296854463472	0.525858478921716	-0.530771047125436	-0.521312055758386	-0.116490088640986	0.119775097923246	0.985943195709516	-0.987014284932723	0.0965867986657897	-0.128350269428	-0.110602263029114	-0.988091552560273	0.106968327891333	-50.1918550866168	-80.38186257013	134.203416114539
21769	1647341967013	9.56698965742216	-1.24752971907265	1.12320549703394	-0.00770171225193304	-0.0839733626720183	-0.0999070626858849	0.00627664901851278	0.00797086656342187	0.00873776751302623	0.273193359375	-0.369384765625	-0.007568359375	0	0	0	-0.412267956240749	0.525847941886125	-0.530818774900507	-0.521296942715308	-0.116569259545497	0.119847896393445	0.985924991801648	-0.987008921572633	0.0965331209404016	-0.128431870256309	-0.110566705951847	-0.988087970927473	0.107038148542404	-50.1913775966748	-80.3756220468327	134.205472158307
21770	1647341967014	9.51670903055845	-1.22594957711639	1.09998633627749	-0.0210986763959127	-0.0657332275260148	-0.154742082712701	0.00168481585125688	0.00332615759981526	0.00747993242201418	0.28271484375	-0.370361328125	-0.0048828125	0	0	0	-0.412216066015413	0.525941552628642	-0.530735614210466	-0.521328213264916	-0.116589617945574	0.119771783387567	0.985931833795555	-0.986978014502034	0.0967952454548321	-0.128472095596521	-0.110820845859107	-0.988071556296152	0.106926796274702	-50.2295270480365	-80.3779670961518	134.228665789356
21771	1647341967015	9.54123565578493	-1.25074207476386	1.10073648511106	-0.00018907054541209	-0.0658945733816974	-0.127295669507005	-0.004475495098106	0.000147965855006222	0.00467868029627838	0.283203125	-0.376953125	-0.00390625	0	0	0	-0.41219061269071	0.525972147755997	-0.530727611097598	-0.521325619371653	-0.11663699479284	0.1197622374626	0.985927389782659	-0.986965364829772	0.0968542032565889	-0.128524830044496	-0.110883633021877	-0.988066935885157	0.106904397189202	-50.2469896075321	-80.3764438749413	134.242583055422
21772	1647341967016	9.59105150765807	-1.2490844571402	1.12296534974059	-0.0108931830674977	-0.0826032328088993	-0.076025192033752	0.00158111578065983	0.00316361973780258	0.00290639051420698	0.2724609375	-0.371337890625	-0.00439453125	0	0	0	-0.412127914204403	0.52605920769643	-0.530658083109436	-0.521358121795327	-0.116672582343153	0.119718435018987	0.985928498850695	-0.98693317108279	0.097105162328294	-0.128582670938445	-0.1111324630603	-0.988047612094579	0.106824584662665	-50.2806980561599	-80.3768239945777	134.261795779205
21773	1647341967017	9.56665637109503	-1.24919008617629	1.12419838115953	-0.0080613745107657	-0.0868267425161689	-0.0999324430401174	-0.00620941909669757	-0.000181413809286248	-0.00443362802455026	0.275390625	-0.368896484375	-0.0087890625	0	0	0	-0.412122684348932	0.526077013769268	-0.530620634753066	-0.521382403426595	-0.116630564884276	0.119695981532877	0.98593619638375	-0.98692906588832	0.0971932700385672	-0.128547606605561	-0.111212994922278	-0.988041669295426	0.10679573725728	-50.2806232891679	-80.3794626407642	134.256852055453
21774	1647341967018	9.61543671773825	-1.24868419798601	1.12214480364778	-0.0163015506803882	-0.0800765253212135	-0.0521358175022044	-0.00922215336155657	0.00601836352273768	-0.00152974279320584	0.276611328125	-0.375732421875	0.001220703125	0	0	0	-0.411969505586377	0.526252720915626	-0.530536478097633	-0.521411781228211	-0.116821761726681	0.119655793604664	0.985918438332458	-0.98685608660105	0.0976243437493508	-0.128781022848749	-0.111659036022779	-0.988004037726743	0.106678400391632	-50.3626517492856	-80.3733764180832	134.313379689611
21775	1647341967020	9.61562417027536	-1.27285211131647	1.12445597820117	0.00745058669265247	-0.0843193509886861	-0.0485890107206988	-0.010832134863036	0.00895614678792901	-0.00465133797237702	0.2724609375	-0.370361328125	-0.001220703125	0	0	0	-0.411927949212256	0.526259699088635	-0.530504887244472	-0.52146970993784	-0.116769412550261	0.119722302146681	0.98591656577084	-0.986846616541243	0.0977598585350304	-0.128750788270643	-0.111797404772062	-0.987982581034661	0.106732187545848	-50.3418528960233	-80.3727348565743	134.284628978199
21776	1647341967021	9.59147565782635	-1.29681124450522	1.12786279924383	0.031600145340139	-0.0918143094789471	-0.0689318902827196	-0.00939443789335111	0.00574858453678889	-0.00915257981632761	0.278076171875	-0.3671875	-0.002197265625	0	0	0	-0.411826908706041	0.526302975717632	-0.530538571410819	-0.521471570904646	-0.116931996007733	0.119830109453047	0.985884198665401	-0.98681301958338	0.0978548430219868	-0.128936007685503	-0.111923959411653	-0.987960107780478	0.106807550032784	-50.3624502043212	-80.3616521925764	134.298699527233
21777	1647341967022	9.59127462989698	-1.27175690981291	1.12665655714883	0.0077045366217223	-0.0879592888063445	-0.0724885239076371	-0.00936736339674307	0.00732772912078122	-0.00768160583359012	0.281494140625	-0.37451171875	0.0009765625	0	0	0	-0.411800865859851	0.526304434488009	-0.530500280741714	-0.52152961684673	-0.11685381125756	0.119877972648536	0.985887650023196	-0.986808459960701	0.0979789980200805	-0.128876604924916	-0.11204575022987	-0.987941996081075	0.106847378230669	-50.3389832900338	-80.362833353982	134.268107320188
21778	1647341967023	9.54253017652598	-1.27143114856173	1.12933699005184	0.0130806577777082	-0.0958664394018228	-0.120295508003323	-0.00629965550150775	0.00428705884473676	-0.00764416613652712	0.28076171875	-0.366943359375	-0.00048828125	0	0	0	-0.411771387319705	0.526305140850304	-0.530479018829244	-0.521573804826613	-0.116810181406992	0.119933124460071	0.985886112680826	-0.98680271646576	0.098072670333536	-0.12884933103997	-0.112141786571571	-0.987926007852256	0.106894446598695	-50.3206251383876	-80.3623072101548	134.244240176321
21779	1647341967025	9.59161845725618	-1.29487381495505	1.12887392049315	0.0310400638602747	-0.0920272974029481	-0.068932099258669	-0.00470900531581167	-0.00175542446354067	-0.00594053469207825	0.275146484375	-0.3701171875	-0.006103515625	0	0	0	-0.411776922879561	0.52632153112844	-0.530438936466392	-0.521593660175101	-0.116759638897964	0.119893051675131	0.985896973767768	-0.986801293808442	0.0981486009284872	-0.128802401661485	-0.112206921633217	-0.987923331183046	0.106850823308911	-50.3218610011143	-80.3660249449952	134.241416453267
21780	1647341967025	9.56735048279694	-1.29457278583213	1.12949769724836	0.0333200557234768	-0.0965942008789889	-0.0928397150114488	-6.53330338211902E-05	-0.00778770538254595	-0.0043065831853547	0.28564453125	-0.371337890625	-0.0029296875	0	0	0	-0.411770024312373	0.526392232517957	-0.530373417329207	-0.521594385335087	-0.1167694885294	0.119774508456268	0.985910215827304	-0.986784677983322	0.0982989705366529	-0.128815028970946	-0.112342716034168	-0.987922759893451	0.106713329245097	-50.360868833848	-80.3705596068945	134.272162050455
21781	1647341967026	9.59103304619695	-1.3200494538176	1.10496418301663	0.0587122061124865	-0.0730702727650166	-0.0688377719140511	0.00299507343067818	-0.0093027762203763	-0.00432280958748773	0.27587890625	-0.36572265625	-0.00390625	0	0	0	-0.411811274496417	0.526411577603751	-0.530342095403479	-0.521574143344371	-0.116743774384445	0.119661002813715	0.985927043724884	-0.986789893544396	0.0982974720813683	-0.128776212792005	-0.112323626816056	-0.987936663652093	0.106604650324733	-50.3810651986561	-80.3763252708746	134.293007545627
21782	1647341967027	9.56741825724319	-1.2694286178368	1.12605878445766	0.00967843462336532	-0.0933656051689372	-0.0964052226826695	0.00151072317837968	-0.0107795384036057	-0.00270992156879908	0.280517578125	-0.369140625	-0.007080078125	0	0	0	-0.411836795080033	0.526470187527101	-0.530255499918945	-0.521582879961656	-0.116683507098223	0.119504792053771	0.985953124569036	-0.986783970999153	0.0984391180478322	-0.128713381655163	-0.112438221928318	-0.987941468263252	0.106439191726771	-50.4110427158945	-80.3852679961921	134.31563064817
21783	1647341967028	9.59109744868281	-1.29516832559049	1.10120772932757	0.035078284278658	-0.0698533055175855	-0.072401964147021	0.00770070349930679	-0.0137019878573557	0.000306187032612327	0.278564453125	-0.362060546875	-0.00341796875	0	0	0	-0.411889863708657	0.526498268228685	-0.530239176829441	-0.521529221694715	-0.116708022185137	0.119351850520696	0.985968748660381	-0.986789050294924	0.0983863110586001	-0.128714816607573	-0.112368179551305	-0.987965216783245	0.106292627452518	-50.4501239028202	-80.3906292084293	134.358324350365
21784	1647341967029	9.56663065934399	-1.27085537034996	1.09932911645601	0.014609892765775	-0.0709591220612736	-0.0998725667983269	0.00767375125521338	-0.0152811412741421	-0.00116485951812649	0.282470703125	-0.37255859375	0.00439453125	0	0	0	-0.411940603275909	0.526577558451445	-0.530128170540249	-0.521521943073964	-0.116639604530074	0.119109592956706	0.986006139697292	-0.986784301356881	0.0985381243446577	-0.128635067715805	-0.112480866153676	-0.987979323121858	0.106042028615989	-50.4990819373421	-80.403471523201	134.39972336763
21785	1647341967031	9.61558025942321	-1.27032551799717	1.09578366114638	0.0087651574003772	-0.0631043467741754	-0.0520627219577978	0.00766615246540231	-0.0137558515651276	-0.00121843211885224	0.277099609375	-0.367919921875	-0.003662109375	0	0	0	-0.41199783910517	0.526603107899627	-0.530106996252825	-0.521472453584015	-0.116648521451476	0.118953706954601	0.986023903384165	-0.986791077037451	0.0984887061929574	-0.128620935433176	-0.112412155581381	-0.988003031551117	0.10589389464625	-50.5352994827633	-80.4095786030434	134.439423018951
21786	1647341967031	9.59136885313618	-1.2702275403115	1.09567592517468	0.0113964199191759	-0.0665079024156282	-0.0759637397955846	0.00610493516806334	-0.0138149884839147	-0.00270767586203951	0.278076171875	-0.3603515625	0.005126953125	0	0	0	-0.412047219872811	0.526596301396856	-0.530123543278451	-0.521423487016207	-0.116669271565895	0.118872648999515	0.98603122384239	-0.986802816943032	0.0983722349139764	-0.128619997944827	-0.112287495054353	-0.988024390750486	0.105826847900479	-50.5529000250559	-80.4120964666261	134.46404213269
21787	1647341967032	9.61569692953927	-1.24531619793871	1.09163875314218	-0.0153786472696672	-0.0586192787398974	-0.0556159677062577	0.0045359184966884	-0.0123488663309552	-0.00425047922638898	0.281494140625	-0.37451171875	-0.002685546875	0	0	0	-0.412100512637121	0.52662003977951	-0.530089380594939	-0.52139212668329	-0.116646835433797	0.118728082245012	0.986051295962691	-0.98680963567748	0.0983568321293923	-0.12857945600892	-0.112250874016018	-0.98804330677349	0.1056890023737	-50.5806756491932	-80.4190036131298	134.493388879585
21788	1647341967033	9.61702126442534	-1.24282056453846	1.11505319451001	-0.019434104103444	-0.0815469950158539	-0.0521537266672478	0.00589899244708387	-0.00798369844916201	-0.0105452336108582	0.28125	-0.3662109375	-0.00634765625	0	0	0	-0.412188776472291	0.526542859021476	-0.53010397132764	-0.521385471361095	-0.11651520560769	0.118706904281531	0.986069408174746	-0.986847131562668	0.0981803842658803	-0.128426442261471	-0.112057778796176	-0.988063400304505	0.105706060327532	-50.5426677796412	-80.4252405597352	134.466157963631
21789	1647341967034	9.61721855340354	-1.24164716213571	1.11465878146039	-0.0195124428655826	-0.08174784810134	-0.0521555631088812	0.00735907832545258	-0.00193117070813352	-0.0123203262022535	0.283203125	-0.36865234375	0.001220703125	0	0	0	-0.412243198690751	0.526514899062424	-0.530077878030579	-0.521397208873525	-0.116400991424231	0.118657879885826	0.986088797592011	-0.986866624477153	0.0981459767116329	-0.128302894544085	-0.112004797613883	-0.988072707241892	0.105675212397007	-50.5238136096493	-80.4319217760453	134.449898616321
21790	1647341967035	9.5680543048832	-1.19243714586687	1.11343786569473	-0.0603658593458091	-0.0820588355693832	-0.107073743830592	-0.000105322155196689	-0.000162339859041285	-0.00457358861732683	0.27783203125	-0.367919921875	-0.0048828125	0	0	0	-0.412269984249504	0.526506958860136	-0.530010770516733	-0.521452265787602	-0.11624198918378	0.118624603082521	0.986111557327117	-0.986876665628612	0.0982440864463442	-0.128150483089519	-0.112081429275112	-0.988066952702011	0.10564776471753	-50.4976951104687	-80.4397702400143	134.418780522913
21791	1647341967036	9.61828646351029	-1.21428116434253	1.13697296052968	-0.0469469631791753	-0.101988753101853	-0.0522562752684355	-8.14820605866361E-05	-0.00473830237755899	-0.0044121793715265	0.27978515625	-0.365478515625	-0.00341796875	0	0	0	-0.412291864456008	0.526522280755867	-0.529979510553544	-0.521451267871173	-0.116207987477869	0.118555269826846	0.986123902784345	-0.986878681068712	0.0982742737936292	-0.12811181039395	-0.112098940665931	-0.988072272208172	0.105579412742057	-50.5074072259796	-80.4440301172699	134.42714676865
21792	1647341967037	9.59309937812504	-1.24042766528022	1.11504067916025	-0.0157527975713182	-0.0870130073256976	-0.0760702516539027	-0.00299373180633193	-0.00453280129267696	0.00175716919912287	0.27880859375	-0.37109375	0.0009765625	0	0	0	-0.412265839661734	0.526598261520601	-0.529907772003599	-0.521468025464331	-0.116215951732675	0.11846297018944	0.986134056432879	-0.986856867990239	0.0984692612363747	-0.128130116257102	-0.11228256615951	-0.988063929756298	0.105462296822973	-50.5426308846337	-80.447535107702	134.451417541587
21793	1647341967038	9.59316039688464	-1.24066017941171	1.1142567886053	-0.01582177028765	-0.0872234958176462	-0.0760722468317976	-0.0060146500937608	-0.0106450285242384	0.00204358624864805	0.275390625	-0.364990234375	0.000244140625	0	0	0	-0.412270887997632	0.526658326147694	-0.529865179495604	-0.521446654958151	-0.116252201885198	0.118341059269054	0.986144421090502	-0.986844642438078	0.0985512129354716	-0.12816126606822	-0.112352468811794	-0.988070368000187	0.105327444817908	-50.5854293208052	-80.4511142520459	134.489842339547
21794	1647341967039	9.61652144954826	-1.24240317099227	1.08768772574027	-0.0147568808573733	-0.0585888462970024	-0.0556148247307409	-0.00604988114159264	-0.0106990910557693	0.000519054272348255	0.2783203125	-0.371337890625	-0.001708984375	0	0	0	-0.412267844915471	0.52667580133446	-0.529891818615223	-0.521404339166937	-0.116345478293286	0.1183127918595	0.986136812497696	-0.986838782200646	0.0984997692268106	-0.128245909903636	-0.112307380102347	-0.98807888285535	0.105295648674916	-50.6124682642021	-80.4484867078432	134.51965842299
21795	1647341967041	9.59251314062758	-1.26713596947844	1.08921915380382	0.0118602111543713	-0.0668922014141189	-0.0759669262759921	-0.00751701661452659	-0.015226554794493	0.00224044790701561	0.279541015625	-0.36376953125	0.005615234375	0	0	0	-0.412280472981444	0.526752029227648	-0.529836743271811	-0.521373318057103	-0.116389349632648	0.118146330228566	0.986151592781562	-0.986824633244207	0.0985956741546356	-0.128281083018616	-0.112386220305361	-0.988089235692564	0.105114222605503	-50.668621284633	-80.4535915729756	134.570787311306
21796	1647341967042	9.64143527874478	-1.26692650036334	1.0854399535324	0.00632163855079238	-0.0576222323436376	-0.0281487201330783	-0.00606944154876058	-0.0138036979439524	-0.000898169372219202	0.272705078125	-0.36669921875	0.003662109375	0	0	0	-0.412324485695787	0.526726723366251	-0.529864848331683	-0.521335515661459	-0.116395597211411	0.118110077243325	0.986155198030906	-0.986839378500191	0.0984635219962944	-0.128269154037289	-0.112250193724356	-0.988106747517524	0.105094954775115	-50.6711583979905	-80.4548371767081	134.581115809008
21797	1647341967042	9.64070498915458	-1.29297814951201	1.0614912912173	0.0346244238525119	-0.0381468874084654	-0.0280517133868798	-0.00607737218254788	-0.0122783844264613	-0.0009517538110436	0.277099609375	-0.369140625	-0.0009765625	0	0	0	-0.412341531008464	0.526784392339396	-0.529811725275087	-0.521317754881076	-0.116404520502702	0.117970352562975	0.986170869333861	-0.986830683957335	0.0985479951332642	-0.128271173127532	-0.112317357549202	-0.988115017885763	0.104945331586418	-50.7116125878725	-80.4602534412366	134.617219062153
21798	1647341967043	9.64058153021474	-1.26842176026584	1.05882639170726	0.00955504421826753	-0.0328631765926045	-0.0316011238908853	-0.00312780752710783	-0.00627382395191878	-0.0042871946597915	0.279052734375	-0.3623046875	-0.006591796875	0	0	0	-0.412335792018734	0.526768110760949	-0.529880710862749	-0.521268629749779	-0.116516420518144	0.118009691842873	0.986152947762561	-0.986831076486184	0.0984112537517419	-0.128373095374888	-0.112197817406396	-0.988123948584468	0.104989104211249	-50.7222057019471	-80.4540596962972	134.635192057994
21799	1647341967045	9.61632366868935	-1.26823970056911	1.05924602573343	0.012360194234426	-0.0370902441745772	-0.0555060858648382	-0.00617254540811944	-0.00781015225640287	-0.00416133819022765	0.272705078125	-0.37109375	-0.004150390625	0	0	0	-0.412348955849845	0.526807609708037	-0.529828834356452	-0.521271030508824	-0.116489702723623	0.11791170936283	0.986167824436844	-0.986825980550277	0.0984994897880515	-0.128344593273263	-0.112270357932749	-0.988126853853608	0.104884161926495	-50.744049039755	-80.4592008354338	134.652416857663
21800	1647341967046	9.61644869293788	-1.26771908375487	1.05873406507669	0.0113091506466454	-0.0379121729496392	-0.0555079700737124	-0.0016971083553895	-0.00179977677918733	-0.00753293914898611	0.276123046875	-0.371337890625	-0.00439453125	0	0	0	-0.412307020478444	0.52689536590879	-0.529745796748628	-0.521299899362346	-0.116498671577992	0.117827544221866	0.98617682458229	-0.986798177908877	0.0987446233826986	-0.12836999426942	-0.112505180308665	-0.988112427396627	0.104768388496061	-50.7806056930249	-80.4623124737702	134.675076996675
21801	1647341967047	9.61656100700226	-1.26708828505278	1.05846900120033	0.0112220360095433	-0.038108434524389	-0.0555086340529218	-0.00165322056044873	-0.0032713592490779	-0.00595496574455013	0.27392578125	-0.36376953125	-0.002685546875	0	0	0	-0.412324433428909	0.526907944339526	-0.529710241263596	-0.521309543447928	-0.116449843015286	0.117771968827662	0.986189230026455	-0.986800047303606	0.0987912437959843	-0.128319744353093	-0.112539329584443	-0.988114392926092	0.104713159578848	-50.7844162199583	-80.4666030821716	134.676582535668
21802	1647341967047	9.58972723179672	-1.24579555967038	1.0090052957014	-0.00199407277418074	0.00920423243879722	-0.0898854036354279	-0.0016613711133804	-0.00174601706002558	-0.00600840150159874	0.281982421875	-0.367431640625	0.00341796875	0	0	0	-0.412278930180066	0.526969423457116	-0.529685111306284	-0.521308923126495	-0.116526180796549	0.117742369661421	0.986183747369365	-0.986775930223444	0.0989195331800605	-0.128406345197954	-0.11267170328271	-0.988105085677608	0.104658620941711	-50.8179686054864	-80.4647065873412	134.702555622943
21803	1647341967048	9.59120555110528	-1.26807271354212	1.03480673317827	0.0171474172109294	-0.0187917246619719	-0.0828666989070221	0.00150699285919915	-0.00309877541913325	-0.00145396984893948	0.281005859375	-0.361328125	-0.00048828125	0	0	0	-0.412291963363391	0.526982872413987	-0.529670043744979	-0.52130032983632	-0.116522606117009	0.117692730764466	0.986190094955786	-0.986775943270235	0.0989299634103051	-0.128398209188343	-0.112675285874225	-0.988109955149141	0.104608778256527	-50.8295562859882	-80.4669023022642	134.713756379411
21804	1647341967048	9.61674454319278	-1.26614565681958	1.05792933821896	0.0116030223728181	-0.0375383296288019	-0.0555068696826861	0.00308036291610003	0.00159047335970168	0.00139847360904912	0.273681640625	-0.36669921875	0.0009765625	0	0	0	-0.412368142968984	0.526857531490739	-0.529719037932187	-0.521316983252986	-0.116362235272635	0.117784537912845	0.98619806977656	-0.986821585393082	0.0987005110330184	-0.128223896852749	-0.112441045906908	-0.988121961981656	0.104747312351592	-50.754289182193	-80.4696616096764	134.651966435069
21805	1647341967050	9.56676148387166	-1.2686231360688	1.03605366850677	0.0218581890556308	-0.0220712514921352	-0.10677307248522	0.00323181568680112	0.000280261414257078	0.00755003345785942	0.28125	-0.36376953125	-0.00830078125	0	0	0	-0.412353426282387	0.526875441461556	-0.529738978590452	-0.521290260392241	-0.11644223250673	0.117777753157239	0.986189437861753	-0.986813327200109	0.0986825327902407	-0.12830126648772	-0.112430706433333	-0.988124566329233	0.104733842035733	-50.7748312537194	-80.4666749814128	134.67330342354
21806	1647341967051	9.61519066908582	-1.24456888290312	1.03198297742737	-0.00777304054745651	-0.010337480681267	-0.0625250630210523	0.00935365858516194	-0.00274799866978622	0.00751181022326907	0.28466796875	-0.3740234375	-0.000732421875	0	0	0	-0.412345966803822	0.526908240959118	-0.529739034134442	-0.521262951862396	-0.116511477352646	0.11772968922893	0.986186998453723	-0.986803641369685	0.0986947187498592	-0.128366373596895	-0.112443981718165	-0.988129076975749	0.104677018539979	-50.8043000534232	-80.4658311182555	134.702026032344
