// Start Time : 06/05/2022 06:17:22																																
// Update Rate : 100Hz																																
// Filter Profile : 46.1 human																																
// Firmware Version : 4.4.0																																
PacketCounter	Time_Of_Arrival	Acc_X	Acc_Y	Acc_Z	FreeAcc_X	FreeAcc_Y	FreeAcc_Z	Gyr_X	Gyr_Y	Gyr_Z	Mag_X	Mag_Y	Mag_Z	VelInc_X	VelInc_Y	VelInc_Z	OriInc_q0	OriInc_q1	OriInc_q2	OriInc_q3	Mat[1][1]	Mat[2][1]	Mat[3][1]	Mat[1][2]	Mat[2][2]	Mat[3][2]	Mat[1][3]	Mat[2][3]	Mat[3][3]	Euler_X	Euler_Y	Euler_Z
25404	1651817877211	9.75511701629713	-0.265215815023145	0.44157194219649	8.67361737988404E-17	-6.93889390390723E-16	-0.0439805727731297	-0.0205449710068701	0.03270531872214	0.00752621368285165	0.64111328125	0.34912109375	-0.103759765625	0	0	0	-0.410335079811562	-0.555971247683353	-0.413313331456925	0.593037253522435	0.0401361235787891	-0.0339513932806804	0.998617241228274	0.94648941844501	0.321594424632034	-0.0271073203621777	-0.320229405826035	0.946268634659255	0.0450421880509099	-31.0403989190362	-86.9865714559092	-40.2280864120024
25405	1651817877211	9.74044004664123	-0.274099771829348	0.483465801486513	-0.0150231909336788	0.00531366085974733	-0.0564182237283859	-0.0182755047999823	0.0303714400225376	0.00562341170800415	0.636474609375	0.363037109375	-0.102294921875	0	0	0	-0.408626836935532	-0.555588447406907	-0.413197166801691	0.594654258028226	0.0411791569100755	-0.0373622094840345	0.998452974525414	0.945475609091264	0.324584418966236	-0.0268482323040702	-0.323079169321821	0.945118521809208	0.0486911704880893	-28.8722706690902	-86.8125574382754	-42.2177329794214
25406	1651817877212	9.7402770826331	-0.274841557411698	0.486319457198766	-0.015023190933679	0.00531366085974802	-0.0564182237283859	-0.0195663384979267	0.0292892391366191	0.00772380111427777	0.63623046875	0.35205078125	-0.099609375	0	0	0	-0.408645951446122	-0.555445148982796	-0.413288391132649	0.594711592785242	0.0413467844529313	-0.0376139719758805	0.998436594144867	0.945535617504711	0.32440238424336	-0.0269349053684585	-0.322882082880713	0.945171033310597	0.0489783456763462	-28.8079333313068	-86.7957226857529	-42.2933986782703
25407	1651817877213	9.78166118639352	-0.25579977830096	0.432147357117824	0.0236132050784665	-0.0438205451960341	-0.0182704881911029	-0.0153485463035745	0.029685202788608	0.00495350164933829	0.632568359375	0.36181640625	-0.10498046875	0	0	0	-0.40863961417769	-0.555316285742181	-0.413384771078785	0.594769299438327	0.0414737076592986	-0.0378886758814591	0.998420943196276	0.945585606890549	0.324253393529699	-0.0269740027787205	-0.322719369754007	0.94521118541013	0.0492749770284349	-28.6970842107751	-86.7797197286291	-42.413539836067
25408	1651817877213	9.76696069791861	-0.264511453889016	0.473938630740283	0.0027438824729829	-0.00919322173712419	-0.0306623882360597	-0.0151047988102781	0.0312189279459745	0.00468944780894241	0.63623046875	0.359130859375	-0.10546875	0	0	0	-0.40863302075264	-0.555182635004582	-0.413476545224543	0.594834802856321	0.0416187766770911	-0.0381685641060412	0.998404245855348	0.945632392951373	0.324112401799499	-0.0270282888992531	-0.322563567113466	0.945248280460665	0.0495825922798826	-28.5955299331016	-86.7627339706376	-42.5239237481492
25409	1651817877214	9.76677438620074	-0.26488096159922	0.477558681100721	0.00273850926427602	-0.00918107795260872	-0.0306623753250541	-0.0150344841642458	0.0437272277910483	0.00140962581727443	0.6416015625	0.357421875	-0.107421875	0	0	0	-0.408591492781548	-0.555019025762684	-0.413603185783368	0.594927960158065	0.041772571502581	-0.0385760947488817	0.998382159888681	0.945680303783023	0.323970793472791	-0.0270497322252766	-0.32240318749496	0.945280281128585	0.0500137461359752	-28.4065597889601	-86.740402330938	-42.7218277621772
25410	1651817877215	9.73953137907139	-0.276539673695858	0.500097531409225	-0.015179951921345	0.005228911407585	-0.0564184205862865	-0.0132533936887315	0.0478755975141068	-0.00121551910637243	0.642578125	0.353271484375	-0.104736328125	0	0	0	-0.408528523553008	-0.554851671013628	-0.413741375998922	0.595031211285175	0.0419153939198072	-0.039032596338634	0.998358430712944	0.945723532139101	0.323845038460236	-0.0270442567476221	-0.322257816834426	0.945304632109541	0.0504881372339685	-28.175980318147	-86.7165782739527	-42.9603896425424
25411	1651817877216	9.72469210406497	-0.284882461140379	0.543354182209803	-0.0360492260249813	0.0398694181992003	-0.0688104289259659	-0.014619994585597	0.0438338690931067	0.00291074858731148	0.64111328125	0.364990234375	-0.0986328125	0	0	0	-0.40848980929769	-0.554685332302456	-0.41386242524973	0.595128684231287	0.0420841501898509	-0.0394361899583704	0.998335470282592	0.945769412408194	0.323707937332697	-0.0270811717041528	-0.322101137619626	0.94533483921274	0.050920515656902	-28.0054850977379	-86.6936892698193	-43.1395609912981
25412	1651817877216	9.73181362796329	-0.26317709572725	0.539220408744904	-0.0124817227482544	0.0391251816556679	-0.0624807102081881	-0.00910284449555607	0.0357600580432035	-0.000701082805597553	0.634765625	0.357421875	-0.096435546875	0	0	0	-0.408440946036475	-0.554561508985475	-0.413962788543987	0.595207809133473	0.0421926849052779	-0.0397765141332138	0.998317387539601	0.945799023594984	0.323621606603432	-0.0270788239439689	-0.321999975632389	0.945350138659123	0.051275052705164	-27.8389436880423	-86.6757735926851	-43.3116058713204
25413	1651817877218	9.72657216684432	-0.244754547199161	0.513637327381723	0.0140649359897234	0.0181304587370333	-0.0695150339515589	-0.00673902035523774	0.0290486415937177	0.00118429822010669	0.650634765625	0.3525390625	-0.09716796875	0	0	0	-0.408403743709873	-0.554457117342479	-0.414037618198646	0.595278538054599	0.0423003114893205	-0.040050691223291	0.998301871069289	0.945820141020302	0.323558465680305	-0.0270957584677418	-0.321923817833105	0.945360175498811	0.0515673743040573	-27.7194040025369	-86.6604770126981	-43.4352139645263
25414	1651817877218	9.71907641815113	-0.266796500385591	0.524333606431312	-0.0095025861407705	0.0188747164925375	-0.0758446816823781	-0.00698202374689265	0.0275126213256356	0.00144922870763792	0.64306640625	0.35693359375	-0.1005859375	0	0	0	-0.4083715821938	-0.554357809920852	-0.414108838017082	0.595343547636515	0.0424025777117976	-0.0403060975877124	0.998287253199521	0.945842001343185	0.32349304226535	-0.0271138359703503	-0.321846127673635	0.945371710018423	0.0518401388725779	-27.6108197775623	-86.6461300485386	-43.5479909275927
25415	1651817877221	9.70653323091864	-0.270163478127367	0.506265334832315	-0.0065275103202686	-0.0014022584085456	-0.0892088145392176	-0.0046346470583696	0.028139474535727	-0.00247849044799061	0.642333984375	0.363037109375	-0.0986328125	0	0	0	-0.408318928414963	-0.55426749234252	-0.414187705097551	0.595408888560135	0.0424721837567168	-0.0405862652377193	0.998272942977515	0.945857899351904	0.323448395288161	-0.0270918773641904	-0.321790223345176	0.945375000018282	0.0521263992607823	-27.4624468672146	-86.6321441645433	-43.6992701032169
25416	1651817877224	9.72106016831827	-0.261917921618719	0.47016949798976	0.0143418725566898	-0.03602966859126	-0.0768172562744258	-0.000475608923208779	0.027792947403648	0.00134638401373784	0.643310546875	0.356201171875	-0.094482421875	0	0	0	-0.408266514160055	-0.554181012388143	-0.41424175286223	0.595487723727096	0.0425743513881606	-0.0408446566865075	0.998258052120813	0.945858857252098	0.32344444720245	-0.0271055664330758	-0.321773906278359	0.945365222331594	0.0524037178481007	-27.3500440970393	-86.6176521332674	-43.8121411508804
25417	1651817877222	9.72093667418812	-0.226324014774247	0.496189112634453	0.0406243730433501	-0.00291611334797132	-0.076549723464085	0.00203970582841232	0.0365468153852992	-0.00206706283338534	0.64794921875	0.360107421875	-0.1005859375	0	0	0	-0.408178595056277	-0.554079580119795	-0.414317218884056	0.595589871949093	0.0426741220609063	-0.0411994295575788	0.998239212969748	0.945853127808259	0.323462953348129	-0.0270846529724998	-0.321777531722875	0.945343495675216	0.0527721068643112	-27.1686200021036	-86.5994059458799	-43.9927104580464
25418	1651817877223	9.70103634813639	-0.251262568295391	0.486767732916188	0.0200075840266516	-0.0223889758479576	-0.0962435949676248	0.00073190428981626	0.0332512812015444	-0.00453413500614932	0.640380859375	0.35986328125	-0.111083984375	0	0	0	-0.408094965458587	-0.553991321547452	-0.414396550150941	0.595674083740816	0.0427382297462126	-0.0415284321705051	0.998222837366297	0.945852709095563	0.323467996780707	-0.0270390043319182	-0.321770254086274	0.945327374183217	0.0531042296349246	-26.9837641025973	-86.5836248400647	-44.1774738462045
25419	1651817877225	9.69855681298988	-0.255659583819587	0.549444464837715	-0.00385778048036254	0.0324568091749529	-0.0952707193445796	0.00528787808044704	0.0308043428112252	-0.00377301722209641	0.63525390625	0.359130859375	-0.104248046875	0	0	0	-0.408004005285921	-0.553919634157272	-0.414456905633219	0.595761062791668	0.0427970245360229	-0.0418317144774263	0.998207654926941	0.945837431848143	0.323516410087167	-0.0269941645401806	-0.321807344859891	0.94529743470941	0.0534115411314402	-26.8120097065827	-86.5690583515505	-44.3464892131772
25420	1651817877225	9.69103721166147	-0.277120848173864	0.560417343595655	-0.0274253008988519	0.0332011230416228	-0.101600370813221	0.011794594435139	0.0310856687632849	-0.00387181037744904	0.634033203125	0.36083984375	-0.098388671875	0	0	0	-0.407893724042203	-0.553859368666262	-0.41449918224452	0.595863186936579	0.0428604553184675	-0.0421380864677619	0.998192047172651	0.945801128391541	0.323626275611214	-0.0269491978971697	-0.321905586939991	0.945246219459697	0.0537250192551861	-26.6389633414272	-86.5541479139507	-44.5130776467376
25421	1651817877226	9.72296892711614	-0.28363632375674	0.573980025201349	-0.0360335560883352	0.0396786604437989	-0.0688095923008216	0.0096002682168035	0.0268219987370656	-0.00274693760691183	0.64794921875	0.361572265625	-0.096435546875	0	0	0	-0.407799488664348	-0.553803641400166	-0.414537749257816	0.595952647663618	0.0429199624243605	-0.0424080548865406	0.998178057115177	0.945771422020308	0.323716062970721	-0.0269133398971609	-0.32198492839755	0.94520340004439	0.054002207634024	-26.4905094778369	-86.5408374556873	-44.6562701153563
25422	1651817877227	9.74992040598543	-0.271698695846922	0.558514296989776	-0.0181150592744807	0.0252681984084471	-0.0430538385257435	0.0122830819274962	0.0246044344709686	-0.00314881001498476	0.63623046875	0.365478515625	-0.103271484375	0	0	0	-0.407703167454221	-0.55376220019377	-0.414563284555412	0.596039290636934	0.0429694174703674	-0.0426508060302139	0.998165586417018	0.945733218171886	0.323830820692848	-0.0268752602897679	-0.322090529523151	0.945153166589611	0.0542511057687018	-26.3531895761797	-86.5290155266225	-44.78679094941
25423	1651817877228	9.75716188902648	-0.249556064470223	0.552812295043117	0.00551200022225543	0.0243710674694267	-0.0367238236153646	0.0170038550687171	0.0207367443491675	-0.000623420261151571	0.640869140625	0.358642578125	-0.10107421875	0	0	0	-0.407604385081622	-0.553731856324389	-0.414563417214128	0.596134942493329	0.0430364087985821	-0.0428644121671488	0.998153550155129	0.945678543355979	0.323991676739956	-0.0268604921649996	-0.322242083151527	0.945088374477645	0.0544793931075584	-26.2451174313646	-86.5176434466911	-44.8852785364396
25424	1651817877228	9.77434945294696	-0.264575521395414	0.604734707743783	-0.0239570554493424	0.0655492471008614	-0.016323738913405	0.00749386642805307	0.0277264343159671	0.000915352621968199	0.64404296875	0.366455078125	-0.09326171875	0	0	0	-0.40752710637116	-0.553662874623163	-0.414596444219276	0.596228871556467	0.0431344194094967	-0.0431234817757334	0.998138160367463	0.945653998576997	0.324062892026963	-0.0268655352907252	-0.322301003469648	0.94505217175067	0.0547581576735301	-26.1335667617724	-86.5031567027159	-44.9927348075884
25425	1651817877229	9.74950760101604	-0.27128966189008	0.565870910982488	-0.0179731426625022	0.0248474750052033	-0.0430524973111375	0.0165183792649542	0.027212647559427	-0.00134212603814909	0.639404296875	0.365478515625	-0.098876953125	0	0	0	-0.407411303411025	-0.553610511975534	-0.414616043150365	0.596342994966363	0.0432178755850431	-0.0434123853347879	0.998122026622727	0.945601106398777	0.324219133230529	-0.0268421538750729	-0.322444976402679	0.944985353562048	0.055062861766233	-25.9884002021612	-86.4880337359787	-45.1286452203705
25426	1651817877229	9.7616891464666	-0.267657671945133	0.589361768489329	-0.0209237531664141	0.0450639318158211	-0.029687119626475	0.0165190434301901	0.0272113403396332	-0.0013410934215855	0.648193359375	0.366943359375	-0.10009765625	0	0	0	-0.407301919606913	-0.553566343411262	-0.414629743449162	0.596449181049057	0.0432929585791342	-0.0436738732352934	0.998107365233868	0.945548410440039	0.324374644263613	-0.0268196508770999	-0.322589403502007	0.944919934679908	0.0553388994536174	-25.8568575632309	-86.4743470704098	-45.2509538652111
25427	1651817877230	9.72702361103962	-0.265311245820732	0.640512625077979	-0.0360129184816585	0.0930041254577497	-0.0614983183584563	0.0184693838048363	0.0203915224856983	-0.000949436699826767	0.636962890625	0.36328125	-0.097412109375	0	0	0	-0.407193884688506	-0.553534178274407	-0.414630311339757	0.596552393904053	0.0433632368007467	-0.0439059449109981	0.998094132682702	0.945488874348662	0.324549690381159	-0.0268008760378113	-0.32275442394654	0.944849070738267	0.0555861075087212	-25.7410691071874	-86.4620396511656	-45.3563054308228
25428	1651817877230	9.73674093253264	-0.238520790181661	0.574962685850151	0.0113748122531471	0.0374147219198116	-0.0561475710288217	0.0167620805277833	0.0191978854093523	-0.000353175316360022	0.64501953125	0.368408203125	-0.1064453125	0	0	0	-0.4071031041106	-0.553512383407628	-0.414624057949519	0.596638914761176	0.0434218639677608	-0.0440884770399484	0.998083537546764	0.945434914835557	0.324707906385976	-0.0267880073973474	-0.322904573426034	0.944786209532471	0.0557822080758413	-25.6514795314033	-86.4522159960462	-45.4364441553909
25429	1651817877231	9.73662437628956	-0.238342441655807	0.577006911017881	0.0115336704668031	0.0368895461057887	-0.0561457577014899	0.018714770959523	0.0219234799636534	-0.00121168233331311	0.6455078125	0.35595703125	-0.0966796875	0	0	0	-0.406985645262935	-0.553472334488671	-0.414631933080663	0.596750718118852	0.0434974700509071	-0.0443532172676783	0.998068515792968	0.945374398015897	0.324886089239409	-0.026763344238032	-0.32307153646716	0.944712560060852	0.0560621190111472	-25.5192173270334	-86.438334426585	-45.5580964095477
25430	1651817877231	9.71673856197356	-0.227900582514998	0.589367560385345	0.0171814857274698	0.050558431869567	-0.0755702742446669	0.0166852205800612	0.0257861371851271	0.000422605661378115	0.64013671875	0.359130859375	-0.1025390625	0	0	0	-0.406883561689563	-0.553429136754298	-0.414636963243668	0.596856889488826	0.0435847586069227	-0.0445954196866789	0.99805391505677	0.945320292908155	0.325043911877769	-0.0267581607596012	-0.323218057405857	0.944646867297069	0.0563239156364158	-25.4112876455415	-86.4248935069888	-45.6566564066421
25431	1651817877233	9.69682640969506	-0.217693511490476	0.601965899937259	0.0229686159280869	0.0635902930017918	-0.0949909298241476	0.011239392085136	0.0272640826823471	0.00324662660161602	0.63623046875	0.364990234375	-0.101806640625	0	0	0	-0.406785407628463	-0.553346942433247	-0.41466627658524	0.596979624864413	0.0437180807254215	-0.044907713404215	0.998034080928347	0.945281559554903	0.325155022406957	-0.0267765675354723	-0.323313319526331	0.944593832649958	0.0566655868806446	-25.2924517850771	-86.4067153447105	-45.7690406505497
25432	1651817877233	9.72371926089903	-0.170529150382043	0.609586282885337	0.0671552097903328	0.0823139910734592	-0.0689660089030113	0.0167681442269318	0.0287372913462845	-0.00160110953152642	0.63232421875	0.365478515625	-0.09814453125	0	0	0	-0.406671362904828	-0.553299166152823	-0.414683066464738	0.597089934360915	0.0437959742439855	-0.04518431788508	0.998018181225813	0.945228021858974	0.325312713961062	-0.0267511649813457	-0.323459269974739	0.944526344551886	0.0569568706554408	-25.1582267672079	-86.3922091742996	-45.8939033022168
25433	1651817877234	9.71126220850641	-0.173787264812812	0.591370872420584	0.0700100425185374	0.0613026937338626	-0.0823289250074648	0.00806415033150806	0.0241954963049613	-0.000389410665431001	0.641845703125	0.3662109375	-0.093505859375	0	0	0	-0.406569478818474	-0.55323044947398	-0.414735772704777	0.597186375855198	0.0438606172275806	-0.0454958750598495	0.998001188180132	0.945202337096432	0.325390995464494	-0.0267065912850776	-0.3235255603563	0.944484423070685	0.0572746573361866	-24.9991618233687	-86.3767696074926	-46.0484175517793
25434	1651817877235	9.71603716453082	-0.192058821688588	0.622383339453611	0.0434911340369896	0.0822621889532381	-0.0752869452985276	0.00383286971294329	0.0215832400086709	-0.00219718643526241	0.646240234375	0.354736328125	-0.09765625	0	0	0	-0.406507179605234	-0.55317844480733	-0.414775616346569	0.597249285654043	0.0439095925697342	-0.0457068623053329	0.997989393940918	0.945190899973483	0.325426202027443	-0.026682384475738	-0.323552330060652	0.944462106054126	0.0574910422598828	-24.8966637305775	-86.3660920937226	-46.1489203410411
25435	1651817877235	9.73076200774366	-0.183631126943052	0.585824928743462	0.0641886867514023	0.0465473432078041	-0.0629000204968761	0.00220687372349291	0.023343833734004	-0.00362901682731958	0.64306640625	0.36865234375	-0.101318359375	0	0	0	-0.40640572092373	-0.553102510416513	-0.414862591133521	0.597328245983224	0.043933286897864	-0.0460502387905865	0.997972565659838	0.945186336752779	0.325446840956888	-0.0265921516061394	-0.323562443924217	0.944438314141539	0.0578240059428277	-24.6967943037384	-86.3509112005132	-46.3476915696752
25436	1651817877236	9.74790693600218	-0.233814054048836	0.614895305949076	0.00845552836294472	0.0545783209080525	-0.0427639162936124	0.000336345496593787	0.0235708011946369	-0.0047970406325744	0.64599609375	0.358154296875	-0.090576171875	0	0	0	-0.40634256606256	-0.553042494932081	-0.414923894729791	0.597384197470318	0.0439643207631221	-0.0462885426641453	0.997960174214316	0.945187368793513	0.325447761175912	-0.0265441635540244	-0.323555213793618	0.944426347347222	0.0580594356099875	-24.5693811339666	-86.3397729996838	-46.4751740163237
25437	1651817877237	9.7280052213136	-0.223166974729716	0.6271111150868	0.0137900389728492	0.0670553847770747	-0.0621760711598327	-0.00242889999052552	0.0228333152830724	-0.00237387390556192	0.646728515625	0.358154296875	-0.094482421875	0	0	0	-0.40625371663152	-0.552957315584477	-0.415025862424285	0.597452641122009	0.0439834813211755	-0.0466346660890927	0.9979432154635	0.945198524468222	0.325422902484111	-0.026451538365738	-0.32352001903123	0.944417885502798	0.0583922497293712	-24.3704036380753	-86.3245840550377	-46.6758053909292
25438	1651817877237	9.74015352975343	-0.21948225733651	0.649955874710218	0.0108411333829538	0.0872638684021126	-0.0488011947989317	0.00147356662091481	0.0187417887048399	-0.00283533058335211	0.6396484375	0.361083984375	-0.103759765625	0	0	0	-0.406202598450767	-0.552910028447255	-0.415068367562777	0.59750163154846	0.0440175013824546	-0.0468210731163054	0.997932987070917	0.945195034175355	0.325435398521233	-0.0264225047937337	-0.323525589316045	0.944404356460496	0.0585798989086011	-24.2777888733579	-86.3154533213856	-46.7677716203858
25439	1651817877239	9.74003266657543	-0.219102005047437	0.651892576163261	0.0105602052902404	0.0859779655611528	-0.0487894789584118	-0.0034863294220473	0.0210711162218933	-0.0051073218750789	0.6376953125	0.35888671875	-0.100830078125	0	0	0	-0.406108856791284	-0.552832216792462	-0.415177090993594	0.597561812389401	0.0440090463808582	-0.0471678307954268	0.997917030406187	0.945208069031339	0.325407159099547	-0.0263037458323058	-0.323488655248829	0.944396832134044	0.0589042730240175	-24.0631850060795	-86.3012539922244	-46.9841945036541
25440	1651817877239	9.73263632941957	-0.276379264684221	0.638974295089609	-0.0392694418705217	0.053587233042926	-0.0554095855426198	-0.00568441308096747	0.0190279255523359	0.000576252802185343	0.6357421875	0.355712890625	-0.10302734375	0	0	0	-0.406087993402335	-0.55276227279126	-0.415229669779377	0.597604160567859	0.044076382227101	-0.0473457121301134	0.997905634853648	0.945226200875381	0.32535372589875	-0.0263131568325523	-0.323426501246364	0.944406340823003	0.0590928227862113	-24.0027002222753	-86.2911466800934	-47.0480718336313
25441	1651817877240	9.7201231442765	-0.244184480310735	0.642927502903804	-0.0102519083160438	0.0653173034187639	-0.0684888851540126	-0.00413666520345157	0.0216389017526219	-0.00177879516594232	0.64453125	0.349365234375	-0.096923828125	0	0	0	-0.406004954485345	-0.552676606475999	-0.415323430944682	0.597674655055629	0.0441100327250237	-0.0476776957379603	0.997888341620502	0.945235457567573	0.325332849283381	-0.0262386534368583	-0.323394858910929	0.944396831054762	0.0594170911750535	-23.826306404478	-86.2758607331063	-47.2258878188723
25442	1651817877239	9.73976967441056	-0.254297184330607	0.635053376209348	-0.0158983751700508	0.0516386783487026	-0.049073610016805	-0.00120829511987548	0.0209557952298038	-0.00243691193580361	0.641357421875	0.3642578125	-0.099609375	0	0	0	-0.405958409098853	-0.552616406939192	-0.415376397463476	0.597725125198708	0.044155110423765	-0.0478832635509709	0.997876505032148	0.945240373162806	0.325320437024386	-0.0262154572209374	-0.323374339066206	0.944390706395383	0.0596257537270919	-23.7334923650034	-86.2654340766307	-47.3195838629163
25443	1651817877240	9.73240714746068	-0.311339700511673	0.621962860195872	-0.0657997363864034	0.0177218393780064	-0.055696268397952	-0.00169658737173475	0.0156732854668866	-0.00647261826914872	0.63330078125	0.367919921875	-0.091796875	0	0	0	-0.405862736202967	-0.552550333112198	-0.41547440203982	0.597783062648227	0.0441383012545062	-0.0482079408330542	0.997861616058561	0.945246301180164	0.32531292122299	-0.0260947004310102	-0.323359305521869	0.944376777417786	0.0599271374788804	-23.5302578642459	-86.2523597603117	-47.5233555063111
25444	1651817877240	9.73205090996017	-0.239742803832162	0.668978762740277	-0.0132633173375102	0.0840039529956961	-0.0550958864067645	0.00049526907231116	0.012606631815099	-0.00177757218417835	0.640625	0.35498046875	-0.099365234375	0	0	0	-0.405830339309094	-0.552517214461585	-0.415503604308923	0.597815371353205	0.04416296505981	-0.0483323857789471	0.997854504926465	0.945245380255189	0.325316981005119	-0.0260774418978972	-0.323358630043098	0.944369018103956	0.0600529268397533	-23.4724612561428	-86.246131372986	-47.5809794895746
25445	1651817877242	9.75914177262994	-0.227973805764466	0.652443856805635	0.00452193642519203	0.0680775431044271	-0.0293419218854627	-0.00405774283829984	0.0150492541591047	-0.0025528836087697	0.637939453125	0.36572265625	-0.1025390625	0	0	0	-0.405754743917927	-0.552441990256475	-0.415596973705401	0.597871299391829	0.0441740056967541	-0.0486350888130681	0.997839308384295	0.945258921957172	0.325284486470019	-0.0259917933644608	-0.323317533828693	0.94436467055798	0.0603418703791244	-23.3035868801706	-86.2328557302789	-47.75193563487
25446	1651817877243	9.71962389901143	-0.242827022967425	0.650939232706126	-0.0104379912167826	0.0623145572335247	-0.0684694173820812	-0.00365198127910313	0.0151626588698828	-0.00105351658028067	0.641357421875	0.36279296875	-0.096923828125	0	0	0	-0.405731363575866	-0.552391130435999	-0.415640772370832	0.597903711285928	0.0442135747172345	-0.0487815075665164	0.997830408601713	0.945271133882564	0.325249617907693	-0.0259840239237889	-0.323276419274737	0.944369128344652	0.0604921992530155	-23.2456214691098	-86.2251025599945	-47.8121173372264
25447	1651817877244	9.73446895338904	-0.234806091131613	0.613659845756185	0.0102505242344173	0.0261188704756068	-0.0561095463962129	-0.00601414537588246	0.0145387752091388	0.002865735699504	0.62744140625	0.363525390625	-0.09423828125	0	0	0	-0.405676823512107	-0.552300913362433	-0.41572762561142	0.597963675541951	0.0442684848050267	-0.0490686777584516	0.997813893527297	0.94529139838128	0.325193712337234	-0.0259465142686005	-0.323209643110211	0.944373503609332	0.0607800319282982	-23.1172521641038	-86.2107571931326	-47.94404391425
25448	1651817877245	9.73420043950073	-0.199598450304109	0.63814835144707	0.0365162448863829	0.0592607868210263	-0.0557982341483054	-0.00780179117720735	0.0199334289054548	0.00423343162000967	0.638916015625	0.362060546875	-0.09326171875	0	0	0	-0.405670451020943	-0.552216584934392	-0.41577678350993	0.598011701211606	0.0443730192350684	-0.0492428611189663	0.997800669368778	0.945314665405285	0.325122302925204	-0.0259936821229077	-0.323127248206738	0.944389024062346	0.0609766569837243	-23.0880213692121	-86.1993093694782	-47.9778079816285
25449	1651817877246	9.74645225558266	-0.232171823119477	0.638137482460022	0.00699382545426121	0.0448287180446746	-0.0427131605765219	-0.00462801126465186	0.0207837644544308	0.00331379123593727	0.644287109375	0.364990234375	-0.09716796875	0	0	0	-0.405596291943461	-0.552116812437111	-0.415868884525106	0.598090080397463	0.0444401926162571	-0.0495810454725762	0.997780932474698	0.945327172849119	0.325089437691118	-0.025949831883198	-0.323081422482512	0.944382643546312	0.0613173467719981	-22.9383434603786	-86.1822873887645	-48.1296776290699
25450	1651817877247	9.73409627015578	-0.235728785197704	0.619192984818085	0.00994328983752821	0.0246292761028798	-0.0561053544360792	-0.00462396894639234	0.0185685686255116	-0.0012492094978878	0.64208984375	0.365234375	-0.096923828125	0	0	0	-0.405567964957439	-0.552054276382788	-0.415923158392735	0.598129273686191	0.0444880044801774	-0.0497605744401889	0.997769864592409	0.945342692114663	0.325045104225788	-0.0259398281460692	-0.323029428880362	0.944388461095448	0.0615014034555168	-22.8688594029136	-86.1727750335453	-48.2019734274306
25451	1651817877248	9.72176658599067	-0.239160531155545	0.599992022197158	0.0126488354178412	0.00265457969652744	-0.069496585351084	-0.0047092330828361	0.015615625097066	0.00077601475907576	0.635498046875	0.36474609375	-0.09912109375	0	0	0	-0.405497877332115	-0.551961502690915	-0.416027559300174	0.598189803431216	0.0445191388998545	-0.0500884524190581	0.997752070008316	0.9453653232599	0.324985082763779	-0.0258669974818304	-0.322958901176791	0.944391784650462	0.0618199420526723	-22.7056440058666	-86.1575306681139	-48.368971985093
25452	1651817877249	9.73407379825018	-0.271396478026861	0.59932693461465	-0.0165749576306608	-0.0102897807173034	-0.0564247158408087	-0.000806869464833425	0.011526334849515	0.000316925654757401	0.646728515625	0.3564453125	-0.103271484375	0	0	0	-0.405477043236465	-0.551924814862766	-0.416052402767957	0.598220498058972	0.0445587937794216	-0.0501964671661819	0.997744871488176	0.945367835243734	0.324977531118447	-0.0258700667709678	-0.322946079065064	0.944388648254623	0.061934732293829	-22.6702379903317	-86.1513809275497	-48.4049249288002
25453	1651817877250	9.74123908272825	-0.21384435668703	0.615388896926303	0.033204854854255	0.0208351738785105	-0.0497659251912648	0.00196227828707758	0.0122636511909053	-0.00210130319778928	0.63818359375	0.36181640625	-0.102294921875	0	0	0	-0.405397050699094	-0.551873737321541	-0.416111138337287	0.598280979048205	0.0445737972128054	-0.0504467875377111	0.997731576241405	0.945358729411469	0.325009503672247	-0.0258010706803801	-0.322970663261489	0.944364306901656	0.0621772186784622	-22.5365043484587	-86.1400484359628	-48.5368130599918
25454	1651817877250	9.76852065211849	-0.237710225464959	0.576347819405313	0.0248490210713099	-0.0267539966187301	-0.024360380898635	-0.00079926471473811	0.0210644465223414	-0.000930649387409518	0.637939453125	0.3662109375	-0.09521484375	0	0	0	-0.405352961326327	-0.551811248515619	-0.416158765141021	0.598335361609116	0.0446324564158693	-0.0506483630969435	0.997718741504782	0.94536165781288	0.325001717880556	-0.0257918458426584	-0.322953990177501	0.944356196935398	0.0623866455112218	-22.4611476695962	-86.1291398961747	-48.6127851044441
25455	1651817877252	9.71399425402834	-0.260698600859914	0.613925137904646	-0.011370540989298	0.00102411679862788	-0.0758284435754657	-0.00502727321867905	0.0184531650617613	-0.00274810988036894	0.639892578125	0.36181640625	-0.098388671875	0	0	0	-0.405279044338426	-0.551739065990319	-0.416258606638055	0.598382546269532	0.0446255509197527	-0.050947207115909	0.997703834959152	0.945380332670838	0.324955337239755	-0.0256915433279966	-0.322900273775489	0.944356082675644	0.0626657985605261	-22.2925066516844	-86.1165088795027	-48.7843144434664
25456	1651817877253	9.70150148995324	-0.228195222652634	0.617601947538643	0.0178371263488893	0.0139749907660518	-0.0888957823160847	0.00229464638247707	0.0167480506509902	-0.00438681392559597	0.637451171875	0.363525390625	-0.098876953125	0	0	0	-0.405225035326389	-0.551703133224926	-0.416299332109785	0.598423921329581	0.0446370377494928	-0.0511191142345461	0.997694527909633	0.945374800837548	0.324975073659347	-0.0256454175530469	-0.322914881667473	0.944340001090697	0.0628326470690523	-22.2030401441276	-86.1086433376457	-48.8726481285468
25457	1651817877254	9.72603231292705	-0.256414413388904	0.637780152923456	-0.0146256460093513	0.0201794992807189	-0.0624260729793136	0.00530225677194324	0.00948019004960195	-0.00581927831399699	0.6435546875	0.359619140625	-0.099609375	0	0	0	-0.405133570223686	-0.551685591648305	-0.416355069874237	0.598463243679583	0.0445829275153573	-0.0513337045078622	0.997685929216034	0.94535911804964	0.325030492135658	-0.0255209150004349	-0.322968265460506	0.944309287237795	0.0630195964909384	-22.0463684707913	-86.1013905206687	-49.0259363363654
25458	1651817877255	9.6863815243251	-0.235297131311596	0.658378232368894	-0.00333406444914461	0.0475934969679834	-0.101223138774992	0.00188284449581294	0.00709615809642417	-0.00463900620040546	0.639892578125	0.358154296875	-0.0947265625	0	0	0	-0.405100140550809	-0.551678357514024	-0.416378095395901	0.598476522221906	0.0445605430502236	-0.0514150685882981	0.997682739514487	0.94535498925938	0.325046315600395	-0.0254722789912507	-0.322983439645857	0.944299414082562	0.0630897319526887	-21.9862366684943	-86.098703497879	-49.0850968971746
25459	1651817877256	9.69898122529416	-0.302634584726733	0.6336722464219	-0.0587197279751785	0.000321284077434147	-0.0884950112205391	0.0093562880395901	-0.00556522654003105	-0.00326731878876233	0.63916015625	0.3564453125	-0.09375	0	0	0	-0.405036338108892	-0.551695688613634	-0.41637763547719	0.598504048984543	0.0445230636791052	-0.0514937985463566	0.997680352373391	0.945321004412476	0.325150458971527	-0.0254042840322785	-0.32308806139691	0.944259269343899	0.063154863952935	-21.9126446603776	-86.096693764895	-49.1523353779108
25460	1651817877256	9.68642897870835	-0.234393636521457	0.658002219247473	-0.00324592642067878	0.0464191893959645	-0.101217424923728	0.0106619804474185	-0.0044870948079441	-0.00535679099201386	0.6376953125	0.370849609375	-0.094970703125	0	0	0	-0.404998903244041	-0.551742764200358	-0.416354917903973	0.598501790190179	0.0444570089794495	-0.0514678986920651	0.997684634419527	0.945288756187986	0.325248941416601	-0.025343510647733	-0.323191493974041	0.944226763818737	0.0631116210473458	-21.878740003721	-86.1002995538066	-49.1801596099836
25461	1651817877258	9.72127011363162	-0.236040907567548	0.609200812734772	0.0117487622324871	-0.00319956712796568	-0.0694956221560421	0.00862779276537595	-0.000626179947175739	-0.00372736904378351	0.638916015625	0.361572265625	-0.10107421875	0	0	0	-0.404923841533797	-0.55174751375573	-0.416385129141025	0.59852718221656	0.0443962105891646	-0.0516041904699289	0.99768030150508	0.945267081776696	0.325320213575449	-0.0252369322342179	-0.323263237307759	0.944194771307895	0.0632227272437661	-21.760648811728	-86.0966509501296	-49.2938714285421
25462	1651817877258	9.7088799495639	-0.203463299165848	0.611115929645119	0.0409558077943425	0.00975611958852831	-0.082556977668272	0.00862785076751797	-0.000626292662362965	-0.00372727875685555	0.643798828125	0.360107421875	-0.099365234375	0	0	0	-0.404888832525695	-0.551775438670417	-0.416371234458663	0.598534789040218	0.0443577207908768	-0.0516099115990261	0.997681717598844	0.945240764317498	0.325400056822698	-0.0251932628346703	-0.323345465529843	0.944166945007358	0.0632177971520987	-21.7280409927636	-86.09784302106	-49.3215784879638
25463	1651817877259	9.72850552159039	-0.17766108823836	0.623904585221258	0.0615453039044382	0.0283485368648501	-0.0628130764911852	0.00944306389187537	-0.00261396777817723	-0.0052913701196783	0.642333984375	0.363525390625	-0.09716796875	0	0	0	-0.404820909021454	-0.551799769348386	-0.416374859487047	0.59855578065311	0.0442979818684207	-0.0516869896783113	0.997680381635512	0.945207326580081	0.325504016012371	-0.0251046875932385	-0.323451385190605	0.944126893302915	0.0632740923322229	-21.6412438088064	-86.0967183944057	-49.4019978697171
25464	1651817877259	9.74833164964095	-0.187356224920764	0.613893453646218	0.0558808478608313	0.0146489255771751	-0.0434192119052774	0.00489062583409314	-0.000172640045108971	-0.00607114203583002	0.64013671875	0.365966796875	-0.0908203125	0	0	0	-0.404789761187872	-0.551823476656496	-0.41637890743415	0.59855217424394	0.0442389121093635	-0.0517040140407649	0.997682120511064	0.945193987375341	0.325547709362819	-0.02504027072788	-0.323498446495318	0.944110895954863	0.0632721996964075	-21.5914155298264	-86.0981822599266	-49.4490910416944
25465	1651817877259	9.7435453978861	-0.168531292804735	0.58493695587972	0.0819974893942568	-0.00765172172490571	-0.0504924851125672	0.00707746116027807	-0.00323707003350025	-0.0013744141108076	0.640869140625	0.3681640625	-0.097900390625	0	0	0	-0.404730756717363	-0.551827104578511	-0.41641415851329	0.598564206922831	0.0441721904843322	-0.0518184178574668	0.997679141386932	0.945184024310314	0.325584526313319	-0.024937450027839	-0.323536671455301	0.944091927619382	0.0633597224389769	-21.4838654433783	-86.0956746308558	-49.5543360058163
25466	1651817877260	9.73614873360196	-0.190004939966548	0.592941028335063	0.0584187884247374	-0.00688805625028919	-0.0568269254261615	-0.00234598849490366	0.0044828532359793	-0.00645911366633712	0.636474609375	0.367919921875	-0.095458984375	0	0	0	-0.40471039164334	-0.551822430867578	-0.416449082382824	0.598557988393602	0.0441243331478008	-0.0518813058108546	0.997677990802455	0.945194394266844	0.325559321356797	-0.0248733858619233	-0.323512905879806	0.944097165754174	0.0634030073745828	-21.4203795150893	-86.0947065755279	-49.619295711946
25467	1651817877261	9.74094610815942	-0.20786241155989	0.622040036156083	0.0309226571970023	0.0130653812829423	-0.0497449401048584	-0.00430055008028627	0.00175803395783242	-0.00560578040004784	0.642578125	0.3583984375	-0.1005859375	0	0	0	-0.404663327282499	-0.551820787012777	-0.416541429324055	0.598527065578432	0.0439741133545451	-0.05201936729787	0.997677434234437	0.945225910242821	0.32548165841866	-0.0246914689451442	-0.323441271269316	0.944116346357252	0.0634828211465123	-21.2534102098669	-86.0942383876367	-49.7907871592277
25468	1651817877262	9.74117019739945	-0.242861598022756	0.599203233777066	0.00463186928627178	-0.0200713143009241	-0.0501058011389492	-0.00226554882271217	-0.0021032006856864	-0.00723428461156845	0.637451171875	0.364990234375	-0.098388671875	0	0	0	-0.404654010386576	-0.551837772093748	-0.416565541989246	0.598500922635776	0.0438964450356292	-0.0520229873166153	0.99768066579637	0.945236457558728	0.325456562210533	-0.0246183958845254	-0.323420997177146	0.944124798374005	0.0634604103373396	-21.2029232158463	-86.0969575766316	-49.8426818688972
25469	1651817877263	9.71401465033145	-0.253662386476729	0.616544249901459	-0.0136565223197377	-0.00613360273533717	-0.0758332594863713	0.000989221240882509	-0.00783791982136324	-0.00892738744098377	0.63525390625	0.367919921875	-0.099853515625	0	0	0	-0.404613061997358	-0.551885465703826	-0.416591035559429	0.598466884545432	0.0437486836727864	-0.052031742061088	0.997686699568049	0.94523201466214	0.32548035830529	-0.0244739619843832	-0.323454001574647	0.944116112655402	0.0634214056119864	-21.1013196765014	-86.1020397468682	-49.9426223367653
25470	1651817877264	9.74610865903912	-0.259630683350102	0.626628983138199	-0.0222949691957879	0.000339529157266509	-0.0430298122552806	0.00700686368532196	-0.0106194315263361	-0.00847494257509624	0.641845703125	0.355224609375	-0.098388671875	0	0	0	-0.404590367396601	-0.551949943326465	-0.416575802174835	0.59843336781482	0.0436317222086101	-0.0519584597813175	0.997695640601012	0.945212981201269	0.325542471304552	-0.0243827714900141	-0.323525413199211	0.944098733096321	0.06331578934359	-21.061585838615	-86.1095828559177	-49.9783949982978
25471	1651817877265	9.71417285469058	-0.252184914117507	0.614654817105967	-0.014019528607249	-0.00655640835723822	-0.0758340509118653	0.000247869308288718	-0.0102209827645583	-0.00357529759611909	0.63671875	0.355712890625	-0.094482421875	0	0	0	-0.404573955180861	-0.551994626262883	-0.416576845252932	0.598402522860097	0.0435313291520291	-0.0519159719573977	0.99770223776334	0.945206568700422	0.325567293576858	-0.0242997909171041	-0.323557670080363	0.944092510937757	0.0632436947324287	-21.0180095162403	-86.1151579326102	-50.0203053234988
25472	1651817877266	9.6822244711865	-0.244842287678873	0.602796704868222	-0.00543009267207827	-0.0130120766503629	-0.108637514839678	0.00472674330926319	-0.00829144246704904	-0.00658337681479653	0.64111328125	0.365234375	-0.094970703125	0	0	0	-0.404558479919226	-0.552043743069692	-0.416566768182823	0.598374690063648	0.0434396667666436	-0.0518580665140364	0.997709244363622	0.945193976694813	0.325609127942327	-0.024228954176394	-0.323606770279992	0.944081265960756	0.0631602841260983	-20.9873427871864	-86.1210877746708	-50.0482833597171
25473	1651817877267	9.72908184537732	-0.207315162065138	0.597071358754642	0.0330416296674072	-0.00884074710571919	-0.0631572528363424	0.00659574663031162	-0.00851789955994143	-0.00541160067541668	0.63427734375	0.35986328125	-0.098876953125	0	0	0	-0.404514785298445	-0.55207999402597	-0.416568025047693	0.598369909988046	0.0433575214082988	-0.0518745028014072	0.997711963091771	0.945172583805337	0.325677737965635	-0.0241412057762478	-0.323680262234311	0.94405669689521	0.0631509373424746	-20.9207489718164	-86.1233911338312	-50.1105944143697
25474	1651817877268	9.71693099180948	-0.210454356630218	0.575322605928059	0.0359784038177847	-0.029015395009338	-0.0765742452973601	0.00105721518108499	-0.0099928643191686	-0.000575861736178346	0.635498046875	0.356689453125	-0.105712890625	0	0	0	-0.404530471623226	-0.55211413219793	-0.416546727730725	0.598342632755216	0.0433176172883055	-0.0517813508961906	0.997718535325385	0.945169312047697	0.325687842290232	-0.0241329846396278	-0.323695158437298	0.944058325043373	0.0630501651112352	-20.9447704496314	-86.1289649100248	-50.0858795206805
25475	1651817877270	9.71700271610313	-0.210098971248186	0.574240150380541	0.0357301417546812	-0.02867683319972	-0.0765723279566064	0.000659369631759654	-0.0123240100017824	-0.00663731891541069	0.639892578125	0.366455078125	-0.09326171875	0	0	0	-0.40451708769677	-0.552198599053306	-0.416509151548638	0.598299891058926	0.0431936677595982	-0.0516472217546332	0.997730861279985	0.945142298231752	0.325772104875115	-0.0240535190448239	-0.323790585345955	0.944036598956982	0.0628852659297796	-20.9317768944526	-86.1394399642385	-50.093544982515
25476	1651817877271	9.73669274886182	-0.184127287371984	0.585819703241751	0.0563126721547809	-0.0092349319362514	-0.0568164804716087	0.0066778054970931	-0.0151049684645537	-0.00618605034262779	0.642333984375	0.36328125	-0.10595703125	0	0	0	-0.40451123887171	-0.552271542204753	-0.416478211058706	0.598258055533395	0.0430840867682466	-0.0515227979783477	0.997742032168551	0.945122980901686	0.325833114679629	-0.02398608658545	-0.323861563694828	0.944022342249724	0.0627336025945166	-20.9242699656185	-86.1489579757444	-50.0971590570437
25477	1651817877275	9.76418583943451	-0.207559446857789	0.543659851219692	0.0473085265893474	-0.0572413277819345	-0.0314575223708289	0.00350451276439946	-0.015957283402397	-0.00526658655302545	0.642578125	0.3681640625	-0.0947265625	0	0	0	-0.404496512967846	-0.552346929927423	-0.416479466112797	0.598197537861034	0.042915446612301	-0.0514291681884304	0.997754130586044	0.945118796604982	0.325854850606505	-0.0238553272910484	-0.323896163524698	0.94401994523191	0.0625908799932073	-20.8633967138162	-86.1592928425437	-50.1564430386491
25478	1651817877273	9.76427384910338	-0.207144726932357	0.542235419308755	0.0472819748338478	-0.0572200998726888	-0.0314572697788389	-0.000239827173492519	-0.0132885866518078	-0.00304647937828335	0.636474609375	0.361328125	-0.09814453125	0	0	0	-0.404516175194037	-0.552393889128027	-0.416461891357916	0.598153114433911	0.0428409686012006	-0.0513114282562908	0.997763393164737	0.945120481178805	0.325852314105949	-0.0238232123807878	-0.323901107540022	0.944027227744039	0.0624553105207989	-20.8790590841321	-86.1672240489428	-50.1407990189318
25479	1651817877274	9.7399007264983	-0.21369299956441	0.499272277281748	0.052529839065481	-0.0981436544281761	-0.0582928669842477	0.00439813848766948	-0.012777258099706	-0.0042940478928498	0.6435546875	0.362060546875	-0.107421875	0	0	0	-0.404493578483957	-0.552453029316756	-0.416474867515323	0.598104740068223	0.0426886702536676	-0.0512637792151272	0.997772370018611	0.945118590305674	0.325867259386674	-0.0236934488505551	-0.323926731978992	0.944024657623094	0.0623611907279664	-20.8037372379931	-86.1749262682393	-50.2149789805076
25480	1651817877275	9.75198966310531	-0.174214408373324	0.541844238297763	0.0758020025026177	-0.0448071695205797	-0.0444994787704722	-0.00454960159767325	-0.0093161822178415	-0.00408721929978104	0.630615234375	0.355712890625	-0.093505859375	0	0	0	-0.404514850277084	-0.552481159557956	-0.416480649616162	0.598060342050955	0.0426168736575931	-0.0511874524550987	0.997779357769447	0.945134786613083	0.325823208801217	-0.0236531549760316	-0.32388892727831	0.944044003909582	0.0622646084776101	-20.8008435467342	-86.1809325557316	-50.2204241629085
25481	1651817877276	9.75204811978536	-0.17374707210965	0.540941459636657	0.0755262126652601	-0.0444042925869123	-0.0444955028022917	0.0015526626076493	-0.0091449961510048	-0.00566365040626314	0.64990234375	0.360595703125	-0.09716796875	0	0	0	-0.404503532992844	-0.552552456818896	-0.416450992827934	0.59802277952628	0.0425087060720608	-0.0510755186406425	0.997789707956375	0.945113202429118	0.325890924737871	-0.0235826157936747	-0.323966116287268	0.944026692720648	0.0621253485194199	-20.7866276462118	-86.1898463815284	-50.2303473816663
25482	1651817877278	9.73715625587389	-0.181335499093958	0.578946101582623	0.054633935460459	-0.00972237223771654	-0.0568074085236976	-0.000888098150835595	-0.00539813042326391	-0.00553386855356729	0.642333984375	0.36669921875	-0.100830078125	0	0	0	-0.404501865186022	-0.552579587993402	-0.41645846091042	0.597993637365981	0.0424362985383335	-0.051040071689211	0.997794603938268	0.945117967717429	0.325881182794307	-0.0235261938753337	-0.323961707095209	0.944031972860318	0.0620680799881435	-20.7586385465752	-86.1940701796532	-50.2588139717975
25483	1651817877277	9.72964170924871	-0.167160192058431	0.608908720185254	0.0570044136159749	0.0239758097282293	-0.0627737365068306	-0.00479321024258061	-0.0108499600532711	-0.00382304086548424	0.643310546875	0.36572265625	-0.102783203125	0	0	0	-0.404522293298625	-0.552610236717286	-0.416481053922476	0.59793575927796	0.0423309159977776	-0.050971509889696	0.997802585048943	0.945144150918386	0.32581049189609	-0.0234533015840211	-0.323899100856351	0.944060076769478	0.0619672809993728	-20.7305913784896	-86.2009655924115	-50.2909825604054
25484	1651817877278	9.74971463979445	-0.212667412454916	0.575181583146514	0.0250622473792592	-0.0228590102234132	-0.0437648983234222	-0.00308463677738455	-0.00965732448974414	-0.00441484844525095	0.63134765625	0.36474609375	-0.10009765625	0	0	0	-0.404539316610217	-0.552643096668395	-0.416482414486863	0.597892923059388	0.0422560122559214	-0.050892055089591	0.997809815624694	0.945155497711937	0.325780679479464	-0.0234101265011606	-0.32387577027794	0.944074651500959	0.0618670980426123	-20.7263319385687	-86.20722337541	-50.2969250217083
25485	1651817877279	9.73246574491241	-0.161802449431431	0.547438772568999	0.0795574429239917	-0.0305504985536949	-0.0638671290650557	-0.00560828032921124	-0.00886229732066433	-0.0022587227604905	0.64404296875	0.364501953125	-0.097412109375	0	0	0	-0.404545430377862	-0.552710989191623	-0.416499695386454	0.597813985224668	0.0420771323396176	-0.0507852754934748	0.997822815296948	0.94517209548187	0.325741997006764	-0.0232779146071228	-0.323850621207503	0.944093749147349	0.0617071143744165	-20.6680938624481	-86.2185000951926	-50.3572271313501
25486	1651817877280	9.74982016315998	-0.212066490874848	0.573612560596677	0.0237734743375117	-0.0225418782520449	-0.0437609400455461	-0.00528185509567666	-0.00437740881177087	-0.0045479581554889	0.634033203125	0.361572265625	-0.098876953125	0	0	0	-0.404557466069342	-0.552724279168705	-0.416518223653254	0.597780643070455	0.0420168811643474	-0.0507555955410218	0.997826864349972	0.945190530803001	0.325691652024583	-0.0232337745930219	-0.323804635818517	0.944112714310518	0.0616582557299777	-20.6471771284894	-86.2220193589536	-50.3811051719305
25487	1651817877281	9.71024947700975	-0.191129240469854	0.593072156587699	0.0344106919281808	0.00482773130002778	-0.0825279360990798	-0.00170369672847912	-0.00341011668756626	-0.0039697808232667	0.637451171875	0.356689453125	-0.09716796875	0	0	0	-0.404542489101634	-0.552758161453319	-0.416544955907243	0.597740821064142	0.0418974293099601	-0.0507435228971085	0.997832501124917	0.945200172919381	0.325671348439376	-0.0231258712020018	-0.323791967983132	0.944120367161767	0.0616075789164036	-20.574819761217	-86.2269240603961	-50.4545180114588
25488	1651817877282	9.73009097215609	-0.20106451650612	0.582589090246226	0.028714338360196	-0.00886231706166626	-0.0631435673551408	-0.00243508967906526	-0.00800986901145582	-0.00317940454154445	0.646240234375	0.36376953125	-0.098876953125	0	0	0	-0.404557338188644	-0.552785428648758	-0.416544250917108	0.597706045660602	0.0418383138030287	-0.0506752309094245	0.997838452090515	0.945208837323865	0.325648494291249	-0.0230935491146477	-0.323774318535284	0.944131918292205	0.0615232599826566	-20.5742720680521	-86.2321090653102	-50.4563526809457
25489	1651817877282	9.71789660065032	-0.20425463524769	0.561071023459954	0.0316493316554933	-0.0290397926435946	-0.0765592830269757	-0.00512020268666312	-0.00579641535690675	-0.00278526904044101	0.63671875	0.3603515625	-0.10205078125	0	0	0	-0.404574612562563	-0.552799951710403	-0.416553012150112	0.597674814867998	0.0417916029152878	-0.0506288362633716	0.997842764599908	0.945224141414731	0.325605941877041	-0.0230671433244332	-0.323735670590307	0.944149083330054	0.0614631925176559	-20.5711191687004	-86.2358709598194	-50.4620105341424
25490	1651817877283	9.70548954892056	-0.172009531496857	0.562484416719633	0.0608560282155499	-0.0160491496947052	-0.0895941130597695	-0.00430927041833434	-0.00556742356165496	0.00021247925684982	0.643798828125	0.35986328125	-0.094970703125	0	0	0	-0.404599603391057	-0.552808837212717	-0.416552001553423	0.597650383114711	0.0417736390027229	-0.0505724540565335	0.997846375939288	0.945237399205879	0.325567181875274	-0.0230709607146956	-0.323699277458225	0.944165471184205	0.061403100870648	-20.5926841484081	-86.2390240993615	-50.4427601689877
25491	1651817877284	9.72041381933787	-0.163872979362642	0.523621313635969	0.0815547960281809	-0.0505549972338801	-0.0772740961703473	-0.00601952890601786	0.00277917072298914	-0.000446773583300299	0.640869140625	0.35791015625	-0.099609375	0	0	0	-0.404606796564123	-0.55280068668157	-0.416569014437597	0.597641194354098	0.0417633140297485	-0.0505837766854348	0.997846234215218	0.945251436592145	0.325527192769215	-0.0230601038219995	-0.323659616297337	0.944178652747473	0.0614094819570067	-20.5818466618361	-86.2389003072084	-50.4560116206204
25492	1651817877285	9.77203083880394	-0.145403923807017	0.547851664511515	0.0935070084994086	-0.0246368750431977	-0.0247090265220677	-0.00659102165001476	0.00630021795570473	0.000854287639977392	0.64013671875	0.354248046875	-0.1044921875	0	0	0	-0.404615870985083	-0.55276785986375	-0.41659611783609	0.597646521492873	0.0417907354110972	-0.0506371432416847	0.997842379415768	0.945271739527012	0.325467343101763	-0.0230726467024845	-0.323596775146752	0.944196424637692	0.0614673800972643	-20.5743315661172	-86.2355348027544	-50.4672092206587
25493	1651817877286	9.75705789883206	-0.1537029438725	0.587445330370937	0.0728907455315062	0.0110185460596691	-0.037030817661666	-0.0102530189958873	0.0119200552625861	0.00105111135799093	0.642333984375	0.36572265625	-0.104248046875	0	0	0	-0.404636125067525	-0.552740346076454	-0.416584588486725	0.597666292127109	0.0418707809092569	-0.0506397091065983	0.997838893593374	0.945274556326035	0.325453773851368	-0.0231485258390393	-0.323578199000902	0.944200964280116	0.0614954322192406	-20.6276800887151	-86.2324940253844	-50.4148011251995
25494	1651817877287	9.74476253627427	-0.157076424729812	0.56759239235387	0.0758638044111077	-0.00911657363767693	-0.0504441503859354	-0.0138261561211737	0.00873583147375798	-0.00408901566812538	0.64208984375	0.356201171875	-0.102294921875	0	0	0	-0.4046486096663	-0.552695198926994	-0.416650326387577	0.597653767075307	0.0418610452083507	-0.050730586607289	0.997834685945796	0.945319961867479	0.325324016432512	-0.0231182617661413	-0.323446784786823	0.944240801869258	0.0615750395563608	-20.5785754191398	-86.2288268416157	-50.4717838503107
25495	1651817877288	9.77677015457489	-0.163841519347108	0.579056254124295	0.0666644410998458	-0.00173227650468455	-0.0176407726342802	-0.0135852929008843	0.00294511155396402	0.00146012036925721	0.649169921875	0.358154296875	-0.0908203125	0	0	0	-0.404685228309156	-0.552705449145412	-0.416655199436338	0.597616095211633	0.0418302625352677	-0.0506562449232851	0.997839753661129	0.945343168423789	0.325256621542063	-0.023117613577428	-0.323382935620763	0.944268010150358	0.0614931049466685	-20.6031634785324	-86.2332440580193	-50.4512252509096
25496	1651817877289	9.74493264926015	-0.192647339126155	0.545403446480952	0.0490526219019732	-0.0412852605926564	-0.0508135858100296	-0.0152883970963914	-0.000464239652623978	-0.00251050784428181	0.640625	0.356689453125	-0.108154296875	0	0	0	-0.404725868605648	-0.552681918639079	-0.416700875478309	0.597578487285512	0.0418061543700735	-0.050653618470079	0.997840897334176	0.945392296805428	0.325114703314029	-0.0231048659374833	-0.323242402227406	0.944317023369228	0.0614793361816608	-20.5969807792543	-86.2342416431891	-50.4659833308935
25497	1651817877290	9.77207171759325	-0.180846963223904	0.528051663967106	0.0674461340238858	-0.0552252635725787	-0.0250762681432413	-0.0194395878399439	0.0116279638777847	-0.00303454110185226	0.643798828125	0.364501953125	-0.0986328125	0	0	0	-0.404769709049592	-0.55261492646291	-0.416751857956341	0.597575195750492	0.0418692638806603	-0.0507175801935769	0.997835002293165	0.945444712196991	0.324958743051693	-0.0231540815627098	-0.323080889129704	0.944367270914009	0.061556451372603	-20.6134821538489	-86.2291024309993	-50.4590494626699
25498	1651817877291	9.76464646858481	-0.202616880494123	0.537212935325773	0.0439158213843529	-0.0544051276895059	-0.0314255147402296	-0.0152126261681664	0.0142424308809253	-0.00121914027725187	0.640869140625	0.367919921875	-0.097412109375	0	0	0	-0.404783608989153	-0.552544579155814	-0.41682238164252	0.597581643042269	0.0419071804147635	-0.0508488296012903	0.997826730829488	0.945492785113624	0.324818664111148	-0.0231566133778549	-0.322935259034635	0.944408403167416	0.0616894358784804	-20.5748321486724	-86.2219032564662	-50.506280134604
25499	1651817877292	9.76456007406606	-0.202507172601863	0.538822360761911	0.042657550003372	-0.054522022372324	-0.0314205971862229	-0.0178148262588528	0.0194072599650753	-0.00284747536502343	0.640625	0.362548828125	-0.101318359375	0	0	0	-0.404766917936237	-0.552484657778229	-0.416958589945635	0.597553327607353	0.0418124743804422	-0.0510549615210666	0.997820178133449	0.945565010064869	0.324618552829895	-0.023013189688728	-0.322736004696113	0.944466085183956	0.061848890128145	-20.4095973603559	-86.2162097430635	-50.6835576108823
25500	1651817877293	9.74465492326595	-0.192137437016312	0.550521682582964	0.0483479188944598	-0.040743019764744	-0.0508077919683032	-0.0161888829072292	0.0176472367974253	-0.00141420740704057	0.64697265625	0.3662109375	-0.101318359375	0	0	0	-0.404775903404197	-0.55240250641787	-0.417039610667905	0.597566650726539	0.0418588680744348	-0.0512194795781675	0.997809801553016	0.945616373890312	0.324468862314556	-0.0230137093671435	-0.322579460899272	0.944508614201077	0.0620158778531426	-20.3595790624618	-86.2072111869053	-50.7427571865192
25501	1651817877293	9.69780662641146	-0.229197219992568	0.556952851640332	0.0088813364287372	-0.045022308209957	-0.0963055682875407	-0.0144022849950706	0.0144676328988121	0.0017800399711889	0.636962890625	0.35888671875	-0.101318359375	0	0	0	-0.40478622108411	-0.552376443955119	-0.417095739855353	0.597544578402699	0.0418228159160254	-0.0512778493219142	0.997808315378146	0.9456553427798	0.324358518029924	-0.0229679005015933	-0.322469881912829	0.944543346782111	0.0620567587678861	-20.3100768230378	-86.2059241228285	-50.7989112908096
25502	1651817877294	9.71731944332324	-0.203976331275502	0.571079270704214	0.0294923049179896	-0.0255158305424594	-0.0765426369940982	-0.0127700844463912	0.0104946320808294	-0.00135090080265401	0.63525390625	0.360107421875	-0.0986328125	0	0	0	-0.404800136154103	-0.552322981814685	-0.417152304281984	0.597545084961114	0.0418465575831313	-0.0513737817285547	0.997802385329554	0.945695454687055	0.3242416096037	-0.0229670543571638	-0.322349147048174	0.944578272644733	0.0621523470579075	-20.2807006348462	-86.2007928890931	-50.8354326027806
25503	1651817877294	9.72484701928379	-0.21765429250691	0.541499283013151	0.0261232922039305	-0.058536670930117	-0.0705553940357628	-0.00830021535601741	0.0146422636425556	0.000204902584636104	0.636962890625	0.367431640625	-0.10498046875	0	0	0	-0.404789127777649	-0.552314773718148	-0.417173450394052	0.597545366522076	0.0418294060379837	-0.0514180936138289	0.997800822027938	0.945702155662143	0.324224148638663	-0.0229376157328729	-0.322331713559935	0.944581855155313	0.0621883055313621	-20.2460575022225	-86.1994413262516	-50.8711180768781
25504	1651817877295	9.74459377171979	-0.227850812223377	0.532824705481922	0.0204807119800044	-0.0721675782234553	-0.0511660554728586	-0.00959673452229766	0.0113486255558763	-0.00226956511762448	0.634033203125	0.359130859375	-0.093505859375	0	0	0	-0.404789341622169	-0.552267539330905	-0.417225315229147	0.597552667337714	0.0418472026666515	-0.0515241727018854	0.997794603741853	0.945732227282096	0.32413725048206	-0.0229259052160838	-0.32224116110302	0.944605897968733	0.0622923078209553	-20.2055074516813	-86.1940700101108	-50.9169857083625
25505	1651817877296	9.72955964698634	-0.235997140582938	0.572647613854724	-0.00181487634403369	-0.0369426037999589	-0.0635036681253087	-0.00561499320473706	0.01242961081434	-0.000189528288094092	0.642333984375	0.357666015625	-0.09912109375	0	0	0	-0.404756311812186	-0.552283262594199	-0.417268680161942	0.597530228910985	0.0417400928284359	-0.0515810270626422	0.997796152677408	0.945741572835558	0.324118353208215	-0.0228072471841776	-0.322227624609062	0.944609279417028	0.0623110518130074	-20.1037628227594	-86.1954072626705	-51.0197285845222
25506	1651817877296	9.71705407066639	-0.203921307263359	0.575596459977401	0.0274247811952142	-0.0238950031293983	-0.0765324808305472	-0.00154897369037941	0.00692496019578734	0.00110952633571837	0.64453125	0.358642578125	-0.098876953125	0	0	0	-0.404750823665933	-0.552259664821795	-0.417279377336369	0.597548286419131	0.0417743677213826	-0.0516340453425911	0.997791976096741	0.945744262198966	0.324109383983043	-0.0228231840869602	-0.322215289393929	0.944609460346281	0.0623720667053351	-20.0985814189412	-86.1918025406499	-51.0255147618338
25507	1651817877297	9.69997912034188	-0.188814507537828	0.526485140916935	0.0574433272132642	-0.064081400262115	-0.0969770800886245	-0.00471399071979882	0.00385794045338939	-0.00253660571281011	0.6435546875	0.364013671875	-0.102294921875	0	0	0	-0.404778597385478	-0.552255993683203	-0.41725802850036	0.597547773982646	0.0418181101859413	-0.0515803991719343	0.997792918436356	0.945746025255176	0.324100049501277	-0.0228826053434992	-0.322204440339535	0.944615593950541	0.0623352090792457	-20.1576596879576	-86.1926155571448	-50.9670574856971
25508	1651817877298	9.71977474651871	-0.198969288133356	0.517022301001561	0.0518068799079475	-0.0776974732956376	-0.0775858685431991	-0.00366168391797259	0.00561757759179197	0.000200332040965853	0.640869140625	0.36279296875	-0.101318359375	0	0	0	-0.40478014368212	-0.552233477136941	-0.417273806829607	0.597556517949436	0.0418415137263439	-0.0516230736380753	0.997789730352666	0.945755658524345	0.324071210829221	-0.0228928958601561	-0.322173124419573	0.944623156914883	0.0623824440198524	-20.1519541345713	-86.1898656923213	-50.9745550232691
25509	1651817877298	9.7395587264706	-0.209312045710177	0.50772812362481	0.0451845209576323	-0.0902112675939405	-0.0581794906845356	-0.00301355547191781	0.00726396417244638	0.0014381330071089	0.637939453125	0.359619140625	-0.105224609375	0	0	0	-0.4047750173354	-0.552271934836131	-0.417257734995872	0.597535670834467	0.0417833851569401	-0.051560997188957	0.997795375963282	0.945744525177558	0.324106335854481	-0.0228555497780584	-0.322213348298145	0.944614496304107	0.062305790666964	-20.1444846305731	-86.1947366383804	-50.9797961091355
25510	1651817877299	9.73189640300892	-0.195705897442795	0.53935306854353	0.0478980309770683	-0.0562100391280379	-0.0641717693532353	-0.00292954765210113	0.0102172355260889	-0.000583866153967329	0.634033203125	0.359619140625	-0.09814453125	0	0	0	-0.404762691331384	-0.552239306089823	-0.417282645021101	0.597556781134479	0.0418138859472498	-0.0516484127803962	0.997789577215184	0.945751883947966	0.324084715740737	-0.0228576252510637	-0.322187791436706	0.944617138570178	0.062397825031212	-20.1188365706579	-86.1897336542717	-51.0068172162361
25511	1651817877300	9.71964301150711	-0.19906179989891	0.519457545731776	0.0500554978594496	-0.0749082975315125	-0.077554844557719	-0.00146492528281285	0.00987788348685577	-0.000911909709421368	0.638671875	0.361328125	-0.093994140625	0	0	0	-0.404743417185718	-0.552287414514596	-0.417253174505144	0.59754595336174	0.0417568002683248	-0.0515865010671714	0.997795170633231	0.945725282744383	0.324165109220416	-0.022818228287349	-0.322273267910028	0.944592936069164	0.0623227560272206	-20.1091921375053	-86.1945593736739	-51.011489028568
25512	1651817877300	9.73916119350064	-0.173792619674945	0.533388593625297	0.0706528243500658	-0.0553358350303484	-0.0577955600837363	0.000807524893193052	0.00976480148698512	0.00175865414334015	0.640869140625	0.36669921875	-0.1005859375	0	0	0	-0.404727444543924	-0.552259814307661	-0.417259222697704	0.597578056999687	0.0418076771491521	-0.0516605043917035	0.997789211415611	0.94571931786787	0.324180873413305	-0.0228414781596278	-0.322284175756307	0.944583481540399	0.0624095862676256	-20.1022773179836	-86.189418273411	-51.017536964672
25513	1651817877302	9.7391032074831	-0.174051405960902	0.534362102275223	0.0696010039084704	-0.0550271677832836	-0.057786252589354	-0.000253143811672575	0.010216995228233	0.00358607918119351	0.645263671875	0.363525390625	-0.10400390625	0	0	0	-0.404704950965949	-0.552259391917254	-0.41728463778277	0.597575934734103	0.0417661902193747	-0.0517142946937271	0.99778816242672	0.945722735199155	0.324174867468303	-0.0227851580933435	-0.322279526935841	0.944582599366641	0.0624469334056684	-20.0456268943077	-86.1885140127608	-51.0745000494866
25514	1651817877303	9.7713135029554	-0.216684598707857	0.523493677940277	0.0347218456860572	-0.0815785076587812	-0.0253636901369987	0.00105188018325275	0.0112976960586529	0.0014976424411242	0.650390625	0.36083984375	-0.096923828125	0	0	0	-0.404684186521139	-0.552228296006113	-0.417294139901201	0.597612097496383	0.0418190197886045	-0.0518039349522337	0.997781299638045	0.945716169924989	0.324192619967682	-0.0228050674390778	-0.322291941454221	0.944571594682984	0.0625492365398176	-20.0315449273506	-86.182603355023	-51.0876003278903
25515	1651817877305	9.7392219230455	-0.209941990787855	0.513891466720977	0.0434054550786942	-0.0868009627056895	-0.0581404691590386	-0.00301297898052407	0.0168015454930283	0.000198305071565794	0.635498046875	0.37646484375	-0.094482421875	0	0	0	-0.404685857388561	-0.552206836704768	-0.417285346834016	0.597636934638258	0.0418810976282572	-0.0518296767672997	0.997777359067467	0.945710865438076	0.3242045922946	-0.0228547878453819	-0.322299445630639	0.944566073359238	0.0625939326523982	-20.058545800051	-86.1792136184295	-51.0599704567341
25516	1651817877305	9.75132184270776	-0.206665815386462	0.536379915441965	0.0404494729214104	-0.0664800882017855	-0.0447481793891757	0.000723571313154592	0.0163488961450115	0.00254185155203637	0.63232421875	0.3642578125	-0.102783203125	0	0	0	-0.404658812511	-0.552157816339553	-0.417302094048503	0.597688843475481	0.0419614163157419	-0.0519625593862323	0.997767072999911	0.945704664500754	0.324220415519843	-0.022886889296234	-0.322307193655827	0.944553341311211	0.0627459826246483	-20.0396765807018	-86.1703795090448	-51.0780243115255
25517	1651817877307	9.73424629602512	-0.191695621917502	0.488228835702788	0.0665961520343985	-0.10744387639282	-0.0651396619044284	0.00113721551566844	0.0142501101229419	-0.000523245347935181	0.642578125	0.35888671875	-0.09912109375	0	0	0	-0.404548867432293	-0.552231912118301	-0.417388991713902	0.597634134478166	0.0416526896684339	-0.0520822283924481	0.997773769413218	0.945701406822161	0.324253286910603	-0.0225533825014449	-0.322356793906955	0.944535466466637	0.0627602581948283	-19.7662912048434	-86.1761283567489	-51.3489755605402
25518	1651817877308	9.73133690715518	-0.196468503410884	0.549083147600752	0.0427219497880506	-0.0524987613522751	-0.0641270188000753	0.000893045333097324	0.012716802687373	-0.000261932960526706	0.6474609375	0.36083984375	-0.093994140625	0	0	0	-0.404520242141063	-0.55220077436702	-0.417407408955117	0.59766941818699	0.0416907194756778	-0.0521905045994281	0.997766523360679	0.945696068429146	0.324268857295024	-0.0225533666275242	-0.32236753879269	0.944524144433712	0.0628753569731978	-19.732890902277	-86.1699080282845	-51.381507115009
25519	1651817877309	9.71170879184284	-0.221728974335881	0.537312629819748	0.0227889798804209	-0.0712168267530955	-0.0838865641846276	0.00235783114835621	0.0123773721357144	-0.000589218009180255	0.643798828125	0.370849609375	-0.103271484375	0	0	0	-0.404525955439066	-0.552163307208423	-0.417396835842114	0.597707549707847	0.0417911272032958	-0.052233701200233	0.997760062412805	0.945691258827761	0.324277265610204	-0.0226340006435942	-0.322368647147708	0.944518869831246	0.0629488670975344	-19.7766408917837	-86.1643701627186	-51.3374052674203
25520	1651817877310	9.74338178852927	-0.193047992005314	0.572305983126558	0.0403730249148857	-0.031438898523288	-0.0507371537044268	0.00584929805376834	0.0103919093542345	0.00201632591129361	0.63623046875	0.3603515625	-0.09912109375	0	0	0	-0.404494091199056	-0.552144286281974	-0.417389588414212	0.597751745120526	0.0418452372191692	-0.0523125071587101	0.997753665849864	0.945668912320223	0.324340923336929	-0.0226555450173702	-0.322427176883645	0.944492650603338	0.0630424346224395	-19.7669031221443	-86.1588953368008	-51.3433764937954
25521	1651817877311	9.71157789820685	-0.221757030340655	0.539661801888186	0.0210209150825365	-0.0697888919282179	-0.0838722353115369	0.00577641250100642	0.014764358925085	-0.00176582334872768	0.643798828125	0.359619140625	-0.09912109375	0	0	0	-0.404420057901571	-0.55221599059113	-0.417384236063439	0.597739337828862	0.041695798442393	-0.0523195079914542	0.99775955494086	0.945628399547607	0.324469632505259	-0.0225030564798022	-0.322565327276945	0.944448053979378	0.0630038330046936	-19.6551851025017	-86.1639355319388	-51.4470629211529
25522	1651817877312	9.723678060401	-0.218096352127904	0.561928249617959	0.0180208342317497	-0.0494607427097365	-0.070486731037084	0.00366444033324117	0.0134571954203981	-0.00267691400123867	0.638427734375	0.357177734375	-0.107666015625	0	0	0	-0.404375160216442	-0.552193528711079	-0.417403120342185	0.597777276063703	0.0417138839564275	-0.052441507311233	0.997752394232254	0.945614893883333	0.324510729857068	-0.0224779597304833	-0.322602579579398	0.94442716739755	0.063126073299067	-19.5998196760301	-86.1578078859479	-51.4999829248875
25523	1651817877314	9.71884476440952	-0.199296876525538	0.534096596754049	0.0445331859498554	-0.067912514294207	-0.0774767004981847	0.0100107749716269	0.0056290554364703	-0.00326756894560129	0.63818359375	0.362548828125	-0.098388671875	0	0	0	-0.404361841806954	-0.552287027463634	-0.41728516892171	0.597782258003573	0.0417042541867249	-0.0522437417562791	0.997763171614403	0.945538940281411	0.324729177376935	-0.0225182985948252	-0.322826373758768	0.944363040788553	0.0629410803717415	-19.6855792789501	-86.1670341522291	-51.4009223343598
25524	1651817877313	9.69898746030111	-0.188637473931601	0.544509529982371	0.0502116648810274	-0.0540647564907952	-0.0968761125697774	0.0129404883204115	0.00495032306646831	-0.00392131714479087	0.636474609375	0.363037109375	-0.100830078125	0	0	0	-0.404304007752272	-0.55231246702613	-0.417263613059847	0.59781291831074	0.0416840319675054	-0.0522868685559632	0.997761757563169	0.945495444356799	0.324858693063386	-0.0224765264595867	-0.322956353366011	0.944316108576869	0.0629784161659222	-19.6411029811691	-86.1658223523634	-51.4375174782795
25525	1651817877314	9.7309583858979	-0.195113642257752	0.55622808302925	0.0402441477709902	-0.0464292532854356	-0.0640856785298549	0.00943769255817002	0.00914703808766707	-0.00196332389677667	0.6318359375	0.36328125	-0.110595703125	0	0	0	-0.40424068281687	-0.552385719308691	-0.417238219808525	0.597805784005629	0.0415645700696671	-0.0522612815162304	0.997768081755077	0.945448402922763	0.325003476573528	-0.0223619682926	-0.323109430264303	0.944267704980639	0.0629189749191427	-19.5656695344616	-86.1712449704774	-51.5039822814314
25526	1651817877315	9.706586277744	-0.201617002346289	0.515324567695386	0.0462430116030516	-0.0866706474121549	-0.0908369361892056	0.0119648155627828	0.00835473572494546	-0.00411630763850384	0.63232421875	0.36181640625	-0.0966796875	0	0	0	-0.404177993702104	-0.552399847164388	-0.417226725814007	0.5978431378934	0.0415525362385684	-0.0523365460507673	0.99776463791799	0.945407993843772	0.325124017346932	-0.0223181208995379	-0.323229194084379	0.94422203918976	0.0629891165194054	-19.5101065367882	-86.1682911349458	-51.5522252487175
25527	1651817877316	9.72610009855397	-0.176022917863288	0.52902992752901	0.064495199402869	-0.0651286958179335	-0.0710510285252646	0.010816579927155	0.00585531228613047	-0.000267519628085422	0.6435546875	0.3701171875	-0.10302734375	0	0	0	-0.404100647355058	-0.552554840014862	-0.417149795429916	0.597805874641721	0.0413383938978598	-0.0521736595288406	0.997782063599719	0.945324733725544	0.325377429960005	-0.0221512049187328	-0.323500054090683	0.944143758822771	0.0627716311667484	-19.4372033591537	-86.1832608739423	-51.6094027433638
25528	1651817877317	9.73084987138986	-0.19432323860649	0.558398907352522	0.0379025512108753	-0.0440250793722188	-0.0640651394012934	0.0104140687382339	0.0057414792054339	-0.00176699693536344	0.63720703125	0.362548828125	-0.10107421875	0	0	0	-0.404054250879868	-0.552570179668296	-0.417129893634826	0.597836943257486	0.0413376967550915	-0.0522146610950749	0.997779947680706	0.945287981112784	0.325485628364216	-0.0221300359708009	-0.323607520911831	0.944104197054054	0.0628127177745119	-19.4082660192057	-86.1814400429082	-51.6317793279643
25529	1651817877318	9.70621064233643	-0.165467416743587	0.539894287450398	0.0681761668335516	-0.0498114186049121	-0.0904313907778498	0.0117928486671454	0.0024501605396566	-7.08422889001664E-05	0.643310546875	0.350830078125	-0.093505859375	0	0	0	-0.403983393677028	-0.552703483892863	-0.41706768571827	0.597805003371074	0.0411468088445963	-0.0520842402932425	0.997794654242536	0.945216356773863	0.325703926325596	-0.021977062206664	-0.323840977964573	0.94403611386915	0.0626325530517669	-19.3354013407719	-86.1941136017931	-51.6910889944446
25530	1651817877319	9.73082429456504	-0.194022083919838	0.558949041906291	0.0358815162230632	-0.04238443725217	-0.0640502200083137	0.00756912194132002	-0.000164263017185581	-0.00189395667057659	0.63916015625	0.358642578125	-0.09228515625	0	0	0	-0.40395722674977	-0.55273165024683	-0.417043983811173	0.597813179295135	0.0411240767646459	-0.0520688905950657	0.997796392528283	0.945188668877198	0.325785749047083	-0.0219550892501291	-0.323924667996133	0.944008726839975	0.0626125635441026	-19.3232124325822	-86.1956143766462	-51.6982754299081
25531	1651817877322	9.71546208031273	-0.166516745383046	0.620519456375637	0.0433770921165381	0.0255503962288683	-0.0761355461995823	0.010083619873225	0.00125668368927497	0.000517332831602159	0.638916015625	0.362548828125	-0.096435546875	0	0	0	-0.404014579863647	-0.552656719939173	-0.417007218626573	0.597869340890637	0.0413510590388068	-0.0520689168637217	0.997787010244676	0.945194406923907	0.325754397741861	-0.0221721778723324	-0.323879025310584	0.944019544420812	0.0626855383273502	-19.4789331712925	-86.1875210432404	-51.5447972300765
25532	1651817877322	9.73082488846275	-0.193802869242451	0.559014750340119	0.0380262573200897	-0.0420457546010361	-0.0640568834034436	0.00732481796812105	-0.00169725026999087	-0.00163209709265488	0.636474609375	0.360107421875	-0.10400390625	0	0	0	-0.403993715607373	-0.5526870839981	-0.416979940139611	0.597874396886665	0.0413294334056878	-0.0520390431844229	0.997789464726309	0.945167477714808	0.325833614541831	-0.0221561437265938	-0.323960363323344	0.943993852532449	0.0626521298628541	-19.4755051147477	-86.1896366671344	-51.5433801472175
25533	1651817877324	9.77022169946376	-0.178526897123319	0.561983833325136	0.051981048726667	-0.0349035274755882	-0.0248883525361023	0.00732485656960975	-0.00169732516458698	-0.00163203710808201	0.63818359375	0.3603515625	-0.09033203125	0	0	0	-0.403972404919459	-0.552781740129524	-0.416920889239146	0.597842467510468	0.0412186397908315	-0.0518888884474038	0.997801867601724	0.945123164270153	0.325966536359258	-0.0220912094264475	-0.324103730453336	0.943956228026301	0.0624772876859285	-19.4729752923919	-86.2003452308779	-51.537652685028
25534	1651817877324	9.75068917978322	-0.203730583844275	0.548858821064583	0.0314236645221172	-0.0542064210870052	-0.0446391508990906	0.0077274642144076	-0.00158335070030695	-0.00013235450105999	0.634521484375	0.36669921875	-0.095947265625	0	0	0	-0.403954257623445	-0.552809989571412	-0.416887933444358	0.597851590385473	0.0412111327570959	-0.0518543301561569	0.997803974225867	0.945094125932734	0.326050817392767	-0.0220897624466734	-0.324189351559115	0.943929019005966	0.0624441463558935	-19.4813520472554	-86.2021670721444	-51.5241435150583
25535	1651817877326	9.74620894767488	-0.220714686494152	0.49726991714094	0.0307998147472827	-0.109124620820299	-0.0519638040373547	0.00301612689866113	0.00227223721398792	-0.00267607230146088	0.639892578125	0.363525390625	-0.095947265625	0	0	0	-0.403918479166107	-0.552803498535342	-0.416969831408843	0.597824651457354	0.0410889034039366	-0.0519745914482489	0.997802757994209	0.945124785072644	0.325972043766041	-0.0219400848763264	-0.324115477350978	0.943949611222325	0.0625163083904514	-19.3385116490052	-86.2011151496794	-51.6716017922101
25536	1651817877327	9.75068537064946	-0.203445368178121	0.549032257804385	0.0304376296368437	-0.0548543896998002	-0.0446396459103813	-0.00146499100761923	0.000339488762260994	0.000326362699379801	0.6455078125	0.369384765625	-0.0947265625	0	0	0	-0.403924735657793	-0.552805433563051	-0.416965786607101	0.597821456077038	0.0410913708445764	-0.0519586101232354	0.997803488707158	0.945125764611824	0.325968681445807	-0.0219478423403546	-0.32411230817269	0.943951652125544	0.0625019210938977	-19.3489635250971	-86.2017471106497	-51.6613552285283
25537	1651817877328	9.74590491705598	-0.184954566253437	0.520279323818494	0.0559744229658566	-0.0761084081861929	-0.0516097681663954	0.00463933717413508	0.000514195589468322	-0.00124092911646794	0.63916015625	0.365478515625	-0.10302734375	0	0	0	-0.403889802919401	-0.552828770261756	-0.417005572615694	0.597795726210935	0.0409734063566622	-0.0520044920932199	0.997805949457939	0.945132104370002	0.325958759010369	-0.0218218402879214	-0.32410875529776	0.943952551893657	0.0625067557372032	-19.2446925941613	-86.2038760765849	-51.766059150926
25538	1651817877329	9.77790842327816	-0.191616723324184	0.53133144806178	0.0472516365568617	-0.0694204602642218	-0.0188387163856589	-0.000402553684951304	-0.000114164419702288	-0.00149961521608138	0.637939453125	0.36376953125	-0.095703125	0	0	0	-0.403888533310325	-0.552837643161992	-0.417003848064536	0.597789581427192	0.0409566620049261	-0.0519915418651876	0.9978073117651	0.945130681286923	0.325963686719607	-0.021809865434684	-0.324115021446911	0.943951563648603	0.0624891859270569	-19.2399186912431	-86.2050552157457	-51.7705069896683
25539	1651817877330	9.75835262010225	-0.216614750967445	0.518757625188476	0.0251667740997091	-0.0880248489427054	-0.0385840545421114	0.00359096945614072	0.00828863507707155	-0.00522313917389246	0.640869140625	0.36474609375	-0.095947265625	0	0	0	-0.403826302683343	-0.552907503574513	-0.417018767057125	0.597756604040688	0.0407772808263094	-0.0519942582458576	0.997814517071121	0.945108629823349	0.326039330366513	-0.021634067754051	-0.324201929670142	0.943925289503157	0.0624352195042009	-19.1114175450449	-86.2112978321477	-51.8941490025309
25540	1651817877331	9.76278936848896	-0.198948762650074	0.571257443675785	0.0247854339334266	-0.033764624529465	-0.0312653041220319	0.00716791182985089	0.00925641440477198	-0.00463781305565793	0.643310546875	0.3603515625	-0.097412109375	0	0	0	-0.403773972483248	-0.552910919922013	-0.417024559989533	0.597784752349561	0.0407600619930578	-0.0520797695014982	0.997810761094002	0.945083923766612	0.326114191021266	-0.0215849821044226	-0.324276108253792	0.943894714479965	0.0625121875521794	-19.049403375252	-86.2080424047957	-51.9516055535599
25541	1651817877332	9.75828152768853	-0.215616312481124	0.520507939675541	0.0250568807751377	-0.0874215626024938	-0.0385783576698717	0.00212611687938498	0.0086276817160314	-0.00489684763347514	0.630615234375	0.36083984375	-0.094970703125	0	0	0	-0.403754898465198	-0.55290578149925	-0.417046993316018	0.597786737989504	0.0407340043015479	-0.0521334881053248	0.997809019958998	0.945087158785526	0.326107574662856	-0.0215432598789779	-0.324269954192899	0.943894034924198	0.0625543575001245	-19.003330415721	-86.2065342528574	-51.9980486676431
25542	1651817877333	9.74794969435795	-0.241875243388837	0.588732110989441	-0.0224174510379848	-0.0317334009226421	-0.044057837699162	0.00415163712771232	0.00698416924824332	-0.00196169008255736	0.639404296875	0.362060546875	-0.0986328125	0	0	0	-0.403723813259828	-0.552903963994934	-0.41704858262346	0.597808304506884	0.0407353726609051	-0.0521892187292409	0.997806050724593	0.945071205571279	0.326155124677413	-0.0215232675658651	-0.324316274359194	0.943874525609783	0.0626085784112652	-18.9716917050961	-86.2039637149236	-52.0268107993351
25543	1651817877335	9.72329086886219	-0.212993675189126	0.570519654367036	0.00899380447012795	-0.0385216133807514	-0.0704248195382284	0.00772847007767423	0.00795215685896062	-0.00137595486120997	0.6328125	0.363037109375	-0.098388671875	0	0	0	-0.403681217362093	-0.552931209183373	-0.417057279172324	0.597805803375519	0.0406606076007817	-0.0522226363771618	0.99780735176654	0.945054410939716	0.326209401276873	-0.0214379775625453	-0.324374591102515	0.943853920248469	0.0626171053201424	-18.8994681252112	-86.2050898443505	-52.0956319978265
25544	1651817877335	9.735406847092	-0.209437269039771	0.592042247553589	0.00594108771128634	-0.0181552295642026	-0.057065416405651	0.00910728097923009	0.00466186251451918	0.000321743650723595	0.6376953125	0.36279296875	-0.094482421875	0	0	0	-0.403646340595751	-0.5529421050117	-0.417033891129522	0.597835591009986	0.0406755243092007	-0.0522492910506549	0.997805348405627	0.945021520047792	0.326304730746057	-0.0214371019334023	-0.324468532170273	0.943819492422914	0.0626493204577778	-18.8897221696097	-86.203355954576	-52.0996169636183
25545	1651817877337	9.71584409200203	-0.234849278471889	0.579560144105411	-0.0157558432405375	-0.0374458896208178	-0.0768247859031916	0.00804440991938663	0.00511565991354423	0.00214743744760783	0.632080078125	0.356689453125	-0.101806640625	0	0	0	-0.403606551576816	-0.55297367236536	-0.417042777164732	0.597827057943822	0.0405908793709902	-0.0522713189859239	0.997807641644101	0.945006507050528	0.326354147077998	-0.021346482547578	-0.324522853038197	0.9438011866365	0.0626437383900772	-18.8170586459101	-86.205340796133	-52.1691563747562
25546	1651817877337	9.70334595492639	-0.202831127836626	0.581972150028447	0.0134398077647325	-0.0243366060739471	-0.0898286333999412	0.0109747711161304	0.00443651160798078	0.00149585208989359	0.628662109375	0.366943359375	-0.094482421875	0	0	0	-0.40356956098705	-0.552986834193936	-0.417010706307636	0.597862226167279	0.0406152640659489	-0.0522925906028144	0.99780553480771	0.944967206231876	0.326467360539053	-0.0213551316780637	-0.324634224121821	0.943760852902212	0.0626743413057757	-18.815601402764	-86.2035172504381	-52.1637800195448
25547	1651817877338	9.75071598816226	-0.236867622431108	0.532111742229574	-0.00242091478380334	-0.0848891220714729	-0.0449599200072957	0.0131875432327054	0.00647840773313857	-0.00417886476120022	0.642822265625	0.362060546875	-0.098388671875	0	0	0	-0.403482248172306	-0.55307740361166	-0.417012609216071	0.597836051755672	0.0404117387379782	-0.0522965152070654	0.997813592746346	0.944924172097203	0.326605118329252	-0.0211519660445704	-0.324784852415547	0.943712970758765	0.0626149220480132	-18.665498457933	-86.2104964307929	-52.3052140619783
25548	1651817877339	9.71835418789309	-0.194154525778965	0.544810022549457	0.0324553420751367	-0.0581047953378697	-0.0773654658531253	0.0103293827978928	0.012323526672302	-0.000988682128630947	0.63818359375	0.36669921875	-0.100341796875	0	0	0	-0.4034235222313	-0.553071197508268	-0.417005982164739	0.59788604519263	0.0404365226511834	-0.0524002539093502	0.997807146209184	0.944887976083225	0.326710945098626	-0.021134592641179	-0.324887057743497	0.943670584337033	0.0627234243945232	-18.6211903053842	-86.2049119000005	-52.3431472148247
25549	1651817877339	9.7384627279845	-0.23980402086138	0.51347179044402	-0.000446905866278297	-0.103952817059271	-0.0583032708311624	0.00870673088391736	0.0140804218532058	-0.00242479342954246	0.642578125	0.362060546875	-0.10302734375	0	0	0	-0.403356386036709	-0.553114617531921	-0.416994112137573	0.597899453218114	0.0403602606302273	-0.0524364769009518	0.997808330919359	0.94484572966796	0.326839072572006	-0.0210420476306912	-0.325019378637769	0.943624203022839	0.0627356914318448	-18.5418605968195	-86.2059375796466	-52.41458688566
25550	1651817877340	9.71083209989752	-0.215494016840691	0.555390448117214	0.0078557817022277	-0.0562407790050429	-0.0837649448429669	0.0116374231610359	0.0134008580951236	-0.00307539291804495	0.63720703125	0.358642578125	-0.106689453125	0	0	0	-0.403285657108027	-0.553112395642976	-0.416992234191766	0.59795052736894	0.0403683088196941	-0.0525568608244933	0.997801671687973	0.944806044550384	0.326956310789412	-0.0210025954594992	-0.32513372298809	0.943576889932798	0.0628547131140694	-18.4767992170534	-86.2001758459531	-52.472556001108
25551	1651817877340	9.73030183918594	-0.189706352613881	0.569427556108374	0.0279088018638048	-0.0336956630480278	-0.0639902310487201	0.0134331830112601	0.00800934603373232	-0.0044385902884833	0.644775390625	0.367919921875	-0.10400390625	0	0	0	-0.403241315466888	-0.553248512384412	-0.416843802585787	0.597957999604312	0.040314655580513	-0.0523248568553267	0.997816034096714	0.944695488511282	0.32727537149271	-0.0210063133542864	-0.325461460901063	0.943479168063279	0.0626250500899389	-18.5429919489094	-86.2126134796649	-52.3868798651345
25552	1651817877341	9.75752145348944	-0.177561633350851	0.552174345025563	0.04569275524088	-0.0478877878079216	-0.0381659689884195	0.0120540354267509	0.0017648266664797	-0.00488861778742014	0.639892578125	0.360595703125	-0.099853515625	0	0	0	-0.403188899831158	-0.553286487761326	-0.4168214892715	0.597973761627686	0.0402678170844485	-0.0523386871499966	0.997817200059544	0.944654568317736	0.327397114268858	-0.0209493705121844	-0.3255860093181	0.94343616180208	0.0626255470273517	-18.4960140231857	-86.2136249766138	-52.4263955955238
25553	1651817877342	9.75718982203895	-0.141582022041943	0.574977777961388	0.0710075302556759	-0.0129515028043349	-0.0378120009743359	0.0171666001262835	-0.00197349873513244	-0.000839614872464412	0.632568359375	0.357177734375	-0.11279296875	0	0	0	-0.403138387421051	-0.55342083849916	-0.416703052137405	0.597966037866543	0.0401678837085163	-0.0521381773114838	0.997831725084453	0.944558914902514	0.327676013853851	-0.0209018234380641	-0.325875739196039	0.943350433514231	0.0624096322048817	-18.5163892929446	-86.2262484299748	-52.3889080697101
25554	1651817877342	9.73290710806098	-0.148329706950594	0.53342982734765	0.077000298120408	-0.0531999595475202	-0.0644941685870748	0.00561785613163003	0.00664221406521347	-0.00228834004298286	0.640869140625	0.365478515625	-0.097412109375	0	0	0	-0.403102295778814	-0.553426080359719	-0.416700152623696	0.597987537929442	0.0401611127621326	-0.0521883495707879	0.997829374788488	0.944537643718279	0.327739043882476	-0.0208748344692996	-0.325938222092512	0.943325763076615	0.0624562254310554	-18.481248540614	-86.2242029696998	-52.4202162729607
25555	1651817877343	9.72514326681518	-0.134396754189002	0.564937570619192	0.0783517726814674	-0.0165168816063585	-0.0705512190588298	7.7124688887273E-07	0.00953306524200937	-0.00125062382738005	0.638427734375	0.365478515625	-0.111328125	0	0	0	-0.403078208975622	-0.55354336862586	-0.41660754158907	0.597959741780708	0.0400557906828927	-0.0519865367529029	0.997844142954804	0.94447161521708	0.327932227480233	-0.0208283995806826	-0.326142456116967	0.94326976744529	0.0622353929986793	-18.5039147175644	-86.2370741203544	-52.3856349648833
25556	1651817877344	9.70081993201983	-0.141288250040354	0.524189558339552	0.0843478758863136	-0.056749572714139	-0.0972198371597112	-0.00415094756149626	0.0120841288726882	-0.000538102547287568	0.6416015625	0.36083984375	-0.102294921875	0	0	0	-0.403064915974185	-0.553509556182546	-0.416636508207323	0.597979819688034	0.0400823824868209	-0.0520798825992815	0.99783820754801	0.944481013613787	0.327905387079065	-0.0208247940590696	-0.32611197085856	0.943273949048193	0.0623316894506485	-18.47428909396	-86.2318958579937	-52.4169415257439
25557	1651817877345	9.70517436989673	-0.123910444831765	0.576686846934221	0.0824473192761292	0.000506784631364852	-0.0899545560167851	-0.00926373143085103	0.00628854914141059	-0.00333744976893062	0.641845703125	0.365234375	-0.102783203125	0	0	0	-0.403059741705776	-0.553647186550059	-0.416545893203941	0.597919021520647	0.0399286233602696	-0.0518156417518969	0.997858128346106	0.944427209779882	0.328064726942008	-0.0207552490674774	-0.326286607852577	0.943233096432852	0.062035274882555	-18.4987843504213	-86.2493037066577	-52.3825073750599
25558	1651817877345	9.70585173734981	-0.19491725243338	0.531483997158377	0.0299719340939559	-0.065647349186447	-0.0906084676588321	-0.00999678051583709	0.00169175525830286	-0.0025499932799611	0.63916015625	0.365478515625	-0.099609375	0	0	0	-0.403080102388113	-0.553637568797458	-0.416575078040337	0.597893868366715	0.0399012935434544	-0.0518147939158355	0.997859265580582	0.944455945582978	0.327983270828951	-0.0207350165012349	-0.326206765145241	0.943261470212689	0.0620237469496558	-18.4851787755056	-86.2502999173592	-52.4010200511441
25559	1651817877346	9.7179787899642	-0.191277390692981	0.552470030890017	0.0255076107000407	-0.0442329220250198	-0.0772718727426085	-0.0117064654657034	0.0004989021566307	-0.00196257394052222	0.6396484375	0.353759765625	-0.106201171875	0	0	0	-0.403083831605267	-0.553707396415415	-0.416577036543056	0.597825322714156	0.0397433835597371	-0.0516996047427141	0.997871541999606	0.944461600483922	0.327973994646844	-0.0206238707991463	-0.326209669805436	0.943271016041964	0.0618630877065586	-18.4373173859691	-86.2610708622613	-52.4491968364035
25560	1651817877347	9.71533004445875	-0.23121748527717	0.58955169556908	-0.0247335032745744	-0.022398500803212	-0.0767972073780001	-0.00502448475229159	0.00668697547104468	-0.00607350697782227	0.634521484375	0.363037109375	-0.105712890625	0	0	0	-0.403069031102183	-0.553700774547333	-0.416613006547907	0.597816369136163	0.0396981100815939	-0.0517568803840978	0.9978703750432	0.944475419253384	0.327937917882922	-0.0205646405453369	-0.32617517146787	0.943280418193614	0.061901616864063	-18.3772570338694	-86.2600456790378	-52.511387648426
25561	1651817877348	9.75027873321896	-0.232787071686522	0.541836035013348	-0.00986021870327891	-0.0673206905177644	-0.0448277138658568	-0.00771091346082038	0.00889788133019867	-0.0056857279232747	0.629150390625	0.358642578125	-0.10107421875	0	0	0	-0.403094711138204	-0.553792693108703	-0.416520386431565	0.597778449426473	0.039648841492619	-0.0515120101929514	0.997885004484071	0.944435632829354	0.328050843078616	-0.020590769719186	-0.326296345076853	0.943254555865643	0.0616566138236362	-18.4671965069736	-86.2729181559582	-52.4144882598231
25562	1651817877348	9.75974742806161	-0.269205659081118	0.599985715760299	-0.0631622205003913	-0.0252361537103306	-0.0310464940388897	-0.00202371037411562	0.00164148428690166	-0.00293694365662835	0.638427734375	0.368408203125	-0.10009765625	0	0	0	-0.403090496261347	-0.553802019233717	-0.416527158630138	0.597767932763161	0.0396168992323239	-0.051508495581192	0.997886454551909	0.944437818635012	0.32804635589457	-0.020561982303138	-0.326293898237704	0.943256308363351	0.0616427506328783	-18.4469930171843	-86.2741964929693	-52.4349166281088
25563	1651817877349	9.74762664868661	-0.272295182507467	0.579201402990923	-0.0619517752522548	-0.044513693581661	-0.0443699683456238	0.000505911143318077	0.000847773552742815	-0.00508654009246658	0.63525390625	0.36669921875	-0.09814453125	0	0	0	-0.40304149635035	-0.553903960076116	-0.416530786668296	0.597703989437211	0.0393850135389754	-0.0514316640231958	0.997899596474685	0.944416787637046	0.328119311954322	-0.0203629160963181	-0.326382830335571	0.943235125013073	0.0614959104633346	-18.3210675941578	-86.2858020587403	-52.5560589842111
25564	1651817877351	9.75028153933267	-0.231474804232794	0.542347449495061	-0.0119232471114791	-0.0658111905035931	-0.0448197273360886	0.00441381795404802	-0.00323464230682156	-0.0055368874167342	0.641845703125	0.36572265625	-0.10107421875	0	0	0	-0.403020712811161	-0.553947106201124	-0.416517823961172	0.597687050971689	0.0393110117081013	-0.0513903045592829	0.997904645222072	0.94439893496271	0.328174414735668	-0.0203028361122604	-0.326443403976531	0.943218209170182	0.0614338171531692	-18.287845786398	-86.2902702218118	-52.5858198474045
25565	1651817877350	9.77753034657474	-0.219375401010555	0.524707312580282	0.00429617969863712	-0.0796349780333681	-0.0189555507067567	0.00497187891713003	0.00499607967079291	-0.00352305977239341	0.6318359375	0.37060546875	-0.104248046875	0	0	0	-0.402947101969465	-0.554023647077372	-0.416524755818338	0.597660906605051	0.0391298525391247	-0.0513966803469094	0.997911436896874	0.944365572396432	0.328281521609767	-0.0201223319209231	-0.326561663874721	0.943180589186872	0.0613828629869951	-18.1500114250452	-86.296289374119	-52.7168809693446
25566	1651817877350	9.72563411634723	-0.202028715316826	0.524340622621045	0.0186278679957189	-0.0723077942558367	-0.0711201322504831	0.00366310567868434	0.0134508084091648	-0.00268432004128011	0.62939453125	0.363037109375	-0.10400390625	0	0	0	-0.402901425090022	-0.554009930055099	-0.416539319000433	0.597694265312483	0.0391359862539997	-0.0515035438210064	0.997905686702809	0.944349105153897	0.328330874774171	-0.0200899045558094	-0.326608545777603	0.943157580494323	0.0614868781215475	-18.0940180999388	-86.2911926055368	-52.7698958688746
25567	1651817877351	9.76455957780158	-0.151006284306235	0.551700151095198	0.0558446127283971	-0.031541254449792	-0.0315991789137726	0.00390743805975052	0.0149827387644511	-0.00294625849069583	0.640869140625	0.359130859375	-0.101806640625	0	0	0	-0.402759555417284	-0.554173011050089	-0.416534233563524	0.597642239649607	0.0387830121866512	-0.0514799533656913	0.997920684406931	0.944273855584856	0.32856794557944	-0.0197481846410521	-0.326868113502435	0.943076306318409	0.0613540286875003	-17.8419478669949	-86.3045007617708	-53.0070391811089
25568	1651817877352	9.7251255814767	-0.165735150665843	0.549858392938765	0.0409184359980066	-0.0371901907274173	-0.0707767484319763	-0.000313917917759818	0.0123660823146227	-0.00477229972577324	0.634033203125	0.365478515625	-0.10595703125	0	0	0	-0.402721622553876	-0.554159887832388	-0.416564088424464	0.597659161797312	0.0387623579053823	-0.0515823494809864	0.997916199303147	0.944271026209518	0.328579309925339	-0.0196943177138019	-0.326878736951242	0.943066751779009	0.0614442268903385	-17.7718749098937	-86.3005159111925	-53.0763999664061
25569	1651817877353	9.73245781986194	-0.143494465256822	0.542866447523472	0.0635355407167298	-0.0356034590322664	-0.0643169624676041	0.00561766996823951	0.00664319112728925	-0.00228408541494812	0.633056640625	0.363037109375	-0.1005859375	0	0	0	-0.402689607505851	-0.554265154327141	-0.416476322418271	0.597644285148321	0.0386752231273265	-0.0514157530854056	0.997928177501123	0.944203022886071	0.328777105743473	-0.019653658991458	-0.327085430260748	0.94300691146651	0.0612624374109892	-17.7868082629839	-86.3111676915331	-53.0493060591752
25570	1651817877354	9.75229239769696	-0.15356996876403	0.533779644585362	0.0576628474470039	-0.0489381840856132	-0.044883542558571	-0.0002446090190924	0.00799986003702506	-0.000986203088566219	0.641357421875	0.36279296875	-0.09912109375	0	0	0	-0.402671133500403	-0.554258302384005	-0.416485246250667	0.597656868227433	0.0386755477878442	-0.0514628981282576	0.997925734771657	0.944198173620163	0.328791995802043	-0.0196375260371243	-0.327099389995854	0.942999148256641	0.0613073849678039	-17.7609155608305	-86.3089929684032	-53.0742985316672
25571	1651817877354	9.74012368943393	-0.156944918060698	0.513978954197608	0.0600778265967032	-0.0683091047797457	-0.0581735398301468	-0.00219889736497166	0.0148065471762748	-0.00138571591335488	0.634033203125	0.365966796875	-0.09814453125	0	0	0	-0.402646720198298	-0.554257628321323	-0.416505148686552	0.597660071678516	0.0386438851304297	-0.0515169616600151	0.997924171870462	0.944197026413887	0.328798159662294	-0.0195894235204107	-0.327106443613083	0.942994047098925	0.0613482003223509	-17.7090820192987	-86.3076022133635	-53.1257152092447
25572	1651817877355	9.71279057500792	-0.168318388406251	0.533246865955226	0.0420707391124086	-0.0537179956842146	-0.0840529129981409	0.000820270818580611	0.0170768152774871	-0.00405811503760559	0.642578125	0.365234375	-0.107666015625	0	0	0	-0.402597616127579	-0.554232197862243	-0.416538542185618	0.597693460910405	0.0386446274533349	-0.0516596024820172	0.997916769194903	0.944189849043969	0.328821604724542	-0.0195417816154035	-0.327127072758156	0.942978068534882	0.0614836606823549	-17.6321815358555	-86.3010220014172	-53.2012037899538
25573	1651817877355	9.72519522840371	-0.200181311253703	0.533116309627875	0.0111251127867582	-0.0651013180627539	-0.0710578496156451	0.00186583460381122	0.0188390924136224	-0.00131981247641226	0.637939453125	0.359619140625	-0.098388671875	0	0	0	-0.402514569752573	-0.554303846076485	-0.416514716178041	0.597699555436378	0.0385254748638852	-0.0516705731533029	0.997920808309217	0.944132069615994	0.328995024688054	-0.0194141405456684	-0.32730784119714	0.942916977045443	0.0614585347234354	-17.5308090637186	-86.3046109053261	-53.2918627816684
25574	1651817877356	9.69783995490969	-0.211764604159093	0.552554339441149	-0.00689202961900725	-0.0505111657227941	-0.0969444032412472	-0.00301952511953144	0.0167919491143768	0.00017658219531361	0.641845703125	0.365966796875	-0.103271484375	0	0	0	-0.402489114966023	-0.554263429504913	-0.416545353383008	0.597732826288087	0.0385640385769538	-0.0517956683106614	0.997912833704872	0.944135657108521	0.328984961817784	-0.0194102002568589	-0.327292951199527	0.942913624698468	0.06158912609464	-17.4925731938876	-86.297528512997	-53.3307767496137
25575	1651817877356	9.75700318658347	-0.20672890679287	0.547384059031086	0.00192519774729728	-0.0568374411056199	-0.038320732682708	0.00155422684129574	0.0121406578993065	-0.00359522599620109	0.642822265625	0.35986328125	-0.098388671875	0	0	0	-0.402467411995409	-0.554286364793107	-0.416522956194402	0.59774177957479	0.0385505055350378	-0.0517819486535372	0.997914068603422	0.944110743624038	0.329057218489588	-0.0193971836502447	-0.32736640373847	0.942889164617739	0.0615732161723198	-17.4857991679353	-86.2986243634831	-53.3331389206793
25576	1651817877356	9.74486631929514	-0.210066333857333	0.527289063964869	0.00483300680551745	-0.0767646412835082	-0.0516082711249322	0.00113312878476604	0.00471126697896749	0.000714446910287465	0.638427734375	0.357666015625	-0.099365234375	0	0	0	-0.402456318261077	-0.554289757229656	-0.4165158401699	0.597751061738573	0.038554839835705	-0.0517907414960359	0.997913444854079	0.944100401273929	0.329086933558604	-0.0193964552277525	-0.327395718725291	0.942878310948071	0.0615835538440571	-17.4824262344098	-86.2980708070634	-53.3347132666221
25577	1651817877358	9.73274401148024	-0.213287425035093	0.507030404200713	0.00938035513819462	-0.0957999765319815	-0.0648870135229451	0.00026551189492549	0.00884577763619477	-0.00607149116836298	0.64453125	0.367919921875	-0.102783203125	0	0	0	-0.402503606192281	-0.554246193422975	-0.416501597026143	0.597769540670168	0.0386751535016285	-0.0517717535432344	0.997909774497016	0.944116119827602	0.329034533353763	-0.019519942170632	-0.327336195345548	0.942897640995952	0.0616040081567029	-17.5814071063403	-86.2948151622446	-53.239094168716
25578	1651817877358	9.75218155266121	-0.187468537784846	0.520912336691701	0.0296635829112764	-0.0758736528595073	-0.0451440505808876	0.00106574947441515	0.00907635682828162	-0.00307117990021181	0.634765625	0.363037109375	-0.10107421875	0	0	0	-0.402473575689709	-0.554243616921708	-0.416514183692557	0.597783379457815	0.0386598957689309	-0.0518336920283452	0.99790715040521	0.944107333251054	0.329061911308926	-0.0194833730986181	-0.327363339060315	0.94288468377444	0.0616580679461657	-17.5360492032332	-86.292489315724	-53.2827704327698
25579	1651817877359	9.756837475423	-0.205408577302659	0.550824075930521	0.0017250701674641	-0.0535755613470058	-0.0383022719409549	0.00433028458341592	0.0128785990683945	-0.00600398907286922	0.646484375	0.35888671875	-0.1005859375	0	0	0	-0.402391895684812	-0.554326128739463	-0.416489991993135	0.597778714787891	0.0385172591325588	-0.051825020729159	0.997913116446185	0.944050387813541	0.329233697713484	-0.0193400506464919	-0.327544326798707	0.942825190327628	0.0616066105678081	-17.4285424386972	-86.2977793893929	-53.3796249267486
25580	1651817877359	9.75677564789617	-0.204890817506998	0.552110560329285	0.00155069645329936	-0.053246495103397	-0.0383004445760218	0.00326452507939117	0.0133327359077755	-0.00418007286008825	0.642578125	0.36181640625	-0.094970703125	0	0	0	-0.402343256283296	-0.554318111934575	-0.416508233263948	0.597806178061073	0.0385046448092662	-0.0519300817718503	0.997908141531715	0.944034698462112	0.329281591493399	-0.0192904536785737	-0.327591026170839	0.942802683550882	0.0617026698092847	-17.3611045499421	-86.2933676229112	-53.44414076096
25581	1651817877360	9.72475189483558	-0.197626641067267	0.54208108317056	0.0121610868916027	-0.0590521825613602	-0.0710205408648061	0.00530794464121207	0.00947535350710716	-0.00580333585820947	0.6435546875	0.365478515625	-0.097412109375	0	0	0	-0.402374039442087	-0.554260621858247	-0.416487976665419	0.597852875491548	0.0386658567009098	-0.0519568982725821	0.997900512199226	0.944037239555727	0.329265795352407	-0.0194351831210869	-0.327564713999521	0.942806722893319	0.0617805908807334	-17.4627393154194	-86.2866120803034	-53.3437084890132
25582	1651817877361	9.7367820452379	-0.193586203841622	0.564095257046217	0.00891738191787948	-0.0384727307831019	-0.0577376514901395	0.00619632045066151	0.0126543796275467	-0.00482663742471324	0.63623046875	0.35888671875	-0.102294921875	0	0	0	-0.402316719684002	-0.554261376045117	-0.416498217249208	0.59788361669769	0.038647124105611	-0.0520576836381682	0.997895985247258	0.944012158270218	0.329340984181871	-0.0193794008194755	-0.327639199175512	0.942774900871012	0.0618711681745561	-17.3916954339126	-86.2826093969148	-53.4101621120266
25583	1651817877362	9.74410353808009	-0.171302377789543	0.557371748749503	0.0325173107415504	-0.0379595462219003	-0.0512805414635142	0.00488591596044037	0.0115767904150428	-0.0027411526728101	0.63818359375	0.359375	-0.108154296875	0	0	0	-0.402297641317858	-0.554271987769192	-0.416471759032279	0.597905047054327	0.0386676750058975	-0.0520565067057732	0.997895250524438	0.943985760018198	0.329415763437296	-0.0193943208668912	-0.327712825187698	0.942748839781103	0.0618783427289548	-17.4023807368337	-86.2819601685813	-53.3949628083001
25584	1651817877362	9.72457337011572	-0.196169601929024	0.545800385554641	0.0119240801354864	-0.0572431756014811	-0.0710094499837233	0.0115716229708637	0.01776418933839	-0.00684290463194353	0.64111328125	0.364013671875	-0.10791015625	0	0	0	-0.402208161874381	-0.55427270816573	-0.416483138447126	0.597956649677459	0.0386471207437193	-0.0522117099690471	0.997887938297848	0.943943738482941	0.329540779821728	-0.0193156157897654	-0.32783626803188	0.942696563999571	0.062020719008519	-17.2985792855457	-86.2755049731204	-53.4911458850249
25585	1651817877363	9.72406763659575	-0.159737393947835	0.569975920513681	0.0372297909155861	-0.0202260923009158	-0.0707119627650581	0.0145934147558843	0.0105041681336491	-0.00826419746647961	0.642578125	0.365966796875	-0.106201171875	0	0	0	-0.402130472311081	-0.554459167940366	-0.416303381212692	0.597961210377918	0.038533051755515	-0.0519366932665858	0.997906700957028	0.943796401590858	0.329965156059495	-0.0192703951900552	-0.32827359970999	0.942563300621855	0.0617322286514889	-17.3363285220278	-86.2920910964196	-53.4274129353185
25586	1651817877363	9.75172799814649	-0.183114233299065	0.530857356947374	0.0287840695473349	-0.0673468200739505	-0.0450789053221943	0.00415255099131734	0.0165099549009108	-0.00320421472608101	0.642578125	0.355224609375	-0.098876953125	0	0	0	-0.402076134786216	-0.554441960806125	-0.41632064643211	0.598001683348121	0.0385424629036188	-0.0520651336295242	0.997899644460034	0.943776655886394	0.330023802379454	-0.019233139808741	-0.328329259063548	0.942535681936311	0.0618577878656719	-17.2717815159027	-86.2858445007138	-53.4884173863291
25587	1651817877365	9.7512061127896	-0.1469937314759	0.555052928452748	0.0556975576813124	-0.0319234381691957	-0.0448017115075814	0.00579798891951176	0.0125367041824636	-0.00632611069140671	0.6494140625	0.357421875	-0.098388671875	0	0	0	-0.402071596132006	-0.554471526696321	-0.41624093025035	0.598032813189406	0.0386096281347484	-0.0519769654673043	0.99790164428971	0.943725972461464	0.330163839136369	-0.0193165273379398	-0.328467023484794	0.942491503615573	0.0617995153338238	-17.3575541431225	-86.2876137364513	-53.3942264983835
25588	1651817877365	9.75114166242308	-0.146331205006983	0.556358749380146	0.055554997125072	-0.0315486321185554	-0.0447996819005905	0.00604237427634671	0.0140680518808646	-0.00658779727698989	0.639892578125	0.363037109375	-0.095703125	0	0	0	-0.402007704675041	-0.554472452924638	-0.416257326288092	0.598063493820789	0.0385802745184478	-0.0520922255651663	0.997896769437475	0.943701017988261	0.330239287386787	-0.0192458232920423	-0.328542160256492	0.942458706311282	0.0619002086592803	-17.2713542661577	-86.2833024614162	-53.4758033095266
25589	1651817877366	9.74369316403934	-0.167591326187372	0.565613167844176	0.0339475862407934	-0.0304062907546407	-0.0512589605039118	0.00286608221256151	0.0132137184033891	-0.00568054838718293	0.638427734375	0.352294921875	-0.10205078125	0	0	0	-0.402042022580365	-0.554380933996014	-0.416268563205034	0.598117442805686	0.0387645266178487	-0.0521861131216851	0.997884723338996	0.943723841056683	0.330165390733412	-0.0193939831668177	-0.328454902988699	0.942479402617959	0.0620479842023929	-17.3573795942157	-86.2726703574272	-53.3945526466034
25590	1651817877366	9.71213738070722	-0.195975720258021	0.532902178196059	0.0164852587791543	-0.0699368817342075	-0.0842321583701402	-0.000310295743607456	0.012359403672637	-0.00477357463493266	0.64111328125	0.356201171875	-0.1015625	0	0	0	-0.402006145926171	-0.554369345660639	-0.416293394169638	0.59813501586189	0.0387488771250349	-0.0522795437124192	0.997880440649466	0.943719079987007	0.330181737216617	-0.019347311882918	-0.328470428790822	0.942468497997593	0.0621313744587619	-17.2962538646486	-86.2688976684913	-53.4546673244222
25591	1651817877368	9.71945782188244	-0.173669004576866	0.526251230385981	0.0423213003489009	-0.0679799041400662	-0.0777734376882169	0.00179896059743623	0.0136681105550066	-0.00385727311690472	0.6337890625	0.363037109375	-0.105224609375	0	0	0	-0.40209247577544	-0.554323085699343	-0.416207121949305	0.598179897041193	0.0389950965988713	-0.0521551828942326	0.997877356862312	0.943711750527554	0.330186545126907	-0.0196208392628203	-0.328462348462445	0.942473703778746	0.0620951151710722	-17.5355150698939	-86.2661834689256	-53.2154746416428
25592	1651817877369	9.73192279189606	-0.205158012324861	0.525800773452554	0.0129989758869678	-0.080572196509257	-0.0647534061244741	0.00231355218529509	0.0145123300670151	-0.00894220283400716	0.6357421875	0.35595703125	-0.100341796875	0	0	0	-0.402033437050974	-0.554318739253372	-0.41624019280278	0.598200595704348	0.0389496744161132	-0.0522809266538392	0.997872550765424	0.943699598509023	0.33022643477697	-0.0195338052718835	-0.328502649360377	0.942452760875953	0.0621997016110646	-17.4348870061925	-86.2619572996782	-53.3136186395274
25593	1651817877371	9.71195451545253	-0.194091746616006	0.536909357848389	0.0181530458251273	-0.0648369409532959	-0.084199801323793	-0.000862924042247681	0.0136577338509629	-0.00803584074814457	0.638427734375	0.358154296875	-0.099609375	0	0	0	-0.402007531756212	-0.554378182823757	-0.416209379086304	0.598184359191128	0.0388691663392444	-0.0522114715632121	0.997879326444484	0.943668291309101	0.330319394343743	-0.019474437043054	-0.328602105723401	0.942424034051332	0.0621095496406155	-17.4088061589526	-86.2679167719866	-53.333922236471
25594	1651817877372	9.73648861274671	-0.221726300127832	0.557173686080077	-0.0142700074801654	-0.0571486242048211	-0.0579272015662617	0.00875870005307134	0.00963962318667481	-0.0115283420240693	0.640625	0.36669921875	-0.104736328125	0	0	0	-0.401932306054626	-0.554407528149835	-0.41622193861259	0.598198973501274	0.0387831810967351	-0.0522984802869081	0.99787811571539	0.94363566542014	0.330419438334376	-0.0193578335018774	-0.32870594124705	0.942384138093631	0.0621654281608021	-17.2961845605212	-86.2668511917269	-53.4403381243216
25595	1651817877373	9.6966392043586	-0.200324877603234	0.577337212513549	-0.00335553761990045	-0.0282170731818028	-0.0968522123202007	0.00564659260539402	0.00442298691475355	-0.00683616993454752	0.638671875	0.36572265625	-0.10595703125	0	0	0	-0.401893919633561	-0.554498566292851	-0.416154961187831	0.598186982154828	0.0386927765158553	-0.0521777562061693	0.997887945013259	0.943576165160664	0.330592651280656	-0.0193007631953307	-0.328887350906339	0.942330080532569	0.0620252346814918	-17.2848870357146	-86.2755108963247	-53.440960715723
25596	1651817877374	9.73179546289103	-0.201551489178409	0.529538899947078	0.0118178124601145	-0.0758748028662083	-0.0647142078548697	0.011601878244344	0.00601540080816299	-0.0101475979148179	0.634033203125	0.361083984375	-0.103759765625	0	0	0	-0.401821647930468	-0.554542213780421	-0.416147810899502	0.598200046701357	0.0386078652381245	-0.0522251474529815	0.997888754679232	0.943533412206016	0.33072072547599	-0.0191964004830726	-0.329019958046053	0.942282513747416	0.0620445927799058	-17.1919018037683	-86.2762251161997	-53.5260341113181
25597	1651817877375	9.71651964292915	-0.208677392365504	0.568895092229779	-0.0107867129010614	-0.039058884710573	-0.0773753610326793	0.0124882346898595	0.00919443758693546	-0.00917075821152626	0.63623046875	0.362060546875	-0.10546875	0	0	0	-0.401707223721036	-0.554711037213264	-0.416051484494519	0.598187373532768	0.0383936548873855	-0.052090628075658	0.997904050363096	0.943416350981083	0.33106493732049	-0.0190156771775071	-0.329380503317862	0.942169079169797	0.0618539432082468	-17.0889304504082	-86.2897434898132	-53.6077454321428
25598	1651817877376	9.73591142715101	-0.182377916360698	0.582555205557109	0.00952848611848753	-0.0189636191871546	-0.0576807954009695	0.0100462952824203	0.00340680459068531	-0.00780085872290749	0.64599609375	0.3642578125	-0.109375	0	0	0	-0.401651462770463	-0.554755372596851	-0.416035924894938	0.59819452373462	0.0383211715434835	-0.0521042101314427	0.997906127397819	0.943377437664637	0.331180423302321	-0.0189350819010468	-0.329500376201361	0.942127740016116	0.0618451580585519	-17.0229741418759	-86.2915829744935	-53.6665707939243
25599	1651817877377	9.73174752977198	-0.198947168404623	0.531401315787883	0.00919609869100219	-0.069854071246897	-0.0646663781882282	0.00775545747287064	0.00573156879746138	-0.00591911654314514	0.642578125	0.36962890625	-0.1044921875	0	0	0	-0.401586727198801	-0.554931664149249	-0.4158677304163	0.598191423760569	0.0382097578458825	-0.0518306378582443	0.997924646145472	0.943243401156968	0.331564262672303	-0.0188951288010194	-0.329896802923572	0.942007815624573	0.0615578973246027	-17.0638104767999	-86.3080241939394	-53.6022087419244
25600	1651817877378	9.71128962544953	-0.152505445680901	0.564428700015355	0.0408614814321148	-0.0225563140041678	-0.0839256029430313	0.00962010745818707	0.00550976602618052	-0.00474015374827958	0.642578125	0.364013671875	-0.096923828125	0	0	0	-0.401536518115429	-0.554963542179703	-0.415847472775828	0.598209637883787	0.0381726924746278	-0.0518516753925453	0.997924971783062	0.943204189023918	0.33167860801139	-0.018845657201593	-0.330013186641035	0.941966403194197	0.0615677829421886	-17.0191443811514	-86.308313954019	-53.6398657422193
25601	1651817877379	9.72382990482978	-0.183936177182555	0.563033777575679	0.0107423322919145	-0.0348689541433168	-0.0709022963849843	0.00647196929461729	0.00243467051638903	-0.00839540208538413	0.640625	0.36865234375	-0.095458984375	0	0	0	-0.401454532159633	-0.555054722723881	-0.415820500362943	0.598198817173955	0.0380151325196563	-0.051828194879369	0.997932206071665	0.943145131015809	0.331855140172806	-0.0186929875103144	-0.330200108329307	0.941905517637748	0.0614970267808137	-16.90747341506	-86.314757063351	-53.7405627857404
25602	1651817877379	9.70391286183466	-0.17298366109043	0.572868020839862	0.0163031260362105	-0.0208443570922319	-0.0903766469517819	0.0147550184278327	-0.000437949181523472	-0.00523914578236997	0.6455078125	0.36572265625	-0.103271484375	0	0	0	-0.401399838410338	-0.555116160482205	-0.415775676221425	0.598209666553681	0.0379532708682239	-0.0517949830340514	0.997936285021697	0.943089131500148	0.332017513573543	-0.0186349329684403	-0.330367128020781	0.941850120992159	0.0614484361912994	-16.8705202873333	-86.3183948826793	-53.7675448674825
25603	1651817877380	9.7233210131979	-0.146798281951925	0.585968125116464	0.0360200225755961	-0.000943035981296192	-0.070686463822204	0.00940520330967557	0.00175711326475245	-0.00903812099181231	0.636474609375	0.362060546875	-0.096435546875	0	0	0	-0.40131232829745	-0.555190109070155	-0.415765233407969	0.598207011523909	0.0378064269597737	-0.0518180849077248	0.997940659637151	0.943036626182362	0.332175371691393	-0.0184782066303421	-0.330533804260811	0.941793187763736	0.0614247158942983	-16.7427000791903	-86.3223003853327	-53.8855441395056
25604	1651817877381	9.74324948220409	-0.156145138837093	0.576428399375716	0.0302136925925519	-0.0140843939583572	-0.0512094932912728	0.0112698858744421	0.0015356959127206	-0.00785894035741625	0.635009765625	0.35791015625	-0.103271484375	0	0	0	-0.401256564537089	-0.555243552133068	-0.415742169490302	0.598210845553675	0.0377260926442997	-0.0518127090656559	0.997943978945247	0.942993189906796	0.33230323584678	-0.0183957395927828	-0.330666880293748	0.941748375429996	0.0613955344610918	-16.6796181930944	-86.3252665125022	-53.9407271560163
25605	1651817877384	9.72603591044133	-0.104803733551922	0.549288269642917	0.0863296652515499	-0.0210362011261178	-0.0709944626612202	0.00681003213847983	-0.0026163841711565	-0.00942953469372802	0.633544921875	0.365234375	-0.097900390625	0	0	0	-0.401264970212067	-0.555285098410616	-0.41573250763466	0.598173357196406	0.0376498831578203	-0.0517273026291289	0.997951287619249	0.942993136520891	0.332305811553013	-0.0183518958853275	-0.33067571845041	0.941752161542945	0.0612897663276432	-16.6691927207336	-86.3318059721331	-53.9508793758164
25606	1651817877383	9.74275547301685	-0.118734173987972	0.598945711391611	0.0564181254033017	0.0205529019950017	-0.0510014162765699	-0.00052311157458225	-0.000925071197145785	-0.00782290373069748	0.644287109375	0.3564453125	-0.10400390625	0	0	0	-0.401249816220533	-0.555321243782391	-0.415736953911791	0.598146876894891	0.0375622027122476	-0.0516984271621816	0.997956087990028	0.942988615206351	0.332322740270268	-0.0182775241887255	-0.330698582577267	0.941747773519119	0.0612338023739334	-16.6197063687492	-86.3361074613215	-53.9992044581419
25607	1651817877384	9.74330903042324	-0.153634191446559	0.57609646712539	0.0307772496377771	-0.0115159914014229	-0.0512078859415581	-0.00556444528308101	-0.00155919571159127	-0.00809671348206067	0.63818359375	0.362548828125	-0.10009765625	0	0	0	-0.401293562245346	-0.555342770128597	-0.415729070332392	0.598103021767072	0.0375274954929231	-0.051586669420232	0.997963176986083	0.943008583388644	0.332265633962012	-0.0182855173064743	-0.330645578735557	0.941774051471981	0.0611157691326739	-16.6569069785906	-86.3424689678353	-53.9654226519656
25608	1651817877385	9.75122377559023	-0.166510023534443	0.545388355175266	0.0281104666262392	-0.0449284230432022	-0.0449480985743804	-0.00254217947974421	0.000709712124216323	-0.0107644707029538	0.636474609375	0.361083984375	-0.094970703125	0	0	0	-0.401273073084933	-0.55537566964973	-0.415750868411252	0.598071067510692	0.0374181619528082	-0.0515825280245299	0.997967496443983	0.943011734732328	0.332262272464528	-0.0181837964636917	-0.330648982023533	0.941775464269114	0.0610755727561766	-16.5796459247602	-86.3463505759776	-54.0427260023877
25609	1651817877386	9.77529605365952	-0.158467213846042	0.587365708627969	0.022146536717457	-0.00439518319404267	-0.018504730256879	-0.00361086638880497	0.00116504255349994	-0.00894274112236659	0.64208984375	0.361572265625	-0.104248046875	0	0	0	-0.40129586311469	-0.55534810133482	-0.415821690350206	0.598032138287855	0.0373616163562166	-0.0516316779446861	0.997967073332516	0.94306726056173	0.332107904162666	-0.0181240737494527	-0.330496976808934	0.941827218668742	0.0611002331816933	-16.5218603021603	-86.3459701720568	-54.1098205636601
25610	1651817877387	9.71928244343781	-0.15804521075567	0.534351970852826	0.0370960027255779	-0.0512352389802038	-0.0776495957425869	-0.00361080423929437	0.00116492485729154	-0.00894264600449733	0.64404296875	0.3623046875	-0.1015625	0	0	0	-0.401282724402769	-0.555373396711601	-0.415842107770193	0.598003266484518	0.0372714632605233	-0.0516263781902628	0.997970718559104	0.943073376963267	0.332095033002269	-0.0180414721772367	-0.330489702849453	0.941832047729412	0.0610651306418203	-16.4595848581762	-86.3492487593964	-54.172745110622
25611	1651817877388	9.71928254122589	-0.157168552368672	0.534608719797651	0.0378058781190397	-0.0494406197618473	-0.0776430470373412	-0.0031243393823238	0.00422759370117877	-0.00946725989886702	0.633056640625	0.36865234375	-0.094970703125	0	0	0	-0.40129839650138	-0.555410784943438	-0.415790229309828	0.597994098753839	0.0372746903579899	-0.051509292098817	0.997976648166777	0.943051121688314	0.332156164351805	-0.0180793906288396	-0.330552838954877	0.941816901159974	0.0609569138678714	-16.5199851204626	-86.3545882542379	-54.1086272126123
25612	1651817877389	9.74857893875901	-0.203313335385855	0.582738190460844	-0.0213012137858786	-0.0208308619843285	-0.0446361879729	-0.000367705901700338	-0.00233897381599799	-0.00606000164912491	0.640380859375	0.366455078125	-0.10546875	0	0	0	-0.401291141805165	-0.555447535771134	-0.415785402924786	0.597968187472507	0.0372010674408959	-0.0514605358439926	0.997981910573487	0.943045239213848	0.332175836446761	-0.0180247184996534	-0.330577914231056	0.941812628356375	0.0608869090289627	-16.4906514692629	-86.3593334977784	-54.136653700777
25613	1651817877390	9.73132804479573	-0.152296850897567	0.555630795858683	0.032659082567266	-0.0285728064268978	-0.0644166241338482	0.00222615540295613	0.00203486381777342	-0.00566802128367449	0.636962890625	0.366455078125	-0.09912109375	0	0	0	-0.401204318818241	-0.555535942368065	-0.415812042026314	0.597925795567246	0.0369603248862659	-0.0514826533963917	0.997989714768428	0.943016330743709	0.332270880534995	-0.0177837537986681	-0.330687366458071	0.94177789225898	0.0608298225976346	-16.2964153073773	-86.3663821294233	-54.3247521985373
25614	1651817877391	9.73131369054546	-0.151765158352858	0.556027553827968	0.0325470976232757	-0.0281289978768175	-0.0644149588716658	-0.00168798390013138	0.00611093799222507	-0.00522871386686187	0.62939453125	0.36767578125	-0.09619140625	0	0	0	-0.401185424581259	-0.555543254515189	-0.415825831993583	0.597922089333611	0.0369211396190326	-0.05151118765712	0.997989692830234	0.943014613400842	0.332278265100798	-0.017736782517234	-0.33069664098943	0.941773726586039	0.0608438949324537	-16.2520868698561	-86.3663622960373	-54.3685739947933
25615	1651817877392	9.75121706322103	-0.161502512074953	0.547011766850761	0.0248240062421879	-0.042392926663614	-0.0449278600322849	-0.00437844961187833	0.00831768933759126	-0.004848391050905	0.63427734375	0.366943359375	-0.09814453125	0	0	0	-0.401113897412071	-0.555558612695051	-0.415943695769502	0.597873825412065	0.0366909396199157	-0.0516791363335786	0.997989499853392	0.9430482578494	0.332196966505013	-0.0174687953814807	-0.330626312197049	0.941793205705309	0.0609245383264975	-15.9991007125605	-86.3661878385621	-54.6261674697315
25616	1651817877392	9.7359250842282	-0.169333753094741	0.586252829438641	0.00371411842814947	-0.00752632339826933	-0.0576613197451152	-0.00260224268489237	0.00515206541839172	-0.00164453394848309	0.63427734375	0.36376953125	-0.1044921875	0	0	0	-0.40110926411567	-0.555559755651045	-0.415948191083513	0.597872744382859	0.0366809204706107	-0.0516878435254265	0.997989417231025	0.943048502571315	0.332196921149879	-0.0174564422647486	-0.330626725888017	0.94179274387215	0.0609294322830744	-15.987146747804	-86.3661131477547	-54.6381094045408
25617	1651817877392	9.77051659434582	-0.135470703958906	0.561460916062102	0.0434319614930511	-0.0215289427189527	-0.025234411696891	-0.000561018306541524	0.0108224443244797	-0.00451475703864863	0.636474609375	0.3642578125	-0.100341796875	0	0	0	-0.401040593957189	-0.555617259496149	-0.415975927435038	0.597846076129145	0.0365069774890984	-0.0517290004400358	0.997993662859683	0.94302930348484	0.332260939586052	-0.0172742812959639	-0.330700730817923	0.941767900567263	0.0609118058969086	-15.8330692730088	-86.3699531925286	-54.7880339883394
25618	1651817877393	9.74317494721781	-0.146715807083595	0.580153380703447	0.0254487847422019	-0.00695291692051208	-0.0511882232936411	-0.00056092758136964	0.0108222725831693	-0.00451461829133482	0.636962890625	0.3662109375	-0.097412109375	0	0	0	-0.401009871894265	-0.555611799009917	-0.415994901945104	0.597858556014708	0.0364875407132939	-0.051800590084942	0.997990660396954	0.943023855460578	0.332278648398058	-0.0172310142193504	-0.33071841104626	0.941757717614043	0.0609732228886174	-15.780275774694	-86.3672371346348	-54.83972140784
25619	1651817877395	9.7357686979583	-0.168085386357489	0.589201862719243	0.00110403866387223	-0.00632565073735089	-0.0576598226984402	-0.000715305446798507	0.0122359503370229	-0.00627689264054669	0.63916015625	0.374267578125	-0.103271484375	0	0	0	-0.400958476640523	-0.555608600767451	-0.41606110128657	0.597849933310653	0.0363844854988826	-0.0519322469704866	0.997987580553775	0.943036159658845	0.332250920012636	-0.0170917444005633	-0.33069467910881	0.941760249678948	0.0610627655266925	-15.6371737283622	-86.3644531830257	-54.9843567323403
25620	1651817877395	9.72777387073721	-0.153757476128187	0.621115428346772	0.00351135115175946	0.0279590400379573	-0.0639327742364593	0.00139203873743994	0.0135470311281189	-0.00535943645313184	0.643798828125	0.3603515625	-0.097900390625	0	0	0	-0.400913763415918	-0.555600697212338	-0.416082952387037	0.597872056792869	0.0363656839801016	-0.0520328081283611	0.997983027865172	0.943024674031988	0.332286262073144	-0.0170383157712785	-0.330729498526399	0.941742229548901	0.0611520391216978	-15.5690173752373	-86.3603417827219	-55.0503343116213
25621	1651817877397	9.73563815197137	-0.166960515362897	0.591673571211434	0.000222019575901473	-0.00538340103446791	-0.0576591972538249	0.00408301316871067	0.0113404826335871	-0.00573887915176578	0.638671875	0.365234375	-0.09814453125	0	0	0	-0.40083582973182	-0.555639292725871	-0.416084202672304	0.597887573268462	0.0362778253312938	-0.0521028745594208	0.997982569913863	0.942983422284925	0.332409147779514	-0.0169240588603226	-0.330856743448041	0.94169498720931	0.0611912279645942	-15.4601962415263	-86.3599284769536	-55.151546825574
25622	1651817877398	9.71564385120349	-0.156055178425738	0.602356531343504	0.00576755603776203	0.00860909339138877	-0.0771434862385885	0.00784382229575454	0.00867898797628565	-0.00793925358798596	0.640625	0.37255859375	-0.10302734375	0	0	0	-0.400774708830703	-0.555664564546522	-0.416086216703938	0.59790365840827	0.036218303952656	-0.0521663342337386	0.997981416676387	0.942951550488424	0.332503786061339	-0.0168405963775662	-0.330954087284429	0.94165806205198	0.0612330489379796	-15.3775629995676	-86.3588878758158	-55.2283319056475
25623	1651817877399	9.7229388787252	-0.133337409807727	0.59544999784511	0.0277630474479604	0.00834942830236288	-0.0706629660295395	0.00686281666539381	0.0120786956386056	-0.00814255440744624	0.639892578125	0.35986328125	-0.10107421875	0	0	0	-0.400650149802828	-0.555736418889555	-0.416103795394932	0.597908121403881	0.0360293283554932	-0.0522719182692433	0.997982732344957	0.942895436185191	0.33267417784181	-0.0166158905393222	-0.331134540510939	0.941592023095847	0.0612729803655711	-15.1724703201689	-86.360075067324	-55.4227711583115
25624	1651817877400	9.70353036376113	-0.158167485979905	0.583530245621299	0.0072276424974379	-0.0109526058579008	-0.0903494887983367	0.00927808902358635	0.0105629920213217	-0.00369967274503283	0.643310546875	0.36572265625	-0.099609375	0	0	0	-0.400592368472522	-0.555750722128964	-0.416093247022081	0.597940882493689	0.0360150892715133	-0.052339330532182	0.997979713132591	0.942857322764008	0.332784328208393	-0.0165728636383805	-0.3312445958126	0.941549353660408	0.0613337783494195	-15.1206701690328	-86.3573512597636	-55.4678455495809
