// Start Time : 06/05/2022 06:17:22																																
// Update Rate : 100Hz																																
// Filter Profile : 46.1 human																																
// Firmware Version : 4.4.0																																
PacketCounter	Time_Of_Arrival	Acc_X	Acc_Y	Acc_Z	FreeAcc_X	FreeAcc_Y	FreeAcc_Z	Gyr_X	Gyr_Y	Gyr_Z	Mag_X	Mag_Y	Mag_Z	VelInc_X	VelInc_Y	VelInc_Z	OriInc_q0	OriInc_q1	OriInc_q2	OriInc_q3	Mat[1][1]	Mat[2][1]	Mat[3][1]	Mat[1][2]	Mat[2][2]	Mat[3][2]	Mat[1][3]	Mat[2][3]	Mat[3][3]	Euler_X	Euler_Y	Euler_Z
25404	1651817877211	6.25921657560495	1.52458617459775	7.64425069510547	1.47451495458029E-15	6.07153216591882E-16	0.184148322915158	0.00825930880430553	-0.00144601130196934	-0.00913618129213887	0.195068359375	-0.24853515625	0.604736328125	0	0	0	-0.329533644925874	0.0952294498135739	-0.815097933855534	-0.46685574535879	-0.346906579774714	0.698303691498365	0.626121217775573	-0.823828922303775	-0.545954129827385	0.152446695274848	0.448287554684279	-0.462932006415822	0.764677857500144	11.2747064976479	-38.7645292556106	116.417482551286
25405	1651817877212	6.23071447865543	1.5457583345692	7.72473156167994	0.0242278866161138	-0.055883969753891	0.23116346401404	-0.000875485307526967	-0.00433759411867644	-0.00719344634422801	0.193115234375	-0.239990234375	0.611083984375	0	0	0	-0.329179533033573	0.0944510194374868	-0.815691458350492	-0.466226645241416	-0.348547100597467	0.698411499411702	0.625089030582521	-0.82277686930361	-0.547423440388308	0.152858759161449	0.448946702854636	-0.461030318312066	0.765439679918036	11.2934366502351	-38.6887223597399	116.521807847841
25406	1651817877212	6.27627944221071	1.50865637829677	7.66862582482454	0.0142748866627068	0.0219106583199954	0.211027810062246	-0.00075070190732601	-0.00753190744446807	-0.00675430834246091	0.19287109375	-0.248046875	0.609619140625	0	0	0	-0.329211690943316	0.0944605220010164	-0.815662960836903	-0.466251870396585	-0.348457711795857	0.698413745856159	0.625136355277121	-0.822803778557531	-0.547372806269963	0.15289523520239	0.448966775030675	-0.461087031432584	0.765393744659075	11.2967227737615	-38.6921962679838	116.515862929312
25407	1651817877213	6.25533554406944	1.53553085943033	7.67628107585837	0.00386164676044335	-0.0107636121989679	0.207903339592512	0.0122285194077344	-0.00279103920795742	-0.00703724475239294	0.18896484375	-0.235595703125	0.60986328125	0	0	0	-0.329251106789759	0.0944007945258156	-0.815650731536377	-0.466257528426927	-0.348395251725864	0.698443456132618	0.625137974498747	-0.822769720450447	-0.547384814356216	0.153035460342053	0.449077649950167	-0.46102776879244	0.765364397341227	11.3072389629701	-38.6923151312675	116.510786493701
25408	1651817877214	6.21695783506881	1.54169664148269	7.70508185015229	0.0262865183965157	-0.054126003559461	0.206896405335726	0.00174217643044056	-0.00951275315124489	-0.00894055355129349	0.194091796875	-0.239501953125	0.60400390625	0	0	0	-0.329298182979961	0.0944011478023228	-0.815615048663446	-0.466286631133067	-0.348278968625342	0.698448533800365	0.625197093439651	-0.822793039570476	-0.547330401840359	0.153104687242579	0.449125120704291	-0.461084674277286	0.765302259959399	11.3131168179072	-38.6966550501176	116.50298112888
25409	1651817877214	6.24159333520657	1.53100092863577	7.6567055493182	0.00595190195359406	-0.00909837013898795	0.183635597774016	0.00571199902107413	-0.0108578172171034	-0.0068412690155536	0.198486328125	-0.2392578125	0.6025390625	0	0	0	-0.329358286709428	0.0943914244944637	-0.815584129131508	-0.466300231896292	-0.348174425418589	0.698436941386797	0.625268269137889	-0.822791332793033	-0.547308705430741	0.153191395451544	0.44920929661473	-0.461127986426743	0.765226755915472	11.3204464679039	-38.7018804043846	116.496492204772
25410	1651817877215	6.25428026045739	1.5235046031777	7.71403645227833	0.0345525546992421	-0.0229750603751656	0.234288522763755	0.000773530391419683	-0.00921609988506135	-0.00702272410530345	0.196044921875	-0.2421875	0.603515625	0	0	0	-0.329400986584663	0.0943981923071371	-0.815552942352444	-0.466323245771072	-0.348075240981167	0.69843287499632	0.625328030509011	-0.822812305707439	-0.547263223485355	0.153241227471032	0.449247744782667	-0.461188121426382	0.765167942652392	11.3248816983053	-38.7062680722632	116.490108004709
25411	1651817877216	6.26435161581379	1.50589976288969	7.647217582343	0.0162996416837776	0.0237141646284273	0.186759812975257	-0.00237386888988684	-0.0149246373772754	-0.00181945656515253	0.199951171875	-0.232421875	0.6103515625	0	0	0	-0.329455460517503	0.094439062039942	-0.815523547968799	-0.46632789516026	-0.347994787461202	0.698375829805415	0.625436510161848	-0.822829688506255	-0.547239115512834	0.153233985021045	0.449278234073866	-0.461303100787681	0.765080726192432	11.3256178681721	-38.71423331467	116.486688932168
25412	1651817877217	6.23742622437364	1.56476552684267	7.68098920276895	-0.00654459929491559	-0.0435008585281444	0.204779228029713	0.00900127230638217	-0.00762313838532163	-0.00683109767608121	0.1884765625	-0.2412109375	0.61328125	0	0	0	-0.329510757325836	0.0944088797620661	-0.815499311356158	-0.466337321481198	-0.347904326800591	0.69837804611782	0.625484359591896	-0.822813011992549	-0.547232932031627	0.153345575077401	0.449378823142766	-0.461307080804886	0.765019248457251	11.3345393704667	-38.7177469958246	116.480670721674
25413	1651817877218	6.23362731946229	1.57420145679312	7.71327257187928	0.0025388061313138	-0.0667900623885486	0.228543938237173	-0.00237317422367289	-0.01492537854768	-0.00181868101321031	0.20458984375	-0.24072265625	0.609130859375	0	0	0	-0.32956475911103	0.0944494173911768	-0.815470048110247	-0.466342125205978	-0.347824183620921	0.698321671573707	0.625591863996763	-0.822830469536508	-0.547208659625678	0.153338518425733	0.449408895874091	-0.461421202201603	0.764932754213112	11.3352796888462	-38.7256418934566	116.477248490402
25414	1651817877219	6.26447869978085	1.49220562696154	7.68435334832902	0.046968357865094	0.0115268812664063	0.213145184051733	-0.00516929204341868	-0.0179493716959625	-0.00040057146740322	0.198486328125	-0.2431640625	0.606689453125	0	0	0	-0.329626079406201	0.094511686634558	-0.815437091960793	-0.466343797985256	-0.347740219711967	0.698241027519263	0.625728541049164	-0.822855094412931	-0.547182006340356	0.153301485759368	0.449428785452556	-0.461574825381742	0.764828377729576	11.3341195019602	-38.7356804287607	116.474368976159
25415	1651817877221	6.26641763412753	1.53011609025396	7.63724286720474	-0.00538315839141313	0.0127342153529909	0.184138762953767	0.00286991630850909	-0.0115640494982072	-0.000869539579948611	0.196533203125	-0.237060546875	0.605712890625	0	0	0	-0.32967568612206	0.0945237589967348	-0.815418853074333	-0.466338176665835	-0.347685293927866	0.698197512119092	0.625807614572565	-0.822846252527432	-0.547187927938223	0.153327806415655	0.449487464884012	-0.461633627013224	0.764758401930152	11.3370254878757	-38.7414887952698	116.472182353456
25416	1651817877221	6.24542070552899	1.51837324522583	7.69062671890504	0.0365281393980333	-0.0211745452296597	0.210021530674988	-0.00183466506533591	-0.0170333682951449	-0.00494523733627543	0.195556640625	-0.245361328125	0.613037109375	0	0	0	-0.329743190762173	0.0945628036270147	-0.815378374547088	-0.466353310953325	-0.347568035017705	0.698145928108773	0.625930286932236	-0.822871690490327	-0.547144931066139	0.153344727324485	0.449531580674287	-0.461762587780528	0.76465460863236	11.3397433755627	-38.7505006609141	116.466160208738
25417	1651817877222	6.31275586464391	1.54957047354511	7.6906162547668	-0.0117742701007055	0.00787708647099327	0.256941870137865	0.000853310903572197	-0.0100937166893	-0.00202835408346848	0.2060546875	-0.238037109375	0.603759765625	0	0	0	-0.329781421221614	0.0945781473117211	-0.815359367354991	-0.466356398406416	-0.347511847764898	0.698115884259282	0.625994990241861	-0.822876347607148	-0.547133367432958	0.153360995009138	0.449566493648878	-0.461821708439906	0.76459837653627	11.3417276321917	-38.7552544110967	116.463448409163
25418	1651817877223	6.25674379096673	1.50056559887752	7.62277157357336	0.0182071537401855	0.0255717436501014	0.162491867893269	-0.00650257066371164	-0.0210608317446945	0.000529763123923871	0.19482421875	-0.240234375	0.600830078125	0	0	0	-0.329851866754037	0.0946546391483407	-0.815322795370983	-0.466354998509742	-0.347421522727712	0.698015703200367	0.626156820318405	-0.822903740880406	-0.547107029305353	0.153307963686515	0.449586163922547	-0.462004303627542	0.76447649057315	11.3396681815568	-38.7671454483988	116.460786992521
25419	1651817877225	6.27440023845382	1.48351336889227	7.64690145464396	0.0375950579427712	0.0350757488740315	0.18938084288888	0.00553975633437961	-0.00534602079579179	-0.00272896695604279	0.1875	-0.240234375	0.604248046875	0	0	0	-0.329882695793492	0.0946402690840522	-0.815312092652539	-0.466354819915324	-0.34738117791553	0.698009074095384	0.626186593365367	-0.822889822479658	-0.547112802818889	0.153362058707674	0.449642810783643	-0.462007482052146	0.764441252967434	11.3440750164436	-38.7693333441791	116.458349840225
25420	1651817877226	6.29816940140078	1.52885244678417	7.70948905053343	0.0209244467232603	-0.0026516104590083	0.25906045232613	-0.00292848490146767	-0.013542587992008	-0.00346598206507798	0.18896484375	-0.23779296875	0.606689453125	0	0	0	-0.329932713609019	0.0946780684050905	-0.815280285601125	-0.466367369960441	-0.347291761453541	0.697965461096484	0.626284797470664	-0.822915029209091	-0.547075079198525	0.153361378520569	0.449665750450597	-0.462118029118429	0.764360935707341	11.3451870991819	-38.7765504258574	116.453894671635
25421	1651817877226	6.26109932417614	1.47741191145803	7.62727445792969	0.0395308242403068	0.0367347244282965	0.165113707560213	-0.00213136187458412	-0.00832625769444491	-0.00126832123097809	0.20263671875	-0.238037109375	0.610595703125	0	0	0	-0.329955348369037	0.0947074524392311	-0.815265341324019	-0.466371514750815	-0.347254156623396	0.697934603388784	0.626340035524086	-0.822931525239706	-0.547056217363002	0.153340144160405	0.449664603314987	-0.462186958315597	0.764319933070276	11.3442497414937	-38.7806102261976	116.452430512458
25422	1651817877227	6.28077166975511	1.56983036694034	7.67691491692041	-0.0203112309114344	-0.0231966529991823	0.229550040718527	0.00930226331370489	-0.00261923192785833	-0.00606751200917243	0.19287109375	-0.236572265625	0.6025390625	0	0	0	-0.329990588642248	0.0946656305391817	-0.815251275687436	-0.466379660032649	-0.347192448230747	0.697955691300951	0.626350745886162	-0.822910759884208	-0.5470568622049	0.153449244968244	0.449750247535602	-0.462154349211538	0.764289259604323	11.3525553794918	-38.7813974264447	116.447679403806
25423	1651817877228	6.26754599874079	1.5026839469278	7.7108686005411	0.0554734784135628	-0.0115790471219578	0.236913376689397	-0.00110031913176688	-0.0102215691774511	-0.00296656373717213	0.196044921875	-0.239990234375	0.60791015625	0	0	0	-0.330023833572136	0.0946936081306094	-0.815229939105637	-0.466387753097546	-0.347133466069947	0.697924223974572	0.626418497750311	-0.822928814254737	-0.547031168679658	0.153444019636674	0.449762741235373	-0.462232277196713	0.764234779707116	11.3529670802512	-38.7863773179423	116.44482785327
25424	1651817877229	6.2561589405845	1.51129231530501	7.6521964193876	0.0268761977863743	0.00229615251910956	0.186258155058681	0.00375606136803733	-0.0109874832233995	-0.00778374583660117	0.19921875	-0.2333984375	0.610107421875	0	0	0	-0.330081064783128	0.094691075633951	-0.815195433011008	-0.466408079759471	-0.347019987613438	0.697916010937281	0.626490518582814	-0.822938935220138	-0.546994206660737	0.153521486373527	0.449831787555654	-0.462288415988314	0.764160181733843	11.3596297090271	-38.7916713682018	116.437627781343
25425	1651817877229	6.28164845102919	1.53370248409129	7.72141552417202	0.0314970279742744	-0.0243224564423149	0.258560056146216	0.00644381136119336	-0.00404617963601809	-0.00486823025985323	0.194580078125	-0.234619140625	0.60546875	0	0	0	-0.330102948114852	0.0946726810547644	-0.815185262012749	-0.466414103244094	-0.346979855881782	0.697924343674727	0.626503463772117	-0.822931268163186	-0.546989935513821	0.153577792424286	0.449876769228629	-0.462280889668596	0.764138254215573	11.3640052270113	-38.7926229746006	116.434713465498
25426	1651817877229	6.29333706063568	1.49259842746862	7.66132160148585	0.0348587796644618	0.0334380489996251	0.213650787547614	-0.00675230467931942	-0.0146738582909983	-0.00034551433790725	0.202392578125	-0.234130859375	0.60546875	0	0	0	-0.330147174343926	0.0947338514148309	-0.815157037622832	-0.466419708720378	-0.346910997179838	0.697858389380168	0.626615056001218	-0.822962842817463	-0.546956305426621	0.15352836642087	0.449872114469758	-0.46242022914853	0.764056681337668	11.3616243919682	-38.8008266939305	116.432338965828
25427	1651817877230	6.25356912652122	1.5212833331332	7.68342674254354	0.0353288698002254	-0.0210347127543965	0.210026124150236	0.00657062382574297	-0.00724143412203132	-0.00442939539453306	0.193115234375	-0.234375	0.60791015625	0	0	0	-0.330179266161394	0.0947255923074929	-0.815143911336929	-0.466421609886862	-0.346865068055344	0.697848617720904	0.626651363445406	-0.82295432394007	-0.546955887985086	0.153575510114046	0.449923110399216	-0.462435469382994	0.764017428718237	11.3655911044148	-38.8034960447239	116.429634971632
25428	1651817877231	6.30769997965097	1.52289893797376	7.67178072815561	0.0108022677848154	0.0206796641886077	0.235296282009775	-0.00249672032099521	-0.0117350976388694	-0.00225562238186101	0.203857421875	-0.231689453125	0.60498046875	0	0	0	-0.330222345877119	0.0947594096587088	-0.815118091039614	-0.466429366811827	-0.346793696117861	0.697806681058085	0.626737559273108	-0.822973379263804	-0.546928600113302	0.153570581171066	0.449943273486812	-0.462531017607256	0.763947713129091	11.3662459852731	-38.8098336278201	116.426308069715
25429	1651817877231	6.2937129325365	1.51663909726467	7.65274677192584	0.0124806307339467	0.0223238959418331	0.211029292888776	0.000361187175646381	-0.0103081967795493	-0.00345640770288429	0.199462890625	-0.24267578125	0.609619140625	0	0	0	-0.330249720880461	0.0947862518365897	-0.815100157486762	-0.466435870818492	-0.346745400544346	0.697777637098577	0.626796614833287	-0.822990169947933	-0.546906289753132	0.153560054693715	0.449949783165205	-0.462601209892052	0.763901376642297	11.366158624922	-38.8141760372632	116.42407831358
25430	1651817877232	6.25429928298997	1.58353465947231	7.62890748552292	-0.0389582524561875	-0.0310153519982066	0.178388217489552	0.00590649478456214	-0.00193869905787211	-0.0017426372726626	0.19580078125	-0.239013671875	0.600830078125	0	0	0	-0.330272232576011	0.0947638130036388	-0.815095688160477	-0.466432300850259	-0.346722322225581	0.697778202307378	0.626808752056944	-0.822969626659888	-0.546921456937089	0.153616123948938	0.45000513871042	-0.462582425440585	0.763880144268537	11.3705084636099	-38.8150685312344	116.422540073901
25431	1651817877233	6.31277941237752	1.4380058246265	7.72952897423453	0.105429738331201	0.0417458530177802	0.269564579767806	-0.0178151897764654	-0.0169766236382491	0.00544886833806133	0.19482421875	-0.233154296875	0.60400390625	0	0	0	-0.330281370286666	0.094894706079664	-0.815078266573548	-0.466429663035143	-0.346715171764971	0.697669455336453	0.626933745110696	-0.82303726956422	-0.546876728397954	0.153412831422352	0.44988692198847	-0.462799281576027	0.763818422399233	11.3567459737423	-38.8242603734958	116.425627987843
25432	1651817877233	6.32146312129577	1.48141546915671	7.61001749811923	0.0133482820844028	0.0784270969252246	0.190388412157343	0.00934261276271976	-0.00493854213204128	-0.0106269440187134	0.1865234375	-0.232666015625	0.6083984375	0	0	0	-0.330328301250361	0.0948506433485601	-0.815049761377608	-0.466455201844421	-0.346605516130664	0.697704698133611	0.626955158197206	-0.823032105692946	-0.54684580025729	0.15355072041381	0.449980854244303	-0.462782697324836	0.76377313769883	11.3673443133417	-38.825835185765	116.417252489415
25433	1651817877234	6.22224647730912	1.57508548489365	7.78760726141464	0.050925449947772	-0.123953495220358	0.278205287988673	0.00627280828046146	0.0014692911423331	-0.000754765323292585	0.197998046875	-0.237060546875	0.61181640625	0	0	0	-0.330318671083597	0.0948379402590798	-0.815062040065195	-0.466443149232298	-0.346640728135646	0.697706724786052	0.626933434892341	-0.823013694364791	-0.546873107243344	0.153552152254628	0.449987404807743	-0.462747372507215	0.763790681241963	11.367193250887	-38.8242375589338	116.419505380066
25434	1651817877235	6.32881473082501	1.44941170369274	7.5827251056901	0.0252894060649377	0.112726492016162	0.169249461059437	-0.0229498010637227	-0.0242606772594675	0.000170933533621805	0.203369140625	-0.24462890625	0.60888671875	0	0	0	-0.330363851381136	0.0949882974089885	-0.815011524256967	-0.466468824664951	-0.346533122632645	0.697593536080734	0.627118851045674	-0.823116335153415	-0.546768117942082	0.153375760815342	0.449882533248491	-0.463041989046837	0.763673898111929	11.35616593917	-38.8378750268182	116.416121358768
25435	1651817877235	6.28222809869048	1.5104638717802	7.6316368706568	0.0129650980070648	0.0236258955540527	0.186764901416064	0.019443276216624	0.0113783346364936	-0.0100578905852931	0.19873046875	-0.2333984375	0.607177734375	0	0	0	-0.330344275434026	0.094890645213005	-0.81502606728907	-0.466477153543816	-0.346543449819256	0.697688916989317	0.6270070274707	-0.823075242742746	-0.546789661345438	0.153519415806961	0.449949755163105	-0.462872813368873	0.763736850278057	11.3656130897742	-38.8296500239582	116.413680641315
25436	1651817877237	6.24069364359068	1.59639559611146	7.76541387272485	0.0174310022108716	-0.113579526831276	0.276077898399862	-0.00511437942376301	-0.00656055705743346	-0.000504497823784512	0.2021484375	-0.238525390625	0.61376953125	0	0	0	-0.33035925785486	0.0949259935799094	-0.815011651482969	-0.466484538264086	-0.346509872620258	0.697661306263377	0.627056305222721	-0.823100029424153	-0.54676246260682	0.153483390130933	0.449930272085187	-0.462946553315828	0.763703632984907	11.3634967452162	-38.8332744524644	116.41237218541
25437	1651817877237	6.31038393137855	1.45241222122686	7.59659489774401	0.0351779088719541	0.0908321565348668	0.168756046714966	-0.0116891978902817	-0.0130363887186713	-0.0005180835548439	0.203857421875	-0.243896484375	0.6083984375	0	0	0	-0.33035964263432	0.095018456231672	-0.814993700015079	-0.466496804308031	-0.346486476177837	0.697603386687705	0.627133667337123	-0.823164439665145	-0.546704449091488	0.153344548694565	0.449830442607692	-0.46310232155045	0.763667998987748	11.3540004079285	-38.8389648865786	116.412726007565
25438	1651817877238	6.25705651392639	1.54576093406064	7.67224186033705	0.0110590702301292	-0.0324964043194644	0.207404940991083	0.0117950618817359	0.00911875076296601	-0.00381765746341977	0.1962890625	-0.24169921875	0.601806640625	0	0	0	-0.330351805070718	0.0949428271319668	-0.815005458577934	-0.466497210014036	-0.346496075871278	0.697666476502507	0.627058176703232	-0.823124613788757	-0.54673242525062	0.153458546046433	0.449895920831602	-0.462974235507929	0.763707088925416	11.3616551247595	-38.8334121053866	116.411294158751
25439	1651817877239	6.26681810870304	1.52291462747337	7.76972455072505	0.0695800539411672	-0.058800690436521	0.284470581831721	-0.017467250611833	-0.0142943771776575	0.00166558451266057	0.197265625	-0.2373046875	0.603759765625	0	0	0	-0.330342765388182	0.0950760853460869	-0.814988002416434	-0.466506968081102	-0.346489812174932	0.69757977014851	0.627158093576517	-0.823210557970547	-0.546663573454083	0.153242666069972	0.449743468329225	-0.463186141565099	0.763668390701904	11.3466468575605	-38.8407616732744	116.413718576099
25440	1651817877239	6.27990334356515	1.46237711282864	7.55261147642704	0.0170727181836149	0.082829425337293	0.117595651635206	-0.00225703011772605	-0.00513319309222365	-0.00170623602766574	0.192138671875	-0.244873046875	0.6005859375	0	0	0	-0.33035920106698	0.0950946367140147	-0.81497444232759	-0.466515237362565	-0.346452663157873	0.697565214392565	0.627194805351791	-0.823226767234952	-0.546641086753559	0.153235805152641	0.449742417277609	-0.463234599250037	0.763639616677232	11.3465684617611	-38.8434622655723	116.411747390485
25441	1651817877241	6.25098355587878	1.53955165524088	7.74417771068495	0.0492835016927852	-0.0684015474390716	0.257575566652754	0.010182000505813	0.00172474443860084	0.00111785006589507	0.199462890625	-0.248291015625	0.609619140625	0	0	0	-0.330345406544528	0.0950760865546355	-0.814997397661214	-0.466488683620337	-0.34652044085819	0.697558229446853	0.627165130247543	-0.823190023309068	-0.546697691639241	0.153231261434284	0.449757456404962	-0.463178313921645	0.763664900280772	11.3458748325526	-38.8412792970596	116.416441338152
25442	1651817877239	6.27718571936627	1.50416141830988	7.70273487858829	0.0505485750486548	-0.0122912148569489	0.236938509434418	-0.0204519287105286	-0.0125272007840968	0.00242898124467947	0.197509765625	-0.23583984375	0.609130859375	0	0	0	-0.330347438941162	0.0951929787280065	-0.814972654393909	-0.466506633367684	-0.346484261217929	0.6974867851201	0.627264570425506	-0.82327381203201	-0.546619715649677	0.153059194056904	0.44963194631893	-0.463377892271409	0.763617732771808	11.3341461080159	-38.8485946077337	116.416395954436
25443	1651817877240	6.30813680172	1.45979948373704	7.62805118494547	0.0417004863339812	0.0671347484466141	0.192537436520498	0.00309051991986526	-0.00568534014341119	-0.00509898818167091	0.1884765625	-0.235595703125	0.612060546875	0	0	0	-0.330339036973697	0.0952102096655997	-0.814969012469975	-0.466515428834286	-0.346478950621707	0.697487938736173	0.627266221068571	-0.823294534620165	-0.54659674126999	0.153029773892512	0.449598093902373	-0.463403256085444	0.763622273253447	11.3319582626807	-38.8487160435377	116.416008296524
25444	1651817877241	6.27235436863106	1.57436930355377	7.68228312246789	-0.0152324914347805	-0.0456196838995425	0.229037031862823	0.00444553105544503	-0.00185277736267889	-0.00125414863463987	0.197265625	-0.245849609375	0.603515625	0	0	0	-0.330357342904553	0.0951947433337824	-0.814965165378407	-0.466512342870373	-0.346460519877279	0.697486052384385	0.627278498671534	-0.823279182249302	-0.546608389582422	0.153070756557326	0.449640407705187	-0.46339235553401	0.763603973661318	11.3351791079594	-38.8496192983699	116.414855668912
25445	1651817877242	6.28962070562685	1.46234423871299	7.64209823065223	0.0519104361129324	0.0455307854094473	0.192045350353389	-0.0150809067450795	-0.0123587465674285	0.00381242031206559	0.19140625	-0.2314453125	0.6005859375	0	0	0	-0.330328107528912	0.095311011615087	-0.814963644135757	-0.466511962524268	-0.346499860396247	0.697412765836446	0.627338250701916	-0.823348390210357	-0.546564799773329	0.152854008736287	0.449483342387005	-0.463554046144674	0.763598304882552	11.3196250690665	-38.8540153780273	116.419846658928
25446	1651817877244	6.28560350932827	1.47095362133664	7.67480120131233	0.0609948099299684	0.02219780895939	0.215815833750753	0.0063132937879519	-0.00084898929792933	-0.00531238736554328	0.19775390625	-0.236328125	0.60986328125	0	0	0	-0.330348403565736	0.0952788725995857	-0.814952993353156	-0.466522761848178	-0.346452889878236	0.697437795557476	0.627336366252544	-0.823338689384741	-0.5465568982274	0.152934494350554	0.449537315088787	-0.46352570406394	0.763583737395443	11.3256419146049	-38.8538767310654	116.415932389538
25447	1651817877244	6.25817105591987	1.52982945806309	7.70912540204657	0.0373347216867198	-0.0449953179795257	0.233818453334777	-0.00026090889278006	-0.00732587652760529	-0.00532515985656653	0.184814453125	-0.232421875	0.608154296875	0	0	0	-0.330347353149608	0.0953050175630795	-0.814942682451254	-0.466536176746781	-0.346429244107088	0.697432966089468	0.627354793270155	-0.823368007264829	-0.546521898827594	0.152901728945835	0.449501839195499	-0.463574235601514	0.763575159788698	11.3234020642874	-38.855232496791	116.414532369955
25448	1651817877245	6.32038355885736	1.47551222039979	7.67774755817222	0.0468529435610748	0.0422531725008408	0.240581343514112	-0.00324589873977122	-0.00555827188111019	-0.00456184201181716	0.195068359375	-0.236083984375	0.612548828125	0	0	0	-0.33036419107943	0.09532383684448	-0.814921490765863	-0.466557425479035	-0.346367339965618	0.697432180899087	0.627389845990103	-0.823398509897944	-0.546475069719244	0.152904846467314	0.449493670370327	-0.463630619374616	0.763545734763362	11.324052079818	-38.8578115680204	116.410478797949
25449	1651817877246	6.30189634497594	1.51650573816772	7.64603574240892	0.00473893544745462	0.0219589311817429	0.211036748718547	0.00532402762352891	-0.0012733750723438	-0.00816853660956537	0.199951171875	-0.236083984375	0.606689453125	0	0	0	-0.330336519858631	0.0953039520224239	-0.814924046870285	-0.466576615583285	-0.346368090877071	0.697484255812622	0.627331537957152	-0.823413759172067	-0.546446837039509	0.152923626348711	0.449465156411815	-0.463585555408092	0.763589880753191	11.3247691208393	-38.8535214940538	116.408824098534
25450	1651817877247	6.27830096821338	1.52856091886743	7.69349625814841	0.0250326689239553	-0.0230429477859527	0.234316596867726	-0.000260473741276197	-0.0073262926705035	-0.00532506762743724	0.1982421875	-0.23193359375	0.609619140625	0	0	0	-0.330367674213952	0.0953130801315265	-0.814899772085293	-0.466595090035935	-0.346292443577644	0.69747974384236	0.627378315253739	-0.823433186263242	-0.546408877420397	0.152954654837786	0.449487854431451	-0.463637083941499	0.763545233180611	11.3276527511663	-38.8569631616112	116.403986666132
25451	1651817877248	6.29351358782071	1.44071103186082	7.64670564798899	0.0708078249849885	0.0568638308852939	0.194700986646543	-0.00178518534937423	-0.00564363975599549	-0.00505303111216275	0.189697265625	-0.23486328125	0.602294921875	0	0	0	-0.330358447179022	0.0953455354897611	-0.814890913157745	-0.466610463762411	-0.346275942969787	0.697476847708921	0.627390642447281	-0.82346965990832	-0.546367807939197	0.152904995530535	0.44943374431707	-0.463689837453598	0.763545050479273	11.3240727204346	-38.8578701699745	116.402993993497
25452	1651817877249	6.28532206207807	1.4970018755716	7.66637914275969	0.0367273089514476	0.0113396609578716	0.213188143608924	0.00581829001782392	-0.0010609183970558	-0.0067410621048276	0.20068359375	-0.24365234375	0.6015625	0	0	0	-0.330379138649713	0.0953127564139257	-0.814876512555553	-0.46662765937646	-0.346216504499841	0.697509146736574	0.627387537516269	-0.823466532202025	-0.546348211939253	0.15299183525258	0.449485263779674	-0.463664341447126	0.763530206419706	11.3305522930941	-38.8576417147449	116.398020030578
25453	1651817877250	6.28091747158192	1.5066244405445	7.69921066964071	0.0447445369818017	-0.0122872544781055	0.236966031923279	8.22667581637844E-05	-0.00464040132610676	-0.00911100293195465	0.1923828125	-0.23974609375	0.60302734375	0	0	0	-0.330365814730146	0.0953455398226785	-0.814863547146145	-0.466653036019279	-0.346186744863352	0.697519282545566	0.627392690551967	-0.823514910323185	-0.546288344019823	0.152945211312667	0.449419548035367	-0.463719630450555	0.763535312987217	11.3271148155257	-38.8580208662289	116.395727109268
25454	1651817877251	6.28751383541648	1.47492177435736	7.67247450478979	0.0572306478923374	0.0221539733189716	0.215838118405989	0.00197281062075219	-0.00291467233730223	-0.00839422045281678	0.191650390625	-0.2373046875	0.611083984375	0	0	0	-0.330385767229875	0.095330210227578	-0.814840408140104	-0.466682445665103	-0.34610547943993	0.697551939702702	0.627401218136094	-0.823534918287596	-0.546239291852008	0.153012660907716	0.449445475516996	-0.463728290547402	0.763514791659786	11.3322775974207	-38.85864831561	116.389302810978
25455	1651817877252	6.30499260208334	1.49661795372267	7.6509471955425	0.0231172592475113	0.032722658980444	0.213687094733025	0.00538830928196381	-0.00287147297915211	-0.00794957289848018	0.195068359375	-0.240234375	0.605224609375	0	0	0	-0.330360518889429	0.0953318763203291	-0.814842883285071	-0.466695657228589	-0.346114182166165	0.697579493649756	0.62736578081913	-0.823555046161303	-0.546213993762441	0.152994637031294	0.449401890122528	-0.463716640910625	0.763547521832705	11.3305041174562	-38.8560409167574	116.388975323083
25456	1651817877253	6.27109688963572	1.49368668827015	7.64696823929543	0.0364457935015272	0.0127034143326919	0.18893198736429	0.00551775253655571	-0.00606770438730945	-0.00751051330883131	0.1904296875	-0.233642578125	0.605712890625	0	0	0	-0.330400882637829	0.0953108517599365	-0.814818448253232	-0.466714039509349	-0.346026524154018	0.697592839809118	0.627399294252821	-0.823555997994903	-0.546187693723322	0.153083380521261	0.449467643716995	-0.463727541852162	0.763502196577878	11.3375617294648	-38.8585067581097	116.382761160536
25457	1651817877254	6.27132109173432	1.4945430472059	7.64661704193866	0.0352944914122123	0.0126256181476016	0.188936214940909	0.00343328074219908	-0.00300000764334232	-0.00888577573340498	0.19873046875	-0.23974609375	0.603515625	0	0	0	-0.330380388846444	0.0953180907255586	-0.814814619011233	-0.466733753752271	-0.346016803547974	0.697620515730657	0.627373881903076	-0.8235854272427	-0.546148129377498	0.153066210546023	0.449421200763718	-0.46373250566372	0.763526520492213	11.3359712341927	-38.8566369680416	116.381215572499
25458	1651817877255	6.2864182291297	1.50176722112651	7.66454814768604	0.0331452821306633	0.0109909166510693	0.213201013955826	0.00558291796004884	-0.0076660215447909	-0.00729088688361936	0.192138671875	-0.240478515625	0.607421875	0	0	0	-0.330427123017694	0.0953007972455979	-0.814788203229415	-0.466750316868435	-0.345924116154931	0.697625367565673	0.627419598348098	-0.823585240586295	-0.546123799495139	0.153153998032725	0.449492889099309	-0.463753859449011	0.763471348837206	11.343102622763	-38.8600007283238	116.374947206222
25459	1651817877256	6.27000765882098	1.51972540948894	7.63918043870368	0.0124058127807991	0.00120635322039091	0.186286770177407	0.00250877779109018	-0.00502431116433423	-0.0115216250602496	0.19482421875	-0.2421875	0.609130859375	0	0	0	-0.330413922422181	0.0953272799104588	-0.814773714148255	-0.466779545725302	-0.345886991124139	0.697644487379976	0.627418806380093	-0.823634329256183	-0.546059130794707	0.153120597394492	0.449431508732762	-0.463801245043672	0.763478699148924	11.3405866191237	-38.8599424549293	116.371874898662
25460	1651817877257	6.27216664859746	1.49718289312044	7.64540700504701	0.0339654287729831	0.0123223336623956	0.18894119498607	0.00300358035297397	-0.0048116274391284	-0.0100939111225014	0.19189453125	-0.232177734375	0.611572265625	0	0	0	-0.330444198326679	0.0953093824736479	-0.814744276790117	-0.46681314981744	-0.345784229899517	0.697677819319222	0.627438384849678	-0.823655549257284	-0.546003209540025	0.153205846329942	0.449471692690964	-0.463816941909162	0.76344550680946	11.3472171967926	-38.8613830623329	116.364010993105
25461	1651817877258	6.28269610397878	1.51332871603128	7.69644413510677	0.0396299543725363	-0.0126073279094563	0.236987105872352	0.00300368193312946	-0.00481185902810991	-0.0100939065911868	0.196044921875	-0.240478515625	0.605224609375	0	0	0	-0.330422776982801	0.0953175994021886	-0.814737655358396	-0.466838191064401	-0.345765783629385	0.697711094659519	0.627411548554993	-0.82369151821874	-0.545953317215845	0.153190268083594	0.449419965828917	-0.463825617888914	0.763470687390356	11.3457288135103	-38.8594084228204	116.361707621745
25462	1651817877258	6.28298036812717	1.51402057017801	7.69607600262289	0.0396061387116149	-0.0125876834572425	0.236987224383762	0.000642842587348414	-0.00602831975649208	-0.00746289967796516	0.19775390625	-0.239013671875	0.603515625	0	0	0	-0.330451035168904	0.0953162567841731	-0.814711383956361	-0.466864311551402	-0.34567965591087	0.697724627322243	0.627443957590939	-0.823714050213264	-0.545905051584578	0.15324111111481	0.44944492317814	-0.463862069027504	0.763433849096907	11.3499301173691	-38.8617931166918	116.355587026289
25463	1651817877259	6.27496917594212	1.47596569089552	7.65085608282603	0.0530857046187518	0.023104820407206	0.191609698616437	0.0035637354323578	-0.00619711359241871	-0.00844660546437681	0.1982421875	-0.236083984375	0.609130859375	0	0	0	-0.330450134799489	0.09534630083042	-0.814699481411765	-0.466879584385906	-0.345652324189287	0.697718714637786	0.627465589516062	-0.823747506485965	-0.545865073203198	0.153203679508757	0.449404624298302	-0.46391800687305	0.76342358265791	11.3473782871454	-38.8633848629503	116.353978047183
25464	1651817877259	6.3029840050713	1.51306250066523	7.68047275211905	0.0271963230052151	0.00871542083490176	0.237477387215666	0.00452947954855121	-0.00649482659144947	-0.0103661409346127	0.19580078125	-0.235107421875	0.612548828125	0	0	0	-0.330490710799947	0.0953256820314719	-0.814667474970145	-0.466910922602961	-0.345540160857995	0.697745779881729	0.627497270027105	-0.823762789530012	-0.545814409398573	0.153301980021851	0.449462861446821	-0.463936910743396	0.763377808840361	11.3551332143456	-38.8657160806217	116.345698048094
25465	1651817877260	6.28396283475275	1.51625080862586	7.69483469490429	0.0373628473450592	-0.0129714289190728	0.236995326914915	-0.000387882957668048	-0.00413350124367783	-0.00576289041524633	0.1962890625	-0.23046875	0.610107421875	0	0	0	-0.330467449962284	0.0953506783300489	-0.814665615260017	-0.466925527220823	-0.345543633089964	0.697755752788109	0.627484268394108	-0.82379693486773	-0.545777600343112	0.153249538551502	0.449397605393623	-0.463965214660339	0.763399025314851	11.3510424325892	-38.8647593432275	116.345601337972
25466	1651817877260	6.29709737302309	1.45210802310774	7.64159772704172	0.0623595939815693	0.0559178371738353	0.194762526982361	0.00154334868841793	-0.0047286217927881	-0.00960205610700149	0.190185546875	-0.232177734375	0.60498046875	0	0	0	-0.330493584434393	0.0953390497785909	-0.814636908006341	-0.466959488980458	-0.345445652597632	0.697786979938732	0.62750349140812	-0.823822757130314	-0.54571860247685	0.153320813149821	0.449425595550147	-0.463987648045396	0.763368912470044	11.3566208535736	-38.8661738913503	116.338120365436
25467	1651817877261	6.28231866230469	1.54110061992015	7.68771275228299	0.0150029953677481	-0.0237537309421638	0.234334924819921	0.00678310614326382	-0.00135834489956743	-0.00866242844807185	0.197998046875	-0.242919921875	0.603271484375	0	0	0	-0.330482429334802	0.0953014921869892	-0.814636791852482	-0.4669752529291	-0.345430954105541	0.697839506526951	0.627453168830916	-0.823821381155703	-0.545703477477473	0.153382028346559	0.449439415156756	-0.463926435762412	0.763397978975802	11.3606158997399	-38.862470904843	116.335436275127
25468	1651817877263	6.28905920437807	1.50938546318822	7.66088422030872	0.0274959517508042	0.010710387360581	0.213218402435574	-0.00459580676117188	-0.00940052813276737	-0.0084019448384982	0.193115234375	-0.235107421875	0.606201171875	0	0	0	-0.330512690077182	0.0953271235519936	-0.814600373813012	-0.467012132815572	-0.345322059001991	0.697842867848575	0.627509368344013	-0.823870164018532	-0.545624814636707	0.153399851671167	0.449433675203253	-0.46401389359106	0.763348202426496	11.3626233088601	-38.8666063582162	116.328144923937
25469	1651817877264	6.29131121301992	1.48624659663017	7.66717443021867	0.0478397726437684	0.0214896231678795	0.215888758715925	-0.00101390271690702	-0.00115140001857498	-0.00762991917475853	0.1923828125	-0.232177734375	0.6064453125	0	0	0	-0.330475795861916	0.0953636662888719	-0.814598767500661	-0.467033582826526	-0.345330761723304	0.697859194877562	0.627486421472564	-0.823920728930062	-0.545570807328327	0.153320339911157	0.449334282519104	-0.464052840004195	0.763383039002756	11.3563820167112	-38.8649177786415	116.328186039986
25470	1651817877264	6.28469376075791	1.51923161670418	7.69364972488226	0.0353043519370508	-0.0129175259858927	0.237002838621249	0.00274087445104772	0.00157918758372562	-0.0109733210527417	0.196044921875	-0.245361328125	0.60595703125	0	0	0	-0.330479537618405	0.0953297577266328	-0.814578014171773	-0.467074053374064	-0.345250207760494	0.697927441227667	0.627454843652305	-0.823945578246756	-0.545508131913007	0.153409784904357	0.449350618258121	-0.464023883866104	0.763391025014613	11.3627190941668	-38.8625941434612	116.320646259363
25471	1651817877265	6.29112607258772	1.48742360618373	7.66709809634897	0.0464751514798425	0.0213848620431298	0.215895399522909	-0.00429751891909869	-0.00439371046094125	-0.00763370658909529	0.19140625	-0.243408203125	0.6123046875	0	0	0	-0.33043958133782	0.0953808285713903	-0.814573637335054	-0.467099528992548	-0.345255426200452	0.697938722536332	0.627439423580872	-0.824009126779471	-0.545441055111949	0.153306928683924	0.44923006317841	-0.464085762529638	0.763424361252642	11.3548157893261	-38.8614594942422	116.32062237171
25472	1651817877266	6.2910980013019	1.48792329242576	7.66702417730578	0.0464465282703423	0.0214136499307695	0.215895470701355	0.00323554346761972	0.00179278973872506	-0.00954578274097639	0.19580078125	-0.23583984375	0.61181640625	0	0	0	-0.330442655321062	0.0953468591216973	-0.814556925189429	-0.467133432357325	-0.345188015836861	0.698000206018941	0.627408117671526	-0.824026883237728	-0.545390665659383	0.153390734769513	0.449249295407491	-0.464052512340071	0.763433255999987	11.3607326592799	-38.8591559791785	116.314170678755
25473	1651817877268	6.30333291828812	1.5186699334004	7.67907956839231	0.0210518843200928	0.00875654142334223	0.237492100381322	0.00191598873893889	0.00935555555291566	-0.0134998618859924	0.194091796875	-0.241943359375	0.604248046875	0	0	0	-0.330345874614118	0.0953276561001256	-0.814572415369151	-0.467178789359659	-0.345231163795753	0.698119713857247	0.627251391922015	-0.824084105574487	-0.545313233509799	0.153358613382445	0.449111156044613	-0.463963729706281	0.763568482215779	11.3564561962004	-38.8476250886842	116.313118649623
25474	1651817877269	6.28983416203175	1.48953835956414	7.66774746432347	0.0447498209582118	0.0215461051522061	0.215902901622353	-0.00366120317963663	0.00329796070444593	-0.0106524913952704	0.192138671875	-0.242431640625	0.599609375	0	0	0	-0.330326809770944	0.0953163060470927	-0.814552558463244	-0.467229205047234	-0.345162137394961	0.69819442612857	0.627206219860692	-0.824136551311318	-0.545223343504934	0.153396383562284	0.449067972251004	-0.463956947377984	0.763598001096175	11.3587527297426	-38.844301960779	116.306130600548
25475	1651817877271	6.25266163310954	1.47177563182554	7.7040978496182	0.0871361646699551	-0.0112205313197125	0.217631972758363	0.00254303098850637	0.00637291743554032	-0.0116324899190421	0.19482421875	-0.231689453125	0.610107421875	0	0	0	-0.330257599441121	0.0953316666460351	-0.81456051224001	-0.46726112961081	-0.345193909532435	0.698256915416773	0.627119163233247	-0.824192944925736	-0.545157820178638	0.153326255523049	0.448940034254416	-0.463939900386602	0.763683582691755	11.3524554664925	-38.8378979906026	116.306188607115
25476	1651817877272	6.2994685320844	1.544475748011	7.67357008733682	-0.00223890468131881	-0.00279277807175892	0.234818499947668	0.00350907857676543	0.00607516132573556	-0.0135520474041966	0.199462890625	-0.23828125	0.599853515625	0	0	0	-0.330244843135684	0.0952804588284478	-0.814542008176499	-0.46731284453086	-0.345114097837527	0.698360125302284	0.627048159922001	-0.824223646021071	-0.545080679003833	0.153435441526564	0.448945030948691	-0.463875186622973	0.763719955495456	11.3598026023648	-38.8326753446257	116.297561985398
25477	1651817877273	6.26890578226132	1.49434828459714	7.68335162933967	0.0536438097891506	-0.000822932444552796	0.215436611330265	-0.00694346712737484	5.35962852571875E-05	-0.0106569252488979	0.19775390625	-0.22900390625	0.610107421875	0	0	0	-0.330212438880261	0.0953139114068915	-0.814524298480009	-0.467359787194746	-0.345069149044064	0.69840412731536	0.627023888960282	-0.824299483894907	-0.544980175211202	0.153385036680106	0.448840331552988	-0.463927023976442	0.763750007002138	11.3557325701411	-38.8308901828027	116.29316431922
25478	1651817877274	6.31109419783092	1.44298791859174	7.66730325227635	0.0743219683746674	0.0647735291363638	0.221750529544607	0.00058799250151099	0.00624204749102427	-0.0125679934501548	0.190673828125	-0.24267578125	0.607177734375	0	0	0	-0.330191947771319	0.0952757164369549	-0.814506872770614	-0.467412419276427	-0.344997815866282	0.698502707066727	0.626953327822693	-0.824339804609231	-0.544896336327166	0.153466182574687	0.448821115350326	-0.463877085958863	0.763791630968816	11.3609808628022	-38.8257005706364	116.285249377889
25479	1651817877274	6.26788635120079	1.4955891933956	7.68394185831124	0.0524820367193749	-0.000650893378858	0.215442771389137	-0.000805891739824275	0.00472712090825649	-0.0118563328840309	0.201904296875	-0.236083984375	0.600830078125	0	0	0	-0.330128539260586	0.0952653517136442	-0.81450995406355	-0.467453949667709	-0.345003905011461	0.698592167334599	0.626850292546467	-0.824391412948084	-0.544822635405869	0.153450624654528	0.448721632846361	-0.463828933647041	0.763879320657095	11.3585889144072	-38.8181232383804	116.282737560113
25480	1651817877276	6.27398570449051	1.46374176098195	7.65770849956519	0.0649618157301536	0.0338214020597939	0.194338774151369	-0.00260499201505051	0.00212562932860679	-0.00757780114067773	0.186767578125	-0.243408203125	0.613525390625	0	0	0	-0.330114835654108	0.0952576836430568	-0.814496012044311	-0.467489481541494	-0.344955559858253	0.698644687615181	0.62681836459214	-0.824428585937656	-0.544759116710049	0.153476419850492	0.448690504035595	-0.463824433625886	0.763900337976042	11.3601442219411	-38.8157753836643	116.277839901969
25481	1651817877277	6.30357446490283	1.51547479562101	7.64840344924106	0.00685465936506573	0.0314057139306285	0.21371561321957	0.00977930964239478	0.00755421874261757	-0.0143108818021321	0.20751953125	-0.241455078125	0.608154296875	0	0	0	-0.33005515451791	0.0952224989149407	-0.814505280506514	-0.467522639776469	-0.344972352545201	0.698741964522653	0.626700680544112	-0.824456670894463	-0.544710513993672	0.153498057845597	0.448625984308812	-0.463734970602578	0.763992541353106	11.3603686431784	-38.8071220353506	116.27578047375
25482	1651817877279	6.24508187066654	1.52419475110315	7.69277262712793	0.0404495712776771	-0.0335978687744674	0.212291583212927	0.000294365046230884	0.00123273776977437	-0.0133362730446048	0.197998046875	-0.236328125	0.6083984375	0	0	0	-0.330054264213288	0.0951957930234018	-0.814477915632877	-0.467576377302783	-0.344873028126061	0.698821711524406	0.62666642639706	-0.824500821214564	-0.544620184758103	0.153581412190932	0.448621210251668	-0.463720896505808	0.764003887330541	11.3662127376777	-38.8046035136875	116.266636753986
25483	1651817877277	6.28071164099774	1.50554298364291	7.70318897733098	0.0478556316650097	-0.00338915479637901	0.239716184415926	0.00058818272588624	0.00624022946722411	-0.0125681296213805	0.197509765625	-0.23876953125	0.606201171875	0	0	0	-0.330024844099871	0.0952193306290149	-0.814459722719677	-0.467624038538231	-0.344822721716102	0.698872400037537	0.626637581903665	-0.824571379022076	-0.544522075311515	0.153550481588542	0.448530190161077	-0.463759720075185	0.764033762702837	11.3635504071787	-38.8024828035633	116.261670835195
25484	1651817877278	6.25058029574061	1.49353428997849	7.66680978414894	0.0521515761994498	-5.39516334346762E-05	0.191194440345145	0.000722179349105477	0.00304426390004549	-0.0121284264429793	0.186767578125	-0.23681640625	0.60888671875	0	0	0	-0.33001758039286	0.0951890283645281	-0.814437986371787	-0.467673189166674	-0.344740369532628	0.698953515288338	0.626592420222733	-0.824609726571574	-0.544441674027378	0.15362962743501	0.448522994347069	-0.463731869778583	0.764054891021318	11.3689489075588	-38.7991625449558	116.253602772715
25485	1651817877279	6.26495776181704	1.50083853475862	7.68530655121486	0.0484879191933589	-0.00147309345620763	0.215462792027196	0.00218296584683719	0.00296108142796605	-0.0126201052558048	0.19775390625	-0.239990234375	0.608154296875	0	0	0	-0.329951046348369	0.0951739802084728	-0.814445381322446	-0.467710317768839	-0.344758731332376	0.699043507497521	0.626481916575135	-0.824654524917219	-0.544377944287697	0.153615000265784	0.448426506468614	-0.463671034677242	0.764148441009788	11.3665391778138	-38.791039037966	116.251887071566
25486	1651817877280	6.26467229571093	1.50166531008763	7.68537774764644	0.0484339474247748	-0.00144141963437085	0.215463057447945	0.00184470600427177	0.000276999923281821	-0.00883331083534425	0.190185546875	-0.2373046875	0.606689453125	0	0	0	-0.329955610636318	0.0951508666670963	-0.81442760261437	-0.467742758021892	-0.344692014655378	0.699094101484572	0.626462171485475	-0.824676350739439	-0.544326049781149	0.153681710234932	0.448437656273311	-0.463655679140383	0.764151215164231	11.3713065111045	-38.7895876053256	116.245843699342
25487	1651817877281	6.26445135187505	1.50227317211846	7.68543904830582	0.0469757305759541	-0.00146176864654961	0.215469991372403	-0.00213183663086659	0.00161115549396897	-0.0109252606660972	0.193359375	-0.244384765625	0.609619140625	0	0	0	-0.32989059902713	0.0951712203604012	-0.814429792420373	-0.467780658756581	-0.344706895933561	0.699156827829104	0.626383976483908	-0.824741191408447	-0.544247388216742	0.153612328975998	0.448306951864483	-0.463653437946058	0.764229262977267	11.3651758888132	-38.7838398954275	116.2447858619
25488	1651817877282	6.2642988895409	1.50275371425779	7.68546937222103	0.0469143816938555	-0.00142769914421	0.215470283474726	0.00143942653458246	-0.000809051710196065	-0.00526637932408116	0.197998046875	-0.234130859375	0.6103515625	0	0	0	-0.32989659328979	0.0951582332885259	-0.814418538236388	-0.467798667110224	-0.344665289571378	0.699183059342959	0.626377591946342	-0.824752567284398	-0.544218635374608	0.153653114738338	0.448318013158597	-0.463647631762332	0.764226296746395	11.3681578786549	-38.7833706215715	116.241190391478
25489	1651817877283	6.27899467971861	1.50963493088689	7.70378782901883	0.0432807490672458	-0.00316088857502698	0.239736996998745	-0.00451314216330921	-0.000333602540003015	-0.0130691062068892	0.19384765625	-0.2412109375	0.603271484375	0	0	0	-0.329836318287933	0.0951927192786029	-0.814409199084667	-0.467850409619227	-0.344647994714766	0.699247322669514	0.626315369026346	-0.824839386888198	-0.544108680830933	0.153576460703858	0.448171558197296	-0.463679765769371	0.764292698669213	11.3616726211635	-38.7787972978403	116.237961937171
25490	1651817877283	6.2641080753974	1.50376332754273	7.68542742253108	0.0453960535996297	-0.00147069949289307	0.215477265457425	0.00240629830554578	-0.00110620285472095	-0.0071857484805797	0.203369140625	-0.24072265625	0.60888671875	0	0	0	-0.329846475715613	0.0951733703663552	-0.814393528946441	-0.467874461839136	-0.344589580833459	0.699282666567544	0.626308049620319	-0.824853069756819	-0.544071035063696	0.15363633072119	0.448191291854019	-0.463670638538721	0.764286664062197	11.3660739785156	-38.7782593479386	116.232962673617
25491	1651817877285	6.28082727742652	1.48738759711933	7.71029376858766	0.0634775144326508	0.00718437568919851	0.242443771421	-0.000109734388064407	0.000144624563127383	-0.00976932851428164	0.197509765625	-0.24462890625	0.607421875	0	0	0	-0.329814193154636	0.0952255829618174	-0.814381428177041	-0.467907657325313	-0.344570044420189	0.69929711483066	0.626302666190864	-0.824924110079586	-0.54398902513184	0.153545280440375	0.448075548426459	-0.46374506544612	0.764309372686678	11.3591844949504	-38.7778636879111	116.231205340289
25492	1651817877286	6.27871119663921	1.51133936394065	7.70368468717812	0.0418322919871333	-0.00389372053819113	0.239742871835761	-0.00150284567295276	-0.00137082095637384	-0.00905779918084696	0.194580078125	-0.248291015625	0.605712890625	0	0	0	-0.329817216925069	0.095220332578747	-0.814358916926851	-0.467945772611657	-0.344494714629363	0.699341014957451	0.626295087311656	-0.824962235300658	-0.543919684316945	0.15358609097277	0.448063278924054	-0.463760198605742	0.764307383366789	11.3621539141533	-38.7773066750344	116.224813044542
25493	1651817877286	6.28321095009505	1.5030390428903	7.67054256840099	0.0303634056221415	0.0185296075302841	0.215962805095666	0.00141867599414713	-0.00153578717985862	-0.0100411417333123	0.19921875	-0.23486328125	0.603759765625	0	0	0	-0.329751148063056	0.0953037133462883	-0.814359468086349	-0.467974400273802	-0.344528282078944	0.69934574958878	0.626271335269178	-0.825051785151224	-0.543834325821568	0.153407228894139	0.447872542880796	-0.463853154123487	0.76436276514701	11.3484645020729	-38.7755610369824	116.2268723311
25494	1651817877287	6.2490063243657	1.49995803365827	7.66683877809705	0.0436772121539378	-0.00148001318425123	0.1912349195755	0.0042725335718366	-0.000102939388752946	-0.0112443678279573	0.1982421875	-0.247802734375	0.607421875	0	0	0	-0.329762902612238	0.0952695743442929	-0.814336761494955	-0.468012580111816	-0.344441305835667	0.699406954921496	0.626250826938905	-0.825072440387121	-0.543775866122677	0.153503340472361	0.447901389758797	-0.463829407034498	0.764360272530019	11.3554258596072	-38.7740538274284	116.219150519985
25495	1651817877288	6.2612563614502	1.49281934582244	7.72464586636395	0.0707938557540069	-0.0162244236839817	0.241999083366039	0.00294746555774775	-0.00321635566640617	-0.0103128879080343	0.202392578125	-0.240966796875	0.61669921875	0	0	0	-0.329753665566816	0.0953187591756877	-0.814317671677867	-0.468042288460769	-0.344397872515309	0.699406792701381	0.626274894698883	-0.825133633643235	-0.543701500723226	0.153437820442101	0.447822053987563	-0.463916820598778	0.764353708388911	11.3507998043862	-38.7758226318031	116.216292146005
25496	1651817877289	6.26135032426785	1.4937645596468	7.72438697662836	0.0706964081039415	-0.016223516637083	0.24199977047474	0.00440831652715793	-0.003298831048016	-0.0108045881734232	0.196533203125	-0.243408203125	0.599609375	0	0	0	-0.329778587054183	0.0952929736019269	-0.814290611193783	-0.468077059066458	-0.344299900592485	0.699450344644758	0.626280124088521	-0.825152673407298	-0.543646231915597	0.153531234909256	0.447862304755371	-0.4639159297764	0.764330665405297	11.3578642344436	-38.7762069595051	116.208418486342
25497	1651817877290	6.26597850209911	1.4859279087499	7.69105356514274	0.0602242033468193	0.00632591431097849	0.218220184214564	0.00636307459902734	-0.0031662351782841	-0.00986865815345014	0.200439453125	-0.237060546875	0.60986328125	0	0	0	-0.329768619480419	0.0953315470032266	-0.814275723418163	-0.468102125613394	-0.344266115204402	0.699453688638479	0.626294961956502	-0.825203099231226	-0.543584592284388	0.153478454677507	0.447795362795608	-0.463983112280007	0.764329107503901	11.3540836609233	-38.7772974620418	116.206082160007
25498	1651817877291	6.27054445860828	1.47795023039571	7.65779807568777	0.0511069990289253	0.0296596447062901	0.194432323228265	0.00141894314754112	-0.00153737429650855	-0.0100410585796597	0.1982421875	-0.235107421875	0.607666015625	0	0	0	-0.329779036919147	0.0953157425954573	-0.814251766609856	-0.468139676373287	-0.344182060427589	0.699500849421503	0.626288488588458	-0.825233384606956	-0.543520305237182	0.153543279647884	0.44780416502079	-0.46398732682421	0.764321392044313	11.3588663425202	-38.7768217026736	116.199008951243
25499	1651817877293	6.28319370415091	1.50884203148116	7.66941733142527	0.0268863126253589	0.0167407009060073	0.215975875534241	0.00719398894686452	-0.000268330261357941	-0.0122280948029204	0.19921875	-0.238525390625	0.607666015625	0	0	0	-0.329788568587742	0.095284035554946	-0.814231811936717	-0.468174122552138	-0.344104982002769	0.699557356825161	0.626267726992753	-0.825251699604877	-0.5434678870818	0.15363036161549	0.447829648036099	-0.463963533289675	0.764320905194425	11.3651479531505	-38.7752958532263	116.192092716433
25500	1651817877293	6.25109310617252	1.48262632571102	7.67219978711617	0.0617832128787638	0.00781149916847982	0.193966281088064	0.00391516536468218	-0.00351525111312777	-0.0122320588320469	0.2001953125	-0.23486328125	0.6015625	0	0	0	-0.329814368938019	0.0952588635256934	-0.814200468480078	-0.468215578647946	-0.34399330790677	0.699607203050699	0.626273395215649	-0.825278170888616	-0.543399841662324	0.153728828578445	0.447866659587536	-0.463968073816442	0.76429646192362	11.3725967356623	-38.7757124294683	116.18311118418
25501	1651817877294	6.24919633799033	1.50717696922936	7.66526801572412	0.0397843576986864	-0.00387912341810286	0.191250515775293	0.00544443710959934	-0.0051952956547614	-0.0125037305711577	0.19384765625	-0.23828125	0.6064453125	0	0	0	-0.329850410892035	0.0952652603483481	-0.814165035759361	-0.468250500429072	-0.343880350564559	0.699619800313069	0.626321354821547	-0.825312941391626	-0.543331998037371	0.153781951737585	0.447889331495067	-0.464028528130136	0.764246473210235	11.3771489498871	-38.77923723518	116.175252501146
25502	1651817877294	6.26860449993706	1.50587995812261	7.65024410600367	0.0284880879487432	0.0177845234234814	0.191720853451393	0.00629543262584065	-0.00156922796083742	-0.010088834033039	0.1923828125	-0.239013671875	0.610107421875	0	0	0	-0.329873315688008	0.0952295728037836	-0.814142760563408	-0.468280353509308	-0.343794212228395	0.699666729582679	0.626316219775071	-0.825321509312026	-0.543289677961614	0.153885451187843	0.447939667706687	-0.464007320346829	0.764229848121217	11.3848473831392	-38.7788598250615	116.168049371863
25503	1651817877294	6.26621606155425	1.49235777293998	7.6896149314679	0.0573916211840547	0.00596891349659732	0.218237009485136	0.00301712235142761	-0.00481660242684384	-0.0100923771349497	0.195068359375	-0.235595703125	0.603515625	0	0	0	-0.329826751145442	0.0952304258610001	-0.814147255717049	-0.468305163571335	-0.343809176002537	0.69971964357559	0.62624888893387	-0.825357811463312	-0.543242879525517	0.153855961539738	0.447861288294656	-0.463982321041734	0.764290960438351	11.3818362218234	-38.7739114001372	116.16732141487
25504	1651817877295	6.26438272966707	1.51661338924775	7.68267802726266	0.0357230726428719	-0.00514077915934087	0.215515178560215	0.00351109377584395	-0.00460116946188742	-0.00866481043576325	0.191162109375	-0.241455078125	0.6123046875	0	0	0	-0.329854173494045	0.0952153866452177	-0.814122338635371	-0.468332224077562	-0.343722304238249	0.69974506571711	0.626268169855139	-0.825373836380207	-0.543197916073132	0.153928730888113	0.4478984346793	-0.463996623886816	0.764260508749124	11.3875207497163	-38.7753284005441	116.16076735305
25505	1651817877296	6.27919993512693	1.52404081924686	7.70078350366852	0.0318480311679211	-0.00638456089272739	0.239778188706484	0.0062267055734086	2.8063297425082E-05	-0.0103093132883563	0.201416015625	-0.242919921875	0.6064453125	0	0	0	-0.329796543341143	0.0951913670304109	-0.81413580244003	-0.46835428772292	-0.343757002343579	0.699820420117961	0.626164916715777	-0.825395555328151	-0.543165729628875	0.153925850334711	0.447831777104181	-0.463920650265378	0.76434568728623	11.3860773649287	-38.7677404118875	116.160614543624
25506	1651817877296	6.26657042472696	1.49498681865163	7.68881543150495	0.0555242743536171	0.00637542693432969	0.218247269501383	0.000658636394300313	-0.00603572727444032	-0.00746059868401413	0.200927734375	-0.241455078125	0.606689453125	0	0	0	-0.32982193255531	0.0951931694325032	-0.814110324858985	-0.468380328639956	-0.343674721097215	0.699832932796679	0.626196097282593	-0.825420113229852	-0.543116256473043	0.153968726143739	0.447849665350293	-0.463959694507946	0.764311506597751	11.3896620842959	-38.7700317611419	116.154781889456
25507	1651817877297	6.26885438612902	1.4724815675645	7.6950537714589	0.0758353870031438	0.0161917448662608	0.220984772342137	0.00733119852475999	-0.00346516997299632	-0.011788357727677	0.20263671875	-0.239990234375	0.605712890625	0	0	0	-0.329834392625209	0.0952455390595322	-0.814078970461674	-0.468415403870197	-0.343592565717359	0.699823750410156	0.626251440833173	-0.825484768514002	-0.543030593412758	0.153924239706335	0.447793530251552	-0.464073801220939	0.764275121461637	11.386985144308	-38.7740989436231	116.149659830424
25508	1651817877298	6.24750212744617	1.49950597729335	7.70293604076078	0.0653651584430815	-0.0166081734117837	0.217790001185746	0.00434074377372791	-0.00170435786692354	-0.0110248058095994	0.196044921875	-0.2392578125	0.6064453125	0	0	0	-0.32985267663207	0.0952173133426581	-0.814053719693021	-0.468452149544029	-0.343499590612475	0.699875058333436	0.626245106944423	-0.825505801004597	-0.542972493654769	0.154016374590756	0.44782608650772	-0.464064407013823	0.76426174991693	11.3938169960609	-38.7736334561097	116.141864528874
25509	1651817877299	6.26691348141219	1.49786204663331	7.68797619112666	0.0531073817852535	0.00433405164519508	0.218261446291326	9.64360518694534E-05	-0.00465496287928913	-0.00910814396163506	0.197998046875	-0.239013671875	0.601806640625	0	0	0	-0.329849352687862	0.0952738692758904	-0.814029415940775	-0.468485223190357	-0.343442000367359	0.69986945700362	0.626282951657736	-0.825573553438502	-0.542888970970964	0.153947630904195	0.447745352010038	-0.464170559548478	0.764244588729198	11.3891134621223	-38.7764147691665	116.138246322014
25510	1651817877300	6.29897654820188	1.52603794506627	7.68480072004142	0.0179950124520125	0.0132227836970544	0.240250553956825	0.00281080289500153	-2.52890499338461E-05	-0.0107532926042886	0.19091796875	-0.24072265625	0.608154296875	0	0	0	-0.329857234134381	0.0952489057937665	-0.814006652121882	-0.468524301755664	-0.343358367507167	0.699926715380825	0.626264819831853	-0.825600877858657	-0.542825249218915	0.154025774756818	0.447759111511791	-0.464158746450644	0.764243702068613	11.3947562560257	-38.7750821974061	116.130874655481
25511	1651817877300	6.24766083879818	1.50174501763463	7.7023710989612	0.0624300837482282	-0.0174686452070563	0.217807236962797	0.000590711458859076	-0.00443926598405417	-0.00768059004374371	0.19677734375	-0.2412109375	0.609130859375	0	0	0	-0.329809397796138	0.0952909661112548	-0.814009020855507	-0.468545309301876	-0.343382108513116	0.699944504605392	0.626231920318502	-0.825655929199652	-0.542769849817585	0.153925880560918	0.447639379557412	-0.46419670464331	0.764290785805865	11.3868760751946	-38.7726643598363	116.131865280544
25512	1651817877301	6.29910386699061	1.52743022732172	7.68441974618192	0.0160873703912853	0.013102049367624	0.240253945765625	0.00337388668178342	-0.00140704456050675	-0.00910546552815286	0.2001953125	-0.234619140625	0.603759765625	0	0	0	-0.329822869021843	0.095270025035717	-0.813988320200273	-0.468576047165699	-0.343306726185537	0.699986393058857	0.626226429726676	-0.825675325015109	-0.542720220704525	0.153996817173688	0.447661422748223	-0.464191567750733	0.764280994799788	11.3921286497557	-38.7722608554891	116.125535868954
25513	1651817877302	6.23049238746424	1.48246530688838	7.72331184855835	0.0942995424891652	-0.0284503334466111	0.220088063477462	0.00825038666965166	-0.00143538087319284	-0.00915410180118027	0.197021484375	-0.237548828125	0.60302734375	0	0	0	-0.329828219413073	0.0952609228041221	-0.813975653637038	-0.468596134802098	-0.343262016254672	0.700012209138395	0.626222081416778	-0.825691171330914	-0.542686038070082	0.154032313720143	0.447666480522007	-0.464192601342354	0.764277404530618	11.3947379982812	-38.7719412992172	116.121750433136
25514	1651817877304	6.24776385179003	1.50436186574052	7.70177686209337	0.0613913844098943	-0.0178979681733073	0.217812891197722	-0.000465978921494972	-0.00327515218631779	-0.0107557443971946	0.20947265625	-0.244384765625	0.6083984375	0	0	0	-0.329841231652263	0.0952574306432733	-0.813946060609438	-0.468639087387872	-0.343164335348761	0.700054221559106	0.626228652987003	-0.825733534548735	-0.542606855359009	0.154084166737078	0.447663231532694	-0.464221808400554	0.76426156761872	11.3987035103642	-38.7724242429207	116.113945706993
25515	1651817877305	6.27183196527175	1.49380330322169	7.65366654656486	0.040449892068848	0.0255895337051755	0.194492310432846	0.0050434784820085	-0.00628202855670643	-0.00893604929943589	0.191162109375	-0.227294921875	0.611572265625	0	0	0	-0.329885153162085	0.0953324372397135	-0.81390103366499	-0.468671120864327	-0.343046332382007	0.700006308120535	0.626346854730438	-0.825801330761086	-0.542518213755423	0.154032950555538	0.44762861386698	-0.46439762740036	0.764175024266328	11.3962705472954	-38.7811114296231	116.107708003696
25516	1651817877306	6.28898082001763	1.47801879834828	7.67813201375555	0.0596801325937431	0.0349579061189496	0.221491558135291	0.00690791211015279	-0.00528033391815068	-0.0129956481795617	0.18896484375	-0.23681640625	0.60595703125	0	0	0	-0.329925242744014	0.0953009242207051	-0.813865885382489	-0.468710346219881	-0.342919891093486	0.700050360713863	0.626366857964901	-0.825819082942843	-0.542456690378237	0.154154407369143	0.447692741218656	-0.464403091643757	0.764134136085966	11.4056155132495	-38.7825816635044	116.097937862924
25517	1651817877307	6.26576698956917	1.52859095628038	7.67917460729815	0.0267831915305606	-0.006860642346985	0.215542010739028	0.00747172828215548	-0.00666182476088385	-0.0113476493467325	0.19873046875	-0.24462890625	0.608642578125	0	0	0	-0.329893716610273	0.095184555296439	-0.813887365608028	-0.468718884063469	-0.342945486926715	0.700167182101027	0.626222252962402	-0.82577032894358	-0.542485016310631	0.154315815504654	0.447763058807904	-0.464193843331816	0.76422007234816	11.4159941887044	-38.7719539060377	116.095850437571
25518	1651817877309	6.27022569789443	1.48298799383471	7.69191823353405	0.0698064240418664	0.0153090699585108	0.221029913942015	0.00594120675291986	-0.00498324613197204	-0.0110761045458376	0.203125	-0.240234375	0.61181640625	0	0	0	-0.329928741565817	0.0951579818006885	-0.81385740322545	-0.468751651947535	-0.342837828570506	0.700203298052434	0.626240820050525	-0.82578471079421	-0.542433694592153	0.15441922933893	0.44781897539026	-0.464199341196862	0.764183967976833	11.4239689978954	-38.7733184072129	116.087577547997
25519	1651817877309	6.26625773849377	1.53100446623013	7.67829331196281	0.0251268809861779	-0.00787022603271964	0.215545556087903	0.00789616278955767	-0.00484798686597804	-0.0101409656706702	0.197509765625	-0.231689453125	0.6025390625	0	0	0	-0.329929136726495	0.0952086976493884	-0.813833169509339	-0.468783149054229	-0.34277824780342	0.700198305166112	0.626279016314072	-0.825846798863378	-0.542355326109415	0.154362447013063	0.447750083908343	-0.464298431704496	0.764164137261634	11.4201671902761	-38.7761255447815	116.083806188854
25520	1651817877311	6.25134753987891	1.48774568461065	7.70584894002952	0.07935584065722	-0.00739913826808955	0.220581745199471	0.00153785731293198	-0.00547237255721001	-0.0143735470692831	0.191650390625	-0.240234375	0.603515625	0	0	0	-0.32995740074501	0.0951965167988668	-0.813792404486054	-0.468836495255827	-0.342640908819659	0.700249567084242	0.626296855653586	-0.825892748055973	-0.542259927811192	0.154451738089132	0.447770450467414	-0.464332547306919	0.76413147376592	11.427075061453	-38.7774366396702	116.073083936979
25521	1651817877311	6.29261450978474	1.49838937198324	7.63635389589798	0.0252891439312239	0.0484694296445622	0.194963709932807	0.0044808018260907	-0.00490288377608444	-0.010583870866661	0.201171875	-0.240966796875	0.602294921875	0	0	0	-0.32994365994113	0.0951837286863789	-0.813786826028335	-0.468858444352598	-0.342617880847826	0.700291114953312	0.62626299750248	-0.825912186191822	-0.542223633905238	0.154475213333541	0.447752217664179	-0.464312271162463	0.764154478116019	11.4284311689939	-38.7749482693775	116.070221725927
25522	1651817877312	6.26217159344589	1.54328110882691	7.71030872440925	0.0327499982923339	-0.0310457377839067	0.239343960265369	0.00914683399631287	-0.000136271711057629	-0.0112959502751217	0.193115234375	-0.243408203125	0.5986328125	0	0	0	-0.329966282447095	0.095133082523628	-0.813765865726409	-0.468889181828868	-0.342530375223798	0.700350602805323	0.626244341450895	-0.825913441117541	-0.542185263546815	0.154603129897339	0.447816848533446	-0.464267350933587	0.764143898115193	11.437799597049	-38.773577198984	116.062523827631
25523	1651817877313	6.28833194956426	1.50953193211546	7.66876186849405	0.0320373222845602	0.0237767070049807	0.218769269390389	-0.000184331595234492	-0.00967076697343779	-0.00987134022233169	0.19580078125	-0.2373046875	0.607666015625	0	0	0	-0.329950935181724	0.0952570894870062	-0.813735663687099	-0.468927219213054	-0.342479286907637	0.700305272376706	0.6263229706155	-0.826025935412414	-0.542066699967154	0.154417767153804	0.447648402281616	-0.464474130892245	0.764116934550341	11.4248394933402	-38.7793559914779	116.060614559872
25524	1651817877313	6.27389104831371	1.5038605793354	7.65000853492845	0.0341255091322997	0.0253993494896749	0.194516360170788	0.00685962740649779	-0.00295250215841291	-0.00844258642677364	0.195068359375	-0.239013671875	0.6025390625	0	0	0	-0.329977856771011	0.0952283803191233	-0.81371559996921	-0.46894892258044	-0.34240304410291	0.700335594101957	0.626330752097421	-0.826028621467873	-0.542036927184882	0.154507883565393	0.447701766698488	-0.46446315806728	0.764092339245214	11.4316896884332	-38.7799279112193	116.054601542491
25525	1651817877314	6.26741349834904	1.53708233616905	7.67613540437789	0.020039627944522	-0.00899747460046691	0.215556064382829	0.00155954721488011	-0.00474216905641906	-0.0095989293352232	0.1884765625	-0.23876953125	0.594970703125	0	0	0	-0.329943668753597	0.0952496011312961	-0.813711406119143	-0.468975944463416	-0.342397477928126	0.700368144721606	0.626297396583823	-0.826076156099912	-0.541978153997951	0.154459913609217	0.44761830998257	-0.464482661084554	0.764129377867491	11.4276945315159	-38.777476395491	116.05318325631
25526	1651817877316	6.27879273503853	1.49647162320967	7.61635198440671	0.0235188402061574	0.0487601065399881	0.170726500908087	9.87579385256439E-05	-0.00466146582629567	-0.00910647914846424	0.19140625	-0.23828125	0.608154296875	0	0	0	-0.329961585513546	0.09525144713324	-0.813683932649924	-0.469010630638331	-0.342308760867243	0.70039419174775	0.626316763626482	-0.826111465821924	-0.541912380334517	0.154501838428322	0.447620998469783	-0.464520126804206	0.764105027808821	11.431069369911	-38.7788997963725	116.046484597292
25527	1651817877317	6.26983785807047	1.51498449753065	7.68223459827483	0.03888748839267	0.00269032178479758	0.218327227660414	0.00141838400822283	-0.00154710366827677	-0.0100408261443434	0.19921875	-0.232421875	0.60546875	0	0	0	-0.329857737260025	0.0952602525121306	-0.813713671149859	-0.469030296297414	-0.342408908649713	0.70046806587241	0.626179389608344	-0.82615739125029	-0.541872130892971	0.154397404913512	0.44745961176382	-0.464455684058745	0.764238714922042	11.4216001182093	-38.7688039642733	116.050712888282
25528	1651817877318	6.25055547797741	1.51827897609648	7.69677918527433	0.0499104811675738	-0.0190316732845363	0.217874502024648	0.00441097792078874	-0.00330656688878981	-0.0108048651636756	0.19287109375	-0.239013671875	0.606689453125	0	0	0	-0.329879816861003	0.0952387337568886	-0.813687111803726	-0.46906521306173	-0.34231426464621	0.700509964828004	0.626184264730752	-0.826179309027189	-0.541814818975477	0.154481232756368	0.447491556965134	-0.464459353566315	0.764217780040271	11.4279430109504	-38.7691622202136	116.043112204326
25529	1651817877319	6.27214229557575	1.49332578467787	7.68835475617946	0.059528889637804	0.0141257277979382	0.221097888497955	0.00156015322851973	-0.00474301305998668	-0.009598854848202	0.199462890625	-0.250244140625	0.613037109375	0	0	0	-0.329869869333435	0.0952241244320693	-0.813679091614427	-0.469089086743242	-0.342282596008668	0.70055282500737	0.626153626391927	-0.82619910294256	-0.541775589649074	0.154512953364136	0.44747923612887	-0.464440469634798	0.764236470864177	11.4299556332251	-38.7669107441835	116.03963853887
25530	1651817877320	6.27223972147511	1.49429109016114	7.68808772164401	0.0593416344170181	0.0140928765561595	0.221099043901447	0.008250024407477	-0.00143535411584117	-0.00915663058004058	0.19677734375	-0.24365234375	0.61376953125	0	0	0	-0.329892452200928	0.095184995909186	-0.813661431587477	-0.469111779090702	-0.342210217398429	0.700594700072545	0.62614633540282	-0.826197946925412	-0.541747910544249	0.154616150246911	0.447536724308022	-0.464409590395376	0.764221573069253	11.4376054907343	-38.7663749721023	116.033508929767
25531	1651817877322	6.27486275541021	1.50962442092415	7.64807607057837	0.0256067870940857	0.0255601035224361	0.194541374664285	0.000735617749439149	-0.00764069747295635	-0.00723681684632227	0.198486328125	-0.23828125	0.60546875	0	0	0	-0.329811679936485	0.0953106333094007	-0.813661182385702	-0.469143495355457	-0.342257273086276	0.700578582103797	0.626138650234099	-0.826316822454132	-0.54164052788765	0.154356883484002	0.447281195612841	-0.46455913385383	0.764280277911269	11.4180766273165	-38.7658102384257	116.037135728483
25532	1651817877323	6.23872059676529	1.49177818138792	7.68375080812404	0.0693826022385759	-0.00675534183392961	0.196418673961233	0.0049762062968902	-0.00468738141646512	-0.00915676382960125	0.1923828125	-0.240966796875	0.60498046875	0	0	0	-0.329838889638764	0.0952935278173932	-0.813636845469738	-0.469170048204311	-0.342171545499663	0.700605053209583	0.626155885437141	-0.826331098829781	-0.54159721884816	0.154432404768898	0.44732040927856	-0.464569706237004	0.764250900875966	11.423943805748	-38.767076749	116.030621565221
25533	1651817877324	6.2561860619599	1.51357675920022	7.66199822034341	0.0347732926843855	0.00369645796451994	0.194098958890178	0.0021256886735982	-0.00612410669343769	-0.00795037960825916	0.1923828125	-0.241455078125	0.614501953125	0	0	0	-0.329800274344013	0.0953371717600785	-0.813635714833847	-0.469190287911226	-0.34218450554479	0.700615499792185	0.626137114070086	-0.826384401398809	-0.541542594821141	0.15433871555484	0.447212013803073	-0.464617627135835	0.764285205446807	11.4166963304362	-38.7656973561373	116.031140420728
25534	1651817877325	6.27138415877498	1.52078060758666	7.67982684244005	0.0322799084542973	0.00198291087570475	0.218350831932852	0.00170289995860246	-0.0079399198367783	-0.00915639676117989	0.186767578125	-0.2353515625	0.61181640625	0	0	0	-0.329832493594008	0.0953413641604503	-0.813604658339344	-0.469220641466359	-0.342085031582914	0.700626839604618	0.626178778618822	-0.826413559139401	-0.541484027803846	0.154388072414518	0.447234234420245	-0.464668784467999	0.764241100899166	11.4208931672034	-38.7687590648864	116.02420628983
25535	1651817877326	6.26133308354773	1.46839664656354	7.67419962539749	0.0749990202993555	0.028011796876324	0.199675541310651	0.00559149546877599	-0.00839970189084446	-0.0120617342199693	0.195068359375	-0.237060546875	0.611083984375	0	0	0	-0.329728933892638	0.0952764574363256	-0.813643476482101	-0.469239299281859	-0.342186620326989	0.700756180068339	0.625978508389244	-0.826417799010527	-0.541473753335709	0.15440141167469	0.447148675887327	-0.464485683896253	0.764402453624817	11.4195063918418	-38.7540434598371	116.026744006061
25536	1651817877328	6.25527642042684	1.50185733782727	7.69992095446183	0.062119518335318	-0.00644770214984109	0.220703922443938	0.00672293834508956	-0.0111594808290775	-0.00876523971180058	0.2021484375	-0.231201171875	0.610107421875	0	0	0	-0.329784375099952	0.0952675111394113	-0.813611376356192	-0.469257813493839	-0.342078740829831	0.700751517748363	0.626042686600238	-0.826422464262117	-0.541442411592567	0.154486327847341	0.447222590703117	-0.464529251288002	0.764332734522473	11.426636425586	-38.7587588638154	116.019771602911
25537	1651817877329	6.27962130243541	1.49183964079167	7.65143931212253	0.0421865641356174	0.0392309208565087	0.197329308737604	0.00745327580918493	-0.00740019185633622	-0.0161228247937585	0.19921875	-0.235107421875	0.603515625	0	0	0	-0.329835838140212	0.0951889152195447	-0.813574243617257	-0.469301971464301	-0.34192795891613	0.700830561658119	0.626036576213734	-0.826417424190504	-0.541389459998094	0.154698718796586	0.447347193917412	-0.464471717598539	0.764294780595341	11.4424851304251	-38.7583098983239	116.007267961425
25538	1651817877330	6.27915780796994	1.58846137729054	7.71537867017885	-0.00714665454884851	-0.0424257677452809	0.260854656806526	0.0219627495377414	-0.00353885871264648	-0.0119466987874741	0.193603515625	-0.2373046875	0.612060546875	0	0	0	-0.32989793854894	0.0950940273660818	-0.81355446292669	-0.469311849363005	-0.341827476377271	0.700878851914529	0.626037388126714	-0.826364146300077	-0.541407028013549	0.154921682560195	0.447522372740506	-0.46437836400559	0.764248952200918	11.4592099340616	-38.7583695541109	115.999076746129
25539	1651817877331	6.26096510912147	1.46006822526113	7.71106784735823	0.104400385210342	0.0168194787131699	0.226280116203746	-0.000336402884949027	-0.0186220112126184	-0.0149612456042726	0.19677734375	-0.23486328125	0.609375	0	0	0	-0.329937345461608	0.0951114741578626	-0.813511300080544	-0.469355430558259	-0.341693655750437	0.700890238413455	0.626097691511982	-0.826413547639797	-0.541318574577979	0.154967251683285	0.447533343894404	-0.464464287662244	0.764190311106532	11.4633476773029	-38.7628005204626	115.989871921815
25540	1651817877332	6.2878581918468	1.50258926288007	7.57657439302779	0.00143759715795569	0.0752533452303577	0.146918509853556	0.0184025840580284	-0.000401015958326481	-0.0128323812440387	0.19775390625	-0.2431640625	0.60791015625	0	0	0	-0.329978600983993	0.0950219257510637	-0.81349306007436	-0.469376179338129	-0.341600250325175	0.700958124667291	0.62607266067182	-0.826378933155854	-0.541313671793	0.155168835679632	0.447668546822278	-0.464367544293198	0.764169913038413	11.4781621310349	-38.7609612733941	115.981516847411
25541	1651817877333	6.25423376173315	1.59041871600657	7.80079917740407	0.0409305922307205	-0.0993747314059958	0.310839128316896	0.00943143562042367	-0.00652948650121933	-0.0104144849879581	0.190185546875	-0.24072265625	0.61279296875	0	0	0	-0.329973651441617	0.095021756219183	-0.813484923152751	-0.469393795232182	-0.341573708703631	0.700980199153581	0.626062426533532	-0.826398902617737	-0.541280661685102	0.155177637042	0.447651935408134	-0.464372701265206	0.764176510398618	11.478699435574	-38.7602092903613	115.979053174142
25542	1651817877334	6.31005094654362	1.4794629832505	7.56731089755053	0.0100729897183738	0.107936478177109	0.150143359622561	-0.00387218552790979	-0.0147517318562783	-0.0110687848704967	0.197998046875	-0.241455078125	0.609375	0	0	0	-0.330019836365245	0.0950595620535484	-0.813436686120283	-0.469437264116619	-0.341431125328321	0.700971902701062	0.62614948557089	-0.826458067156517	-0.541184669441782	0.155197347893263	0.447651482616723	-0.464497088456798	0.764101174535289	11.4812205810885	-38.7666064590075	115.96990133639
25543	1651817877335	6.25598853256724	1.53585099527748	7.68887470478269	0.0349977988686369	-0.0160118832921674	0.21794289448996	0.0206349593191279	0.004749870963832	-0.011138687316015	0.19189453125	-0.236572265625	0.610107421875	0	0	0	-0.329930218799682	0.0949845786129004	-0.81348070880441	-0.469439151489944	-0.341545867542391	0.701082821780461	0.625962696467658	-0.826435952997861	-0.541209625748263	0.155228079257408	0.447604776512979	-0.464300568599449	0.764247961097048	11.4812866337345	-38.7528817489194	115.973911671533
25544	1651817877336	6.2517050687873	1.54595000358861	7.72150635923967	0.0436574750278034	-0.0393473780140138	0.241763583444824	-0.00580383610675556	-0.0141550293041842	-0.0072272732887195	0.1943359375	-0.23779296875	0.61083984375	0	0	0	-0.329966546766821	0.0950352935482145	-0.813442085578726	-0.469470280640125	-0.341439467220924	0.701056833136114	0.62604984381202	-0.826490703668416	-0.541131897151775	0.155207559850053	0.447584860080832	-0.464430389399837	0.764180741989968	11.4807922107274	-38.7592847492156	115.967719715527
25545	1651817877337	6.28488157338188	1.47926781686148	7.65341698279468	0.0558504302020144	0.0525315827423052	0.20014851403325	0.00344343787116557	-0.00301377930680398	-0.00888554687982604	0.188720703125	-0.241455078125	0.603759765625	0	0	0	-0.329886925842058	0.0949929203532398	-0.813471080075671	-0.469484571761161	-0.341517706073432	0.701150398394651	0.62590236879993	-0.82649808828301	-0.541121163922005	0.155205657178545	0.447511526670398	-0.464301631255713	0.764301922482479	11.4788832636954	-38.7484496143456	115.969877468384
25546	1651817877338	6.25239724116531	1.5474208219959	7.72065124849724	0.041503777123854	-0.0380066237172563	0.241777861903095	0.00740414472004476	-0.00507129576746801	-0.0115705386504509	0.185791015625	-0.234130859375	0.614013671875	0	0	0	-0.329918535272561	0.094960879810398	-0.813444072247435	-0.469515636283556	-0.34141765473771	0.701190713574202	0.625911789496493	-0.826508131075163	-0.541074997181765	0.155313092466132	0.447569317871592	-0.46429455157481	0.764272382778485	11.4870501240309	-38.7491417130592	115.961972326002
25547	1651817877338	6.29807524726133	1.51096371683152	7.66425255663905	0.0283845079320661	0.042043481499772	0.221601703005396	-0.0035703112709477	-0.00900502714114614	-0.00553149570075837	0.201904296875	-0.241455078125	0.610595703125	0	0	0	-0.329766164955099	0.0949535972178008	-0.813509475392223	-0.46951083509678	-0.341627704355061	0.701278059094682	0.625699285159802	-0.826527993507503	-0.541086780204248	0.155166272870947	0.44737231425911	-0.464148877107978	0.764476181652412	11.4735011879411	-38.7335315494014	115.973034991415
25548	1651817877339	6.2449749358308	1.50976125877295	7.67515291746803	0.0528108162015313	0.000391708957724148	0.196522101464561	0.00678688510501872	-0.0013572289413418	-0.00866757811392615	0.1953125	-0.23486328125	0.60693359375	0	0	0	-0.329778061818328	0.0949194767761133	-0.813496175541916	-0.469532421937583	-0.341571469385549	0.701320936918241	0.625681927773144	-0.826530381238387	-0.541059195355953	0.155249721451268	0.447410840494198	-0.464116246818499	0.764473445743791	11.479547873229	-38.732256659564	115.967942531086
25549	1651817877339	6.2747317724884	1.52355901350311	7.71144086161999	0.0472991692828471	-0.00323839772741856	0.245024272530101	-0.00274901629108274	-0.00610939811603678	-0.00789502911482927	0.1982421875	-0.237548828125	0.60546875	0	0	0	-0.329770323801653	0.0949681191140676	-0.813477006775525	-0.469561230660307	-0.341527568401062	0.701319194048596	0.625707845628522	-0.826589863612916	-0.54098661402543	0.155185955607078	0.447334458089737	-0.464203480711131	0.764465179783378	11.4750787510381	-38.7341603191705	115.965099580242
25550	1651817877340	6.24760326133881	1.48751520825177	7.68119937635541	0.073156502513535	0.0112272801144003	0.199335105608718	0.00205533946642908	-0.00453224735848719	-0.00817050632064072	0.194091796875	-0.241455078125	0.599365234375	0	0	0	-0.329783804310047	0.0949616671409399	-0.813457353042002	-0.469587115422161	-0.341461166888574	0.701344544161153	0.625715671757132	-0.826611823574607	-0.540940445606616	0.155229917971954	0.447344570363559	-0.464218983543652	0.764449848377212	11.4784673294012	-38.734735156215	115.959899383504
25551	1651817877341	6.29223187332514	1.54564707926834	7.68950819639516	0.0123192165565447	0.00655608322396115	0.242637017405226	0.000448779026184309	-0.00125688405059273	-0.00812066798820211	0.203125	-0.235107421875	0.60400390625	0	0	0	-0.329735094648632	0.0950328154013474	-0.813456672650495	-0.469608105843943	-0.341485988565443	0.701340385696853	0.625706786765232	-0.826683003221209	-0.540873981845114	0.155082390838457	0.447194065030657	-0.464302702074412	0.764487062707902	11.4673041430201	-38.7340825449486	115.961672299636
25552	1651817877341	6.26510523850263	1.50945725160997	7.65929546568984	0.0381729392999462	0.0210163795614294	0.196953638633763	-0.00406345394160859	-0.00922596161282998	-0.0069576887090668	0.198974609375	-0.240478515625	0.608154296875	0	0	0	-0.329752314954768	0.0950650369551947	-0.813429265235331	-0.469636966165769	-0.341409061585168	0.701337072616672	0.625752477614761	-0.826728736645616	-0.540807517518639	0.155070387242925	0.447168255438464	-0.46438511988306	0.764452099061358	11.4669506154026	-38.7374386456434	115.956698452601
25553	1651817877342	6.26089836420238	1.51893383248512	7.69199797391497	0.0468283256387227	-0.0034202771424849	0.220788430754917	0.00532565226076825	-0.00127685646326588	-0.00817474003358367	0.1923828125	-0.242431640625	0.59716796875	0	0	0	-0.329787371256457	0.0950919810607447	-0.813397278018402	-0.469662296772855	-0.341315233499604	0.701323798642639	0.625818536669033	-0.826764336489006	-0.540749684255978	0.155082271349606	0.447174063750352	-0.464472505574354	0.764395609795397	11.46863114683	-38.7422911178792	115.950928001434
25554	1651817877343	6.2656230494825	1.51045467958923	7.65867523250048	0.0376035949450055	0.0199529545184551	0.196957969994852	-0.00314686342989084	-0.00718970866137807	-0.00432585337794621	0.198974609375	-0.236083984375	0.609130859375	0	0	0	-0.329797670547006	0.0951204667888045	-0.813379508248349	-0.4696800707517	-0.341268255280893	0.701315273227552	0.625853709324551	-0.826797306700718	-0.540705455873116	0.155060709470465	0.447148959039349	-0.46453686347459	0.764371186599297	11.4674355372696	-38.7448749154068	115.948098943472
25555	1651817877344	6.28296578550416	1.49393552828508	7.68323472823414	0.0549040620393391	0.0288875869132905	0.224032686283692	0.000100034948135392	-0.0046724316886974	-0.00910377573848674	0.19580078125	-0.235107421875	0.59912109375	0	0	0	-0.329752690934339	0.0951854797015524	-0.813376299642434	-0.469704037086684	-0.341282560732067	0.701316927086433	0.62584405527432	-0.826867599364285	-0.540635683996913	0.154929113825436	0.447008038922913	-0.464615566862791	0.764405774551095	11.4574562139676	-38.7441657156554	115.948990736011
25556	1651817877344	6.25951775461512	1.54355934042257	7.6844574712784	0.0226641239118672	-0.0149662154182348	0.217979959700358	-0.000371377801350803	-0.00415373217869967	-0.00575674962131816	0.19970703125	-0.24169921875	0.608154296875	0	0	0	-0.329757349556958	0.0951937670233693	-0.813361623765154	-0.469724500233044	-0.341237968587974	0.701330075847711	0.625853635848988	-0.826893453079586	-0.540594081201435	0.154936298600732	0.446994257287576	-0.46464412627453	0.764396474266141	11.4581092161175	-38.7448695177648	115.94562251172
25557	1651817877345	6.28348835829061	1.49467517742095	7.68266350063507	0.0533696995709231	0.0281861019698794	0.224042956940993	-0.00225352690354545	-0.0058916880154967	-0.00646790087159112	0.199462890625	-0.23828125	0.603515625	0	0	0	-0.329745878991211	0.0952692177606674	-0.813344705288075	-0.469746550615796	-0.341211666945751	0.701302475638796	0.625898902382005	-0.826961003443981	-0.540523908663664	0.154820550786639	0.44688935669025	-0.464767406156941	0.764382862871169	11.4499739012384	-38.748194952977	115.944772144889
25558	1651817877346	6.25192123987237	1.50528271880094	7.63922972745653	0.0361092557004282	0.0204336113158119	0.172727233810511	0.00101611387839948	-0.00263558232303316	-0.00647232158541363	0.197265625	-0.236572265625	0.60986328125	0	0	0	-0.329747873525349	0.0952676100395139	-0.813331451319952	-0.469768424520689	-0.34116793445772	0.701326285346655	0.625896063240308	-0.826983452652143	-0.540483419601417	0.154841990995659	0.446881202935852	-0.464778565144543	0.764380844765739	11.4515470891676	-38.7479863753098	115.94111786548
25559	1651817877347	6.26453299851985	1.49778021958356	7.69702087837885	0.0635041312520208	0.0062771450748433	0.22363554508448	-0.00240014214174262	-0.0026962872893446	-0.00691143145002152	0.19775390625	-0.249755859375	0.600830078125	0	0	0	-0.32973188986006	0.0953010859041454	-0.813318733159197	-0.469794872393392	-0.34113931736438	0.701338326597581	0.625898168868922	-0.82703355524114	-0.540420961796734	0.154792385329167	0.446810322903764	-0.464833019154188	0.764389167669609	11.4478539557448	-38.7481410653484	115.938840362042
25560	1651817877347	6.24776430447097	1.5148849040298	7.67187253350296	0.0439269452444978	-0.00313921339621225	0.196564547512175	-0.000297649397935951	-0.00575191167873907	-0.00553502631302204	0.191162109375	-0.2421875	0.603759765625	0	0	0	-0.329743068788402	0.0953137647535485	-0.813301876834452	-0.469813635362012	-0.341089313227875	0.701342516229462	0.625920726075327	-0.827058729379905	-0.54038086855287	0.154797852241373	0.44680190079971	-0.464873307290247	0.764369589669025	11.4485330766297	-38.749798251893	115.935402160871
25561	1651817877348	6.24337821748624	1.52427171075456	7.70474586041165	0.0485483676280728	-0.027895756808724	0.220415320919381	0.000374330573080934	0.000340327586788837	-0.00834256821537271	0.190185546875	-0.2451171875	0.604736328125	0	0	0	-0.32960115432565	0.0954702000565809	-0.813326969838346	-0.469838014747561	-0.341230637930539	0.701329681414296	0.625858074730077	-0.827198033983695	-0.540275361598454	0.154421326969976	0.446435957681531	-0.465015281057495	0.76449703993671	11.4195647063359	-38.7451956063881	115.945150942093
25562	1651817877349	6.28419913893561	1.49671436121828	7.68168507697072	0.0473046385755764	0.0265712828493317	0.224077779938055	0.00255066744552866	-0.00431303169139721	-0.00674444442939287	0.192626953125	-0.232177734375	0.607421875	0	0	0	-0.329612472037945	0.0954675545452521	-0.813311309596526	-0.469857721005592	-0.341178680576932	0.701346603484039	0.625867437802276	-0.82721579009635	-0.540239336081161	0.154452246231183	0.446442767367839	-0.46503161347589	0.764483128612369	11.421993496041	-38.7458834403131	115.941174819039
25563	1651817877349	6.24819611943487	1.51632905649808	7.67123553848141	0.0366168220504733	-0.00338806420471819	0.196593878359678	-0.00225271218152761	-0.00589278255362403	-0.00646769056871993	0.19384765625	-0.236328125	0.60986328125	0	0	0	-0.329500572492965	0.0954849652839642	-0.813350868647367	-0.469864191657655	-0.341314028249414	0.701404195411019	0.625729085771134	-0.827253598313167	-0.540220525605237	0.154315481377331	0.446269221656697	-0.464966599203235	0.764623988263057	11.4100978047191	-38.7357204398408	115.948264220366
25564	1651817877350	6.28472197400042	1.49738266647003	7.6811270749476	0.0442225324923284	0.0277460837851419	0.224088654170757	-0.00240009275332149	-0.00269712640778623	-0.00691123604569091	0.198486328125	-0.2392578125	0.6083984375	0	0	0	-0.329492670668241	0.0954982170763859	-0.813335718018379	-0.469893264802411	-0.341269799338482	0.701430026663031	0.62572425376916	-0.827293877017246	-0.540160820457125	0.154308551586936	0.44622837774983	-0.464996995408126	0.764629341022282	11.4095210769401	-38.7353655189772	115.944512817601
25565	1651817877350	6.2655964377274	1.50016771326287	7.69569021084222	0.0542367653411861	0.0066765702705928	0.223689647120363	0.000100516324274557	-0.00467352029796752	-0.00910392522571914	0.191162109375	-0.2314453125	0.604248046875	0	0	0	-0.329454562048683	0.095491536124663	-0.813337132600681	-0.46991889386017	-0.34127184947709	0.701484726947615	0.625661811695198	-0.827325215800842	-0.540115199443573	0.154300222391672	0.446168703580358	-0.464967471108743	0.764682116147725	11.4081546216501	-38.7307791739386	115.942890523767
25566	1651817877350	6.2828361903739	1.52174694660198	7.67403709523541	0.0210609698607134	0.0172839131315133	0.221247428494362	0.000521506036886406	-0.002855867650552	-0.00789909054167289	0.18896484375	-0.24072265625	0.602294921875	0	0	0	-0.329454340132254	0.0954913761970367	-0.813321008904436	-0.469946987770629	-0.341219332906666	0.701515419783786	0.625656041812359	-0.827355613117048	-0.540062451514617	0.154321864645733	0.446152503404882	-0.46498243436672	0.764682469680034	11.409707635257	-38.7303553932426	115.938435839046
25567	1651817877351	6.25105490604226	1.49470409579617	7.67699446890118	0.0539589504277641	0.00987152901043807	0.199458402128901	2.67861168187155E-05	-0.00307596036009183	-0.00932566796713975	0.194580078125	-0.244873046875	0.606689453125	0	0	0	-0.329349850500668	0.0954569474417765	-0.813362389628571	-0.469955604603228	-0.341340811354404	0.701610964420445	0.62548261775123	-0.827365889897242	-0.540059401774225	0.154277434480264	0.446040507956915	-0.464841797991833	0.764833294320571	11.4043184255769	-38.7176190858855	115.943388909616
25568	1651817877352	6.24899687074763	1.51870133397197	7.67011392542185	0.0319855383833364	-0.00118951003453679	0.196610252201136	-0.000393901018802067	-0.00489405940500239	-0.0105304830511331	0.194580078125	-0.237060546875	0.603271484375	0	0	0	-0.329356035235651	0.0954605333087558	-0.813336892363361	-0.469994668219726	-0.341259227797763	0.701647000210257	0.625486711720418	-0.827409011298468	-0.539984596850874	0.154308014004104	0.446022944998311	-0.464874308022874	0.764823777268521	11.4066578563726	-38.7179197218694	115.936843944168
25569	1651817877354	6.28546678392815	1.50006049855976	7.6799950587362	0.0373918225366806	0.0297218529928708	0.224110769844039	0.0015112465821093	-0.00241610923080118	-0.00504599729562996	0.192626953125	-0.236572265625	0.607666015625	0	0	0	-0.329271315761243	0.0955218692302539	-0.813362506065904	-0.469997241312979	-0.341365987550097	0.701651044945934	0.625423915172922	-0.82746149120761	-0.539956331313895	0.154125406220121	0.445843855079808	-0.464901033984996	0.764911946231235	11.3922335373255	-38.7133084676826	115.943763734139
25570	1651817877354	6.26186258560406	1.51180460987567	7.72759903940013	0.0570330880087876	-0.0152586770347319	0.247569966172426	-0.0013597222086553	-0.0045953887716494	-0.00860983634045241	0.201171875	-0.23681640625	0.606689453125	0	0	0	-0.329272367807044	0.0955323582712017	-0.813341818912798	-0.470030171297022	-0.341302691738471	0.701678057312928	0.625428154545052	-0.827502720553526	-0.539890413187271	0.154134970804785	0.445815791654567	-0.464936818970098	0.764906552643771	11.3930002531295	-38.7136197624158	115.938716571529
25571	1651817877355	6.2515207750379	1.49678946442407	7.6762087745689	0.0499144768471639	0.0100821876532228	0.199479172375748	0.00274938449522627	0.0022986512168399	-0.00620537849161776	0.192138671875	-0.23974609375	0.609619140625	0	0	0	-0.329240606319045	0.0955017773266717	-0.813350155261045	-0.470044209213291	-0.341318129071438	0.701734934943212	0.62535591133963	-0.827507187229531	-0.539875703824997	0.154162510043572	0.445795681731713	-0.464868051708988	0.764960067356229	11.3942062756964	-38.7083151693644	115.937909155087
25572	1651817877355	6.26623741506362	1.50389710876503	7.69444031974897	0.0471192699782365	0.00846733073176491	0.223724235339564	-0.00143364738058768	-0.00299787393912763	-0.00883155856926051	0.19677734375	-0.23583984375	0.599609375	0	0	0	-0.32923508122674	0.0955081955787458	-0.81333160225693	-0.470078877037768	-0.341260221305065	0.701770715438158	0.62534736291779	-0.827549309554909	-0.539808067880405	0.154173247051549	0.445761821615549	-0.464892582006468	0.764964891733828	11.3949091074509	-38.7076875114759	115.932936554398
25573	1651817877355	6.25607803882165	1.48882784544	7.64291265853723	0.0390181377638087	0.0338070730405625	0.175634285109206	-0.00185400569594617	-0.00481616976072636	-0.0100363369753417	0.194580078125	-0.241455078125	0.61279296875	0	0	0	-0.329182915838542	0.0955290559960681	-0.813335068518657	-0.470105173018004	-0.341279468443497	0.701812979814969	0.625289425611979	-0.827599112615325	-0.539750651524426	0.154106920601528	0.445654612022867	-0.464895445817867	0.765025614761072	11.3892546489358	-38.7034336776835	115.932850365437
25574	1651817877357	6.27912959855321	1.53499520070618	7.70559097671482	0.0211445100535327	-0.00390186574485748	0.245113029096215	0.0034435213229394	-0.00301426650453125	-0.00888740370557497	0.199462890625	-0.234619140625	0.6025390625	0	0	0	-0.329188510691443	0.0955155880531237	-0.813318910932273	-0.47013194529574	-0.341221756882386	0.701849135126755	0.625280340448926	-0.827619671842855	-0.539705452902618	0.154154801695907	0.445660623578999	-0.464893337905596	0.765023393735232	11.3927329822784	-38.7027666559211	115.927879071647
25575	1651817877356	6.26888463619207	1.48230514382861	7.70038357927744	0.0656325617422188	0.0201009340197609	0.2266023879285	0.000522061757334023	-0.00285696303204903	-0.00789910790907535	0.199462890625	-0.24072265625	0.608154296875	0	0	0	-0.329162526615195	0.0955224774814486	-0.813315829763465	-0.470154068816035	-0.341214365296056	0.701882653118893	0.625246749824734	-0.82765233326424	-0.539661215743066	0.154134316312028	0.445605624019569	-0.464894088447573	0.765054974736215	11.3908006725743	-38.7003005266522	115.926315093997
25576	1651817877357	6.26893901139911	1.52072860815079	7.65392709845332	0.013229493850296	0.0212803104276225	0.197017126742603	-0.000542049359882292	-0.00169991844250884	-0.0109738955166243	0.197998046875	-0.241455078125	0.609130859375	0	0	0	-0.329154293917431	0.0955186292324565	-0.813295096571431	-0.470196478249398	-0.341145445275162	0.701936246448841	0.625224192661579	-0.827697714292722	-0.539582926622832	0.154164714029324	0.445574100372335	-0.464904045173249	0.76506728453054	11.3928098574215	-38.6986444908264	115.920044380504
25577	1651817877358	6.23948123488327	1.47023920678354	7.66348206600769	0.0684339204594037	0.0227832588913871	0.17813264781001	0.00166119175225092	-0.00561219918263379	-0.00460257678051668	0.20166015625	-0.234130859375	0.603271484375	0	0	0	-0.329136528920343	0.0955869717860473	-0.813288230763454	-0.470206901115555	-0.34114923094715	0.701905149194739	0.625257038151575	-0.827749805609404	-0.539537201936161	0.154045016279308	0.445474422989426	-0.465004052950951	0.765064552310083	11.3842348223995	-38.7010558576732	115.921292315649
25578	1651817877359	6.271626978362	1.4982967426669	7.66000145956078	0.0328373210888918	0.0317456807589906	0.199891443857078	-0.00135868709885151	-0.00459713838642557	-0.00860959977766163	0.19140625	-0.240478515625	0.603271484375	0	0	0	-0.329136891170729	0.0955975942164364	-0.813267869950959	-0.470239703296019	-0.341087056629081	0.70193229380425	0.625260485489699	-0.827791073659445	-0.539471442848204	0.15405356445412	0.445445348129098	-0.46503937173747	0.765060013700995	11.3849158277814	-38.7013089503114	115.916315733582
25579	1651817877359	6.26500463566673	1.53119107954212	7.68622221286149	0.0191930896545878	-0.00293239733712806	0.220879506294253	0.00190812504033456	-0.00133800341939325	-0.0086151605892065	0.205810546875	-0.2421875	0.607177734375	0	0	0	-0.329118515936067	0.0956102632823728	-0.813260845464501	-0.470262136746605	-0.341069050421118	0.70195734992147	0.625242178468523	-0.827825781760475	-0.539424400595186	0.15403178598972	0.445394631644226	-0.465056120198144	0.765079360046233	11.3830680392841	-38.6999649170948	115.914322767888
25580	1651817877360	6.26734168879358	1.50836352773165	7.69266646361643	0.0402917145862154	0.00821340215840342	0.223754178220609	-0.00135841114224385	-0.00459758212041979	-0.00860954570360002	0.2021484375	-0.2451171875	0.613037109375	0	0	0	-0.329118822749109	0.0956210158651455	-0.81324048463817	-0.470294945733667	-0.341006929059215	0.701984426839438	0.625245662766652	-0.82786713152588	-0.539358570684569	0.154040075201911	0.445365340897465	-0.465091600336972	0.765074843674316	11.3837300699739	-38.7002207193221	115.90935190565
25581	1651817877361	6.28684981498024	1.5066427784951	7.67757417974188	0.0281340265825583	0.0277389248550248	0.224146665965293	0.00351876128781427	-0.00461244052224764	-0.00866597629782644	0.19873046875	-0.23681640625	0.607177734375	0	0	0	-0.329156460977158	0.0957346745779094	-0.813188705812695	-0.470335013601081	-0.340881998355726	0.70191886866359	0.625387371963196	-0.827965615371048	-0.539239694128665	0.153926904858332	0.445277894084412	-0.46532832934397	0.764981792560909	11.3769324153937	-38.71062517636	115.903204055001
25582	1651817877361	6.25081468725576	1.48875428573801	7.71339227277227	0.0716673451129099	-0.00450030271693327	0.226253687320058	0.00359387546237232	-0.00621057643762863	-0.00844418197336646	0.19384765625	-0.24072265625	0.60546875	0	0	0	-0.32917527731172	0.0957303632912916	-0.813168028576142	-0.470358471436903	-0.340813090308584	0.701936804117742	0.625404797310736	-0.827985079651993	-0.539197211783315	0.153971018957404	0.445294447919571	-0.465350502127234	0.764958668701738	11.3804429094723	-38.7119046705563	115.898077306459
25583	1651817877362	6.27051599366604	1.48699710777913	7.69815037427338	0.0590205382189825	0.017296222700889	0.226648660889035	-0.000713173820761582	-0.00757369022870805	-0.00673923800144896	0.197021484375	-0.240234375	0.599609375	0	0	0	-0.329147274373471	0.0957670810501605	-0.813166073104913	-0.470373974100165	-0.340820792523464	0.70194136741484	0.625395478153995	-0.828027262224294	-0.539153981352698	0.153895540562016	0.445210108147848	-0.465393705483132	0.764981475919295	11.3746792634658	-38.7112203882729	115.898439712092
25584	1651817877363	6.27093642216431	1.48748664774316	7.69771331496698	0.0585601215230022	0.0173218038340496	0.226651312982929	0.00262810438527447	-0.00591175545633685	-0.00652349825622584	0.19970703125	-0.233642578125	0.599609375	0	0	0	-0.32916140067886	0.095769209754025	-0.813150077691428	-0.470391307229041	-0.34076958077297	0.701950401588249	0.625413244607044	-0.828044510486418	-0.539120553092887	0.153919842405478	0.445217229533092	-0.465418803813206	0.764962061532441	11.3767098180487	-38.7125249399766	115.894767226452
25585	1651817877363	6.26891494074606	1.51144692008898	7.69077911342498	0.0365643620723311	0.0051732875606848	0.22377047714958	0.000522014214514345	-0.00285846747329893	-0.00789907979522931	0.1982421875	-0.234375	0.6015625	0	0	0	-0.329183016674985	0.0958204631833085	-0.813119899014321	-0.470417910155462	-0.340691062675448	0.701927388940522	0.625481846633628	-0.828097265460026	-0.539050857280608	0.1538801228316	0.445179198470347	-0.465534224220069	0.764913960736184	11.3745471357548	-38.7175624598806	115.890318276299
25586	1651817877364	6.25446176332489	1.50535982999036	7.67213606040365	0.0384939866780326	0.00685621875270393	0.199532323106521	0.000823330927178152	-0.00925052343237056	-0.00701174519150734	0.199951171875	-0.2451171875	0.606201171875	0	0	0	-0.329206967376294	0.0958373969442052	-0.813096168462693	-0.470438717378949	-0.340620371643506	0.701923159576175	0.625525091800513	-0.828124514813135	-0.539005213075616	0.153893366467892	0.445182603419037	-0.465593447470978	0.764875931955725	11.3760513898549	-38.7207381810215	115.885783610347
25587	1651817877365	6.26961926487348	1.51262851338291	7.68997262585424	0.0350086106565703	0.00413839844888046	0.223776504489196	0.00344330153885419	-0.00301513192787593	-0.00888821126529516	0.205078125	-0.24267578125	0.6083984375	0	0	0	-0.329209033685632	0.0958940201669672	-0.813071384565264	-0.470468567108489	-0.340561479005315	0.701910703075874	0.62557113418479	-0.828187413937466	-0.538927328518205	0.153827637217129	0.445110645135887	-0.46570237221187	0.76485149807198	11.3716729919656	-38.7241194717364	115.882291852364
25588	1651817877365	6.25510180463958	1.50654272860449	7.67138203163475	0.036939045254784	0.00581498221613914	0.199538839524719	-0.00217309209743484	-0.00749670584130457	-0.00624429920661717	0.196533203125	-0.240478515625	0.61083984375	0	0	0	-0.329218488987416	0.0959208060487802	-0.813050764643616	-0.470492124895015	-0.340504693841232	0.701910158149714	0.625602656131136	-0.828225769469052	-0.538872718757451	0.153812443470446	0.445082720693003	-0.465766382283217	0.764828770951589	11.370908136344	-38.7264344933107	115.878557190052
25589	1651817877366	6.29180361223723	1.48785228803192	7.68110030425353	0.0437471868417542	0.0360334681711337	0.227062970571255	0.00255304710973433	-0.00431415904305467	-0.00674555911890678	0.19482421875	-0.249755859375	0.60791015625	0	0	0	-0.329216877335313	0.0959832733241244	-0.813028147734508	-0.470519595671601	-0.340455115533238	0.701892723642962	0.625649197877144	-0.828289977723723	-0.538797042662039	0.153731778175741	0.445001154054329	-0.465880189872572	0.764806917839144	11.3654163080602	-38.7298527298604	115.875839890483
25590	1651817877367	6.25580480740641	1.46960849104929	7.71699706879194	0.0872648312247484	0.00376406105487957	0.229187827325866	-0.000292702229853934	-0.00575616539594183	-0.00553436376294296	0.19677734375	-0.245361328125	0.604736328125	0	0	0	-0.329223390073218	0.0959999207460793	-0.81301284243935	-0.470538088441449	-0.340411733509129	0.701896178809952	0.625668926718673	-0.82831785622909	-0.538755845085227	0.153725952391087	0.44498244992511	-0.465922626149976	0.764791949290888	11.3652134631822	-38.7313017546662	115.872862278296
25591	1651817877368	6.29214426081648	1.52692147173796	7.63421142384398	-0.013021391082078	0.035999601972295	0.19742187775466	0.00816890871205278	0.000167589625951699	-0.00939004515279155	0.192138671875	-0.238525390625	0.60400390625	0	0	0	-0.329090977001709	0.0961192965103315	-0.81303943727562	-0.470560392647918	-0.340544091454196	0.701904327290712	0.625587753321794	-0.82843230007992	-0.538667995418793	0.153416801217446	0.444668017694021	-0.466011916201799	0.764920419388839	11.3410948132093	-38.7253399980841	115.881347372837
25592	1651817877370	6.23453518136778	1.49681694303018	7.72465142149047	0.0720309468049947	-0.0302319354712684	0.22593938709042	-0.00217236629893552	-0.00749776440821712	-0.00624379943797465	0.19287109375	-0.24658203125	0.60546875	0	0	0	-0.329099377888949	0.0961478027711453	-0.813018984479557	-0.470584031147697	-0.34048853820378	0.701903138077248	0.625619325236333	-0.828471866386741	-0.538612539302127	0.153397845852487	0.444636842780175	-0.466077801728236	0.764898398990776	11.3400478728891	-38.7276587290701	115.877714673002
25593	1651817877371	6.2757700152991	1.50691257085113	7.65491643913272	0.0156746063689326	0.0257264052395349	0.199950296488899	-0.00120668572057149	-0.00779706772317241	-0.00816484072224708	0.197509765625	-0.245361328125	0.605712890625	0	0	0	-0.328978561514472	0.0962277704688749	-0.813048602873792	-0.470600989819862	-0.340615628888871	0.701929207554934	0.625520887691164	-0.828556701581315	-0.538549849142312	0.153159564681692	0.44438135156792	-0.466110982031207	0.765026644508917	11.3210390712475	-38.7204294448621	115.885276360724
25594	1651817877372	6.24002792030894	1.48902691602884	7.69055047449727	0.0591313369978647	-0.00655332606268104	0.202110515979434	0.0105794462208801	-0.00927714849617	-0.0071278803727679	0.1962890625	-0.2353515625	0.59912109375	0	0	0	-0.329023530647593	0.0962075915619092	-0.81302975076806	-0.47060624727268	-0.340546552616234	0.701924636958397	0.625563625486666	-0.828542882761601	-0.538547718707563	0.153241789665795	0.444460050990294	-0.466120326424092	0.764975231212098	11.327701374442	-38.7235680321362	115.880858921357
25595	1651817877373	6.26773449003379	1.52632978474073	7.71997958939678	0.0310074700678602	-0.0216837254463733	0.247672048192582	-0.00386062026268789	-0.00262666099365485	-0.0064142933719575	0.19482421875	-0.23681640625	0.602294921875	0	0	0	-0.328972505705611	0.0962929514734805	-0.813026405740198	-0.470630238675197	-0.340568537868598	0.701914155709454	0.625563417271766	-0.828625089821533	-0.538469691882107	0.15307139328642	0.444289918332953	-0.466226242224817	0.765009515972595	11.3149367096912	-38.7235527408722	115.882647569203
25596	1651817877374	6.2987537321425	1.48280034841063	7.645257778052	0.0232393115152358	0.0577988082391484	0.203253983750187	-0.0033284747034979	-0.0138133077529644	-0.00486071941732979	0.195556640625	-0.240478515625	0.605224609375	0	0	0	-0.329001847475876	0.0963442044010907	-0.812998754821655	-0.470647004977424	-0.340498362126482	0.701876015531269	0.625644407160435	-0.828665700497478	-0.538418381968204	0.153032031868381	0.444267962167211	-0.46634290471786	0.764951157271562	11.3129429253254	-38.7295008703839	115.879233280592
25597	1651817877375	6.23926865052034	1.51354563385441	7.68246195440295	0.0337481577041478	-0.0180515215029813	0.199208088466817	0.00450888386782713	-0.00417137049709693	-0.00581478916456013	0.19384765625	-0.240966796875	0.59912109375	0	0	0	-0.328962121823907	0.0963474292494713	-0.813013280424971	-0.470649021176883	-0.340546842540708	0.701898499755269	0.625592794137573	-0.828677118788008	-0.538413343484519	0.152987922252134	0.444209501060882	-0.466314880310636	0.765002190564261	11.309031133901	-38.7257102048497	115.881715972749
25598	1651817877376	6.28865766023066	1.52479683018632	7.70367439304414	0.0171438052443092	0.000277976841710909	0.248054441316281	-0.00248966923837185	-0.0101750033291268	-0.00245185956675558	0.204345703125	-0.23828125	0.599609375	0	0	0	-0.328977127392356	0.096390682307997	-0.812997869913259	-0.470656296604408	-0.340513400238594	0.701864473655145	0.625649170764845	-0.828705792747441	-0.538382973661645	0.152939474100312	0.444181644515829	-0.46640115168386	0.764965772033744	11.3060664180578	-38.7298507385628	115.880597014958
25599	1651817877377	6.28119197976235	1.48591401666776	7.65850559813977	0.0313913952185153	0.0349067199351551	0.202891363856775	-0.00167669033561359	-0.00727804545353752	-0.00481696151784618	0.203125	-0.23193359375	0.60595703125	0	0	0	-0.328998536816072	0.0965013364926721	-0.812966144556018	-0.470673456478837	-0.340452920278297	0.70178557350314	0.625770579283533	-0.828780767530679	-0.538307978842786	0.1527971180535	0.4440881088762	-0.466606395945302	0.764894909656024	11.2968330011516	-38.7387682995373	115.879129781088
25600	1651817877378	6.27036488058648	1.52763255373026	7.71758551674901	0.026859786196039	-0.0229270291502251	0.247681220344269	0.00450865844016726	-0.0041713768849095	-0.00581526905605858	0.2001953125	-0.23583984375	0.6064453125	0	0	0	-0.329007381606509	0.0964971663419929	-0.812955838168805	-0.470685930237618	-0.340417795849555	0.701797189799919	0.625776660365236	-0.828790309922426	-0.538286103928628	0.152822421444066	0.444097226345336	-0.466614160421944	0.76488487947279	11.2988000022249	-38.7392149895427	115.876435987362
25601	1651817877379	6.27777843274665	1.49555599780807	7.69056959801977	0.0413346982868774	0.0115599323195132	0.226745299979015	-0.00372076280425303	-0.0148924486857024	-0.00129057292721496	0.19873046875	-0.235107421875	0.6123046875	0	0	0	-0.32913004942528	0.0964991150818575	-0.812904555150906	-0.470688342290989	-0.340251789993347	0.701727877976772	0.62594464985056	-0.828770912042322	-0.538280810439559	0.152946214288126	0.444260615808853	-0.46672449516042	0.764722662707462	11.3100536302404	-38.7515558767479	115.867685010117
25602	1651817877380	6.28303690990921	1.48647181261402	7.65688382328673	0.0320344682658111	0.0349027498308887	0.202889341491534	-0.00214623442676682	-0.00675799343675666	-0.00146928379686529	0.2021484375	-0.23583984375	0.60498046875	0	0	0	-0.329132500262364	0.0965346748467286	-0.812896691751723	-0.470692917263883	-0.34023994981732	0.701704032760921	0.625977816663952	-0.828794828338193	-0.538258468379703	0.152895237785228	0.444225065781044	-0.466786109074164	0.764705707646563	11.3066253682575	-38.753992637989	115.867666619977
25603	1651817877381	6.25753216687321	1.5212448055215	7.69768787539869	0.031322738329004	-0.0207859930758057	0.223441373231282	-0.000216226418894129	-0.00735628661938034	-0.00531214436554913	0.1953125	-0.238037109375	0.60986328125	0	0	0	-0.329190451927811	0.0964995960331387	-0.812868736643927	-0.470707861961016	-0.340135510095305	0.70171391890323	0.626023490605326	-0.828780901419231	-0.53824387330706	0.153022058181627	0.444331016489884	-0.466788077038054	0.76464294865001	11.3166666652147	-38.7573484323751	115.860444910195
25604	1651817877382	6.26493882457113	1.48905187515225	7.67069349201762	0.04358617359269	0.0136522276946131	0.202510407937192	-0.00241233389868018	-0.0117744623220042	-0.00222964327560227	0.192626953125	-0.2431640625	0.60400390625	0	0	0	-0.329213521473487	0.0965462220781816	-0.812850569627037	-0.470713538936855	-0.340094443081135	0.701670893001323	0.626094024648103	-0.828808180022601	-0.538215182527944	0.152975220294123	0.444311569186485	-0.466885826740476	0.764594568562912	11.3139895308837	-38.7625310791342	115.859108497248
25605	1651817877382	6.28050853093972	1.49568342343252	7.68831542709384	0.038587684477896	0.0128495450811979	0.226754666495735	-0.000609009870867074	-0.00843428006201924	-0.00174280524503281	0.193115234375	-0.23828125	0.6083984375	0	0	0	-0.329124150039704	0.0965831823072921	-0.81288960268777	-0.470701048010474	-0.340235634524968	0.701680260233868	0.626006809385907	-0.828831691373937	-0.538224424594475	0.1528152353143	0.444159588856991	-0.46686109408268	0.764697965512078	11.3009729296217	-38.7561227974475	115.868143380559
25606	1651817877383	6.29830657152163	1.4789353122949	7.71261938928526	0.0571830275773981	0.0222625781341241	0.253923168592712	-0.00248863405517134	-0.0101766057211921	-0.00245142188293358	0.201416015625	-0.24609375	0.6025390625	0	0	0	-0.329139892435732	0.0966259400511193	-0.812873912477953	-0.470708361227435	-0.340201139755954	0.701646191424207	0.626063740020658	-0.828859997483915	-0.53819413275964	0.152768386893569	0.444133188446567	-0.466947210638422	0.764660717833264	11.2981336859717	-38.7603058021993	115.86695494363
25607	1651817877384	6.28643222954115	1.48666711532217	7.65405852637015	0.0270987787362291	0.035755418338161	0.202900904241561	-0.00436821664832666	-0.0119190715313689	-0.00315996443504985	0.19677734375	-0.2392578125	0.60693359375	0	0	0	-0.329098906980499	0.0967422746117752	-0.812870614357648	-0.470718818447915	-0.340235406766479	0.701591436615841	0.626106479801773	-0.828942543950011	-0.538129452523877	0.152548192896661	0.443952843004899	-0.467104001688781	0.764669683454362	11.2821381274677	-38.7634462885466	115.870975989909
25608	1651817877385	6.26784970135757	1.48912151826652	7.66830162320778	0.0377819610655794	0.0140621758781342	0.202533418763243	0.00173961946022238	-0.00721286569456146	-0.00438221055381545	0.19384765625	-0.241455078125	0.612060546875	0	0	0	-0.329113075452786	0.0967581290619743	-0.812857416798353	-0.470728443991165	-0.34019863116733	0.701581483131046	0.626137615767906	-0.828958944853622	-0.538105192956165	0.152544646122958	0.443950401620548	-0.46714689749719	0.76464489605287	11.2822388863989	-38.7657342224923	115.868863586869
25609	1651817877387	6.27094499950872	1.46574768306621	7.67427508037662	0.0573486568626646	0.0261859539538355	0.205480670145159	-0.00763123662248436	-0.0151829778494256	-0.00315052644827696	0.201171875	-0.241943359375	0.607177734375	0	0	0	-0.329055540527164	0.096816452971351	-0.812870364404121	-0.47073431610191	-0.340263309784886	0.701575969605747	0.626108647828786	-0.82900793066339	-0.538071556156226	0.152397018844925	0.443809340721259	-0.467193920473471	0.764698051364844	11.2708365542337	-38.7636055971927	115.873316765597
25610	1651817877388	6.29071514457988	1.50132510030615	7.6125620720636	-0.0062643929621139	0.0490378059308896	0.176092914242902	0.00354248674166777	-0.00387212375789851	-0.00389603417261965	0.2021484375	-0.24169921875	0.606689453125	0	0	0	-0.329059576510141	0.096817669227214	-0.812865026739267	-0.470740461758437	-0.34024642554084	0.701579353599842	0.626114031554245	-0.829014478538266	-0.538059513177726	0.152403919414414	0.443810054280667	-0.467202708555265	0.764692268064752	11.2714168969476	-38.7640011998968	115.872091940306
25611	1651817877388	6.28022874508006	1.50512139011016	7.71788833764573	0.0407560672966984	-0.011122027871734	0.250646034250867	-0.00201959606948941	-0.010698162788624	-0.00579900797258877	0.19189453125	-0.23291015625	0.612548828125	0	0	0	-0.329092205152174	0.0969209077878617	-0.812823234848298	-0.470768570565628	-0.34015054695135	0.701511434245611	0.626242215944729	-0.829095095322642	-0.537966581202344	0.152293402422432	0.44373294707587	-0.467411665592685	0.764609316283313	11.2646430823736	-38.7734209929742	115.867930050611
25612	1651817877389	6.29434852867642	1.47836464406276	7.61800438156799	0.0139344944165003	0.0589482432829242	0.179044569041375	-0.00478648754845846	-0.0137405931356024	-0.00436356469148754	0.200927734375	-0.23876953125	0.60302734375	0	0	0	-0.329117148628775	0.0969788865193757	-0.812796328107285	-0.470785648743929	-0.340085550830446	0.701470864032442	0.626322955854191	-0.829140522466244	-0.53791193701244	0.152239094926136	0.443697883836239	-0.467535426393663	0.764553996095855	11.2615227582389	-38.7793549065625	115.864932617377
25613	1651817877390	6.26904495945191	1.47562953492716	7.70509438588566	0.0639561056424488	0.0030392306249836	0.229363574763415	0.00727331979831793	-0.00112872474757042	-0.00725410210212505	0.197021484375	-0.239013671875	0.6083984375	0	0	0	-0.329103362725195	0.0968743369949853	-0.812812844773818	-0.470788295144904	-0.340098715595048	0.701562206792242	0.626213488876915	-0.829088887059536	-0.537947487972675	0.152394611250756	0.443784273048267	-0.467357433004642	0.764612678949501	11.2718892554733	-38.7713098396927	115.862874750453
25614	1651817877391	6.28859323058514	1.4738616990797	7.68991352823903	0.0522069099844943	0.0247255914615612	0.229727996444648	-0.00355636783567518	-0.00902317579404168	-0.00552437498207609	0.18896484375	-0.236572265625	0.611328125	0	0	0	-0.329112530936678	0.0969135801506559	-0.812791757811524	-0.470810214838729	-0.340045367167929	0.701550376937749	0.626255712058686	-0.829132271519817	-0.537890999171786	0.152357964459911	0.443744098092603	-0.467440201125749	0.764585399925673	11.2696398222178	-38.7744128444641	115.859726003203
25615	1651817877393	6.315044839496	1.43945631513905	7.64820983591208	0.052022129131029	0.0830195848983502	0.209155827607368	-0.000789718088291475	-0.00598092706263689	-0.00696013232163721	0.19189453125	-0.23828125	0.6083984375	0	0	0	-0.329022079905113	0.096852392649971	-0.812833334875982	-0.470814246478671	-0.340156832495269	0.7016538767978	0.626079201444515	-0.829120179491721	-0.537907118701395	0.152366858633954	0.443681256383906	-0.46726627186753	0.764728169945778	11.2682306191498	-38.7614418798142	115.86377911014
25616	1651817877392	6.27011757102385	1.47727941341234	7.70390537302695	0.0611255384754697	0.00522931519927232	0.22938030157065	0.00935525364961794	-0.0049233103987554	-0.0106552921781248	0.19140625	-0.23974609375	0.6025390625	0	0	0	-0.329046807161689	0.0968203193852875	-0.812813676471441	-0.470837500409439	-0.340080493809779	0.701689485532632	0.626080764456988	-0.829123153381048	-0.537875747924644	0.152461392890044	0.443734215784139	-0.467248911916822	0.764708048901658	11.2753318875153	-38.761556728166	115.857590288375
25617	1651817877392	6.28734337189545	1.49935946551555	7.68201047477714	0.025786042559022	0.0173617865216873	0.226788919764244	-0.000321618426357033	-0.00650240199276636	-0.0103076454328107	0.194091796875	-0.2412109375	0.605712890625	0	0	0	-0.328940975936286	0.0968009524816627	-0.8128524320224	-0.47084852522228	-0.340199001292175	0.701777138120422	0.62591811599547	-0.829144337243942	-0.537862483789293	0.152392967515947	0.443603773131058	-0.467132526103165	0.764854819897453	11.2682936448872	-38.7496064979349	115.862616445785
25618	1651817877394	6.27741292348456	1.44672689575647	7.67667366302871	0.0707810634192556	0.0412592777474737	0.208467156467394	0.00547084967213466	-0.00447009927169464	-0.00774097112678109	0.194580078125	-0.23681640625	0.609130859375	0	0	0	-0.328952465160915	0.0967880670664158	-0.812839007314358	-0.470866322777828	-0.340150363476487	0.701799682249668	0.625919272926693	-0.829154375288298	-0.537833952294468	0.152439042569762	0.443622308013345	-0.467131507986325	0.764844691476208	11.2717587741399	-38.7496914937923	115.858678597388
25619	1651817877395	6.30512528229499	1.48478654698787	7.70592094085192	0.042491015221838	0.0279790498115673	0.253981639316429	0.0128985218957386	-0.00879601867456979	-0.0145525072408914	0.2001953125	-0.231689453125	0.605224609375	0	0	0	-0.328928658714019	0.0967164269758733	-0.812848977866653	-0.470880461912314	-0.340155056131685	0.701883795124031	0.625822399671295	-0.829135013527176	-0.537835046684533	0.152540459882403	0.443654896435663	-0.467003855123417	0.764903740459234	11.2782172636533	-38.7425748910205	115.856293865059
25620	1651817877396	6.24505141165923	1.55450983087981	7.69699631946429	0.0022119694404907	-0.0469830289262402	0.220193971266413	0.00724411471928016	-0.0018721060563331	-0.0120289444017687	0.201416015625	-0.2421875	0.610595703125	0	0	0	-0.328935325220675	0.0966828505335816	-0.81283092117747	-0.470913868783301	-0.340083360019025	0.701941897749703	0.625796197193396	-0.829151517283805	-0.53778510920049	0.152626792235773	0.44367901643433	-0.466974034080872	0.76490795646934	11.2843759793717	-38.7406500994918	115.849693122264
25621	1651817877397	6.29525211750384	1.47177090515416	7.6536987914378	0.0361580088202666	0.0530130600283091	0.205860242848175	-8.8096947212739E-05	-0.0113003845027193	-0.00964086937547325	0.19580078125	-0.240234375	0.60791015625	0	0	0	-0.329007143484517	0.0966820427685479	-0.812781151251337	-0.470949766230764	-0.339921234446695	0.70194002092212	0.62588638058364	-0.829176351792232	-0.53771780058658	0.152728990571067	0.443756838821399	-0.467054358678072	0.764813764284518	11.2930928047243	-38.7472750431029	115.839034559139
25622	1651817877398	6.29565878706376	1.47279435256085	7.65316740389499	0.03560441072787	0.0530568090288165	0.205861993954532	0.00878174297989738	-0.00354789436971558	-0.0123038577505936	0.20068359375	-0.233642578125	0.6025390625	0	0	0	-0.329024788791728	0.0966454302617402	-0.812760278967689	-0.47098097424678	-0.339839220516226	0.701991771475464	0.625872876053648	-0.829186740593683	-0.537673165414155	0.15282969743197	0.443800240448953	-0.467027964873907	0.764804698340164	11.3004782324448	-38.7462829504514	115.831954946485
25623	1651817877399	6.28467576538124	1.51544167289807	7.71224682038197	0.0312747499677192	-0.0045173181926407	0.25068509878442	0.00739941024850034	-0.00506985374696916	-0.0115853279567834	0.197021484375	-0.24462890625	0.604736328125	0	0	0	-0.329053244873372	0.0966023156808117	-0.812739524177537	-0.471005754193174	-0.339755083110449	0.702035374221579	0.625869648443013	-0.82918459596979	-0.537643144244049	0.152946903380845	0.443868662226822	-0.466996983704329	0.76478390928682	11.3092208647423	-38.7460458402942	115.824995860065
25624	1651817877400	6.29609822233279	1.47488512385941	7.65240321477301	0.0347690884888214	0.0533123206076321	0.20586357132871	-0.00420489128634609	-0.00605328644264784	-0.00739101388015207	0.200927734375	-0.2412109375	0.606201171875	0	0	0	-0.329048222571753	0.0966322479589584	-0.812719814421393	-0.471037131364	-0.339702576197489	0.702049081107454	0.625882774520093	-0.829235758843486	-0.537572459061545	0.152917976424589	0.443813267016723	-0.467057746937896	0.764778951753537	11.3072084604495	-38.7470101270069	115.821085078845
25625	1651817877402	6.28148511227268	1.46895069346925	7.63386906656373	0.0352340205593923	0.0539590673238336	0.181644787651837	0.0102710016423761	-0.00288082967500825	-0.00802740972274386	0.2021484375	-0.2353515625	0.603759765625	0	0	0	-0.329027266654151	0.0966818672346662	-0.812716964518114	-0.471046505061421	-0.339712495735039	0.702033030458285	0.625895394125112	-0.829276912503252	-0.537535613234879	0.152824300728898	0.443728771470304	-0.467124275380503	0.764787348692233	11.3003392119999	-38.7479372188218	115.822254655657
25626	1651817877403	6.26623220764464	1.52017864553583	7.72596209344843	0.0393552870115625	-0.027132453824622	0.250354641983058	0.00171453010477488	-0.0079600572763955	-0.00915486580473291	0.193359375	-0.241943359375	0.6044921875	0	0	0	-0.3290445478139	0.0966899170234361	-0.812692819427491	-0.471074438651624	-0.339637117606007	0.702047047365742	0.625920579330419	-0.829308207466302	-0.537479866390117	0.152850548753648	0.44372798579007	-0.467167353857594	0.764761490999895	11.3026024323052	-38.749787471015	115.816821265564
25627	1651817877404	6.30130167436522	1.46829917141286	7.6182323155773	0.0224544568122096	0.0755636481894398	0.181988959115827	2.00276558806635E-05	-0.00308785242273194	-0.00932466654493418	0.19482421875	-0.238525390625	0.607177734375	0	0	0	-0.329023916801455	0.096708970917828	-0.812683354483393	-0.4711012656131	-0.33961371942073	0.702073184877207	0.625903958014001	-0.829351442482094	-0.537421944963501	0.152819625456014	0.443665083631884	-0.467194709032564	0.764781274233288	11.3000898454723	-38.7485663667083	115.814437632219
25628	1651817877405	6.25838746073578	1.48255158408006	7.68086818218388	0.0530717769758364	0.00889864729517117	0.205207276224298	0.00328072154693465	0.000178219950392497	-0.00933672565692925	0.19482421875	-0.24609375	0.606689453125	0	0	0	-0.329011836961124	0.0966912398742546	-0.812672951675701	-0.471131286252303	-0.339573044507434	0.702126181152703	0.625866577781457	-0.829376430949012	-0.53737223049166	0.152858829259867	0.443649504936308	-0.467172250499042	0.764804030542092	11.302586458433	-38.7458202608277	115.810052380568
