// Start Time : 08/03/2022 10:59:43																																
// Update Rate : 100Hz																																
// Filter Profile : 46.1 human																																
// Firmware Version : 4.4.0																																
PacketCounter	Time_Of_Arrival	Acc_X	Acc_Y	Acc_Z	FreeAcc_X	FreeAcc_Y	FreeAcc_Z	Gyr_X	Gyr_Y	Gyr_Z	Mag_X	Mag_Y	Mag_Z	VelInc_X	VelInc_Y	VelInc_Z	OriInc_q0	OriInc_q1	OriInc_q2	OriInc_q3	Mat[1][1]	Mat[2][1]	Mat[3][1]	Mat[1][2]	Mat[2][2]	Mat[3][2]	Mat[1][3]	Mat[2][3]	Mat[3][3]	Euler_X	Euler_Y	Euler_Z
22631	1646737224731	9.66873387689886	-0.308351425771916	1.79947737225162	8.67361737988404E-17	-6.93889390390723E-16	0.0269067683523332	0.0144550448923898	0.0414079733425819	-0.0107827205296468	0.545654296875	0.440673828125	0.1640625	0	0	0	-0.493085666288545	-0.406852251595357	-0.577205876744926	0.508105448626259	0.00260924244581945	-0.185336874788605	0.982671580283796	0.98778892902417	-0.152600196896194	-0.0314040061859471	0.155776196997947	0.970754048536928	0.182675542145141	-9.75445004143057	-79.3181555891209	-89.1934216851951
22632	1646737224732	9.69802239740005	-0.281392070420939	1.75877746180658	1.73472347597681E-16	0	0.0475416580297328	0.011409974474041	0.0444723599550463	-0.0109185631193147	0.55322265625	0.426513671875	0.156005859375	0	0	0	-0.491643849720445	-0.411352730009471	-0.574082299004464	0.509416107436313	0.00243689096700889	-0.180415460664145	0.983587476087287	0.989371619763629	-0.142568321996381	-0.0286019504479858	0.145388650068386	0.973203234230384	0.178150513091632	-9.12096449530514	-79.6050812131521	-89.2261468230412
22633	1646737224732	9.69724243128638	-0.304583926528078	1.76243037075041	-0.0110956628594085	-0.015473070097119	0.0480975296965731	0.0158896084098819	0.0444411890671964	-0.00912481425916462	0.546142578125	0.43359375	0.164306640625	0	0	0	-0.492370801919534	-0.408958953376898	-0.575817527590464	0.508682359424417	0.00237349874495391	-0.183097541412591	0.983091886261082	0.988535332718017	-0.14798966332656	-0.0299492156253031	0.150971065015079	0.97189214930318	0.180647135739975	-9.41335924598383	-79.4488683638743	-89.2573147452242
22634	1646737224733	9.71776038818204	-0.304111418464409	1.79429673008265	-0.00773400172154256	0.00709806659527912	0.074007680570606	0.0205538061629999	0.0520956572961486	-0.0102673785091882	0.543701171875	0.42919921875	0.156005859375	0	0	0	-0.492147522532407	-0.408910889092168	-0.575929842014267	0.508809903524379	0.00219340371854798	-0.183588652697712	0.983000709857712	0.988566576710649	-0.147808733714729	-0.0298110994134206	0.150769069741496	0.971827034424484	0.181165401694133	-9.34438592871093	-79.4203774237102	-89.3154980169046
22635	1646737224734	9.68970821194344	-0.278919479345167	1.82150113312135	0.0190583486079169	0.0299352961792294	0.0506206943974377	0.0205542328216945	0.0536250967904358	-0.01024576253335	0.55078125	0.429931640625	0.160400390625	0	0	0	-0.49191912511059	-0.408858546118822	-0.576047011063509	0.508940177880301	0.00200906062080136	-0.18409625995464	0.982906165789052	0.988597613157673	-0.147629169209541	-0.029671327193973	0.150568001030674	0.97175830095205	0.181700527232071	-9.27442466367719	-79.3909140364663	-89.3747503345129
22636	1646737224735	9.71596458190308	-0.276981171925269	1.8052257474749	0.0164752079276693	0.0041410625647588	0.0734259085800737	0.0190290122473271	0.0490437484816217	-0.0104014302922075	0.544921875	0.439208984375	0.154052734375	0	0	0	-0.491708163193344	-0.40881412109265	-0.576155185805514	0.509057264473935	0.00183243252931475	-0.184557484457317	0.982820012576979	0.988626446737189	-0.147463431763117	-0.0295344731533057	0.150380819930018	0.971695976745521	0.182188193288544	-9.20809761196699	-79.3641358097031	-89.4311409225064
22637	1646737224736	9.68789203887622	-0.25173677128897	1.83230769551755	0.0432797919362586	0.026986718130223	0.0500389824265834	0.0175992467927159	0.0551828178099973	-0.0119309540423597	0.539794921875	0.427734375	0.16064453125	0	0	0	-0.491479557743448	-0.408753655145356	-0.576285580821354	0.509178969580452	0.00163075748541169	-0.185076865139664	0.982722694670322	0.988653127767093	-0.147314452684603	-0.0293844344267442	0.1502076349137	0.971619784699916	0.182736587451233	-9.13508338590563	-79.3339672952666	-89.4951659500191
22638	1646737224736	9.68690765375402	-0.250332640648496	1.83769657189751	0.0432797918659475	0.0269867182092917	0.050038982426674	0.0175067941991488	0.0551629108620155	-0.0104079883962707	0.546630859375	0.435302734375	0.15771484375	0	0	0	-0.491254746578098	-0.408689219647539	-0.576411830938105	0.509304719066058	0.00144504579693483	-0.185597493190263	0.982624792260065	0.988679569298872	-0.147163649761858	-0.0292501186282448	0.150035399468399	0.971543324155058	0.183283791416749	-9.06732737368072	-79.3037024505993	-89.5539091019935
22639	1646737224737	9.68591985315713	-0.2488990618927	1.84309004917792	0.0432360504013838	0.0269566478305061	0.050039256510475	0.0221688063799357	0.0551763329670656	-0.0116531323125481	0.54248046875	0.435302734375	0.15576171875	0	0	0	-0.491013381141255	-0.40864145943597	-0.576533418149913	0.509438156135415	0.00124275077283653	-0.186119393641174	0.982526349204518	0.988713092329785	-0.146969845406778	-0.0290909882400553	0.149816142742336	0.971472817865611	0.183836034340547	-8.99216191103125	-79.2733555744582	-89.6174320434887
22640	1646737224738	9.68197225291994	-0.223548265227517	1.8733009087983	0.0704377529708787	0.0481985291063226	0.0510102028612866	0.0207382416472117	0.0536722488099646	-0.0132898798224342	0.550048828125	0.430908203125	0.165283203125	0	0	0	-0.490778662268425	-0.408597137159358	-0.576656641317207	0.509560400926082	0.00103099505986942	-0.186621265929012	0.982431392084068	0.988744291456124	-0.146793154626455	-0.0289222382906472	0.149611707971381	0.971403249355213	0.184369368334384	-8.91539800514322	-79.2441634814955	-89.6834708821541
22641	1646737224738	9.65980780324544	-0.27010260029029	1.84971553618568	0.018508172178363	0.0314355908684082	0.0262636501123161	0.0190276752204734	0.0475203036050969	-0.010420326913448	0.5419921875	0.432861328125	0.163330078125	0	0	0	-0.490566751474757	-0.408557164931242	-0.576765159965022	0.509673675582106	0.000845986467738147	-0.187074915670036	0.982345285647539	0.988773160438259	-0.146627574803945	-0.0287748415121782	0.149421957903897	0.971340995857872	0.184850610661701	-8.84795856036938	-79.2177598268281	-89.7408999301619
22642	1646737224738	9.68312690774479	-0.219875950399586	1.85896264363463	0.0673556770293596	0.0239422034605551	0.0494585330545156	0.0176919022174428	0.0536790812595397	-0.0134775892673945	0.55078125	0.4306640625	0.161865234375	0	0	0	-0.49033931231253	-0.408504432271992	-0.576895006606457	0.509787837210293	0.000632560333347021	-0.187576550636909	0.982249783669401	0.988799680224385	-0.146480979693179	-0.0286097007373392	0.149247419594371	0.97126636935461	0.185382975230025	-8.77310465404801	-79.188549656089	-89.8067834178759
22643	1646737224739	9.65487219212112	-0.24343474283174	1.88497291810369	0.0455386661856239	0.0525641757392975	0.0272364573129469	0.0189317216494337	0.058202945962417	-0.00875363189935653	0.546875	0.4326171875	0.15771484375	0	0	0	-0.490097311975023	-0.408433242408024	-0.577027931707788	0.509927129421409	0.000442105050202257	-0.188140325172619	0.982142058251792	0.98882846207428	-0.14631321835222	-0.0284730526503292	0.149057294806184	0.971182609079959	0.185973822581851	-8.70453319084596	-79.1556941420107	-89.865362692286
22644	1646737224739	9.62955348554022	-0.193339136166228	1.88890059463295	0.0936089113214536	0.0482947769499489	0.00171674220944418	0.0204545406270479	0.058201839125636	-0.00865898689769084	0.541259765625	0.44189453125	0.16259765625	0	0	0	-0.48985953297704	-0.408365062056682	-0.577150832293682	0.510071103696012	0.000269785748303553	-0.188692886887768	0.982036110157671	0.988858961220674	-0.146130890531548	-0.028349914391873	0.148855238501102	0.971102856174575	0.186551228085916	-8.64103973830333	-79.1234763500974	-89.9180807794472
22645	1646737224740	9.60126663421459	-0.217369093974425	1.91477019337307	0.0716733001176376	0.0768304211966698	-0.0205030803599335	0.0110318912863442	0.0520413345788849	-0.00474155845619202	0.5400390625	0.4296875	0.16845703125	0	0	0	-0.489657757011493	-0.408277443826722	-0.577279262632246	0.510189634151422	0.000116363594176438	-0.189211356845939	0.981936377215975	0.988876226376254	-0.146032132133512	-0.0282564203748624	0.148740698423042	0.971016827261536	0.187089619721583	-8.58855528516989	-79.0932344401829	-89.9647635210386
22646	1646737224741	9.57915717769287	-0.240313917009746	1.89172854120815	0.0440839443870879	0.0572012002440378	-0.0458341048274793	0.00208525867459232	0.0490375538090029	-0.00839996562040445	0.5478515625	0.4345703125	0.1591796875	0	0	0	-0.489493732864239	-0.408178923384005	-0.577416474038225	0.510270582633343	-3.96359713231709E-05	-0.189675231491667	0.981846884696169	0.988879331026637	-0.146027798008206	-0.0281700350937886	0.148720096480941	0.970926973962232	0.187571703983416	-8.54100595936332	-79.0661680662069	-90.0119729593728
22647	1646737224742	9.62971002530353	-0.287969861644935	1.8774312547272	-0.00697362369546008	0.0353421918187276	0.00248913414935181	-0.00420068231055855	0.0566509008633937	-0.00563777608062348	0.546630859375	0.435302734375	0.164306640625	0	0	0	-0.489308887336566	-0.408036709230867	-0.577594987971603	0.510359565956768	-0.000219852419742372	-0.190250278347526	0.981735597426111	0.988874231092443	-0.146078314712928	-0.0280870263994077	0.148753846156138	0.970806859040108	0.188165713386994	-8.48971580533318	-79.0326020731957	-90.0662107318276
22648	1646737224742	9.60143869829154	-0.28780199475416	1.90365008508059	-0.00438811128007141	0.0611381782668153	-0.0203138208139286	0.00370517339958227	0.0490573470737669	-0.00982476068118725	0.556640625	0.43115234375	0.166748046875	0	0	0	-0.489137696054076	-0.407946249093541	-0.577732502648336	0.510440327103093	-0.000389973531596255	-0.190712158468776	0.981645924217498	0.988879712050844	-0.146061060634797	-0.0279835962749662	0.148717056906351	0.970718826014217	0.188648344298843	-8.43757662027721	-79.0056288668793	-90.1171598419286
22649	1646737224743	9.60671851658894	-0.260896510734907	1.86051958730255	0.0135205510267068	0.00939989450701936	-0.0240016667546428	0.00247261796574238	0.0475911043424826	-0.0145094779229325	0.546142578125	0.436279296875	0.16455078125	0	0	0	-0.488941911733248	-0.407864453689625	-0.57789926675222	0.510504487594719	-0.00064195019258001	-0.191196286679328	0.98155161242799	0.988884389539496	-0.146063511124235	-0.0278049427828701	0.148685076672303	0.970623217668987	0.1891647887342	-8.36191077791497	-78.9773307416805	-90.1923724519966
22650	1646737224743	9.60899552672172	-0.283337507856527	1.84024239029504	-0.0136810205886428	-0.0118418842613668	-0.0249788499558026	-0.00371626089161149	0.0475794742850116	-0.0133748627991575	0.552978515625	0.438720703125	0.163818359375	0	0	0	-0.488786625806389	-0.407764952840851	-0.578057285609976	0.510553770156221	-0.000844964424148553	-0.191638542226527	0.98146520833314	0.98887876391125	-0.146125182027936	-0.0276807056026555	0.148721472291261	0.970526712826903	0.189630755335008	-8.30490218722534	-78.9514681425351	-90.2526244515184
22651	1646737224744	9.60501418716677	-0.258324829429758	1.8696554458311	0.0131566718163408	0.00898542463106458	-0.0240007816793888	0.000852277249452392	0.0475749172884253	-0.0130827342502152	0.54345703125	0.43798828125	0.158935546875	0	0	0	-0.488598694295257	-0.407675185500877	-0.578222904312702	0.510617794429435	-0.00108156788998026	-0.192122681512858	0.981370320245731	0.988880934842078	-0.146140822277691	-0.0275201157312182	0.148705503989458	0.970428634837364	0.190144518119592	-8.23538280548355	-78.9231348093597	-90.3225471361986
22652	1646737224745	9.6073111470413	-0.256514654082435	1.84986887466652	0.0101845303383898	-0.0151969879036665	-0.025557764325173	-0.00381247374366065	0.0445029387976631	-0.0118933798087814	0.545654296875	0.43310546875	0.16357421875	0	0	0	-0.488455507298798	-0.40757958869017	-0.578369746123754	0.510664795185032	-0.00126536869620825	-0.192537146374427	0.981288869858441	0.988875125407596	-0.146200691683563	-0.0274106567115666	0.14874268113818	0.970337469655398	0.190580192545252	-8.18457566580472	-78.8988708980039	-90.3765467775847
22653	1646737224746	9.62757311286335	-0.231734931524893	1.88204029087348	0.0373906046009407	0.00404001253325736	-0.000219535828634321	-0.00533447783240466	0.0429762917616917	-0.0120115082386915	0.543212890625	0.445068359375	0.16748046875	0	0	0	-0.488298980312277	-0.407482225552412	-0.578533729954519	0.510706437192402	-0.00148608167246878	-0.192975489576168	0.981202452088305	0.988868110506646	-0.146274341738194	-0.0272704413619207	0.148787269563893	0.970239288717942	0.19104468336969	-8.12373727006106	-78.8731843390298	-90.441219374192
22654	1646737224746	9.66050517883052	-0.277593040149825	1.81548528409697	-0.0196005620749061	-0.0642422185138595	0.0206178867878588	-0.0143743121968338	0.0445350471102196	-0.0141044002500479	0.54638671875	0.436767578125	0.17333984375	0	0	0	-0.488178107325823	-0.407361350923628	-0.578707747363909	0.510721262962924	-0.00169185417066742	-0.193386916657074	0.981121112857804	0.988846489823423	-0.146441042662466	-0.027159539536324	0.148928698353811	0.970132218560852	0.191477730602908	-8.07308101773683	-78.8490606862546	-90.5012419260437
22655	1646737224747	9.65337504949334	-0.277769222274871	1.86837369098637	-0.0140607964139645	-0.0161772487069084	0.0237329426700619	-0.0113324683903215	0.0491198998679399	-0.0138463006540254	0.537109375	0.433349609375	0.165283203125	0	0	0	-0.488017125347804	-0.407238437467785	-0.578902463523194	0.510752462688962	-0.00194241444885285	-0.193873054634037	0.981024701887254	0.988830380970677	-0.146577553811914	-0.027009227828683	0.149032562534149	0.970014566594432	0.191992280832125	-8.0077469342855	-78.8205336105886	-90.5740273013643
22656	1646737224748	9.63142593200166	-0.251594527804263	1.84629465587186	0.00681346966801217	-0.0416832135057103	-0.00275956156024826	-0.00686206142790675	0.0475675164349402	-0.0120467226223452	0.542236328125	0.435546875	0.166015625	0	0	0	-0.487872408942228	-0.407126475062415	-0.579063270323604	0.510797684859957	-0.00213247546922957	-0.194316807471748	0.980936507059636	0.988819904003182	-0.146667516889921	-0.0269042178195546	0.14909946343133	0.969912170159408	0.19245709179232	-7.95799639661357	-78.7945004096001	-90.6287512712694
22657	1646737224748	9.6516284672812	-0.251379585719943	1.87807794860173	0.00982569438318257	-0.019296235394381	0.0231567831671562	-0.0160954657860683	0.0444973737741149	-0.0111617819339442	0.5458984375	0.42822265625	0.173095703125	0	0	0	-0.487747052415129	-0.406997325140002	-0.579245009587858	0.510814260819722	-0.00234320760710766	-0.194749731456514	0.98085016769929	0.988796714168025	-0.146843936544169	-0.0267939610869597	0.149250016511313	0.969798639098771	0.192911980378474	-7.90734641428697	-78.7690726105032	-90.68934332996
22658	1646737224749	9.60891290506748	-0.297844879066305	1.82618306907932	-0.0453414215410864	-0.0585442641790335	-0.0275262208469389	-0.00980348176439952	0.0430054006286017	-0.0138279279742884	0.54931640625	0.43701171875	0.16748046875	0	0	0	-0.487619379004977	-0.406892802727873	-0.579405149477793	0.510837803089858	-0.00254416030625543	-0.195146475740854	0.980770809238458	0.988781738891894	-0.146965972045168	-0.0266772542579241	0.149345907484132	0.96970039500185	0.193331176614114	-7.85647895870157	-78.7457507778011	-90.7469332434007
22659	1646737224749	9.60493941119557	-0.272909467396379	1.85499858642907	-0.0184041884520545	-0.0373801881895335	-0.0265429195381213	-0.00370943836880054	0.0399436801505613	-0.0134684339590345	0.549072265625	0.43310546875	0.1640625	0	0	0	-0.487476025923288	-0.406817274244966	-0.579552781167779	0.510867305047627	-0.0027634415668234	-0.19552179864432	0.980695462233611	0.988776471147843	-0.14702860401854	-0.0265269618459849	0.149376884072221	0.969615292709046	0.193733659051866	-7.79673460374912	-78.7236518944528	-90.8097460136313
22660	1646737224749	9.63821305331873	-0.318545623966645	1.78799637771543	-0.0753962411929222	-0.105664043257914	-0.00571522295344984	-0.00370606584415113	0.0368861184766755	-0.013509573107089	0.539794921875	0.437255859375	0.171875	0	0	0	-0.487351147172943	-0.406745183069345	-0.579684709101817	0.510894170482149	-0.00295201183314592	-0.195859614043689	0.980627501762414	0.988770540347345	-0.147091005234484	-0.0264017938846524	0.149412530155123	0.969537646389126	0.194094430798203	-7.74614559846084	-78.7037560462956	-90.8635012079376
22661	1646737224750	9.63758958748167	-0.341593180101986	1.79126659090628	-0.0997447093276386	-0.102540808328525	-0.00513978087446709	0.00552139733741452	0.044547523939647	-0.0143246302597306	0.54345703125	0.42919921875	0.166259765625	0	0	0	-0.487179940616634	-0.406690898584006	-0.579817654890053	0.510949807268293	-0.00317199982653354	-0.196252142390689	0.980548333854157	0.988778733676615	-0.147065614922855	-0.026235867361882	0.14935378885709	0.969462119690309	0.194516436939413	-7.6815477935748	-78.6806226763227	-90.9259841798995
22662	1646737224750	9.60935271401187	-0.316455590531765	1.81712594786559	-0.0729231595259078	-0.0796818245617767	-0.0285122904113937	0.0114117909922916	0.0429748273797587	-0.0108961360405691	0.5439453125	0.433837890625	0.164794921875	0	0	0	-0.487004065584783	-0.406640684379918	-0.579926925622476	0.511033418524647	-0.00334377050981133	-0.196652745540288	0.980467499140203	0.988795411641083	-0.146976397916089	-0.026106941091454	0.149239582940717	0.969394468793317	0.194940787821848	-7.62780314769675	-78.65705030101	-90.9741307053116
22663	1646737224752	9.63607038566545	-0.314646687715481	1.80019398738735	-0.0753036328697367	-0.104992851438569	-0.005707302711496	0.00979176796218188	0.0398973397130277	-0.00951609881262788	0.541259765625	0.430908203125	0.16650390625	0	0	0	-0.486862633079953	-0.406599722810605	-0.580012605885703	0.51110353054393	-0.00347591515197032	-0.196976557942035	0.980402036735525	0.988809404570637	-0.146899692951738	-0.0260084917545882	0.14914382134879	0.969340350873724	0.195282883841588	-7.58621808104867	-78.6379960463557	-91.0109558326341
22664	1646737224753	9.64519877741484	-0.311687531665638	1.73112879772432	-0.0842167704033332	-0.177539176826112	-0.0103814107890567	0.00513284785809296	0.0322333790934917	-0.00840080275884458	0.546142578125	0.435791015625	0.1689453125	0	0	0	-0.486739028896359	-0.406552657723709	-0.580102002895317	0.511157236556092	-0.0036067945307387	-0.197276581809904	0.98034123717337	0.988816765072592	-0.146866432028257	-0.0259163318134413	0.149091905027027	0.969284375925192	0.195600108493636	-7.54752928522575	-78.6203272150779	-91.0474182039988
22665	1646737224754	9.65450268645316	-0.333041126951188	1.66113506525576	-0.116927721822862	-0.246239999153137	-0.0144527802795515	0.0144700296546272	0.033800803057379	-0.0108134554952888	0.544189453125	0.43896484375	0.1689453125	0	0	0	-0.486618397504215	-0.40655018292353	-0.580152741127298	0.511216471700352	-0.00372050854534639	-0.197497677694182	0.980296294556686	0.988836871771357	-0.146749335654175	-0.0258122744153874	0.148955694223487	0.969257086530949	0.195838967950548	-7.50850797251673	-78.6072839193235	-91.0792239619016
22666	1646737224755	9.684673879392	-0.330629635903906	1.61948477155031	-0.122485866088389	-0.296217907779429	0.00679358191613488	0.0127383744410881	0.0368193567682311	-0.00783054684304036	0.544921875	0.431640625	0.1650390625	0	0	0	-0.486463200942979	-0.406512045980908	-0.580236316352116	0.511299645791833	-0.00385245268291429	-0.197842943833286	0.98022616175233	0.988855548272294	-0.146641257371124	-0.0257108204403642	0.148828301271724	0.969203028891261	0.196203021201454	-7.46560973708938	-78.5869592868109	-91.1155383337435
22667	1646737224755	9.69061855485334	-0.352840844831178	1.57475534224016	-0.151871584852599	-0.339869301117084	0.00433157190665945	0.017182117316622	0.0505615637348022	-0.00581953329967164	0.54248046875	0.43896484375	0.1640625	0	0	0	-0.486329466805109	-0.406479622791207	-0.580282088103869	0.511400688500113	-0.00390597103733709	-0.198147282322825	0.980164474921599	0.988879355199583	-0.146487304114256	-0.025672759754142	0.14866863909484	0.969164136893961	0.196515931945153	-7.44294566993607	-78.5691117916169	-91.1292946937126
22668	1646737224756	9.6557944638802	-0.353883194848369	1.64891390595355	-0.143337475812126	-0.265709224699766	-0.0153730345540541	0.0247970526446376	0.0490319119213367	-0.00532521768412901	0.539306640625	0.4423828125	0.174560546875	0	0	0	-0.486113063426202	-0.406439156576297	-0.580364352013846	0.511545228185631	-0.00403113817380651	-0.198614462764126	0.980069408310422	0.988915996762789	-0.146257383044117	-0.0255720404298323	0.148421363932832	0.96910323138766	0.197002603135882	-7.39595847365503	-78.541660426894	-91.1627325309725
22669	1646737224756	9.65837897068366	-0.352304213388292	1.62911651123579	-0.145210779948223	-0.287316608442981	-0.0168318711992921	0.0278567708207533	0.0398568778098354	-0.00523766013354859	0.539306640625	0.424072265625	0.1689453125	0	0	0	-0.486014263882231	-0.406479601386351	-0.580336312827633	0.511638771960681	-0.00403180465915887	-0.19873534833678	0.98004489992686	0.9889548853405	-0.146000201366719	-0.0255377360397559	0.148162003605341	0.96911722847256	0.197128937919613	-7.38146519986512	-78.5345939182973	-91.1622175347893
22670	1646737224756	9.5786729508335	-0.328136876697925	1.67102808196746	-0.116200996789817	-0.237079264973605	-0.0873969003778185	0.0339844985568152	0.0169177877608734	-0.00511756972121142	0.5380859375	0.435791015625	0.1748046875	0	0	0	-0.485867806991261	-0.406547502431889	-0.580321381322667	0.511740849234891	-0.00410755470771024	-0.19889162612574	0.980012882084405	0.989004999903166	-0.145680862981491	-0.0254203919620958	0.147825025489129	0.969133224700313	0.197303204791791	-7.34150022964153	-78.5253686739969	-91.1831171708499
22671	1646737224757	9.57203469524147	-0.352514438664197	1.71962483883498	-0.132925937352019	-0.182670708814261	-0.0836490669514358	0.0297587328130157	-0.00137447383409262	-0.0102274214789229	0.5439453125	0.429443359375	0.16552734375	0	0	0	-0.485908777584055	-0.406706369294348	-0.580187173395389	0.511727889478039	-0.00405445399424209	-0.198551526008771	0.980082064381548	0.989040304966634	-0.145448992611523	-0.0253745088583076	0.147590096396458	0.969237784069462	0.196965178084358	-7.34083294156416	-78.5453112391825	-91.1698264225627
22672	1646737224758	9.52058312022354	-0.351498389759062	1.73623454870766	-0.130735376415936	-0.155296716539376	-0.130830355360471	0.0405539936232867	-0.0212351797016468	-0.0112725585320491	0.54052734375	0.431884765625	0.16552734375	0	0	0	-0.485843686615022	-0.406905687855062	-0.58008195777215	0.511750520893484	-0.00413463308314277	-0.19832936911737	0.980126709234461	0.989099607085869	-0.145078331112892	-0.0251842233169214	0.147189918377062	0.969338815475272	0.196767346735045	-7.29362416555987	-78.5581988196332	-91.1942896617581
22673	1646737224759	9.48701699811322	-0.326999325950741	1.80314087112063	-0.0961568657744438	-0.0805282064411931	-0.151113762886784	0.0603869543945918	-0.0441710122752087	-0.0102091996008967	0.547119140625	0.4404296875	0.168212890625	0	0	0	-0.485946784908339	-0.407275943279246	-0.579758230688159	0.511724947811404	-0.00398660004932772	-0.197524630270138	0.980289818092941	0.989182371098381	-0.144527767626832	-0.0250990257378261	0.146636774815291	0.969585346847532	0.195964056526497	-7.29869147536092	-78.6054055274418	-91.1562322635416
22674	1646737224759	9.44408235135558	-0.303942646895481	1.94039847282818	-0.0544800938403707	0.0632229656449941	-0.166898141287263	0.0651019090698266	-0.0686172964016196	-0.0117155776795581	0.541015625	0.427734375	0.171875	0	0	0	-0.48595533031815	-0.407668628601684	-0.57948869823063	0.511709443739678	-0.00400172424601425	-0.196842192705094	0.98042701787237	0.989277164995008	-0.143919468883304	-0.0248571377231526	0.145995469184831	0.969814589314575	0.195307412378801	-7.25314573622894	-78.6452636255375	-91.1646402018342
22675	1646737224760	9.4666951256891	-0.302033666112765	1.96003708649667	-0.0490106357636481	0.0891812708170854	-0.141031724268938	0.05470913078957	-0.100694475172032	-0.0158536200623753	0.54150390625	0.439697265625	0.163330078125	0	0	0	-0.486227428705785	-0.408167058709715	-0.579050495056026	0.511549669077982	-0.0037996472807369	-0.195502139373048	0.980695914226782	0.989350217128359	-0.143433176500936	-0.0247602856793198	0.145505018980832	0.970157635325009	0.193965079516843	-7.27465215031232	-78.7237843342375	-91.1134218199551
22676	1646737224761	9.49294765354834	-0.275014626914255	1.95380760250478	-0.0243751202831668	0.0846611439805911	-0.11726162960286	0.0562576561582852	-0.11445153616339	-0.0159087486723804	0.54345703125	0.435791015625	0.160888671875	0	0	0	-0.48638250137445	-0.408661124365884	-0.578697875393711	0.511406801679005	-0.00379029110636825	-0.194368819419919	0.980921197513152	0.989431298954214	-0.142918337256924	-0.0244959899879983	0.14495288318314	0.970461287694168	0.192856295577489	-7.23876447265897	-78.7899874430651	-91.1171553287416
22677	1646737224761	9.49208051246289	-0.248348327519461	1.96703941264885	0.00452189518367609	0.108644931307523	-0.116364590366311	0.0625829068477509	-0.131227950464907	-0.0187368272913487	0.535888671875	0.44482421875	0.164794921875	0	0	0	-0.486680328546874	-0.409267937295045	-0.578190211508491	0.511212375264461	-0.00360833036394947	-0.192790674386927	0.981233272887451	0.989521291132741	-0.142323325757454	-0.0243245830453395	0.144341935510705	0.970863443958403	0.191284026615533	-7.24710580334677	-78.8823386980035	-91.0722404808468
22678	1646737224762	9.51250079831481	-0.197551506254589	2.00662691362226	0.0593349771763379	0.149565043947902	-0.0901701029186448	0.061090948210297	-0.146511968065635	-0.0190023140432594	0.541015625	0.443603515625	0.16162109375	0	0	0	-0.486908831123463	-0.40986526368143	-0.577756822665772	0.511006173802711	-0.00358496101899369	-0.191340573763224	0.981517158732568	0.989608639592165	-0.141766311925731	-0.0240219326349979	0.14374243805862	0.971231742497606	0.189860511602669	-7.21098187960781	-78.9670108342527	-91.0733693451788
22679	1646737224763	9.49131670017542	-0.170209816194859	1.98936773402394	0.0843865857546617	0.149974574773904	-0.115161224046144	0.0519894820311839	-0.163329336931987	-0.0197725869728585	0.549072265625	0.438232421875	0.16162109375	0	0	0	-0.487283528481421	-0.410509565501556	-0.577226166780665	0.510731447911835	-0.00341630196915299	-0.189546012759029	0.981865896101912	0.989684210970922	-0.141270569491208	-0.0238283182472892	0.143225317020839	0.971655769932327	0.18807331900484	-7.22072923189285	-79.0719123903828	-91.0325645488116
22680	1646737224763	9.52203370092081	-0.166867275369452	1.95217501023907	0.0818142854404482	0.124227644007344	-0.0923063725451598	0.0443071070684939	-0.177102592990915	-0.0188794539115837	0.5478515625	0.43798828125	0.1533203125	0	0	0	-0.487642380759613	-0.41113599206849	-0.576751692938321	0.510420992128788	-0.0033506385627215	-0.187797674666584	0.982202019246065	0.989747010619559	-0.140875213640246	-0.0235590566759761	0.142792255360257	0.972052574489487	0.186344209025911	-7.20554089197959	-79.1739696769192	-91.0221483410474
22681	1646737224764	9.47399989992416	-0.140387100079685	1.95347142377672	0.109599794779789	0.150580657055791	-0.140163458078247	0.0458531590712285	-0.187791613651745	-0.0188908690712828	0.548095703125	0.44091796875	0.155029296875	0	0	0	-0.488108085170415	-0.411831335765217	-0.57615254587821	0.510091846583696	-0.00311361048021208	-0.185745022654758	0.982593044952366	0.989817841508897	-0.140402517861344	-0.02340456384691	0.142305818786326	0.972515254141126	0.184290896146215	-7.23770079365003	-79.2939064735932	-90.9603489260149
22682	1646737224766	9.48076852630572	-0.137506302435855	1.91107224807917	0.106623649047589	0.126405351360007	-0.141663653388234	0.0349278678766971	-0.197010571944155	-0.0150766560710036	0.54345703125	0.4365234375	0.154296875	0	0	0	-0.488555216802516	-0.412471663137913	-0.575637646503081	0.509727600951414	-0.00298314592672433	-0.183806427520192	0.982957932997463	0.989867158757143	-0.140089799873119	-0.0231917223502494	0.141965167750549	0.972928592021929	0.18236185448658	-7.24763914560953	-79.407036555477	-90.9298187697693
22683	1646737224765	9.50593212495706	-0.135912200716868	1.91903489083376	0.110748504092273	0.150203969372488	-0.115829541147038	0.0212480889553667	-0.209244364037789	-0.0160351802658601	0.553955078125	0.433837890625	0.15869140625	0	0	0	-0.489112206690183	-0.413132961305416	-0.575066019781925	0.509302933863386	-0.00275954164961462	-0.181628873359065	0.983363278393189	0.989902370801232	-0.13986335568233	-0.023055108314159	0.141723961319121	0.97337001910866	0.180180811099355	-7.29168226975334	-79.5341271819143	-90.8704448958158
22684	1646737224765	9.51304825805578	-0.158065772238529	1.87409522902323	0.0835445966430537	0.12897193704505	-0.116726637463962	0.00898794303822682	-0.21690496174855	-0.0153196033455845	0.546875	0.432373046875	0.154052734375	0	0	0	-0.489681077073308	-0.41374928846021	-0.574555106027365	0.508832388113097	-0.00260408712689386	-0.179494098981934	0.983755603369505	0.989914887827977	-0.139802254211583	-0.0228876511220044	0.14163944926029	0.973774716322016	0.178047938109989	-7.32506864428173	-79.658605976768	-90.8311846235096
22685	1646737224767	9.58994082853932	-0.156219045758301	1.86158801982217	0.0857904763196031	0.125194241260319	-0.0436646367753681	0.00900921688942828	-0.226061188154468	-0.0154072308771958	0.535400390625	0.4443359375	0.15478515625	0	0	0	-0.49032818524603	-0.414388205499612	-0.573976820237193	0.508341711574555	-0.00233395005357545	-0.177180284827023	0.984175644560341	0.989925151986958	-0.139742238832527	-0.0228100887694961	0.141572406000416	0.974206986915352	0.175721371792293	-7.39610958997677	-79.7935428599267	-90.7546988304488
22686	1646737224767	9.64541234496228	-0.153740982862085	1.82147477579271	0.0836606661551305	0.0979117371730703	0.00356244994386756	-0.00436245078812874	-0.221423073081955	-0.0222528902368957	0.5458984375	0.43994140625	0.14599609375	0	0	0	-0.490928680015303	-0.414993408435766	-0.573498348783275	0.50780817838644	-0.00223977020455479	-0.174989971169687	0.984567668278551	0.989918636043377	-0.13982264983742	-0.0225991284447511	0.141619481157964	0.974591266420171	0.173539004186595	-7.41959284157434	-79.9210913990584	-90.7333127251275
22687	1646737224767	9.70065740478351	-0.15123096461869	1.78163609532587	0.0810683135375273	0.0704571168480883	0.0507946778035695	-7.09005294342658E-05	-0.215333457932701	-0.0173652514151853	0.5419921875	0.429931640625	0.1494140625	0	0	0	-0.491485688129782	-0.415597917999091	-0.573020109525787	0.507314639052995	-0.00214735073224798	-0.172882122642189	0.984940181206739	0.989923837494541	-0.139820455114699	-0.02238383996549	0.141584550163198	0.974967697927603	0.171440377836831	-7.43865424777158	-80.0437900193909	-90.7116282795349
22688	1646737224768	9.6988563289727	-0.101803567231446	1.81011347914953	0.135461541521399	0.112976615922727	0.0525818666890512	-0.00777177570258372	-0.216876538853947	-0.0162821680830809	0.541259765625	0.440185546875	0.15185546875	0	0	0	-0.492092726014154	-0.416166648213699	-0.57254349324584	0.506797808065885	-0.00200146148714664	-0.170742414007448	0.985313666915681	0.989912735590058	-0.139922605308379	-0.0222360167369112	0.141664286496365	0.975330042899646	0.169300139837069	-7.48244491036931	-80.1683305179383	-90.6715967133373
22689	1646737224768	9.78331804896529	-0.0742298326792152	1.72487160350582	0.151658528560417	0.0323667568158832	0.120585963111973	-0.0168457686864939	-0.212281033448302	-0.0182629723689192	0.55517578125	0.43408203125	0.151611328125	0	0	0	-0.492692180200193	-0.416687066820735	-0.572131810032284	0.506252403315872	-0.00192583941297014	-0.168689288858344	0.985667395710654	0.98988312651087	-0.140160784962473	-0.0220533491281871	0.1418720796761	0.975653052156949	0.167252607827826	-7.51149093665971	-80.28774071359	-90.6540882211975
22690	1646737224770	9.78399044512318	-0.0246395513808714	1.72989992911341	0.203083127772685	0.0506969192064506	0.120881177576472	-0.0186525410493954	-0.200093676878451	-0.0136567011638634	0.54345703125	0.44091796875	0.14990234375	0	0	0	-0.49328315518337	-0.417174706676977	-0.571711291045021	0.50575012863365	-0.00177707239877212	-0.166715606830027	0.986003422130464	0.989856629119291	-0.140364142992048	-0.0219490580823591	0.142058775872117	0.975963018664849	0.165273985842636	-7.56484646974509	-80.4025375748276	-90.6107100246706
22691	1646737224771	9.78237016550694	-0.0491808246549228	1.75913668355614	0.184543190652157	0.101903096870868	0.124479138299637	-0.0203840498683581	-0.184838101781093	-0.0105413698936677	0.54833984375	0.4423828125	0.13916015625	0	0	0	-0.49383026234733	-0.417613766541634	-0.571331740036877	0.505282551461368	-0.00164243035731265	-0.164907286891169	0.986307705106634	0.989828550455617	-0.140576570367198	-0.0218556300922201	0.142255907172437	0.976239629698564	0.163460827969753	-7.61559978304644	-80.5076762604422	-90.5706310375113
22692	1646737224772	9.76124406502408	-0.0487773379877101	1.73898971283989	0.184129956804903	0.103479554733245	0.100118141825396	-0.0236186695458519	-0.175699395776649	-0.00756178675172196	0.545654296875	0.43994140625	0.146728515625	0	0	0	-0.494376051573558	-0.418009554441594	-0.570965326330903	0.504835545652169	-0.00146678295323049	-0.163179358043746	0.986595330242445	0.989795010223177	-0.140818168483232	-0.0218192841846434	0.142491004225075	0.976495130829365	0.161720664052157	-7.68392250728441	-80.6081311889521	-90.5150051474744
22693	1646737224772	9.78847313799799	-0.0483837950553165	1.72487483084699	0.183283259660954	0.101707882683893	0.124504456535725	-0.0403435600957352	-0.163487660746645	-0.00981703135191993	0.554443359375	0.437744140625	0.149169921875	0	0	0	-0.494868753907342	-0.418372798334599	-0.570689763217886	0.504363274018029	-0.00144520845601892	-0.161590664089151	0.986856812638868	0.989749165611434	-0.141163778870983	-0.0216651034231051	0.142809315326376	0.976709396296611	0.160138236039743	-7.70476603200139	-80.7003886713258	-90.5124190671296
22694	1646737224773	9.79867821589529	-0.0958205418091728	1.6358705374233	0.125916250016912	0.0350471026595328	0.121206541410668	-0.0484022482184356	-0.145243867855124	-0.00239288170832478	0.550537109375	0.437255859375	0.142333984375	0	0	0	-0.495400240500828	-0.418608084959047	-0.570436509833386	0.503932595857568	-0.00126108108794942	-0.160166010415933	0.98708928612458	0.989680194273144	-0.141638420078345	-0.0217179884239398	0.143288250523069	0.976875328312243	0.158691745837283	-7.79288466494488	-80.7831796452919	-90.4511140080745
22695	1646737224774	9.82053850428535	-0.121393505203748	1.67317970304227	0.107184815704575	0.0844608789988363	0.149170322987647	-0.0390283356566844	-0.122240637838294	-0.00779923854428845	0.5556640625	0.439697265625	0.14013671875	0	0	0	-0.495792913001907	-0.418841754952067	-0.570256601329795	0.503555737099229	-0.0012420141030719	-0.158994418887619	0.987278700349377	0.989629513985684	-0.142006407886249	-0.0216241801625528	0.143638025778086	0.977013282858443	0.157521943451512	-7.81655065456206	-80.8511849469181	-90.4475674005238
22696	1646737224774	9.7933053232691	-0.0983396621052984	1.70854441873202	0.13694564855951	0.131484157617263	0.1272106187219	-0.0499631383171808	-0.108560114938054	-0.00360126936617397	0.54541015625	0.44091796875	0.141845703125	0	0	0	-0.496220994201957	-0.418982628816836	-0.570099847892808	0.503194241914147	-0.00112055963533769	-0.157925968301904	0.987450319196875	0.989557874801263	-0.142498223308362	-0.021667228082262	0.144131734066139	0.977114959915089	0.15643656332591	-7.88557611060668	-80.9132368768923	-90.4065339036087
22697	1646737224775	9.79532153657091	-0.123385580143826	1.69724268678011	0.111230124289619	0.134005729937078	0.12782776027827	-0.060701989658278	-0.110122738678232	-0.00260797276474187	0.542724609375	0.44287109375	0.139404296875	0	0	0	-0.496615622215643	-0.419134664855526	-0.569989518094959	0.502803148110364	-0.0011238360433547	-0.156887403417365	0.987615856313327	0.989482692934853	-0.143030253933508	-0.0215950652258386	0.144646940427165	0.977204527777412	0.155398112975632	-7.91150118495394	-80.9734905831952	-90.4104214832298
22698	1646737224776	9.8018853125616	-0.147288707985886	1.63760580201199	0.0810746312590383	0.0886003582001894	0.125419624908089	-0.0605814555694789	-0.102446771170438	-0.00557095143742016	0.54931640625	0.437744140625	0.141357421875	0	0	0	-0.497048581143172	-0.419234816365256	-0.569874444350459	0.50242212770439	-0.00102942715310844	-0.155874920429492	0.98777626488028	0.989395202990166	-0.143628348680369	-0.0216339953637665	0.145244871096316	0.977278827477834	0.154369753461501	-7.97770245455443	-81.032260544999	-90.3783865521535
22699	1646737224777	9.83012389110749	-0.171256521701024	1.60601564954229	0.0523368487988623	0.0649614051404568	0.148888130052518	-0.06196250202657	-0.0794813410949793	-0.0099521767085002	0.54736328125	0.4453125	0.143798828125	0	0	0	-0.49732491634924	-0.419318120822952	-0.569887822728637	0.502063851151767	-0.00119963388975619	-0.155165451283279	0.987887768730126	0.98931484873126	-0.144208405832329	-0.0214491437391479	0.145789886337753	0.977306307364971	0.153680482255459	-7.94543033433834	-81.0733390366587	-90.4429632295003
22700	1646737224778	9.82448432012663	-0.173057222633179	1.67182775333114	0.0612291408239607	0.137561736352276	0.15339378336604	-0.0604915976367352	-0.0626744397551021	-0.00968297252513136	0.546875	0.438720703125	0.1416015625	0	0	0	-0.497635312579459	-0.419329076665315	-0.569881418235359	0.501754312674055	-0.00120341077386138	-0.154535006344797	0.987986580686459	0.989226830904797	-0.144811470352001	-0.0214456306165826	0.146385890100654	0.977317026285997	0.153044442273917	-7.97673669406705	-81.1098991211456	-90.446170523302
22701	1646737224779	9.77685202490161	-0.173201481342102	1.6615156818456	0.0584473123275148	0.139609328607856	0.10469935784206	-0.0528288509500977	-0.0534739419341914	-0.0107427151559906	0.553466796875	0.428955078125	0.13427734375	0	0	0	-0.497807349220575	-0.419365861453106	-0.569951344496373	0.501473411275668	-0.00142452169105745	-0.154104074284352	0.988053594207782	0.989157705658647	-0.145313384062478	-0.0212380260013247	0.146850277745988	0.977310572285635	0.152640234619357	-7.92115372330798	-81.1347790014371	-90.5296210139075
22702	1646737224780	9.80387626241848	-0.123424603519343	1.63602863252103	0.104331172197851	0.108034733378644	0.126389820617447	-0.0528034330065825	-0.039707125602131	-0.0120969961937698	0.544921875	0.43896484375	0.142333984375	0	0	0	-0.498027576097406	-0.419347288594968	-0.56999203987799	0.501223961388839	-0.00148614795244661	-0.15369430901156	0.988117326404979	0.989080363739444	-0.145844784155458	-0.0211974762577457	0.147369689656026	0.977295942031946	0.152232769989184	-7.9271143470171	-81.1585050683914	-90.5540045840388
22703	1646737224781	9.80898190060639	-0.146100980876804	1.58396585055823	0.0730874863611269	0.0617033275846501	0.123975552365085	-0.0527392581303182	-0.016756562638394	-0.014856060803777	0.549560546875	0.433349609375	0.1494140625	0	0	0	-0.49811764250678	-0.419284305206074	-0.570137037185298	0.501022199568959	-0.0017111395251399	-0.153596805553929	0.988132123415262	0.989008444151301	-0.146354853893884	-0.0210369707687282	0.147849144058902	0.977235016802677	0.152158971262695	-7.87161360800558	-81.1640227035004	-90.6382751056608
22704	1646737224781	9.828895164557	-0.122093261132999	1.63410854205191	0.103637292787617	0.105628301673554	0.150770846603747	-0.0359268787462404	-0.00906273983603268	-0.0155129806720153	0.5537109375	0.44189453125	0.147705078125	0	0	0	-0.498201377339495	-0.419245610679089	-0.570226543157004	0.500869439098216	-0.00185038518893682	-0.153480616292207	0.988149926123166	0.988955579027646	-0.146725845807511	-0.0209377382294153	0.148200670662267	0.977197639474551	0.152057011086696	-7.84013332569659	-81.1706656622349	-90.6907329938435
22705	1646737224782	9.82901270010738	-0.121231682281921	1.6334655740177	0.102312065877331	0.103834515030764	0.150803398563209	-0.0481433146917814	-0.00298017237282737	-0.0159917508983102	0.556396484375	0.439453125	0.14208984375	0	0	0	-0.498222338451601	-0.41912722008601	-0.570441199513115	0.500703218232947	-0.00214157743797633	-0.153606401417816	0.988129792633309	0.9888805762177	-0.147257321268287	-0.0207481881676005	0.148696400848934	0.977097924865444	0.152213749701582	-7.76212381194459	-81.1631533549128	-90.7987648833673
22706	1646737224783	9.80471908874442	-0.12055448496292	1.63118423290498	0.101929202197581	0.105444975849329	0.12644255635516	-0.0466405681798655	0.00313322091096233	-0.0158406524240514	0.55859375	0.437744140625	0.140869140625	0	0	0	-0.49829748642152	-0.419027534907324	-0.570584557129195	0.500548502326365	-0.00230162368965681	-0.15360975627169	0.988128911279568	0.988811225814592	-0.147734243616649	-0.0206628402224999	0.149154491154089	0.977025401942636	0.152231080030972	-7.72971166887918	-81.1628246445831	-90.8584315158104
22707	1646737224784	9.80683096591359	-0.118956310563915	1.60765700189745	0.0979239119648608	0.0803147459930521	0.124948445764282	-0.0495886603704412	0.0138601724844705	-0.018883825089563	0.548828125	0.436767578125	0.13720703125	0	0	0	-0.498279194791271	-0.418909248601681	-0.57080355855897	0.500416009946279	-0.00260332205521735	-0.153810952306709	0.988096864515206	0.988746004642158	-0.148197716850842	-0.0204639933631768	0.149581285655817	0.976923552623593	0.152465770948275	-7.6445663156599	-81.1508806879408	-90.969665185675
22708	1646737224788	9.8089364424646	-0.141732240170208	1.5846442623716	0.0707539947878942	0.059106208117899	0.124008229764874	-0.055807192410068	0.0275706636274628	-0.0174498935794506	0.544677734375	0.443603515625	0.14404296875	0	0	0	-0.498304583436969	-0.4187261593971	-0.571030263461901	0.50028530237545	-0.0028143167056271	-0.154049767178072	0.988059081661548	0.988662424908207	-0.148766039327318	-0.0203783001618413	0.150128908595592	0.976799536637505	0.152721891124526	-7.60031302791045	-81.1368193784041	-91.0466132925231
22709	1646737224790	9.81287719210805	-0.139385211094809	1.5395001061149	0.0628090436781541	0.00968643389551993	0.120993080599737	-0.048179026434952	0.0444131595304012	-0.018386927482398	0.5439453125	0.439453125	0.140380859375	0	0	0	-0.498165658851298	-0.418555743913005	-0.571349150640357	0.500202172767398	-0.00325752540005236	-0.154559977253393	0.987978037184886	0.988600368983063	-0.149217751192411	-0.0200841523503674	0.150528067066648	0.97665002747172	0.153284131157366	-7.4646931093204	-81.1067321670558	-91.2073942558944
22710	1646737224790	9.75901927155361	-0.140003692851221	1.58832235518015	0.0679793164429269	0.0612642061789188	0.0753078452814932	-0.0451661723439335	0.0535861181869725	-0.0181148834664809	0.55126953125	0.452392578125	0.1416015625	0	0	0	-0.498088477109732	-0.418340052490704	-0.571619764187652	0.500150292054934	-0.00351510865574384	-0.155050864687454	0.987900234523108	0.988532303323854	-0.149682571678879	-0.0199753102812877	0.1509686367971	0.976501078901232	0.153798938905166	-7.40011566103772	-81.077943146115	-91.2987118618225
22711	1646737224790	9.78244050287272	-0.13868047853046	1.59613720359969	0.0657406980347481	0.058926849081023	0.0996903080124642	-0.0450555052879376	0.0612695473762419	-0.0210521384922816	0.548583984375	0.444580078125	0.144287109375	0	0	0	-0.497871726773918	-0.418173160931848	-0.571983180078053	0.500090184729936	-0.00406710163187135	-0.155693160928006	0.987797093701213	0.988479535822593	-0.150082029226089	-0.0195854988021817	0.151299920503175	0.976337556454542	0.154509902310848	-7.22421954112921	-81.0399197834323	-91.4963712830648
22712	1646737224791	9.75968132397113	-0.161252671478914	1.57467545831315	0.0381731885544053	0.0393104429929243	0.0743738468972861	-0.0527428173713586	0.0597000385315249	-0.0199075892768535	0.552001953125	0.436279296875	0.14453125	0	0	0	-0.497791678391537	-0.417925802798405	-0.572289133183388	0.500026615611261	-0.00435365720897007	-0.156239623197286	0.987709585765004	0.98839957046988	-0.150622814071315	-0.0194693856141974	0.151813486765383	0.97616696728808	0.155082936558891	-7.15557761823122	-81.0077846074184	-91.5961485683092
22713	1646737224792	9.81167587269816	-0.133779703370587	1.53778135428866	0.0556356799081385	-0.0162118435168931	0.119497161913809	-0.046553996538527	0.0719846645114965	-0.0224849423957626	0.551513671875	0.440673828125	0.14404296875	0	0	0	-0.497576301146113	-0.417685043122824	-0.572677538533197	0.499997466142376	-0.00484071677791248	-0.157014278764284	0.987584469159579	0.988334993968721	-0.151083477205377	-0.019176094815683	0.152218616331655	0.975971464326526	0.155914058578476	-7.01167704496802	-80.9620353970922	-91.7658573547022
22714	1646737224793	9.8035581898743	-0.134698391464662	1.61818657427349	0.0645060806523472	0.0564171153190469	0.124066385058137	-0.0375993095219537	0.0826570799673753	-0.0188397999803531	0.55078125	0.4384765625	0.138916015625	0	0	0	-0.497394763312787	-0.417420997240316	-0.573005858356433	0.50002244627729	-0.00515200529578358	-0.157785545804935	0.987459962923293	0.988277618301472	-0.15147452856355	-0.0190477389949759	0.152580490252859	0.975786446273716	0.156716320983835	-6.92989801415674	-80.9167362154589	-91.8701543294732
22715	1646737224794	9.8041542826677	-0.083890890112795	1.60338950222481	0.108736079540195	0.0259440359471203	0.121437393490432	-0.0391175133864472	0.081127200491749	-0.0189365407164571	0.546875	0.441650390625	0.146728515625	0	0	0	-0.497159848687652	-0.417188755016145	-0.573361162717303	0.500042602813412	-0.00557896044891759	-0.158591019678535	0.987328599645342	0.988229012950602	-0.151821876119333	-0.0188025502069094	0.1528799959543	0.975601868801474	0.157571255081899	-6.80477386623615	-80.8691838360202	-92.0147365784071
22716	1646737224795	9.80779164286546	-0.105669823063067	1.56203762761125	0.0786000462885095	-0.0194197805538677	0.118946132589294	-0.0438448995791601	0.0825940876380824	-0.0160858825304122	0.542236328125	0.436279296875	0.1416015625	0	0	0	-0.496999909182176	-0.416900464566204	-0.573694473622542	0.500059740283445	-0.00586269284112356	-0.159364032908652	0.987202478647486	0.988162005018293	-0.152268517584273	-0.0187123058684671	0.153301926507391	0.975406276157672	0.158370185834784	-6.73856800735126	-80.8237590255392	-92.1068501998241
22717	1646737224795	9.80865059710217	-0.0798084244586217	1.54665640248547	0.0981636563807402	-0.047186623898763	0.116878262851198	-0.0440749311498673	0.0840494657712847	-0.0114901921409599	0.541748046875	0.439453125	0.147705078125	0	0	0	-0.496768868352648	-0.41662880786737	-0.574068558336705	0.500086410753043	-0.00626854643153857	-0.160231326914781	0.987059586448946	0.988104212544326	-0.152668036470307	-0.0185077225087296	0.153657965878098	0.975201718884575	0.159282255781288	-6.6277338749671	-80.7725616483613	-92.2403745558527
22718	1646737224796	9.78563152343465	-0.103175449703932	1.52776377842807	0.0706141612452633	-0.0667756055064486	0.0915460508706598	-0.0411379134535272	0.0916737467084254	-0.00969408358385683	0.548095703125	0.439453125	0.145751953125	0	0	0	-0.496589101797827	-0.416310008075321	-0.574402301149063	0.50014721591409	-0.0065040527780249	-0.161101397509562	0.986916428588524	0.98804144942784	-0.153077479179423	-0.0184764601752249	0.154051262604349	0.974994166694622	0.160170482303908	-6.58026805580877	-80.7215499312887	-92.3119135533541
22719	1646737224797	9.75021024575079	-0.106336476087555	1.63168409647341	0.0803170516089597	0.0309472228503041	0.0733069730082629	-0.0366707280785128	0.0977754515966533	-0.00784432036941047	0.546875	0.442138671875	0.1513671875	0	0	0	-0.496309922993648	-0.416015344688222	-0.574788400794182	0.500225936587104	-0.00690094540718728	-0.162103044880573	0.986749704734151	0.987993219626122	-0.153410490698988	-0.0182926027755749	0.154343043009059	0.974775781492309	0.161215386643959	-6.47348515352739	-80.6624891030827	-92.4376867529768
22720	1646737224797	9.67799062106985	-0.0819524823026755	1.61011853329495	0.100509516680844	0.00868329758963379	-0.00185070835018664	-0.0417550719613603	0.0930009152003762	0.00251748968046528	0.547119140625	0.435302734375	0.144287109375	0	0	0	-0.496152931269253	-0.415661284127892	-0.57509574635832	0.50032274402694	-0.00701884120456236	-0.16300383472204	0.986600469153575	0.987930092862822	-0.153805697373009	-0.0183831192037089	0.15474129211106	0.97456326491486	0.16211593134016	-6.46941463478232	-80.6099356699943	-92.4655966631218
22721	1646737224798	9.70130892815379	-0.131570512728868	1.61954436867911	0.0509938741736091	0.0124706788357569	0.0236162082678	-0.0523880458429118	0.0853320787093604	0.0018507283037489	0.548095703125	0.441650390625	0.153076171875	0	0	0	-0.495981719902807	-0.415323531021304	-0.575448105830635	0.500367840291703	-0.00726831584813931	-0.163885693364746	0.98645255896829	0.987857210292959	-0.154276777963625	-0.018352325557664	0.155194406010474	0.974340882490065	0.163016996204499	-6.42326868353373	-80.5581350244397	-92.5393986443833
22722	1646737224799	9.6587637778755	-0.130270932608905	1.55024671882037	0.0414245336307452	-0.0568195573191502	-0.0296918066811536	-0.0508168565201931	0.0914763912396709	0.000507806887583249	0.544921875	0.443603515625	0.155517578125	0	0	0	-0.495847443615555	-0.414952253431768	-0.575774893500068	0.500433024536553	-0.0074042012262327	-0.16476751463959	0.98630464052629	0.987779570986214	-0.154762830650191	-0.0184386927799223	0.155681395633819	0.974115050889079	0.163899880063634	-6.41877163520832	-80.5066116073318	-92.5729845493297
22723	1646737224800	9.62777435146237	-0.108703468139924	1.6060289356272	0.0690629320572878	-0.0108377086933703	-0.0515250291444342	-0.0448926866943304	0.0944995894329131	0.00392095382315175	0.551025390625	0.4365234375	0.152099609375	0	0	0	-0.495607830175358	-0.414597585736553	-0.576172436256946	0.500506787434527	-0.00773166880168524	-0.165800810432907	0.986128953310535	0.987712049884247	-0.155203595266782	-0.0183507637367749	0.156093330450083	0.973869567897085	0.16496344114059	-6.34756546846349	-80.4457733752869	-92.6698983107402
22724	1646737224801	9.60451542114584	-0.108830388966637	1.58819652065736	0.0657497770294117	-0.0333413189505777	-0.0774170903876889	-0.0537148975421597	0.0930557681674391	-0.00267506761123994	0.542724609375	0.4423828125	0.15234375	0	0	0	-0.495469054099323	-0.414221628832258	-0.576517196555214	0.50055846882616	-0.00790327143266523	-0.166693133069258	0.985977148664317	0.987629127569256	-0.155723322987922	-0.0184106777275897	0.156608571532504	0.973634246555222	0.165861717274947	-6.33391235908238	-80.3935127901861	-92.7144804577326
22725	1646737224804	9.5545518344441	-0.109721865629891	1.59151059776972	0.0636065606325922	-0.0306132273254801	-0.126128777302283	-0.0551952199934142	0.083887734918632	-0.0029167603185961	0.5439453125	0.4404296875	0.150634765625	0	0	0	-0.495301000567593	-0.413888528030688	-0.576887922134813	0.50057320193585	-0.00820677668086284	-0.16755046456819	0.98582934153914	0.987548072796382	-0.156245511736563	-0.0183342296901817	0.157103318655791	0.973403401414421	0.166746410402663	-6.27462474113193	-80.3428976002916	-92.8041591771967
22726	1646737224805	9.57750608450585	-0.11009485769341	1.60197584438178	0.0639463095514685	-0.0321014088926305	-0.101768487807941	-0.0535843525536415	0.0823951649040472	-0.00438733616529973	0.541748046875	0.44384765625	0.15576171875	0	0	0	-0.495188855571717	-0.413543794710249	-0.577209837104693	0.500597973551426	-0.00837933238755711	-0.168335592674409	0.985694128534656	0.987464706399823	-0.156766397465706	-0.0183779824881843	0.157617386107785	0.973184168009622	0.16753905434844	-6.25995928600061	-80.2968242058952	-92.8496910859231
22727	1646737224805	9.60302167030363	-0.109315935679005	1.58837605239635	0.0590704184228785	-0.0581446653145468	-0.0789297299965614	-0.0503981566994925	0.0870470196028783	-0.00718897118200966	0.545166015625	0.43896484375	0.153564453125	0	0	0	-0.494966105408106	-0.413258618193194	-0.577601956705688	0.500601486809562	-0.00881341180237466	-0.169198779075118	0.985542539382188	0.987394814168801	-0.157230931786215	-0.0181635635875176	0.158031024564675	0.972959509563028	0.168451737972367	-6.15422681691484	-80.2454269691312	-92.9817906233668
22728	1646737224806	9.57503600833726	-0.134974388221411	1.61718465864543	0.0374182697087479	-0.029346915621567	-0.101222372228673	-0.051981706237953	0.0824329180654863	-0.00583193108055017	0.5458984375	0.44091796875	0.1552734375	0	0	0	-0.494846184801618	-0.412922358190249	-0.577924192951054	0.500625615301255	-0.00900249338304615	-0.169981202247742	0.985406183254043	0.987313416526669	-0.157738238821687	-0.0181897102744857	0.158528144691489	0.972740992708668	0.169244758987775	-6.13436074715218	-80.1994226377369	-93.0316494507737
22729	1646737224807	9.60011943006322	-0.0853658935571764	1.60523398603024	0.0817592179022029	-0.061093349461621	-0.0794487295079005	-0.0489347572196263	0.0824446029582421	-0.00566727618241112	0.547119140625	0.43701171875	0.152099609375	0	0	0	-0.494664147251475	-0.412630994083983	-0.578277641908064	0.50063760647247	-0.00933873681897524	-0.170787551406631	0.985263619687216	0.987242586678959	-0.158195299413561	-0.0180643929013151	0.158949246748971	0.97252550584958	0.17008608829047	-6.06250611235657	-80.1515515737801	-93.1298410119925
22730	1646737224807	9.59615451227435	-0.0865669200422891	1.63728289833059	0.0846798952629479	-0.0367984046757086	-0.0779125510506784	-0.0504517675189656	0.0809146761976369	-0.00577941064138787	0.54541015625	0.436279296875	0.14990234375	0	0	0	-0.494544619849937	-0.412302915687974	-0.578592429707975	0.500662286354084	-0.00952578800036524	-0.17155444004566	0.985128587273556	0.987163194853378	-0.158687161475793	-0.0180889886291869	0.159430505518371	0.972310371683536	0.170863849385354	-6.04327049989105	-80.1064208748668	-93.1781606184654
22731	1646737224809	9.6217599739084	-0.0857322935882254	1.62351180477606	0.0813821761035878	-0.061814667056781	-0.0550771960161587	-0.0504604962488546	0.0824450853932291	-0.00575032334373456	0.54833984375	0.42626953125	0.159423828125	0	0	0	-0.494403227516107	-0.412025062702443	-0.578895593573628	0.500680225361199	-0.00976952110783114	-0.17227011086687	0.985001302211951	0.987096194137327	-0.159109319274614	-0.0180368522634529	0.159830097218667	0.972114825224821	0.171601592653409	-6.00026356371313	-80.0640653299438	-93.2457947034172
22732	1646737224809	9.6719351624041	-0.109204073239604	1.6113840256177	0.0548626235428196	-0.0861312514870267	-0.0073632724958852	-0.0520455919087721	0.0778289702140555	-0.00440050576962764	0.540771484375	0.431640625	0.1630859375	0	0	0	-0.494299651022086	-0.411697087137031	-0.579201420909735	0.500698589431278	-0.00993755508194516	-0.173007215894906	0.984870422059312	0.98701412188948	-0.159612861968825	-0.0180792003379278	0.160325818849402	0.971901351754598	0.172346726884656	-5.98843522535972	-80.0206990604213	-93.2874640562081
22733	1646737224811	9.6440248573539	-0.135205188512663	1.63904071591416	0.0337535549013431	-0.0584761122250421	-0.0296720941339927	-0.0505674653672572	0.0701654401603587	-0.00294277988818876	0.5419921875	0.447998046875	0.15283203125	0	0	0	-0.494220295134641	-0.411320565485337	-0.579511265554274	0.50072785560775	-0.0100358289909864	-0.173788924064828	0.984731786837844	0.986920809141271	-0.160174014054574	-0.0182099342553814	0.160893127946485	0.97166954006701	0.173123384571703	-6.00456085606477	-79.9749657304516	-93.3050020489182
22734	1646737224811	9.64289908650827	-0.135954462620169	1.64558915533953	0.0337628745365117	-0.0583648031123318	-0.0296714615974345	-0.0477601546242386	0.0670272513487487	0.00173667044501843	0.55078125	0.450439453125	0.16259765625	0	0	0	-0.49415037080787	-0.411015404430016	-0.579765838887419	0.5007527537726	-0.0101241812392051	-0.174431851718635	0.984617199758487	0.986845509745992	-0.160626033820776	-0.0183089364295441	0.161348817313329	0.971479699409625	0.173763496703349	-6.0148897772594	-79.9373207590064	-93.3217717468716
22735	1646737224812	9.67156736792312	-0.134541169702614	1.60611773022913	0.0249196750991203	-0.107711139797798	-0.0083666345412059	-0.0520590641399033	0.0640542204148786	-0.00315236866743698	0.540283203125	0.434814453125	0.160400390625	0	0	0	-0.493992834473118	-0.410831237869542	-0.580093371311089	0.500679991652083	-0.0105812508969699	-0.17498691324038	0.984513898999937	0.986777663981479	-0.1610744798997	-0.0180237008490781	0.161733976012189	0.97130561211168	0.17437754695959	-5.90114901002167	-79.9035027188117	-93.4603942517574
22736	1646737224813	9.64628163946024	-0.135513289778553	1.60946710800997	0.0245714117398267	-0.106002425303307	-0.0327254943023192	-0.0524044940481853	0.0639285889783497	0.00293998032739191	0.54248046875	0.437255859375	0.160888671875	0	0	0	-0.493945100184679	-0.410518510135451	-0.58034686512966	0.500689831106937	-0.0106558620593095	-0.175600334537378	0.98440386788865	0.986694761003461	-0.161568491724553	-0.0181403167055157	0.162234093864688	0.971112838444747	0.174985581679433	-5.91856810690678	-79.8676041902995	-93.4725911615461
22737	1646737224815	9.66646695722921	-0.113172683269003	1.64359996657174	0.0510141938016207	-0.0864281648515937	-0.00734510767222574	-0.0433494538006788	0.0639245795766811	0.00498451440622958	0.552001953125	0.428955078125	0.158203125	0	0	0	-0.493842505510013	-0.410245839688198	-0.580608785964679	0.500710863104386	-0.0108164226417071	-0.176240585999371	0.98428769211437	0.986627919386086	-0.161973965175572	-0.0181599364862521	0.162629498213326	0.970929292199952	0.175635861540236	-5.90314242632906	-79.8298370102073	-93.5120117652849
22738	1646737224815	9.68693314531804	-0.115478545545613	1.67638003852678	0.054268061010059	-0.0637061395060756	0.0185512625680495	-0.0541502239478633	0.0561906182874571	0.00725903766974605	0.540771484375	0.433349609375	0.1474609375	0	0	0	-0.493830279629691	-0.409936490246688	-0.580835860153383	0.500712924184075	-0.0108364449517871	-0.176785940798873	0.984189667999346	0.986542147234618	-0.16247728303852	-0.0183227788866563	0.163147672954644	0.970746034569432	0.176167457770175	-5.93785474035315	-79.7980783014541	-93.5076697164124
22739	1646737224817	9.68912935156361	-0.140442425645969	1.65596891986585	0.0278972768240878	-0.0832010892542388	0.017545708595005	-0.0601896823266956	0.0454790904454063	0.00668131948747463	0.53857421875	0.433349609375	0.163818359375	0	0	0	-0.493907493528237	-0.409693680964373	-0.580965990971197	0.500684524375751	-0.0107407897745646	-0.177059803576859	0.984141484438261	0.986462919894743	-0.162932189656981	-0.0185474862534007	0.163632341264669	0.970619867677819	0.176412951229033	-6.00184320716984	-79.7825031756149	-93.4714187312013
22740	1646737224818	9.7424566869908	-0.139656100340995	1.61770761696263	0.0226868426851046	-0.134595728791301	0.0632080997120479	-0.0556431225014815	0.0500772850100693	0.0070441176082109	0.544189453125	0.4345703125	0.1689453125	0	0	0	-0.493917164313184	-0.409396229991187	-0.581179799571348	0.500670153130815	-0.0107504651215783	-0.177543108500335	0.984054303442502	0.986374408491357	-0.163448249265938	-0.0187135267981525	0.164164410799038	0.970444802364327	0.176881123331651	-6.03926705553249	-79.7543818368368	-93.4651028886013
22741	1646737224820	9.71481054713641	-0.166858140763124	1.64284131113391	0.000319569583532617	-0.106684725698385	0.0408870787100604	-0.0435426357647799	0.0500770645415666	0.00927564473073974	0.5419921875	0.435791015625	0.160888671875	0	0	0	-0.493873067588181	-0.409098696533704	-0.581422338952477	0.500675257399938	-0.0108273594770903	-0.178121902019357	0.983948858583494	0.986293214833065	-0.163925086243859	-0.0188218084731476	0.164646477827527	0.970258292477292	0.177455299210928	-6.05444473096241	-79.7204709545655	-93.4785144979942
22742	1646737224821	9.7300544228046	-0.196188063813357	1.721473826095	-0.0147478318682811	-0.0326608608585681	0.0703605132489038	-0.0467048877715741	0.0377773380701662	0.0118753084368339	0.54736328125	0.439697265625	0.160400390625	0	0	0	-0.493905868339532	-0.408845145782738	-0.581575746395405	0.500671839825542	-0.0107694040509604	-0.178495164402949	0.983881850742838	0.986219231379851	-0.164346711151198	-0.0190206779669028	0.165092845371697	0.970118361241838	0.177805279979331	-6.10598170752956	-79.6989787396049	-93.4527226895165
22743	1646737224821	9.68965194495573	-0.219368037011203	1.64574471357987	-0.0494534146274002	-0.0981998369170747	0.0175650470137185	-0.0451082445473756	0.0408729708430026	0.0105093454299162	0.54638671875	0.43505859375	0.157958984375	0	0	0	-0.493903327220025	-0.408655005563272	-0.581731795662811	0.500648287427404	-0.0108215913139922	-0.178813920615674	0.98382339622286	0.986158188346945	-0.16470475744818	-0.0190884894689687	0.165453681487308	0.96999893024064	0.178121179578142	-6.11680023536548	-79.6802660928781	-93.4632438474961
22744	1646737224822	9.6859533654451	-0.197729344775763	1.67435591436912	-0.022265885472186	-0.0767877676938498	0.0185823554338569	-0.0237158569727277	0.0287001934167369	0.0114895485059527	0.544189453125	0.431396484375	0.164794921875	0	0	0	-0.49390420890737	-0.408492369702918	-0.581816323952634	0.500681916490224	-0.0107525018465223	-0.17909762283817	0.98377254749142	0.986122025649437	-0.164903204788342	-0.0192427539501566	0.16567357735346	0.969912869563164	0.178385232636159	-6.15679736790314	-79.6640154900515	-93.4357483916694
22745	1646737224823	9.70653616712062	-0.175886282811086	1.70557435775025	0.00544504396095147	-0.0561948998703959	0.0439639742076672	-0.0267938940025214	0.034806071823606	0.011447522059878	0.5419921875	0.429931640625	0.1630859375	0	0	0	-0.493914454377498	-0.408330294300962	-0.581893587859225	0.500714224804316	-0.0106675536711827	-0.179364324496143	0.983724881456556	0.986085262557993	-0.165103271669406	-0.0194104263217518	0.165897734356459	0.969829546251351	0.178629765026137	-6.20159262080005	-79.6488049517042	-93.4036126272334
22746	1646737224824	9.67912325883557	-0.203191655379383	1.72869301201369	-0.01614961559647	-0.0273732702100619	0.0216444686351398	-0.0223574346593231	0.0255776477813253	0.0145557379712123	0.55126953125	0.44287109375	0.162109375	0	0	0	-0.493927738362285	-0.40817178847101	-0.581959253707404	0.50075403882247	-0.0105615637586048	-0.179622156762636	0.983678979225902	0.986051630133737	-0.165282367398722	-0.0195939209367133	0.166104292784905	0.969751318548737	0.178862360745389	-6.25167973298834	-79.634178120904	-93.3650475397507
22747	1646737224825	9.6515589288086	-0.206146433109687	1.75230937537658	-0.0138992872044531	-0.000690296341981229	-0.00119002608106911	-0.0222526428340433	0.0225571590148828	0.0129633582333699	0.537841796875	0.431884765625	0.155029296875	0	0	0	-0.493947894795675	-0.40806645898179	-0.582005958656063	0.500765720042637	-0.0104983417141992	-0.179770129209455	0.983652624387933	0.986024402612579	-0.165430917368484	-0.0197101250916389	0.166269847758871	0.969698567711966	0.178994484561967	-6.28385527374837	-79.6257893206307	-93.342203021275
22748	1646737224826	9.65401770970567	-0.206697350319781	1.73022723171194	-0.0168012520897194	-0.0247289373578964	-0.00271419378576532	-0.0177721419554609	0.0225315077054137	0.0147574218225883	0.547607421875	0.436279296875	0.158203125	0	0	0	-0.49395922323108	-0.407928563281623	-0.582053738989005	0.500811359668347	-0.0103845356241798	-0.179998096341534	0.98361214242876	0.98599840135098	-0.165564538572266	-0.0198880894171918	0.16643110873026	0.969633471411119	0.179197146087877	-6.33302070070281	-79.6129168793007	-93.3018752130971
22749	1646737224827	9.65626902267176	-0.182824909837999	1.70919997526841	0.00423492775975106	-0.0497137699413536	-0.00474002337168855	-0.0176746275868148	0.0210393358643116	0.0131995416628489	0.549072265625	0.429443359375	0.1591796875	0	0	0	-0.493979852623335	-0.407905573986386	-0.582026812579393	0.500841030020242	-0.0102843357009822	-0.18001154597926	0.983610733854276	0.986000087267387	-0.1655426107182	-0.0199867942729091	0.166427342548918	0.969634718515565	0.17919389582613	-6.36430879407914	-79.612469265235	-93.2698412474352
22750	1646737224828	9.60737282791292	-0.18474273601921	1.70555102249499	0.00362296787204102	-0.0464027553605036	-0.0534619965919702	-0.00577194134762055	0.0240121111601612	0.01856434559544	0.53759765625	0.43310546875	0.15869140625	0	0	0	-0.493964900477974	-0.407790515023671	-0.58204316649569	0.500930459533242	-0.0101347036152015	-0.180257899382679	0.983567169792066	0.985994704060797	-0.165551141137088	-0.0201807639168748	0.166468409455647	0.969587494442018	0.179411145905028	-6.41784379300403	-79.5986349681882	-93.2179729834293
22751	1646737224829	9.60699414885113	-0.186633252630763	1.70747709671016	0.00409199850539589	-0.0448186541018428	-0.0534547785323056	-0.00878397527595133	0.0163659046823119	0.0182062086710696	0.54150390625	0.435302734375	0.158203125	0	0	0	-0.494008831091805	-0.407742063801186	-0.581982366514299	0.500997214839439	-0.00991413105286865	-0.18028672876789	0.9835641338701	0.985999450069426	-0.16549640026055	-0.0203967145292843	0.166453580520984	0.969591479403039	0.179403368420917	-6.48621659065838	-79.5976715525179	-93.1475767807362
22752	1646737224830	9.58220768927887	-0.164277494870438	1.70732704657769	0.028053206385307	-0.045969758060882	-0.0783277961220943	-0.00431108956465438	0.0178663801679859	0.0200374701009408	0.54052734375	0.430908203125	0.164306640625	0	0	0	-0.494011622469513	-0.407643412184103	-0.581975882363743	0.501082266414293	-0.00973815830030994	-0.18047442138241	0.98353146950141	0.985996755150719	-0.165486821576035	-0.0206036578528313	0.166479930037147	0.969558195835272	0.179558730735882	-6.54583650792066	-79.5873114595868	-93.0886083909387
22753	1646737224831	9.63039970502798	-0.166192034020694	1.71456370910381	0.0282420445661464	-0.0480243879538794	-0.0295977408961914	-0.00589866536985261	0.0117154490757323	0.021327620405753	0.53515625	0.432861328125	0.164794921875	0	0	0	-0.494032673963085	-0.40760873071038	-0.581932109033556	0.501140559305785	-0.00957971375113897	-0.180515502871046	0.983525486353892	0.986003627525238	-0.165426524934715	-0.0207584044448209	0.166448417209408	0.96956083773595	0.179573679411114	-6.59402432854362	-79.5854149010194	-93.0377599868092
22754	1646737224831	9.62996468138592	-0.144254792685399	1.71673218107817	0.0525315296347817	-0.0507286987141031	-0.0301076959216839	-0.00625648220987726	0.0100437847995573	0.027383182355475	0.543212890625	0.4384765625	0.162353515625	0	0	0	-0.494078144475463	-0.407506261265459	-0.581891496097306	0.501226217341801	-0.00931813240182666	-0.180638672128086	0.983505385109987	0.98599842184077	-0.165421852157355	-0.0210409827798294	0.166494097601245	0.969538694926939	0.179650868362263	-6.68013491881975	-79.5790456398484	-92.9529494273814
22755	1646737224832	9.65420473972951	-0.171420392029444	1.71939709359782	0.0270577260623468	-0.0488052808770685	-0.00522766959526599	-0.0109120408303054	0.00847356351921856	0.0285963576171584	0.54736328125	0.4267578125	0.16455078125	0	0	0	-0.494095865285105	-0.407454043675143	-0.581876813987017	0.501268243104684	-0.00919884872581345	-0.180710019954076	0.983493401030386	0.985995453048415	-0.165422701495037	-0.0211730110738687	0.166518310554635	0.969525254193144	0.179700956401876	-6.71981278146541	-79.5752502068496	-92.9140646334117
22756	1646737224833	9.65403379051301	-0.174505129881471	1.72004654314314	0.0270976979168466	-0.0486068768259351	-0.00522679463509412	-0.00955872816092866	0.00534737460252818	0.0316621931117056	0.544921875	0.437744140625	0.16259765625	0	0	0	-0.494171591053494	-0.407343588509459	-0.581820863811998	0.501348304005264	-0.00888863333340684	-0.180794548135728	0.983480718449458	0.985985065092364	-0.165442157942562	-0.021502181054799	0.166596649462915	0.96950617519421	0.17973127899179	-6.82216570462086	-79.5712350418951	-92.8146392834987
22757	1646737224834	9.67522264984614	-0.178744400386087	1.74760896091473	0.0307802764461708	-0.0251389488680052	0.0206457342879869	-0.00793805414660428	0.00385718717615245	0.0301953386920018	0.541015625	0.43017578125	0.161376953125	0	0	0	-0.49427135175979	-0.407255751372919	-0.58173601455839	0.501419777401081	-0.00854807532120033	-0.180798184366038	0.983483068963695	0.985977587338204	-0.165441919609459	-0.021844186930922	0.166658716168819	0.96950553776958	0.179677167606459	-6.93169626300977	-79.5719790733057	-92.7069087665319
22758	1646737224835	9.67235917326723	-0.207621859728286	1.77102468431372	0.00952137520442318	0.00215303825978133	0.0226606671862672	-0.0173535476431639	0.00374086113162156	0.0342144538015323	0.551513671875	0.433349609375	0.162109375	0	0	0	-0.494376892170044	-0.407120173968705	-0.581685023770184	0.5014849803907	-0.00820860586165439	-0.180870992785157	0.983472573465432	0.985954218170661	-0.165531956780461	-0.0222137560064059	0.166813963628015	0.969476588295635	0.17968930487196	-7.04732860313336	-79.5686572359399	-92.5985148864009
22759	1646737224837	9.67548742539823	-0.258420399975404	1.74487253393747	-0.0413987539146465	-0.0149630901335331	0.0221730738508636	-0.00623189088247211	0.00393004619743956	0.0272416069024841	0.540771484375	0.4365234375	0.16064453125	0	0	0	-0.494467920076377	-0.407070072704328	-0.581580359882753	0.501557291764842	-0.00788351818571803	-0.180825556141934	0.983483588265191	0.985957924843728	-0.165468477972021	-0.022520062954441	0.166807735368791	0.969495900477967	0.179590863847669	-7.14738264783309	-79.572143460001	-92.4963643056762
22760	1646737224837	9.69654150115704	-0.237987070739234	1.77329131893186	-0.0138485321479849	0.00499134700626333	0.0475306696689195	-0.00783121669045877	-0.000691432442429296	0.028565244790855	0.54541015625	0.43212890625	0.158447265625	0	0	0	-0.494551422259895	-0.406987399161758	-0.581512421616224	0.501620824099537	-0.00759087914083278	-0.180845086115889	0.983482299475494	0.9859498745051	-0.165475611506499	-0.0228181278795287	0.166868881212902	0.969491040094898	0.179560295328527	-7.24220404485224	-79.5717354938505	-92.4035498620103
22761	1646737224838	9.69940304215115	-0.239786048050373	1.74899802147758	-0.0176322329564302	-0.0174377006314827	0.0460293436597094	-0.00335207277190818	-0.000725307352275852	0.0303626213964415	0.543701171875	0.43701171875	0.162841796875	0	0	0	-0.494606597803152	-0.407023815521528	-0.581380972846023	0.501689237895831	-0.0073444439781824	-0.180711825148595	0.983508665642614	0.985978483628438	-0.165279044355596	-0.0230058105414142	0.16671079438482	0.969549417899038	0.179391854015776	-7.30791349792972	-79.5800848434122	-92.3273196595751
22762	1646737224839	9.69949517078076	-0.267009242623038	1.7477800270119	-0.0418078508903347	-0.0143187283239567	0.0465358331420376	-0.000122198469238759	-0.000651656434470128	0.0275003032988216	0.544921875	0.43310546875	0.174072265625	0	0	0	-0.494668463754404	-0.406967015855517	-0.581299553318987	0.501768660125021	-0.00706264536639761	-0.180728298936357	0.983507702564651	0.985983293064209	-0.165212119443992	-0.0232787754635531	0.166694525521047	0.969557753593046	0.179361917945025	-7.39488869912726	-79.5797797499929	-92.2379116618081
22763	1646737224840	9.65111452632193	-0.294007819480855	1.74064860183492	-0.0677228670962118	-0.00877532173796866	-0.00169119298592868	-0.00154982021396264	-0.00214368662265193	0.0258501210153528	0.54541015625	0.437255859375	0.1630859375	0	0	0	-0.494703395605923	-0.406899027039342	-0.581286262334441	0.501804756246552	-0.00692107396861624	-0.180795761670191	0.983496309752719	0.985973083050625	-0.16525033680555	-0.023439404542304	0.166760841430974	0.969538662843183	0.179403464340814	-7.44363977070567	-79.5761712918121	-92.1922792191628
22764	1646737224841	9.70560626373588	-0.318579795137644	1.69627217243711	-0.0970984680846058	-0.0571506670064129	0.0445399557231436	0.00152355362164626	-0.0113125600814982	0.0258175879985264	0.544921875	0.44189453125	0.1708984375	0	0	0	-0.4947883885836	-0.40687751992691	-0.581179959143736	0.501861524118612	-0.00663892226437729	-0.180707175295081	0.983514535483864	0.985980265037191	-0.165171388774941	-0.0236923888062613	0.166729846363383	0.969568630436768	0.179270268601943	-7.52858992427761	-79.5819445411711	-92.1040184338623
22765	1646737224842	9.68160587561189	-0.345371312538027	1.69113433737773	-0.12378182741226	-0.0525602874808101	0.0206550987627967	0.0137119615369793	-0.0113133891919889	0.0265491469023915	0.548583984375	0.427734375	0.162841796875	0	0	0	-0.494774229836323	-0.406947870002193	-0.581099672335403	0.501911409914378	-0.00656679617526995	-0.180626473757557	0.983529844064685	0.986015749613025	-0.164956735396879	-0.0237111147411691	0.16652272728687	0.969620210404628	0.179183785181104	-7.53806673791469	-79.5867961892972	-92.0821093489649
22766	1646737224843	9.67566365892262	-0.301389430927021	1.74058394039225	-0.0694397939965634	-0.00974501244940112	0.0226579633407304	0.0241148879420809	-0.0160079396730875	0.0316493692752594	0.54736328125	0.435546875	0.15771484375	0	0	0	-0.494827407256448	-0.406989680687555	-0.580921786937405	0.502030989385272	-0.00622144544941206	-0.180502181953786	0.983554907428377	0.986060775852797	-0.164648571021373	-0.0239790405396101	0.166269179167699	0.969695730820004	0.179010473683406	-7.62954055209865	-79.594744186526	-91.9740565117755
22767	1646737224844	9.67287356580003	-0.305050702075976	1.7636899853588	-0.0657889899071439	0.0161078155114187	0.0241593452526025	0.0212312138760871	-0.00829376097151032	0.0285995826595074	0.550048828125	0.43408203125	0.170654296875	0	0	0	-0.494896088256297	-0.407062743407913	-0.580701385034973	0.502159024788267	-0.00582835130462406	-0.18030136362981	0.983594148312352	0.986116401179622	-0.164272473505841	-0.0242692763143992	0.165953227282936	0.969796871886842	0.178755569515678	-7.7316558176566	-79.6072001779176	-91.8514762237088
22768	1646737224844	9.65162500562876	-0.281840473719298	1.73622976286047	-0.0447370996802035	-0.00920425076881213	-0.0021977656707044	0.0273604213052306	-0.0235781543327019	0.0286095672712265	0.54345703125	0.432861328125	0.15966796875	0	0	0	-0.494957332649251	-0.407140844769899	-0.580504834788084	0.502262588856119	-0.00549906138457645	-0.18009702924857	0.983633478679802	0.986166415408058	-0.163937248711205	-0.0245026448822009	0.165667019787015	0.969891560196727	0.178507142753584	-7.81581792647443	-79.6196994063531	-91.748919172064
22769	1646737224846	9.67325401466878	-0.285226584661926	1.7613707828678	-0.041686004663341	0.0136785237635495	0.0236584531134465	0.02591770146635	-0.0189566697380361	0.0271015953714426	0.548095703125	0.4375	0.162841796875	0	0	0	-0.495004786177724	-0.407205739152741	-0.580339110681956	0.502354719570836	-0.00521999477210638	-0.179934602725955	0.983664724586804	0.986209762084533	-0.163646443451954	-0.0247011480440835	0.165417824987963	0.969970814142044	0.178307495324432	-7.88705448603246	-79.6296400059973	-91.6617137750315
22770	1646737224846	9.65507881986765	-0.285011547304573	1.70821546874635	-0.047783094745275	-0.0329433290798362	-0.00369100274456713	0.0305820949496137	-0.0204524610130806	0.0258163059011323	0.54736328125	0.429931640625	0.1640625	0	0	0	-0.495043127890242	-0.407292049285525	-0.580150786446101	0.50246447944448	-0.00492349685046545	-0.179756065735625	0.983698894992778	0.986264585908159	-0.16328526697077	-0.024901569703392	0.16509974488827	0.970064780528359	0.178090976234884	-7.95977581247981	-79.6405218082428	-91.5689321934277
22771	1646737224847	9.62528998311627	-0.264812433819036	1.75268605637004	-0.0181549480088533	0.0146969732036477	-0.0255685402208616	0.0350733861036583	-0.0266032689445612	0.027471841507826	0.546142578125	0.4365234375	0.163330078125	0	0	0	-0.495092754566518	-0.407422318844823	-0.579925798386906	0.502569683574481	-0.00461375505516637	-0.179482573766448	0.983750333661169	0.986329926201495	-0.162861534517906	-0.0250877909315692	0.164717910209072	0.970186645078484	0.177780436965689	-8.03235374175484	-79.6569241610509	-91.47251336681
22772	1646737224848	9.60727697806433	-0.264564526335164	1.69853311423292	-0.024248509403077	-0.0319265760598937	-0.0529142310522594	0.0381334623678153	-0.034246174513976	0.0274800018331303	0.545166015625	0.431640625	0.160888671875	0	0	0	-0.495155491656315	-0.407561062406179	-0.579683583359234	0.502674808078482	-0.00427815281170979	-0.179172471551296	0.983808377097247	0.986396864494101	-0.162424035467217	-0.0252914692880684	0.164325661796095	0.970317297661308	0.177430038985881	-8.11248124937272	-79.6754635399917	-91.3678079618172
22773	1646737224849	9.63211802087771	-0.2909350417125	1.69705784529223	-0.0488826658796557	-0.0299150825596887	-0.0280534684342086	0.0367021318196249	-0.035737398930083	0.0258326710059212	0.548095703125	0.435546875	0.1689453125	0	0	0	-0.495202203600834	-0.407747624912695	-0.57944356285918	0.502754223640133	-0.00402593632177001	-0.178800352437534	0.983877139588549	0.986470441916626	-0.161960129980124	-0.0253965257788791	0.163889777172187	0.970463471886002	0.177033303853868	-8.163736739458	-79.6974693442901	-91.2898754752197
22774	1646737224850	9.63836872895484	-0.290771447352045	1.64535535124526	-0.0546599626951021	-0.0780769770095807	-0.0310305981874048	0.0395668404083758	-0.0342798569495428	0.0290922698450817	0.544677734375	0.431396484375	0.162841796875	0	0	0	-0.49526446655508	-0.407886850103947	-0.579194235157362	0.502867242560769	-0.00367528905448111	-0.178491889418227	0.983934518991115	0.986539342344478	-0.161505707743218	-0.0256131289163652	0.163482776636837	0.970595977623168	0.176682851360386	-8.24851824415447	-79.7158679112425	-91.1795986874094
22775	1646737224851	9.65442778936849	-0.247531353502662	1.71961869503007	0.00235140318010319	-0.0133392427946563	-0.00319445413821562	0.0454873948182402	-0.0389384178608882	0.0323957254235309	0.546630859375	0.43115234375	0.167236328125	0	0	0	-0.495317914215053	-0.408010949734837	-0.57897046948912	0.502971593843702	-0.00335947928795133	-0.178221134455634	0.983984726066549	0.986601664853883	-0.161093281365605	-0.0258090992948059	0.163113055291295	0.970714263793527	0.176374457508252	-8.32507883183392	-79.731993440681	-91.0799010560491
22776	1646737224853	9.63363536969906	-0.248730692284196	1.68881363028897	-0.000838325210235445	-0.0357780932331374	-0.0290476296999262	0.0349127164455463	-0.0404166833805878	0.030213679358964	0.548828125	0.438232421875	0.154052734375	0	0	0	-0.495411613676238	-0.408148822773601	-0.578713102380534	0.503063630802632	-0.00298863279675671	-0.177855695132561	0.98405204119646	0.986662362773867	-0.160683043664394	-0.0260449873149728	0.16275272642723	0.970849273156065	0.175963743006459	-8.41941272888734	-79.7536531370113	-90.962690182044
22777	1646737224854	9.65575615311593	-0.27669205216201	1.71063856866712	-0.0225166486250231	-0.00943258630603516	-0.00269901387500759	0.0256887811460321	-0.0480749034339454	0.031036650682887	0.543212890625	0.428955078125	0.155029296875	0	0	0	-0.49553433285259	-0.408327734758729	-0.578443960917	0.503107115900577	-0.0026579097890852	-0.177357722516364	0.98414286248459	0.986719369031867	-0.160303381914018	-0.0262242735701552	0.162412506577871	0.971003122554576	0.175428371982289	-8.50202150003432	-79.7829482967599	-90.8585789903564
22778	1646737224855	9.68365662794329	-0.326865389715027	1.68252070402734	-0.0735575098907826	-0.0291757042221258	0.0211653116440775	0.0365326148117644	-0.0495543745151148	0.0285789952499067	0.54248046875	0.432373046875	0.15966796875	0	0	0	-0.495646806654418	-0.408497581461386	-0.578164621527551	0.503179529996382	-0.00228920729179632	-0.17690016148676	0.98422613885018	0.986782248596316	-0.159880173065638	-0.0264409552720709	0.162035654672585	0.97115635359424	0.174927937986952	-8.59538627018926	-79.809883005852	-90.7414046113929
22779	1646737224856	9.68429897609828	-0.280305834515714	1.68013762525192	-0.0256401310868135	-0.0339016705491878	0.0201795514905108	0.0379644328158306	-0.0450040605438512	0.0302881356481391	0.544921875	0.434814453125	0.156982421875	0	0	0	-0.495733476551292	-0.408715026942924	-0.577867360264311	0.503259039579591	-0.00195731861559456	-0.17640650301168	0.984315454820774	0.986861387912362	-0.159364731664945	-0.0265985591535821	0.161557327136604	0.971330854033038	0.17440069395483	-8.67158912353679	-79.838849661625	-90.6356993203405
22780	1646737224857	9.65796540388111	-0.283371757806327	1.69701926314048	-0.0230237947102229	-0.0079464473703092	-0.00269887462911811	0.0381430463196336	-0.0510507057135431	0.02711291315354	0.54931640625	0.43603515625	0.166015625	0	0	0	-0.495842950801192	-0.408897350863411	-0.577584458813872	0.503327842995337	-0.00160170121285697	-0.175930941551023	0.984401208023536	0.986926417658639	-0.158928077845092	-0.0267976155646755	0.161163521557183	0.971488636000152	0.173885449195304	-8.76097093175419	-79.8667379459982	-90.5216148073069
22781	1646737224858	9.63725454622048	-0.308734657702542	1.66443819789304	-0.0517417462777472	-0.0276984408585909	-0.0280616437432926	0.0319580487122699	-0.0449564423312699	0.0284135510694461	0.5537109375	0.436767578125	0.158447265625	0	0	0	-0.495912231109842	-0.409067376809554	-0.577366358016194	0.503371660800372	-0.00137606027746878	-0.175536694033995	0.984471927230903	0.9869827560655	-0.158561704666451	-0.0268928437064163	0.160820227855395	0.971619809833499	0.173469880531618	-8.8123496380716	-79.8897942130351	-90.4491415981595
22782	1646737224858	9.66220440497603	-0.28644590500812	1.66379388193738	-0.0271835910902939	-0.0318888632122989	-0.00418608335240123	0.0427991067972014	-0.0494995322460026	0.0258831044715202	0.548095703125	0.430419921875	0.1611328125	0	0	0	-0.496002459790812	-0.409262302597009	-0.577081269905172	0.503451224528348	-0.0010368488047427	-0.175074326396729	0.984554673535852	0.987054761547801	-0.158082464387803	-0.0270708728875205	0.160380243952831	0.971781310115507	0.172971855108917	-8.8948925954697	-79.9168378553297	-90.3393208312918
22783	1646737224860	9.66015749407054	-0.264806870276175	1.6845091208494	-1.84576799491278E-05	-0.01017725012935	-0.00319038217860523	0.0352668555783099	-0.0463934231396137	0.0239884288721559	0.54931640625	0.436279296875	0.15185546875	0	0	0	-0.496104422002756	-0.409436028714771	-0.576821106453188	0.503507648412324	-0.000720900919205625	-0.174621628984388	0.984635347218809	0.98711372647497	-0.157684372761139	-0.0272420555690191	0.160018659244989	0.971927427989233	0.172485081719177	-8.97507969141389	-79.9432733982478	-90.2365362510017
22784	1646737224861	9.66640121749818	-0.289053589626213	1.63057311702143	-0.0300545334329607	-0.0554665623752212	-0.00566685239657083	0.0306085002828458	-0.047940340129438	0.0252207252903821	0.5537109375	0.426025390625	0.15576171875	0	0	0	-0.496219398671932	-0.409593334900481	-0.576566376522304	0.503558161338599	-0.00039097306191288	-0.174173092213764	0.984714974542767	0.987165725591155	-0.157324956308786	-0.0274351661290527	0.159698708066643	0.97206614593408	0.171999216773538	-9.06276133532193	-79.9694336812816	-90.1286138314535
22785	1646737224861	9.69413777240972	-0.290262797141298	1.60439058641907	-0.0318030336062975	-0.0794277738618308	0.017231568814962	0.0350061274044703	-0.051068024052491	0.028463686904122	0.543701171875	0.431396484375	0.1611328125	0	0	0	-0.496375303577757	-0.409821413321608	-0.576198725236845	0.503639748447841	8.28764370292556E-05	-0.173542705168145	0.984826341348777	0.98724361896886	-0.15678682593295	-0.0277115141978987	0.159216927293444	0.97226581792059	0.171315934362339	-9.18839363290144	-80.0061351448124	-89.9726380334035
22786	1646737224861	9.66785544484091	-0.317585004384686	1.62008306162362	-0.0534330750512071	-0.0505954722362277	-0.00516264994899807	0.0411865995793106	-0.0510522534893484	0.0272837611687586	0.555419921875	0.433349609375	0.164306640625	0	0	0	-0.496477086870725	-0.410012259514687	-0.575908428026939	0.503716122223182	0.000438859150401649	-0.173065335872486	0.984910248155632	0.987312104613027	-0.156320030520203	-0.0279079942446133	0.158791106448821	0.97242605764012	0.17080089852004	-9.27983354021699	-80.033875400374	-89.8547096499936
22787	1646737224862	9.66859666870294	-0.319490463385572	1.61527784765859	-0.0536451577935477	-0.0517010774055595	-0.00516957366784787	0.0397478370491348	-0.051016608809617	0.0256752040156637	0.548583984375	0.421630859375	0.154541015625	0	0	0	-0.496576434713308	-0.410121075088488	-0.57570751163195	0.503759277141603	0.00072312963761989	-0.172723077272944	0.984970159781956	0.987348922345865	-0.156054588924065	-0.0280904043794321	0.1585609744735	0.972529538807488	0.170425096511365	-9.35965255691619	-80.0537295228176	-89.7601245018409
22788	1646737224862	9.64509075166766	-0.345489969638898	1.60651906057745	-0.0781767204047785	-0.0470771273913727	-0.0290422392442942	0.0428760604333785	-0.0571058984981059	0.0242018600161735	0.544677734375	0.428466796875	0.152587890625	0	0	0	-0.49668474717274	-0.410338769228765	-0.575407117857893	0.503818424744715	0.00105748637258968	-0.172183399712996	0.985064342358328	0.987419431111245	-0.155578178711152	-0.0282541567360363	0.158119413060242	0.972701550925151	0.169852712787548	-9.44439161508052	-80.0850202631626	-89.6481150659334
22789	1646737224863	9.6971237750294	-0.370813666028461	1.58128676240813	-0.103292330230902	-0.0706387578044587	0.0187173279322419	0.0429590067725779	-0.0586028357548676	0.0226489411785916	0.552978515625	0.431640625	0.157958984375	0	0	0	-0.496852858430733	-0.410542439833671	-0.575062329139059	0.50388040224818	0.00151644540115448	-0.171566905971756	0.985171303463831	0.987483644925701	-0.155118890651259	-0.0285338530061056	0.157714144570474	0.972883819650836	0.169184284329254	-9.57315597788211	-80.1206754596942	-89.4935873073761
22790	1646737224863	9.67914848204433	-0.321581804799174	1.52653684278125	-0.0609041568268435	-0.1230412917271	-0.00958612902541134	0.0504947048710728	-0.0571253860693536	0.0246224035537553	0.55224609375	0.427734375	0.156494140625	0	0	0	-0.496943130546262	-0.410780735261917	-0.57474452431423	0.503959764575873	0.00185583861697686	-0.171026901231038	0.98526461162387	0.987565559427647	-0.154567486452618	-0.0286907295842625	0.15719676108427	0.973066642726503	0.168613425081119	-9.65677960864741	-80.1518838576983	-89.3782992832734
22791	1646737224864	9.69618017528281	-0.325732205496269	1.5967379480157	-0.050762913109765	-0.0520054926082432	0.019214784876457	0.0463449543461607	-0.0539103544523275	0.0168128095012269	0.552734375	0.432861328125	0.15185546875	0	0	0	-0.497064951868273	-0.410957244528666	-0.57446604950569	0.504013228753893	0.00220580226946493	-0.170532090898595	0.985349653884398	0.987621862784832	-0.154169616820966	-0.0288926530228005	0.156838103105615	0.973216592143306	0.168081153587196	-9.75365158206423	-80.1804131337845	-89.2589306086071
22792	1646737224865	9.69699461527304	-0.326688700041907	1.59158839204234	-0.0507202269472589	-0.0517901328163199	0.0192161419550736	0.0477831384429993	-0.0554698849983918	0.0183908545389784	0.54443359375	0.431640625	0.1494140625	0	0	0	-0.497144616789323	-0.411198339462437	-0.574173427971624	0.504071453498456	0.00248160046929707	-0.169998787002777	0.985441146937094	0.987698950588613	-0.153655790782578	-0.0289944988770795	0.156347768341166	0.973391139458627	0.167526311241463	-9.81915466126361	-80.211198402425	-89.1636697090638
22793	1646737224866	9.69803416423165	-0.254790237410256	1.58883641858483	0.0213713258263962	-0.0589445367780092	0.0177374360208553	0.0520164771947016	-0.0601783176210929	0.0246481768234028	0.5458984375	0.427001953125	0.157958984375	0	0	0	-0.497223035383644	-0.411538366752893	-0.573798837602773	0.504143154014753	0.00278213331213528	-0.169300799730721	0.985560499890682	0.987806223305524	-0.152951705900837	-0.0290627056706916	0.155663499039149	0.973623651557706	0.166810851548473	-9.88318344126843	-80.2515025753123	-89.0585387041663
22794	1646737224866	9.72319768616811	-0.256553274858413	1.5857523417779	0.0217226422122159	-0.0602382949958735	0.042103339308948	0.0459202946742251	-0.0601561355344985	0.024318548993423	0.546875	0.428955078125	0.15380859375	0	0	0	-0.497332712611279	-0.411771747522052	-0.573483040392576	0.504203731929296	0.00312246064944421	-0.168729457984535	0.98565745583734	0.98787969867185	-0.152445249302412	-0.029225791984832	0.155190048622674	0.973802246851675	0.166208401818685	-9.97283905025151	-80.2843654092362	-88.9398211748736
22795	1646737224867	9.72417476052447	-0.233898481229712	1.5808136117041	0.0459887266256773	-0.0638414038861813	0.0416041396923585	0.0397396847911339	-0.0616884681843364	0.0254866386390058	0.55029296875	0.42822265625	0.152099609375	0	0	0	-0.497479248360677	-0.411913205778983	-0.573240868711812	0.504219014708791	0.00344483468681656	-0.168241348023832	0.985739814519584	0.987914436026893	-0.152181392221955	-0.0294260250637581	0.154961931465912	0.973927960722204	0.165683816710754	-10.0709180074956	-80.3123672807285	-88.8270011209641
22796	1646737224871	9.72760598894605	-0.25933647723319	1.54977414603402	0.0188793142910585	-0.084943381470607	0.040626724547554	0.032119517519846	-0.0616599046173041	0.0250792031714611	0.544677734375	0.423095703125	0.1611328125	0	0	0	-0.497629310532689	-0.412108193729596	-0.572948239123961	0.504244207943376	0.00379430389136454	-0.167657429438167	0.985838013880661	0.987965894680289	-0.151809230832975	-0.0296200672260723	0.15462533494404	0.974086722929785	0.165063811919381	-10.1732339423171	-80.3458601047659	-88.7035439105231
22797	1646737224871	9.70426066256792	-0.236673796352108	1.54243881484114	0.0436221973939829	-0.0875594412545706	0.0157527354210565	0.0382257326174533	-0.0555695661012513	0.0255113487388511	0.548095703125	0.429443359375	0.1611328125	0	0	0	-0.497793402920929	-0.412167523124175	-0.572740797586683	0.504269411792798	0.00417182332290594	-0.167282782398602	0.985900130136488	0.987979878036496	-0.151660586423656	-0.0299136611036093	0.154526232352799	0.974174284837479	0.164639321780169	-10.2978525090548	-80.3671056321228	-88.5714110527485
22798	1646737224872	9.65128058722106	-0.26435849780197	1.57950850936519	0.0246090448060588	-0.03303955198126	-0.0295258447609363	0.0184078780459068	-0.0585493457363675	0.0244100763154637	0.55078125	0.427490234375	0.14794921875	0	0	0	-0.497967676679914	-0.412315881044158	-0.572486305007957	0.504265047171748	0.00451008963423194	-0.166729704516452	0.985992324880548	0.988009629883616	-0.15142475287931	-0.0301249974718638	0.154326376062976	0.974305778412145	0.164047614441578	-10.4056175436766	-80.3987247081513	-88.4505094515162
22799	1646737224872	9.67890025051286	-0.290115375267688	1.55120101808117	-0.00200950771172565	-0.0565098803146494	-0.00614358266583714	0.01695756408762	-0.0615717117619046	0.0227533331259688	0.551513671875	0.43359375	0.14990234375	0	0	0	-0.498172800382661	-0.412396141157356	-0.572291362239054	0.504218088156293	0.00482403893017913	-0.166230232058346	0.986075168837665	0.988008394087799	-0.151387084669069	-0.0303539751506781	0.154324793408085	0.974396972770969	0.163506567434839	-10.5168785616325	-80.4272250898396	-88.3377300552598
22800	1646737224873	9.65805456459657	-0.290869169687181	1.51849116427345	-0.00520128774129806	-0.0789960221038409	-0.0319835185192101	0.0201649086572105	-0.0615307843503329	0.0198656527265997	0.560302734375	0.43017578125	0.149169921875	0	0	0	-0.498341642203968	-0.412567622063979	-0.572037620853779	0.504198894482995	0.00512183510484399	-0.165642219475217	0.986172612645719	0.988040724673415	-0.1511428640532	-0.0305182082146026	0.154108056869174	0.974535012081722	0.162887129739852	-10.6117958527878	-80.4608561473059	-88.2289173459751
22801	1646737224873	9.68587276807074	-0.267713585539722	1.49153998564288	0.0169567264807048	-0.106494710121048	-0.00958269824643842	0.0138232124364446	-0.0646374525691361	0.0240670914623968	0.551025390625	0.438720703125	0.15234375	0	0	0	-0.498566719554673	-0.412751341133493	-0.571728732558812	0.504176370838311	0.00552517351839538	-0.164936070689543	0.986288783796656	0.988072399252413	-0.150885034961626	-0.0307675163152702	0.153890890871335	0.974694720828077	0.162135113089991	-10.7449529317883	-80.5011047754279	-88.0813730634251
22802	1646737224874	9.63807805979451	-0.293553785148437	1.47953941547889	-0.00787448822233668	-0.100375585888558	-0.0578106935404534	0.00956998728260406	-0.0629869270966381	0.0177625815457576	0.55224609375	0.42919921875	0.149169921875	0	0	0	-0.498762146020039	-0.412901461433675	-0.571498030302511	0.504121717647406	0.00580476901257221	-0.164329899337482	0.986388355993948	0.988088375335363	-0.150747353884328	-0.0309289156615105	0.153777980165674	0.974818403335004	0.161497409686841	-10.8416332177213	-80.535737504941	-87.9769321458659
22803	1646737224874	9.63907903559989	-0.270791508139114	1.47432901322026	0.0150473864490503	-0.102906286864551	-0.0583037700844162	0.0110152538171077	-0.0630178299269232	0.0193645728873788	0.559326171875	0.430908203125	0.146484375	0	0	0	-0.498923687312107	-0.413089274685311	-0.571294690051582	0.504038473231679	0.00595925651766038	-0.163708958447771	0.986490681246257	0.988109054908088	-0.150604937284484	-0.0309620489338717	0.153639131963194	0.974944885513783	0.160864810757709	-10.8946316480689	-80.5714591128522	-87.9152664605341
22804	1646737224875	9.66687895632516	-0.247458982902682	1.44716310471317	0.036724846985772	-0.131323452418821	-0.0359052984126791	0.00346432431960374	-0.0660133338315189	0.0174000915616867	0.556884765625	0.43212890625	0.1455078125	0	0	0	-0.499141890138115	-0.413230606224994	-0.571070277984175	0.50396088855322	0.0062384073640015	-0.163072757730354	0.986594322890507	0.988115581146604	-0.150527777775146	-0.031128546599323	0.153586068928372	0.975063415273229	0.160195679176549	-10.9964367153494	-80.6077775069258	-87.8091975288199
22805	1646737224875	9.68950562469022	-0.274732165396447	1.4664573130453	0.0166108865476603	-0.103976051743346	-0.00955506862174893	-0.0104205996247039	-0.0705848341546345	0.0196742278477158	0.553955078125	0.4345703125	0.148193359375	0	0	0	-0.499446889114727	-0.413401797170595	-0.5707624865549	0.503866989384512	0.00665827607558056	-0.16223226840549	0.98673013455945	0.988121234610653	-0.150434022209422	-0.0314011253526895	0.153532058773474	0.975218076150101	0.159303518099489	-11.150908242849	-80.6555807619086	-87.6498070237998
22806	1646737224875	9.69272230894011	-0.300175562148863	1.43499706655879	-0.010491315575083	-0.125093665633282	-0.0105230043321871	-0.0132082422539236	-0.0598002682821233	0.0151318709060185	0.552490234375	0.432861328125	0.146728515625	0	0	0	-0.499684879833191	-0.413485768827269	-0.570592917653966	0.503754168386274	0.00690648260091387	-0.161651948021367	0.986823666213464	0.98810229485812	-0.150522513621552	-0.0315725797040397	0.153642947752904	0.975300784678218	0.158689079686825	-11.2525559326698	-80.6886436461932	-87.5535599902121
22807	1646737224876	9.66669766231222	-0.327017201320136	1.44987926264188	-0.0332839417295382	-0.0955420746522821	-0.0329177391903723	-0.00888334717576918	-0.0660072306948654	0.0198275451509156	0.554931640625	0.43408203125	0.14453125	0	0	0	-0.499909633585884	-0.413656714586715	-0.570383918715039	0.503627507188228	0.00710061549720231	-0.160940109006645	0.98693863161419	0.988104015484186	-0.150494912961394	-0.0316502094269607	0.153623031618273	0.975422760901996	0.157956961450705	-11.3304451956014	-80.7294433473222	-87.4737706060808
22808	1646737224876	9.72116530694346	-0.303546454725836	1.40055872269705	-0.0141876913235581	-0.149641711622971	0.0123908684345526	-0.0210773701173623	-0.0659483566526983	0.0192214103044143	0.557861328125	0.435302734375	0.1484375	0	0	0	-0.500193014187546	-0.413723845715696	-0.570205005146157	0.503493575083598	0.00739766318497187	-0.160305558283606	0.987039716811225	0.988072668002795	-0.150653598671503	-0.0318731227394446	0.153810524104301	0.97550275304107	0.157279056088384	-11.456034517205	-80.7654647672848	-87.3578309391007
22809	1646737224877	9.72892474931621	-0.352193689205527	1.31954240316531	-0.0721827748131755	-0.215203111472705	0.00900712053330288	-0.0242772418286504	-0.0659838212280268	0.0221185765884997	0.55615234375	0.428466796875	0.14501953125	0	0	0	-0.500469860177562	-0.413856408175155	-0.569996476674251	0.503345615899405	0.00765377998259825	-0.159565137758167	0.987157731299408	0.988055772690199	-0.150732128734417	-0.032025231002529	0.153906496632053	0.975612009038126	0.156505584932422	-11.5646021876754	-80.8076959297384	-87.2538272485484
22810	1646737224878	9.74933342699666	-0.33213981294146	1.36529437493725	-0.0418013813848292	-0.170989900944667	0.0358079453694504	-0.0151022799539027	-0.0568630878160783	0.0227265131730292	0.560546875	0.42431640625	0.1484375	0	0	0	-0.500719252971896	-0.413909302266864	-0.569818944001974	0.503255094615741	0.00797092110686537	-0.159023859896745	0.987242562089099	0.988033286413477	-0.150826798480518	-0.0322723069999932	0.154034701790515	0.975685753121187	0.155918638400448	-11.6940482318223	-80.8381716118179	-87.1305045688166
22811	1646737224878	9.72098804829006	-0.335849399263533	1.40589553471844	-0.0341908490175349	-0.120281700677684	0.0143826984557744	-0.0195263326631468	-0.0567868713514868	0.0194558933096578	0.55029296875	0.432861328125	0.147216796875	0	0	0	-0.501056560515934	-0.41391216805501	-0.569600578770887	0.50316420874682	0.00846379559974225	-0.158418434475295	0.987335790793812	0.987992063600641	-0.151004992344376	-0.0326982346499129	0.154272636673493	0.975756676587699	0.155238080599886	-11.8945011613243	-80.8717806149404	-86.9417754416383
22812	1646737224879	9.74608329587751	-0.338318953777037	1.40219997898885	-0.0338257950672687	-0.121583353442926	0.0387507750935541	-0.0317530990990094	-0.065887111529912	0.0187040184256263	0.5498046875	0.433837890625	0.146240234375	0	0	0	-0.501365662574917	-0.413949832437039	-0.569444347595354	0.503002130818412	0.00875734243409798	-0.157782976420783	0.987434980798884	0.987943904471072	-0.151268785234969	-0.0329332086501055	0.154564389727862	0.975818777727369	0.154556017232323	-12.0288376063586	-80.9076739115708	-86.8232030068664
22813	1646737224880	9.75127083258653	-0.387493710080058	1.34545756576962	-0.0903736290290023	-0.163673758753142	0.036816690832854	-0.0209305226635074	-0.06436212389263	0.0161971748761062	0.5537109375	0.438232421875	0.1455078125	0	0	0	-0.501576182984236	-0.414094151338526	-0.569324289337718	0.502809327737954	0.00879177479465604	-0.157123598724624	0.987539811561936	0.987922654022521	-0.151417627533866	-0.0328866498919206	0.154698204142965	0.975902083610768	0.153894732980381	-12.0624345449144	-80.9457617467828	-86.7973820149537
22814	1646737224881	9.7473955019152	-0.390850981728022	1.38784783108178	-0.0845519815138783	-0.11507584251866	0.0397341898840207	-0.00857854749371542	-0.0613188716529065	0.0137870769708097	0.557861328125	0.43212890625	0.146728515625	0	0	0	-0.50180306931832	-0.41419899331939	-0.569144427079718	0.50270020358064	0.00902763011460717	-0.156525386407064	0.987632677317145	0.987910691031978	-0.151463398506374	-0.0330349127078987	0.154761004258931	0.975991107706939	0.153265747111833	-12.1634544581789	-80.979635584123	-86.6991123137441
22815	1646737224882	9.76802418145334	-0.369983833866576	1.43373523590379	-0.0557530423734137	-0.0700985180323202	0.0665209029843083	-0.0132132013909083	-0.0582648738974825	0.0151482860256	0.548583984375	0.4248046875	0.13525390625	0	0	0	-0.501993928357302	-0.414360521622883	-0.568984431008418	0.502557629812586	0.00912415078087969	-0.155882002084404	0.987733542661525	0.987907866107009	-0.151482373675137	-0.0330323863752153	0.154773376122714	0.976091128887003	0.152614908025634	-12.2128664576052	-81.0165708652726	-86.6501614584913
22816	1646737224883	9.74898587368238	-0.393792192682261	1.37579355301578	-0.086089750478341	-0.113914747031401	0.0397343661036782	-0.0190574780472552	-0.067287391780421	0.00860053167518999	0.551513671875	0.427001953125	0.147216796875	0	0	0	-0.502252862732262	-0.414463927322299	-0.568824533940229	0.502394630159903	0.00931660507251575	-0.1552173947158	0.987836404091063	0.987880170703322	-0.151638577070141	-0.0331437818499674	0.154938598164234	0.976172783026541	0.151923429651648	-12.3068824443059	-81.0543928431318	-86.5650597305085
22817	1646737224883	9.73008446409346	-0.392955622152131	1.31867904190484	-0.0921288454191575	-0.159263709265909	0.0124852336954433	-0.0130020896822448	-0.0597107135355275	0.010547963271318	0.558349609375	0.43408203125	0.13916015625	0	0	0	-0.502499271344173	-0.414617642631569	-0.568617535484569	0.502255702861272	0.00953261751619056	-0.154492673270487	0.987947945546236	0.987872926505698	-0.151662838723941	-0.0332485251893199	0.154971643471826	0.976283973675659	0.15117338543443	-12.4039408973831	-81.0955865242351	-86.4691711451864
22818	1646737224884	9.7045787178312	-0.34590360966012	1.33707457289955	-0.041059482433786	-0.139095440891521	-0.0114001895982305	-0.00229489374919213	-0.0506065120590869	0.0112106971851176	0.559326171875	0.431884765625	0.14501953125	0	0	0	-0.502673993033413	-0.414720563905794	-0.568457856908506	0.502176637768517	0.00972503758529814	-0.153994026887633	0.98802391839818	0.987870994294009	-0.151650956706335	-0.0333599454828405	0.154972004815481	0.976364597377938	0.150651421203009	-12.4859810348119	-81.1237528310599	-86.386453130056
22819	1646737224885	9.67455870751759	-0.300479905662496	1.40432281424109	0.0155595369270416	-0.0688852806354181	-0.0323751419843106	-0.00834059071674414	-0.0551259338796964	0.00932142014516318	0.560546875	0.421142578125	0.1455078125	0	0	0	-0.502872606764548	-0.414919479921829	-0.568232841462321	0.502068127280436	0.00990652613011234	-0.153279916213095	0.988133152983818	0.987886478075819	-0.151538841501029	-0.0334108657697176	0.154861767957717	0.976494365985914	0.149921933094454	-12.5633572988653	-81.1644067449795	-86.3020999740596
22820	1646737224887	9.70408870691016	-0.300320825084316	1.35267002683276	0.0100968853517432	-0.118555180958727	-0.0108973921590341	-0.0176929853933264	-0.0536262117475768	0.0134999578357584	0.554931640625	0.430908203125	0.144775390625	0	0	0	-0.503099216403157	-0.414980940109324	-0.568091366109135	0.501950393517893	0.0101260381964772	-0.152754197962703	0.988212334650411	0.987860541127688	-0.151673243586427	-0.033567520952299	0.155012949889208	0.976555877656135	0.149363995601022	-12.6660051837577	-81.1939922384136	-86.2074256556144
22821	1646737224888	9.70922506226997	-0.299906982208562	1.29897467668313	0.00588001957254206	-0.166585518464155	-0.013782155954285	-0.0159457932649087	-0.0504986728834446	0.00905327765886849	0.555419921875	0.43115234375	0.142578125	0	0	0	-0.503373431112425	-0.414989334847275	-0.567946349732891	0.501832626119711	0.0104415915762026	-0.152238805648849	0.988288580941806	0.987817227077393	-0.151895734649621	-0.0338350658988953	0.155267830069485	0.976601777517256	0.148798081626241	-12.8106075611752	-81.2225744551347	-86.0764033741383
22822	1646737224888	9.65448456390104	-0.303241197187825	1.36300749711331	0.0139384810272811	-0.0907884190410574	-0.0581818098122397	-0.0115363929301407	-0.0399162366301904	0.0140291348000176	0.554443359375	0.425048828125	0.146728515625	0	0	0	-0.503547020959542	-0.415031933586143	-0.56782502302395	0.501760535529019	0.0106464746631964	-0.151848187757788	0.988346488055642	0.987800562799312	-0.151969718178758	-0.0339890113129527	0.155359907024332	0.976651080289857	0.148377783573035	-12.9021875771596	-81.2443437699242	-85.9894057811708
22823	1646737224889	9.67511569141052	-0.282420162587853	1.41058598308648	0.0443586670737086	-0.0463869382209249	-0.0314166696964371	-0.0176544419768902	-0.0444609698436776	0.0136687593448786	0.558349609375	0.42431640625	0.139892578125	0	0	0	-0.503768774571995	-0.415053507522752	-0.567719150541717	0.501639884546157	0.0108511040025037	-0.151399144531689	0.988413148727292	0.98776313199787	-0.152176024251157	-0.0341533703881558	0.155583574350528	0.976688669268864	0.147895215318582	-13.0033357718844	-81.2694705380151	-85.9004975994051
22824	1646737224890	9.70399009368987	-0.331366314140374	1.35801505487354	-0.00957326039321571	-0.0903275237416206	-0.00895441529953622	-0.0268020093448904	-0.0444051956812135	0.0132561895531916	0.552978515625	0.42578125	0.147216796875	0	0	0	-0.503991693366875	-0.415065719693347	-0.567620256405307	0.501517762268703	0.0110553857076341	-0.150963931767973	0.988477450300213	0.987722631475136	-0.152400764928872	-0.0343221520439563	0.155826126559988	0.976720992993521	0.147425642705268	-13.1055780747914	-81.2937762572717	-85.8115940366324
22825	1646737224891	9.70433168515064	-0.357620201147135	1.35263433036128	-0.0327118002371331	-0.0869707886003608	-0.00845719289710267	-0.023966116504004	-0.0460331091350906	0.0179371120495641	0.56396484375	0.427978515625	0.14013671875	0	0	0	-0.504278401340631	-0.415036314563564	-0.56748702492907	0.501404655016271	0.011406668261295	-0.150493573508698	0.988545179671501	0.987668970334383	-0.152676459043018	-0.0346396289343058	0.156140619179628	0.976750522491116	0.146896303069664	-13.2685283220401	-81.3194506956296	-85.6655510334624
22826	1646737224891	9.70900755110434	-0.382228114062327	1.29871645018706	-0.0627121707432336	-0.132291488455801	-0.0108429086895754	-0.0238841019048234	-0.0429504498364864	0.016470083774314	0.55078125	0.440185546875	0.147216796875	0	0	0	-0.504496691959353	-0.415044626672746	-0.567377497786121	0.501302125148209	0.0116414657520817	-0.150077808459102	0.988605648215332	0.987632373146722	-0.152868274383941	-0.0348365641166152	0.156354634685761	0.976784491121245	0.146442091344302	-13.3811670158268	-81.3424365818149	-85.5644750534147
22827	1646737224892	9.68497193842038	-0.408060231785212	1.29130923634773	-0.0887892359847642	-0.127078891180162	-0.0347203064763395	-0.020706097388859	-0.0444403055828731	0.0135287176187398	0.55126953125	0.42529296875	0.132080078125	0	0	0	-0.504664156925883	-0.415147124404494	-0.567276651271888	0.501162802624776	0.0117001320408638	-0.149576165754436	0.988680978652076	0.987615659905631	-0.152977420727919	-0.034831265503819	0.156455793179385	0.976844347573161	0.145933907625934	-13.4241115282175	-81.3711569131303	-85.5273226387887
22828	1646737224892	9.68548255655406	-0.409564557020068	1.28699592799553	-0.0887776125157068	-0.126870466766551	-0.0347174943794783	-0.0206314036093034	-0.042884575053362	0.0120334857756375	0.556396484375	0.429931640625	0.137939453125	0	0	0	-0.504864438313668	-0.415176001007312	-0.567171960769916	0.501055639655128	0.01188971020797	-0.149154222096303	0.988742460311085	0.98758461629579	-0.153144268314734	-0.0349779750449036	0.156637353294378	0.976882721268623	0.145481574227601	-13.5189668653415	-81.3946677884415	-85.4423498350481
22829	1646737224893	9.68816506961522	-0.409986521812762	1.2582453171111	-0.0918907774809754	-0.148182203619203	-0.0361128695824622	-0.0144875877690189	-0.0474763222262097	0.0106907475559996	0.55517578125	0.424072265625	0.1416015625	0	0	0	-0.505064866457438	-0.41539174261216	-0.566927711074213	0.50095124638643	0.0120853411715729	-0.1484067369274	0.988852559769822	0.987605836967131	-0.152995097827031	-0.0350315690392168	0.156488514969051	0.977019928392179	0.144718361679928	-13.6076719366633	-81.4369304220681	-85.3444534488911
22830	1646737224894	9.69062616732811	-0.434702811419658	1.22827124937175	-0.119005822269534	-0.16929854978074	-0.0370530686625496	-0.0175445600456674	-0.0489829393223309	0.0105282897106639	0.564453125	0.420166015625	0.1474609375	0	0	0	-0.505271536364064	-0.415449389243419	-0.566804261813112	0.500834711564666	0.0122694675355273	-0.147920995588517	0.988923070430909	0.987580000326655	-0.153132793338417	-0.0351580795718145	0.156637170305132	0.977072017135112	0.144204959035136	-13.7017625888611	-81.4641056434184	-85.2583936670051
22831	1646737224895	9.69351881036692	-0.410587939763307	1.20032329911394	-0.0949811219910271	-0.196433138107087	-0.0389441526504424	-0.00532489384190286	-0.0444814066668172	0.0111467889524597	0.55908203125	0.424072265625	0.139892578125	0	0	0	-0.505549329493829	-0.41539750236619	-0.566653577693785	0.500767923656362	0.0126972758295287	-0.147516013479055	0.988978162020656	0.987531728657609	-0.153352803329654	-0.0355528143112533	0.156907183012834	0.97709873783471	0.143729580952542	-13.8937414632151	-81.4853981722619	-85.0804551324743
22832	1646737224896	9.66969710517527	-0.411338459278807	1.19381026070911	-0.095270921603378	-0.194738739268121	-0.0633067213258176	-0.00679104840793043	-0.0459693480866289	0.00952738744231823	0.562744140625	0.431884765625	0.1396484375	0	0	0	-0.505718937883877	-0.415479579401389	-0.566517618451878	0.500682397283608	0.0128690141681146	-0.147059015405152	0.98904400026612	0.987522581834394	-0.153387712301568	-0.0356561366671134	0.156950752917829	0.977162144018565	0.143250149932096	-13.9773524512167	-81.510913742694	-84.9988333008921
22833	1646737224896	9.67231821107969	-0.41141477858015	1.16496241556194	-0.097136064876088	-0.217383291545373	-0.0646903193096584	-0.00374953306381464	-0.047516207088335	0.00962944371289256	0.5576171875	0.423828125	0.13525390625	0	0	0	-0.505929157777425	-0.41561180941333	-0.566293464197777	0.500613846785808	0.0131570725661189	-0.146448433645746	0.989130804152918	0.987528964441097	-0.153305200564987	-0.0358337811237606	0.156886697432849	0.977266786380484	0.142605022373607	-14.1052438520498	-81.544671349645	-84.866272851541
22834	1646737224899	9.674673205764	-0.435854593424737	1.1351141163029	-0.124222353401075	-0.238502438143522	-0.065614033920113	0.000824410254636137	-0.0475464620378329	0.00982538103534303	0.554931640625	0.43017578125	0.143310546875	0	0	0	-0.50608496367635	-0.415718685280653	-0.566136457269799	0.50054519875755	0.0133349729170544	-0.145975819576335	0.98919828072855	0.987531722535691	-0.153264957418582	-0.0359297900518776	0.156854312924424	0.977343804874466	0.142111968498467	-14.1886069489281	-81.5710053725519	-84.7804850868106
22835	1646737224898	9.69949262679941	-0.437110684634189	1.13259571644011	-0.123757561677489	-0.23867255618458	-0.0412128746125688	0.0053983965499173	-0.0475769391266661	0.0100202323227439	0.56103515625	0.4296875	0.139892578125	0	0	0	-0.506251893718913	-0.415877450644781	-0.565933728911984	0.500473756186066	0.0135299210499503	-0.145392464234106	0.989281543636753	0.987547452009763	-0.153143930828416	-0.0360134208240058	0.156738544287638	0.977449726479247	0.141509932302424	-14.2783239699456	-81.6036133249192	-84.6834849728872
22836	1646737224898	9.69350438116221	-0.465102061611026	1.20016908818558	-0.139313472819074	-0.162983908068279	-0.0364519216598449	0.0176120715203546	-0.0446057286755426	0.0105953897292605	0.558349609375	0.4326171875	0.13720703125	0	0	0	-0.506358905551417	-0.41602264171078	-0.565747148992656	0.500455776027649	0.0137106499813318	-0.144949317886539	0.989344082370394	0.987576396051659	-0.152938355649095	-0.0360932311239578	0.15654034636063	0.977547724981025	0.141051640705509	-14.3532410814552	-81.6281880650614	-84.5965110833446
22837	1646737224900	9.74729896643867	-0.416050137300259	1.15304117771685	-0.0963345447086716	-0.21834489603987	0.00848782382574598	0.0205726455889765	-0.0492352841340291	0.0121607638517093	0.553466796875	0.4287109375	0.144775390625	0	0	0	-0.506469589240988	-0.416274692029848	-0.565483283548291	0.500432405002877	0.0138880736057972	-0.144311374582439	0.989434863231354	0.987633263717542	-0.152565577596984	-0.03611482979519	0.156165482134039	0.977700348623558	0.140407871899041	-14.4245809094897	-81.6639886011863	-84.5029626882207
22838	1646737224900	9.72299348018026	-0.465360831586338	1.14422949674861	-0.145108312103139	-0.210940825796822	-0.0148881526611042	0.0236616492370234	-0.0538082777480783	0.0106773223102154	0.559326171875	0.42919921875	0.144287109375	0	0	0	-0.506587470191873	-0.416460166348958	-0.565260397008985	0.500410579886598	0.0140832268356855	-0.14377756189558	0.989509815725573	0.9876715703212	-0.152300362764314	-0.0361865815063194	0.155905522356169	0.97782033738168	0.139860129778393	-14.5062559013786	-81.6936624936711	-84.4056390004885
22839	1646737224901	9.8515456315516	-0.440879750639174	1.07728385081276	-0.128562035170931	-0.29426602875123	0.102187517700846	0.0326906719815318	-0.0524002878575384	0.0141355431275546	0.56298828125	0.43505859375	0.151123046875	0	0	0	-0.50668791868488	-0.416601653064702	-0.565097715143648	0.500374847551283	0.0142152700063712	-0.143347317109094	0.989570347563159	0.987695415157232	-0.152136149203575	-0.0362264955921874	0.155742392995707	0.977909064679908	0.139420831445083	-14.5653929303823	-81.7177042643126	-84.336686717306
22840	1646737224902	9.77727506404823	-0.4173622993614	1.0917703805869	-0.102377681033539	-0.268305805759871	0.0300150437925843	0.0388229699819255	-0.0463346737345141	0.0145020414777969	0.55859375	0.431884765625	0.132568359375	0	0	0	-0.506754326656264	-0.416801049872071	-0.564853253407317	0.50041756499534	0.0144353738814186	-0.14289350854448	0.989632793109016	0.987756450054661	-0.151718290939348	-0.036314674304713	0.155334527251084	0.978040390480011	0.138953874481391	-14.6462885215963	-81.7425789527414	-84.2314418386998
22841	1646737224904	9.77394361823171	-0.395785240417463	1.13715385117583	-0.0733829005134886	-0.222281059315793	0.0323592790492917	0.0387850527727712	-0.0417806870810863	0.0161112495739259	0.55859375	0.427734375	0.13818359375	0	0	0	-0.506788573029377	-0.417017533541995	-0.564638938968135	0.500444390083791	0.0145584906389791	-0.142461337354979	0.989693294768306	0.98782022036289	-0.151303578304427	-0.0363103213217209	0.154916953857624	0.978167672002764	0.138523437930798	-14.6881490168248	-81.7667504904441	-84.1650526792708
22842	1646737224904	9.74858798946258	-0.348667997191661	1.15724325181733	-0.0223239182970366	-0.202112323964844	0.00843272785973248	0.031152061821902	-0.0432524630063362	0.0157714843060647	0.55810546875	0.430419921875	0.1357421875	0	0	0	-0.50686770560855	-0.417184287307127	-0.564415476298875	0.50047734169439	0.0147848810767182	-0.142039829331865	0.989750521179414	0.987868799425071	-0.150959401749123	-0.0364210673376866	0.154585388746857	0.978282140237121	0.138084798870338	-14.7757522866539	-81.7896785404541	-84.0575003658816
22843	1646737224905	9.75272201955911	-0.372537140729404	1.10369039278412	-0.052504408753561	-0.246258696918539	0.00612629842067314	0.0296357308518275	-0.0417139946675098	0.0157372243388231	0.564453125	0.434814453125	0.133056640625	0	0	0	-0.506958953985193	-0.417396492267439	-0.564165466052519	0.500489874154134	0.0149949903131644	-0.141512427979488	0.989822904863723	0.987923984447447	-0.150580108224033	-0.0364942729852291	0.154212033314492	0.978417019340214	0.137545574434153	-14.8596223726621	-81.8187708343182	-83.9513748416255
22844	1646737224906	9.70441966563528	-0.372976158363251	1.09616237535571	-0.0531311214906133	-0.243121590559758	-0.0426048530988758	0.0266923957463849	-0.0340303346531952	0.014226764377744	0.560546875	0.429443359375	0.129638671875	0	0	0	-0.507019853194842	-0.417531655575738	-0.563978451679662	0.500526214198094	0.0151912452663891	-0.141178321188628	0.989867621297726	0.987965676045467	-0.150281650985416	-0.0365957420080735	0.15392546580498	0.978511168563476	0.13719637011693	-14.9353329235598	-81.8367946221433	-83.8584188884205
22845	1646737224907	9.69882543880665	-0.376418805977222	1.16593060607907	-0.044622384502496	-0.167348899908171	-0.0383176900436997	0.0329152283780156	-0.0340217064329564	0.0114239289885863	0.561767578125	0.431396484375	0.14013671875	0	0	0	-0.507062532254903	-0.417863980810312	-0.563646158540205	0.500579953541364	0.0153854030084577	-0.140533599216065	0.989956361091561	0.988066272207231	-0.14961880730777	-0.0365958225253506	0.153259032689019	0.978705532829553	0.136554563849208	-15.0024026188203	-81.8726804057195	-83.7522275742818
22846	1646737224907	9.72380831819502	-0.353290190325433	1.16547784150414	-0.0200537437766875	-0.171409504776259	-0.0144315815237999	0.023633715160471	-0.0355330188911765	0.0140784914568763	0.56005859375	0.435791015625	0.13720703125	0	0	0	-0.507134985361289	-0.417995497837655	-0.563461402986786	0.500604752029203	0.0155820222632269	-0.140182630486486	0.990003045799395	0.988103193194421	-0.149349292066463	-0.0366997078767115	0.153000915622025	0.978797026491773	0.136187740820114	-15.0817375459099	-81.8916227166178	-83.6573154137525
22847	1646737224907	9.67853663846842	-0.424737147822662	1.107097553657	-0.100294604593213	-0.207633690377199	-0.0645097631996911	0.0270603772313295	-0.0338724468692326	0.00508055517069812	0.564208984375	0.42041015625	0.141357421875	0	0	0	-0.507145090803315	-0.418211984016814	-0.563303644681144	0.500591247614017	0.0155754806273197	-0.13978143933443	0.990059873755534	0.988158057771396	-0.149014278473925	-0.0365841177611028	0.152646838371093	0.978905457145117	0.135805186597636	-15.0768208170621	-81.9147401361592	-83.6419085566553
22848	1646737224908	9.72199917191388	-0.403780531354799	1.181702617517	-0.0668203222609024	-0.14052793207452	-0.0120489205341787	0.0315829728734495	-0.0324050884033406	0.00681383699445729	0.55712890625	0.425537109375	0.12939453125	0	0	0	-0.507173269245136	-0.418376568509319	-0.563128747841735	0.50062194841993	0.0156941205531331	-0.139450397858743	0.990104681898385	0.988208045964476	-0.148677423365199	-0.0366043941700621	0.152310710296865	0.979003886773961	0.135472643771134	-15.1201312941554	-81.9330143359011	-83.5787988449444
22849	1646737224909	9.67564805120862	-0.402383060347318	1.15035066322283	-0.0682201445389299	-0.160789426882962	-0.062155282242152	0.0301609096192078	-0.0353958321694466	0.00365172441869061	0.5634765625	0.431640625	0.134765625	0	0	0	-0.507306168112788	-0.418500651136163	-0.562904627710286	0.50063563286653	0.015991170201903	-0.139004305713289	0.990162656066537	0.988236152435662	-0.148442336205873	-0.0367991826118515	0.152097302720106	0.979102995509108	0.134995313586655	-15.2481178502326	-81.9567192650013	-83.4374949618001
22850	1646737224909	9.72217661954487	-0.452795560063586	1.17354669381781	-0.113184339733536	-0.133552003074026	-0.0110392288076451	0.0301001772804443	-0.0354207166956863	0.00517630110280272	0.563232421875	0.430419921875	0.140625	0	0	0	-0.507343472309937	-0.418672298331597	-0.562728872439084	0.500651898865542	0.0160994454663517	-0.138641241875117	0.990211802548829	0.988283872257253	-0.148122365544133	-0.036806964854776	0.151775477900372	0.979202926301253	0.13463221542847	-15.2904013758729	-81.9768691521083	-83.3763049088716
22851	1646737224910	9.7289009216755	-0.401680914333474	1.09928815716633	-0.0731469305424519	-0.211207376255033	-0.0161912758157463	0.0317322323957715	-0.027772586024338	0.00384131177493099	0.5595703125	0.427734375	0.13671875	0	0	0	-0.507366314717129	-0.418841839822483	-0.562558872115642	0.500677991635794	0.0161980572361869	-0.138309211095364	0.9902566258642	0.988334173975665	-0.14778612381133	-0.0368079089416997	0.151437061162753	0.979300680963206	0.134301871808953	-15.3266193971347	-81.9952904914365	-83.3202442310427
22852	1646737224911	9.70096672537778	-0.402916452559795	1.14390879718708	-0.0677242191822427	-0.161126957901451	-0.0377666098077274	0.0348385475611616	-0.0186342559406292	0.00411477952953728	0.55712890625	0.42822265625	0.138671875	0	0	0	-0.507342210993622	-0.418987264623191	-0.562418577823641	0.500738351184041	0.0162700308048184	-0.138109252245167	0.990283353662925	0.988388953093565	-0.147421551474128	-0.0367989614468392	0.151071385444813	0.97938384742921	0.134107106055357	-15.3442745849046	-82.0062950665928	-83.2812087504968
22853	1646737224912	9.72580131414694	-0.378959141570199	1.14495043818509	-0.0432526261719715	-0.165274815031503	-0.0138840704720096	0.0347784903008039	-0.0186585180478629	0.00563937352330118	0.562255859375	0.424072265625	0.129150390625	0	0	0	-0.507342579689897	-0.419096230421048	-0.562310145813828	0.500768565702062	0.0163312991234	-0.137923765037564	0.990308196324157	0.988425215758068	-0.147178386503134	-0.036798307025618	0.1508273235278	0.979446556777958	0.133923712960937	-15.3640341904702	-82.0165369917707	-83.2471544902041
22854	1646737224913	9.72628438725812	-0.354696858227228	1.14419493117913	-0.0190050394310294	-0.167899370035741	-0.0143687143635525	0.0196084742631424	-0.0154657068973637	0.0035706528691174	0.559326171875	0.42529296875	0.139404296875	0	0	0	-0.507346395820444	-0.419191942284529	-0.562211545751736	0.500795295500241	0.0163925866943354	-0.137754752226722	0.990330708066969	0.98845683652683	-0.146964375057103	-0.0368042767548474	0.150613297636168	0.979502476108677	0.13375550034346	-15.3848187985616	-82.0258292327346	-83.2138095275669
