// Start Time : 08/03/2022 10:59:43																																
// Update Rate : 100Hz																																
// Filter Profile : 46.1 human																																
// Firmware Version : 4.4.0																																
PacketCounter	Time_Of_Arrival	Acc_X	Acc_Y	Acc_Z	FreeAcc_X	FreeAcc_Y	FreeAcc_Z	Gyr_X	Gyr_Y	Gyr_Z	Mag_X	Mag_Y	Mag_Z	VelInc_X	VelInc_Y	VelInc_Z	OriInc_q0	OriInc_q1	OriInc_q2	OriInc_q3	Mat[1][1]	Mat[2][1]	Mat[3][1]	Mat[1][2]	Mat[2][2]	Mat[3][2]	Mat[1][3]	Mat[2][3]	Mat[3][3]	Euler_X	Euler_Y	Euler_Z
22631	1646737224731	8.44214369928359	-1.68884764036539	4.56209443509856	5.20417042793042E-15	-1.19262238973405E-16	-0.0692433137391699	0.00980974037584657	0.0155927751865293	0.0143097070202052	0.187744140625	-0.42529296875	0.31396484375	0	0	0	-0.393229589747287	0.333612857415171	-0.749346690322362	-0.415394377450377	-0.345636001859587	0.36017590973034	0.866492393658733	-0.884921697953493	-0.432299945099796	-0.173292659849806	0.312168772797067	-0.826674102362373	0.468145902228929	-20.3129428203568	-60.0535564597952	133.81985904803
22632	1646737224732	8.44542830972117	-1.69561892370284	4.54045219171778	2.77555756156289E-15	-1.29020058525775E-15	-0.0753320394041843	0.0148544364586041	0.0164814381223786	0.0100171501326862	0.193359375	-0.43603515625	0.309814453125	0	0	0	-0.389986924788261	0.338830837068535	-0.744226463843632	-0.423356626097236	-0.33735873126752	0.365867217226653	0.867369739958914	-0.894425601913814	-0.411925661982002	-0.174126654024597	0.293584619962766	-0.834540848826176	0.466207724691262	-20.4804519341601	-60.1544101439281	132.678524243991
22633	1646737224732	8.41063214437363	-1.70669559068928	4.58998763355355	0.0365947762386977	-0.0389189415064234	-0.0804381208280507	0.0112490229325446	0.0125448861543251	0.0148395408134209	0.18603515625	-0.434814453125	0.312255859375	0	0	0	-0.391629428911356	0.336171954381033	-0.746870896396522	-0.419283521753548	-0.341655437593015	0.362991658452209	0.86689596714787	-0.889610980493242	-0.422379490947158	-0.173746565471297	0.30309052335726	-0.830561630176433	0.467229614996404	-20.3984302893088	-60.0999101420699	133.265653807308
22634	1646737224733	8.4422883511033	-1.72040810972882	4.54923212162625	0.0243313312276741	0.0131718355759016	-0.069649650213984	0.0112025224282945	0.01102600756056	0.0150341176047282	0.185791015625	-0.436767578125	0.306396484375	0	0	0	-0.391586466496513	0.336136442101306	-0.746942830183021	-0.419223973534947	-0.341822598540691	0.36301971929921	0.866818316907766	-0.88952564579185	-0.422527104610091	-0.173824541847246	0.30315249727733	-0.830474279715956	0.467344663096502	-20.4022207515549	-60.0909863188273	133.277430874427
22635	1646737224734	8.41344956196924	-1.71444511565207	4.56883664764282	0.0335601425078642	-0.0154947893093911	-0.0865186689180621	0.0126811344438319	0.00473900599828502	0.0144468872028047	0.18994140625	-0.43408203125	0.311279296875	0	0	0	-0.391564440019402	0.336114074192065	-0.74700521988714	-0.419151309080228	-0.341978938817247	0.362995793123605	0.866766669629142	-0.889437070098227	-0.422679018452686	-0.173908440551214	0.303236052837572	-0.830407431044809	0.467409236884607	-20.408668748107	-60.0850521799705	133.292391994545
22636	1646737224734	8.4131514319828	-1.7151565401943	4.56911861241742	0.0335601421651789	-0.0154947894053747	-0.0865186689170301	0.0109136536949294	-0.00284520425660857	0.0152790449995749	0.18408203125	-0.42724609375	0.310302734375	0	0	0	-0.391572260004174	0.336109186417624	-0.747050008439889	-0.419068090995805	-0.34210620060871	0.362907574363183	0.866753390518263	-0.889351709298035	-0.422825099829629	-0.173989862126295	0.303342850045515	-0.830371620073745	0.467403560001813	-20.4176628741716	-60.0835266170655	133.309983008193
22637	1646737224736	8.40892836704695	-1.70968575106682	4.59199603692495	0.0364031418490574	-0.0389578410305543	-0.0804375577752019	0.00919280458537308	-0.00891015853169985	0.0159168544941116	0.182861328125	-0.439697265625	0.311767578125	0	0	0	-0.391597220420523	0.336124746908199	-0.74708184372872	-0.418975524638034	-0.342222253426409	0.362766981639975	0.866766431220991	-0.889269048055185	-0.422959328540367	-0.174086089541084	0.303454262502235	-0.830364693031022	0.467343542949639	-20.4304290562903	-60.0850247899668	133.330764352114
22638	1646737224736	8.48659873322862	-1.77117150246392	4.57067767094114	0.0577468428173562	0.0320676259906828	-0.0123742118346204	0.015676364719455	-0.0110745097329894	0.0121558625981394	0.186279296875	-0.4326171875	0.30859375	0	0	0	-0.391650996343722	0.336113187862418	-0.747111966291401	-0.418880808622369	-0.342296730461681	0.362623599322019	0.866797019797592	-0.889179858964341	-0.423133586225666	-0.174118197268295	0.303631564115784	-0.830338541453154	0.467274844015866	-20.4366415160037	-60.0885392064628	133.348293972048
22639	1646737224737	8.50556932659961	-1.71187640504551	4.6083843784351	0.0101756141966287	-0.0183518772920417	0.0113645787363836	0.0144502065573611	-0.0147020235849776	0.00788347470417756	0.185791015625	-0.43017578125	0.3046875	0	0	0	-0.391720579305273	0.336106228090956	-0.747125261940653	-0.418797605243061	-0.342327107182837	0.362469088282881	0.866849647705533	-0.889107993786478	-0.423282338562295	-0.174123626329734	0.303807713978452	-0.830330188479625	0.467175182374423	-20.4412252670791	-60.0945866672484	133.363021129087
22640	1646737224737	8.43953009742207	-1.77023447846479	4.5601149924672	0.070777117875853	0.0217803498601724	-0.0582748614795232	0.016792204668884	-0.0111584554087088	-9.59212982717522E-05	0.18896484375	-0.43359375	0.317138671875	0	0	0	-0.391797584985348	0.336066674797537	-0.747131422135197	-0.418746320041638	-0.34229234370247	0.362376844053716	0.866901940438675	-0.889057290372641	-0.423421419084225	-0.17404435151983	0.30399520699828	-0.830299539175092	0.46710768498035	-20.4353966257746	-60.1005967125875	133.367396128947
22641	1646737224738	8.41506526010228	-1.71532780750115	4.56552859839052	0.033386433598667	-0.0154682868650812	-0.0865180289017378	0.0245708993697934	-0.0209302193480306	-0.00274032566747223	0.18310546875	-0.42919921875	0.312255859375	0	0	0	-0.391927758198634	0.336015198479653	-0.747128138306406	-0.418671665741636	-0.342213337317033	0.362215397452782	0.867000598391063	-0.88899013129598	-0.423615645391607	-0.173914724614706	0.304280426943133	-0.830270914116335	0.466972837488145	-20.4268435574304	-60.1119385359251	133.373539125828
22642	1646737224738	8.39375759426431	-1.68996219968044	4.55322724440073	0.016583360768424	-0.0249356734623809	-0.115155735855412	0.0246016187797919	-0.0289258040189477	-0.0047771213340137	0.191650390625	-0.436279296875	0.316162109375	0	0	0	-0.39209533332621	0.335974480179447	-0.747102772879078	-0.418592695837316	-0.342082809150913	0.361995475943853	0.867143948303627	-0.888931579124095	-0.423802607319598	-0.173758446312844	0.304598094740205	-0.830271416721842	0.466764796503917	-20.4183488091518	-60.1284251596602	133.379998724349
22643	1646737224739	8.43908037694296	-1.68289914981963	4.58304276657536	0.00622081468690093	-0.0380708763098733	-0.0631735706650307	0.0242808756142227	-0.034799678663968	-0.0024874326452705	0.1904296875	-0.430908203125	0.3056640625	0	0	0	-0.392274286043959	0.335953197234188	-0.747073507032396	-0.418494335525757	-0.341966751283114	0.361720460650386	0.867304473275531	-0.888863663007292	-0.423995880801964	-0.173634333149368	0.30492643309843	-0.830292599876598	0.466512667553657	-20.4150851313777	-60.1468968897188	133.392031285389
22644	1646737224739	8.45185738644714	-1.72426153779115	4.51698550991172	0.020986929781489	0.0366604356246911	-0.0757297378113435	0.0300058434967863	-0.0389975661450737	0.00167594979287395	0.185546875	-0.42529296875	0.311279296875	0	0	0	-0.392479915500896	0.335925992689607	-0.747050905396549	-0.418363703146088	-0.341862655636602	0.361389555989932	0.867483437019111	-0.888766376891419	-0.424251078650788	-0.173508932251174	0.305326467880512	-0.830306335688848	0.466226486727822	-20.4130466173768	-60.1675026231222	133.409501506921
22645	1646737224740	8.30303737726064	-1.68421950790038	4.52735326518791	0.0424675524999526	-0.0454561596349362	-0.206955696826172	0.0292053731199925	-0.0512272281208936	-0.00914754559566073	0.18505859375	-0.433837890625	0.317626953125	0	0	0	-0.392740862230066	0.335907997162353	-0.746984086367864	-0.418252563997315	-0.341638815688911	0.361006425906068	0.867731110465221	-0.888705611648137	-0.424461220304096	-0.173306111499476	0.305753586143792	-0.830365601956442	0.465840865154321	-20.4066390422485	-60.1960408695527	133.421107332549
22646	1646737224741	8.40737471590659	-1.66661763292769	4.51138264176027	-0.00991441411437987	-0.00570743659052522	-0.126924422026693	0.0269508092485438	-0.0612408988456821	-0.00339168732385144	0.189697265625	-0.427001953125	0.30810546875	0	0	0	-0.393031627662644	0.335928729782307	-0.746901957547699	-0.418109428230356	-0.341421291363476	0.360512269938835	0.868022122429634	-0.888634731718773	-0.424672789063462	-0.173151193504885	0.306202245887914	-0.830472109978782	0.465356056327398	-20.4093909295031	-60.2296045520295	133.442070630317
22647	1646737224741	8.42415169522218	-1.66097459324406	4.43071161208183	-0.04202496489962	0.0604754590825748	-0.150857951940335	0.0262870983111706	-0.0649878704120666	0.0032264858620463	0.1904296875	-0.4287109375	0.3125	0	0	0	-0.393314786002938	0.335973304372154	-0.746830395613309	-0.417935136174009	-0.341267402125351	0.359966789555407	0.868308971889493	-0.888539862802742	-0.424904321400938	-0.173070014344754	0.306648777035062	-0.830590288934311	0.464850835721438	-20.4209535274469	-60.2627218267413	133.47249015395
22648	1646737224742	8.3733234108681	-1.67658256842879	4.44635761031733	-0.00273027498260171	0.031024593386647	-0.184987880908251	0.0218694151111789	-0.0636363265589293	0.00110679421523222	0.197998046875	-0.43408203125	0.314208984375	0	0	0	-0.393596231947017	0.336026777525091	-0.746744258477528	-0.417781071153372	-0.341081965566101	0.359433485434396	0.868602706830946	-0.888468979303094	-0.425089962744088	-0.172978022853623	0.307060198628352	-0.830726244392647	0.464336021966425	-20.4317552183211	-60.2966688034701	133.499356157655
22649	1646737224743	8.37767709836789	-1.65254677370384	4.43487425722427	-0.0262042774814848	0.0266887951945469	-0.190676562685589	0.0194537027812691	-0.0702054490603059	0.0094890306518202	0.18701171875	-0.4267578125	0.313720703125	0	0	0	-0.39387843682377	0.336122891587643	-0.746660868874522	-0.417586788162136	-0.34096210271539	0.358808309920869	0.868908189191257	-0.888374546397775	-0.425285352206386	-0.172982757843772	0.307466274287842	-0.830896483282015	0.463762357512049	-20.4554501509992	-60.3320108717937	133.539105483128
22650	1646737224743	8.48069495554172	-1.66081672618193	4.42352354543832	-0.0552428432252179	0.0707566762481525	-0.104958578458088	0.00952460649192589	-0.0674056851899149	0.0175083533670798	0.1982421875	-0.42822265625	0.3095703125	0	0	0	-0.394120520519822	0.336262532036255	-0.746580637847705	-0.41738935784788	-0.340910278521039	0.358173697710944	0.869190303826946	-0.888285554340712	-0.425427267007803	-0.173090769354942	0.307780694567288	-0.831097613252704	0.463193049707503	-20.4902303008576	-60.3646834899311	133.585405891308
22651	1646737224744	8.489851125707	-1.69865319267305	4.37808670654189	-0.0376399437862202	0.121879463316532	-0.111431572432648	0.00144637907494222	-0.0587448572602501	0.0233720472903237	0.186279296875	-0.427001953125	0.3095703125	0	0	0	-0.39430556493636	0.336431564855374	-0.74651414412516	-0.417197262994693	-0.340939130419911	0.357573638946241	0.869426018749875	-0.888200991917128	-0.425520491837404	-0.173295438439344	0.307992706579142	-0.831308248339445	0.462673847258366	-20.5335405702987	-60.3920075397096	133.635805863751
22652	1646737224745	8.51855979493936	-1.73111108559461	4.3605584720102	-0.0236984659893998	0.154817835189336	-0.0888741247175222	-0.00484875756634704	-0.055256813253902	0.0254450370429266	0.190673828125	-0.434326171875	0.310302734375	0	0	0	-0.394458879679191	0.336615077849536	-0.746450090677296	-0.417018876952165	-0.340994897015584	0.357005944046872	0.869637416469952	-0.888129170013479	-0.425571091259811	-0.173539112753011	0.308138049550034	-0.831526308783514	0.462184963213176	-20.5799248703087	-60.4165322606527	133.685954915778
22653	1646737224746	8.5670346687636	-1.75790992872004	4.37070304255356	-0.0133854644219229	0.168928861849176	-0.0372765445016814	-0.00948130319501934	-0.0519819678492361	0.0261489860425418	0.18701171875	-0.42529296875	0.31201171875	0	0	0	-0.394602017591985	0.336828502938225	-0.746376252459218	-0.416843252417096	-0.341061901253345	0.356417395520145	0.869852527549406	-0.888070222887791	-0.425576525045464	-0.17382721464218	0.308233772863203	-0.831775968335744	0.461671614641458	-20.6322093658227	-60.4415067727285	133.738797101659
22654	1646737224746	8.62074431648848	-1.76739734621639	4.35198646963821	-0.0293346290024933	0.202695593901394	0.0025438925150798	-0.0116127750009646	-0.039102250310718	0.0180736008135989	0.191162109375	-0.432861328125	0.314208984375	0	0	0	-0.394693285605939	0.336988993000195	-0.746317198528528	-0.41673284976689	-0.341101884445511	0.356015200225103	0.870001541168981	-0.888044371666238	-0.425544301043763	-0.17403804699287	0.308264007596798	-0.83196467777055	0.461311257788607	-20.6698939329456	-60.4588185940937	133.774467364486
22655	1646737224747	8.57240135605394	-1.79235202796497	4.3463970557123	0.00722131153697728	0.195706023402049	-0.0376475169281978	-0.00720885162688656	-0.0324571632073783	0.0222141999940118	0.183349609375	-0.43603515625	0.3076171875	0	0	0	-0.394788186049765	0.337163344863607	-0.746267453294061	-0.416590992689373	-0.341188465931237	0.355560387716737	0.870153573458279	-0.887992809001436	-0.425545647380934	-0.174297656773925	0.308316723317481	-0.832158466087959	0.460926334071841	-20.7139336867287	-60.4764906300956	133.818320689592
22656	1646737224748	8.60288252776322	-1.77771121569467	4.31849405093212	-0.0255290426027678	0.220005780678773	-0.0264633417500661	-0.00847297342123886	-0.0280920832122854	0.0199803752088016	0.18310546875	-0.427978515625	0.311279296875	0	0	0	-0.394841666056657	0.337292904188019	-0.746239330155414	-0.416485795267034	-0.341279282172778	0.35524157728126	0.870248167668485	-0.887950746236005	-0.425546158250395	-0.174510571190549	0.308337353913785	-0.832294352359219	0.460667111060029	-20.7477611103038	-60.4874909971723	133.851615936274
22657	1646737224748	8.53148366165369	-1.77867172538618	4.3034060695203	-0.00577810680251026	0.203009730766537	-0.0952832174465783	-0.0128372471028148	-0.0204641218771515	0.018589763186826	0.189697265625	-0.439697265625	0.31298828125	0	0	0	-0.394897918280592	0.337477429341907	-0.746186591072882	-0.416377461116071	-0.341370888024379	0.354852287991955	0.870371053353868	-0.887928825247174	-0.425477589118626	-0.174789079901964	0.308299072500422	-0.832495450356743	0.460329237644866	-20.7919946552302	-60.5017869560464	133.890685016071
22658	1646737224749	8.55997194387781	-1.78782324426716	4.28260404498383	-0.0151829864009471	0.231624300347571	-0.0784052685727001	-0.016190540921812	-0.0167963995116213	0.0224480402778925	0.192626953125	-0.428466796875	0.310546875	0	0	0	-0.394888961031967	0.337617139023343	-0.746172850699173	-0.416297312953442	-0.341518511365675	0.354616942978725	0.870409059090608	-0.887902068000777	-0.425422429330874	-0.175059059354725	0.308212627960822	-0.832623912925062	0.460154751785573	-20.828576064445	-60.5062096464159	133.922054182373
22659	1646737224749	8.54022996284446	-1.79658301777113	4.25339576466464	-0.0113242980073928	0.24774565823326	-0.107374035074619	-0.017977033854106	-0.0163794097794356	0.0253280559728003	0.19189453125	-0.433837890625	0.3076171875	0	0	0	-0.394923306321238	0.337850311516759	-0.746120042516188	-0.416170195098077	-0.34167590167266	0.354175923189377	0.870526848321823	-0.887875771452812	-0.425319071440115	-0.175443158705009	0.308113928090321	-0.832864396466958	0.45978549826466	-20.8856592099328	-60.5199204996259	133.970870767422
22660	1646737224749	8.53488923580259	-1.81676998937534	4.28123481337613	0.0148816268657545	0.228586427711169	-0.095615539700951	-0.0195416349919189	-0.013127864864558	0.0263074631510888	0.1845703125	-0.43017578125	0.31396484375	0	0	0	-0.394887162553285	0.338002494692305	-0.746115835621364	-0.416088454859574	-0.341869053166375	0.353954678249953	0.870541002039593	-0.887846062509858	-0.425249422628701	-0.175762048917554	0.307985259018782	-0.832994006160265	0.459636884864787	-20.926517397868	-60.5215684054123	134.004940965386
22661	1646737224750	8.56689294288439	-1.83302966314586	4.23779859241861	0.00277051706976011	0.277865125377828	-0.084718830309292	-0.0224172799442132	-0.00702865759292791	0.025252050691477	0.186767578125	-0.438232421875	0.310546875	0	0	0	-0.394889943794657	0.338254927388959	-0.746064745805501	-0.41597227245709	-0.342058001673474	0.353537556895888	0.870636272708206	-0.887831433955455	-0.42510134528795	-0.176193618258372	0.307817589445033	-0.833246687421236	0.459291072773886	-20.9878535130976	-60.5326628739156	134.054521906587
22662	1646737224750	8.55714895581464	-1.84726275612285	4.28945790959224	0.0318368045255153	0.235226446983595	-0.066904643271199	-0.0244558918757491	-0.00620830286451677	0.0311475847378415	0.186767578125	-0.433837890625	0.30419921875	0	0	0	-0.394809547429681	0.338420581738869	-0.746075886846648	-0.415893859271671	-0.342315438156973	0.353353406345949	0.87060985006093	-0.887800113214798	-0.425007615351282	-0.176577138580307	0.30762168287556	-0.833372604011634	0.459193862227792	-21.0336103471439	-60.5295855204453	134.0909813874
22663	1646737224752	8.61524442194672	-1.8945535735689	4.23374727307135	0.0335318165889577	0.316764373504502	-0.0333765303114788	-0.0259229377116143	8.02192164423421E-05	0.0317359434897142	0.18505859375	-0.43505859375	0.306884765625	0	0	0	-0.394775050651534	0.33871247613375	-0.74603702093779	-0.415758681550595	-0.342594756196778	0.352912266582043	0.870678910461483	-0.887773206270075	-0.424837154453309	-0.177121784162668	0.307388300453061	-0.833646402434474	0.458853035788844	-21.10707866687	-60.5376293611548	134.150107154712
22664	1646737224753	8.75965895365382	-1.9547082987077	4.2481393064257	0.0381040662196128	0.379594880900938	0.109693969562958	-0.0276897428941692	0.00525348747441804	0.0355362821671883	0.192138671875	-0.431640625	0.309814453125	0	0	0	-0.394637660535607	0.338875076775653	-0.746074326455671	-0.415689666254762	-0.342926436511975	0.352805040506072	0.870591788690146	-0.887736510556344	-0.4247315674186	-0.177558394516804	0.307124318422434	-0.833745584115231	0.458849598454556	-21.1546563617112	-60.5274821439437	134.18651907702
22665	1646737224754	8.69427420720649	-1.97022297405101	4.18961286522427	0.0519636198801301	0.406725596024951	0.0289035096848167	-0.016725581943589	0.0207412136939435	0.0375360268309522	0.187255859375	-0.42822265625	0.309814453125	0	0	0	-0.394554063730984	0.339138730720386	-0.746088905695869	-0.415527805226406	-0.343327467754187	0.352424242226558	0.870587964180837	-0.887658499723742	-0.424643128818185	-0.178158920673927	0.306901674406794	-0.833951657255107	0.458624024237466	-21.2293559352982	-60.5270367698629	134.250915117978
22666	1646737224755	8.82006818081946	-2.06604715636925	4.16161707277451	0.0807055398575918	0.515650144746699	0.142652911739354	-0.0117549711644019	0.0280894214456765	0.0354546469334851	0.187744140625	-0.4375	0.305908203125	0	0	0	-0.394364705247676	0.339194274094925	-0.746197977636523	-0.415466366686034	-0.34372835481524	0.352507825343936	0.870395916331928	-0.887572825044514	-0.424669885147846	-0.178521620234122	0.306700665696228	-0.833902705187964	0.458847447352262	-21.2592848379796	-60.5046801681923	134.277544082736
22667	1646737224755	8.87015012728051	-2.07636298280975	4.14963422810466	0.0644803797457458	0.543608696602147	0.182843684238524	-9.51861324307901E-05	0.0360924602847081	0.0276882847435078	0.186767578125	-0.4296875	0.304443359375	0	0	0	-0.394292620537278	0.339393702751722	-0.746235223846585	-0.415304989872455	-0.344110189553773	0.352189559260497	0.870373880463542	-0.887471289067803	-0.424667359839031	-0.17903168593207	0.306566287327226	-0.834038457048141	0.458690487844644	-21.3212206520248	-60.5021159232557	134.335210140787
22668	1646737224755	8.92647746241237	-2.12213083026604	4.09831137569879	0.0661587195544811	0.628561524002072	0.216376730350971	0.009477768586131	0.0433949882583072	0.0260147261324084	0.18310546875	-0.425537109375	0.31396484375	0	0	0	-0.39410622375552	0.339319640119628	-0.746390782359613	-0.41526288810205	-0.344474036324618	0.352440819843546	0.870128212855	-0.88735274789806	-0.424837831188462	-0.179214725926323	0.306500797871701	-0.833845480709162	0.459084932452501	-21.3243705399987	-60.4735420777371	134.345051714664
22669	1646737224756	8.92977146346595	-2.10659282763916	4.07304048927268	0.0396015456826016	0.640595439903699	0.20511068476498	0.0173986430214463	0.0429187034551734	0.023677793611164	0.18408203125	-0.44482421875	0.3115234375	0	0	0	-0.394083906705744	0.339478198548876	-0.746446855947113	-0.415053633199637	-0.344856712086639	0.352065169651451	0.870128705679273	-0.887196748553729	-0.424970068555583	-0.179672953411344	0.306522066880159	-0.833936782466248	0.458904854371097	-21.3816100689012	-60.473599373434	134.407394891059
22670	1646737224756	8.9371414241519	-2.09744595717301	4.02450280654851	0.0105351570896423	0.683268905760808	0.187384125518266	0.0227461967282181	0.0393113139474675	0.0323464817639391	0.183349609375	-0.43017578125	0.313720703125	0	0	0	-0.393929499134583	0.339375491978782	-0.74662998607464	-0.414954803623141	-0.345264121323314	0.352255363353992	0.869890134163612	-0.88701543364901	-0.425273572788481	-0.179849961790878	0.306588171649363	-0.833701713609891	0.459287650311472	-21.3845450392813	-60.4458748922461	134.425743283559
22671	1646737224757	8.9429964679296	-2.11178073996931	3.98215391903704	0.00429362562987234	0.72123875665933	0.176013644663239	0.0294406475011267	0.039963097705303	0.0266659320105757	0.184814453125	-0.438720703125	0.30810546875	0	0	0	-0.393957843211657	0.339588895559238	-0.746665616698949	-0.414689108398635	-0.345660322295129	0.351700779975315	0.869957184553115	-0.8868356154679	-0.425424650776804	-0.180378650757525	0.306661919266964	-0.83385875774989	0.458953199569752	-21.4559127907734	-60.4536644508187	134.503723286116
22672	1646737224758	9.04165008730208	-2.17464596917586	3.97010237670381	0.0190796355499098	0.797063532067929	0.267320428893681	0.0389437708956568	0.0489813822138071	0.0263091393872818	0.180419921875	-0.4375	0.309326171875	0	0	0	-0.393810966101481	0.33939381990528	-0.746882765921759	-0.414597264773157	-0.34604406204167	0.351997087503202	0.869684746051674	-0.886625119926284	-0.425841886105439	-0.180428891128517	0.306837748397104	-0.833520688661911	0.459449515976641	-21.4402673695507	-60.4220256046994	134.511382723108
22673	1646737224759	9.11102399566403	-2.17624116803923	3.98916616314719	-0.00133563867108721	0.801412547592141	0.337089089477876	0.048067509409547	0.064191257452232	0.0142830157903314	0.186767578125	-0.42822265625	0.313232421875	0	0	0	-0.393834765788706	0.339528719765745	-0.74695010478274	-0.414342812988766	-0.346428421161423	0.351550387500905	0.869712408822346	-0.88642324281083	-0.426080563557582	-0.180856816192216	0.306987269469494	-0.833587235030874	0.459228851420778	-21.4958698186877	-60.4252367350251	134.57955487643
22674	1646737224759	9.09747031015401	-2.170373762681	3.91723436351209	-0.026714478668446	0.862585091283825	0.290502116054816	0.0598507842724253	0.0912117171262464	0.0101984215228951	0.1787109375	-0.437744140625	0.3193359375	0	0	0	-0.393600537742632	0.339136492279481	-0.747252387737069	-0.414341556344921	-0.34679938274876	0.352266823176164	0.869274567334426	-0.886204046093577	-0.426615028580078	-0.180670988476272	0.307201199236677	-0.833011226022191	0.460130112586162	-21.4375510908529	-60.3744486754593	134.551895268983
22675	1646737224760	9.13147233581087	-2.18018020426886	3.9894192728002	-0.010803685879154	0.816998149671926	0.355145334143927	0.071670062246031	0.114994766717032	0.00499916013642774	0.183349609375	-0.43115234375	0.311279296875	0	0	0	-0.393569697598038	0.339120263731945	-0.747393103984475	-0.41413027898889	-0.347198010314346	0.35210131004223	0.869182494704251	-0.885971148627624	-0.426987117501919	-0.180934035733608	0.307422616983864	-0.832890550405002	0.46020067971793	-21.462932849492	-60.3637786492402	134.598263907888
22676	1646737224760	9.0559031707347	-2.15195114021531	3.98351739376571	-0.0145120280945749	0.797693904429319	0.280485477555864	0.0886961081322185	0.144196374411564	-0.00509480694770198	0.182861328125	-0.43408203125	0.308837890625	0	0	0	-0.393222787565772	0.3384801510005	-0.747816611065773	-0.414218955302368	-0.347596992814437	0.353323413762643	0.868526853858573	-0.885715847811043	-0.427707688893787	-0.180481494335292	0.307707275706514	-0.832002823401608	0.461614053435365	-21.3544647643579	-60.2878990924357	134.531911969728
22677	1646737224761	9.04142663098702	-2.13452172740514	4.04623414930694	-0.00932308796707265	0.736457325124499	0.293404900934584	0.100695630468367	0.172542500574849	-0.0108893931930211	0.17333984375	-0.426025390625	0.314208984375	0	0	0	-0.393082008167203	0.338255885143263	-0.748081321529813	-0.414057758530612	-0.34808541491169	0.353573145169527	0.868229563503043	-0.885422355595482	-0.428278257533106	-0.180568508705572	0.307999669054213	-0.831603129587266	0.462138982042373	-21.3417500413066	-60.2535506361143	134.551894055071
22678	1646737224761	8.94699255935116	-2.07787900956942	4.13830828636259	-0.00159341637771349	0.623191055379457	0.242333237825468	0.108613858123087	0.203362419692673	-0.0220279899565067	0.181396484375	-0.4228515625	0.31884765625	0	0	0	-0.392582992139465	0.337385238405509	-0.748618737569393	-0.414270178686435	-0.348517626667867	0.355357423567929	0.867327253934154	-0.885164249155615	-0.429102839914334	-0.179874969893618	0.308252681932491	-0.830416675105105	0.464099590377765	-21.1852542156263	-60.149519118105	134.443254650598
22679	1646737224763	8.88373190804509	-2.03356564274577	4.19077230149887	-0.00568948119406831	0.547781088372815	0.203225195348548	0.121701770779243	0.226045896110418	-0.0238709879101172	0.1865234375	-0.43212890625	0.3173828125	0	0	0	-0.392369169559715	0.336899890565865	-0.749004107450308	-0.414171154884422	-0.349017378481448	0.356053531819564	0.866840672786385	-0.884810052963913	-0.429921436396825	-0.179662819471607	0.308703805761987	-0.829694787861961	0.465089797031455	-21.1213998009276	-60.0935552828679	134.428244021197
22680	1646737224763	8.67469730076779	-1.93196899512696	4.22771078127542	-0.014751959326455	0.424869087836525	0.019688968626463	0.132121594752517	0.243385984070793	-0.0314236320441306	0.185546875	-0.4326171875	0.318115234375	0	0	0	-0.391783613777481	0.335838957352572	-0.749638698492974	-0.414438917600115	-0.349491967107805	0.35820650087147	0.865761784592352	-0.884511302306878	-0.430905156605564	-0.178775004131238	0.309022848699746	-0.828256511440841	0.46743558939959	-20.9298092045649	-59.9698052450833	134.294500704762
22681	1646737224764	8.60869700640049	-1.83236759803139	4.29282647418604	-0.0632696128256001	0.315314709471278	-0.0253433716488995	0.132789907108246	0.256882947900558	-0.034732547749617	0.185546875	-0.427978515625	0.317626953125	0	0	0	-0.391472165255881	0.335391546741127	-0.749993639933961	-0.414453368019945	-0.349955899133594	0.359081870105799	0.865211580610732	-0.884267690150871	-0.431481832223038	-0.178589139134198	0.309194956001617	-0.827576968639638	0.468524108408934	-20.8655384208853	-59.9068737774119	134.262591116174
22682	1646737224764	8.4345558251833	-1.68740851292161	4.40219024571337	-0.100199706294309	0.127653946404291	-0.151323258225576	0.128795297514022	0.264140899028582	-0.0391913922586966	0.17919921875	-0.43408203125	0.323974609375	0	0	0	-0.390813797062292	0.334283944601355	-0.750644822456435	-0.414790514509262	-0.35042681019779	0.361435148867604	0.864040325365463	-0.88400625961407	-0.4324061469098	-0.177645312569069	0.309409087871936	-0.826068736412215	0.471037640815024	-20.6632716540017	-59.7733029596634	134.114040205772
22683	1646737224765	8.31594697419647	-1.63377130529218	4.47018250196533	-0.0885439099489838	0.0183343722824991	-0.231535344077159	0.119233536163065	0.264891236836454	-0.0355712107833357	0.19140625	-0.438720703125	0.3271484375	0	0	0	-0.390440309630167	0.333813308301696	-0.751004021587325	-0.414871063556187	-0.350876730479315	0.362471331437846	0.863423449932779	-0.883808017245783	-0.43290135164887	-0.177425500964937	0.309465520955443	-0.825355047010834	0.472250079633154	-20.5913213118258	-59.7031684871124	134.068809122146
22684	1646737224765	8.31833045660912	-1.55953463832664	4.5549288501902	-0.133208828704232	-0.055920067823322	-0.202629363424723	0.106096303817201	0.260011667835746	-0.0284452778779553	0.18212890625	-0.435791015625	0.32958984375	0	0	0	-0.389731196717211	0.332819444558628	-0.751629134369608	-0.41520411365478	-0.351430276619038	0.364738776228902	0.862242649020859	-0.883579257903268	-0.43367352265567	-0.176677589836778	0.309490639080694	-0.823949574223123	0.474681623258114	-20.4153820656819	-59.5693276743828	133.935400654177
22685	1646737224767	8.27476987213879	-1.59272945587692	4.60937464165235	-0.076586039457055	-0.0916634265068335	-0.208489868858781	0.0948571667672284	0.265751033595875	-0.0226117658789084	0.169677734375	-0.42529296875	0.331298828125	0	0	0	-0.389251014359832	0.332570696026012	-0.751869611334003	-0.415418424623984	-0.35182236060554	0.365774017377076	0.861644006994641	-0.883587940474997	-0.433648529255404	-0.176695513587015	0.30902002851773	-0.823503686261611	0.475760759929233	-20.3747815216684	-59.50167606238	133.886183964974
22686	1646737224767	8.27271966973167	-1.56738468359589	4.70658043664425	-0.0745842482511453	-0.157490848421867	-0.168203933756649	0.084612827184005	0.261058839695614	-0.013698642421785	0.181396484375	-0.4287109375	0.325439453125	0	0	0	-0.388468059427564	0.331683042099159	-0.752489300029251	-0.415738835965463	-0.352507574149329	0.367981515922672	0.860423159908314	-0.883374586759836	-0.434295159707859	-0.176173362689182	0.308849072581162	-0.822178398033892	0.478157852776861	-20.2259084901322	-59.364128508906	133.769647883422
22687	1646737224767	8.19507060011148	-1.58897272798989	4.80124218564937	-0.00481595938652131	-0.240351059325702	-0.185741078228748	0.0714531939408338	0.26094820128458	-0.00573263940644847	0.17333984375	-0.4365234375	0.334716796875	0	0	0	-0.387937111864714	0.331258965336444	-0.752883562795373	-0.415858913569061	-0.353132322486451	0.369171388352348	0.859656936712154	-0.883201973520001	-0.434657723778779	-0.176144648314463	0.308628962972856	-0.821453071807179	0.479544590244587	-20.1691175694377	-59.2780855618495	133.72793151977
22688	1646737224768	8.17429831772062	-1.62573567499062	4.85955827032228	0.0447349587308375	-0.255464207934814	-0.16850994698429	0.0615932657242785	0.258869946234163	-0.000263432093392137	0.172607421875	-0.428955078125	0.337890625	0	0	0	-0.387091067729535	0.330487339145817	-0.753486791113132	-0.416168571093929	-0.353928451435292	0.37129764842931	0.858412900378065	-0.883012436353498	-0.435163678195911	-0.175845416272549	0.308259125590268	-0.820225962433445	0.481877247896654	-20.0479082872129	-59.1388477595257	133.628025843707
22689	1646737224768	8.07998223038856	-1.68548206123832	4.90856322098393	0.138741400794775	-0.291038746473675	-0.214929826164246	0.0581593232790506	0.256318520367912	0.00283831769491495	0.18310546875	-0.433837890625	0.3388671875	0	0	0	-0.386468208808815	0.330172438688775	-0.75380556168853	-0.416420051724041	-0.354473328204506	0.372597200020236	0.857624618425043	-0.883001803932594	-0.435161002504908	-0.175905418195999	0.307662922438513	-0.819637864203457	0.483256968620826	-20.0014935431682	-59.0509122903208	133.572069252261
22690	1646737224770	8.0353042115916	-1.72260321486448	4.96048512858444	0.194821513477873	-0.310964165193497	-0.220753980564769	0.0580651024170587	0.243769698529452	0.00149401266906518	0.1767578125	-0.427001953125	0.339599609375	0	0	0	-0.385667676134776	0.329447552401614	-0.75437569760205	-0.416703804480843	-0.355236765831986	0.374587902511288	0.856440741378774	-0.882816990283369	-0.435644499095555	-0.175636078511217	0.307312547528157	-0.818472830153804	0.485449507602776	-19.8901704804353	-58.919268020621	133.481171175143
22691	1646737224771	8.00977535503049	-1.75289418003373	5.0397922445414	0.248440864691532	-0.360610199767318	-0.198279650873033	0.0631617961362523	0.238351711826662	-0.00338870350618166	0.177978515625	-0.429443359375	0.332275390625	0	0	0	-0.38511890838442	0.329188424000308	-0.754622162282087	-0.416969783199806	-0.355639252606198	0.375755905801489	0.855761778336125	-0.882862651816634	-0.435542362804999	-0.175659865164294	0.306715275186947	-0.817991656105086	0.486636815817971	-19.8479130909732	-58.843994933543	133.424505824806
22692	1646737224772	7.98618596766189	-1.75895591595999	5.11202972269902	0.27746758734127	-0.403549611917208	-0.181173718479016	0.0683061352178131	0.229676150692098	-0.00935167287983574	0.176025390625	-0.424560546875	0.34130859375	0	0	0	-0.384410297612164	0.328431885935023	-0.755157623605023	-0.417250743441046	-0.356261080375244	0.377674961693525	0.854657630820469	-0.882685357763952	-0.436068626798116	-0.175244720067478	0.306503836515936	-0.816826649927755	0.488722438781782	-19.726675755329	-58.7219318732324	133.328768480959
22693	1646737224772	7.95103302772583	-1.75358132480573	5.12603704721631	0.284259303706356	-0.416145524248785	-0.204555118206443	0.0774953581515458	0.22445687333863	-0.0231011813169773	0.180419921875	-0.42822265625	0.3486328125	0	0	0	-0.383909253193408	0.327965777132174	-0.755482292260069	-0.417490886635913	-0.356630089776878	0.378995750923159	0.853918731407109	-0.882632137210393	-0.436279617212098	-0.174987445174445	0.30622783908252	-0.816101903188233	0.490104268685138	-19.648661252013	-58.6404854002182	133.258539481329
22694	1646737224773	7.87919271739062	-1.70269261155418	5.19585557966923	0.282456960453892	-0.500529425059106	-0.239422304853196	0.0858044851095283	0.209240370553973	-0.0308733315469865	0.17919921875	-0.4296875	0.34765625	0	0	0	-0.383349136398849	0.32714314902307	-0.755960572871934	-0.417785126509625	-0.356998055379187	0.380838079833592	0.85294474932679	-0.882478254460766	-0.436865896229213	-0.17429950979772	0.306242581721349	-0.814929779588714	0.492041599339053	-19.5060466582731	-58.5334158675853	133.149375342194
22695	1646737224774	7.86385615606008	-1.68827338098564	5.23654136368613	0.285733111351337	-0.53262924868196	-0.234248626093272	0.0904861695051985	0.205561659785216	-0.0453296173072915	0.18310546875	-0.42822265625	0.34033203125	0	0	0	-0.382943341243635	0.326719030796274	-0.756114594894077	-0.418210224290213	-0.356909211392581	0.382199954037496	0.852372576962013	-0.882659463241526	-0.436709766429345	-0.173772413965532	0.305823620365249	-0.814375696493309	0.493218144625408	-19.4085659617728	-58.4706693399967	133.040225000975
22696	1646737224774	7.84895573225584	-1.67283260241311	5.27661736491304	0.288581340658732	-0.556176392484255	-0.228611135315418	0.0924724766250138	0.193852342049709	-0.0511895897658711	0.17333984375	-0.4267578125	0.346435546875	0	0	0	-0.382488564054303	0.325862597844441	-0.756530351159579	-0.418542582622263	-0.357049209799126	0.384002899755865	0.851503161920675	-0.882557768269966	-0.437271347715917	-0.172874388308516	0.305953668793426	-0.813225393999593	0.495032131387499	-19.2501474149435	-58.3755398815488	132.916945139195
22697	1646737224775	7.80744578471789	-1.62613610415431	5.32635610479105	0.276397840272057	-0.617636623956685	-0.246460719717662	0.10036265150403	0.180798158705778	-0.054623779775175	0.171142578125	-0.427978515625	0.345458984375	0	0	0	-0.382120849076072	0.325306620305168	-0.756757947055287	-0.418899354327119	-0.357013975291408	0.385397946884595	0.850887444956008	-0.882623714728909	-0.437397867459904	-0.172216386385471	0.305804512139319	-0.812497094197061	0.496318518974021	-19.1361415724383	-58.3083243659511	132.810528025831
22698	1646737224776	7.77709483861613	-1.59260912349525	5.32941127455264	0.259611493677376	-0.626456060696297	-0.27526869229172	0.0993557300081395	0.170617098845363	-0.0610374033553628	0.17431640625	-0.428955078125	0.348876953125	0	0	0	-0.381784276306829	0.32445261719244	-0.757118294123919	-0.41921731150411	-0.356995224200272	0.38705237620507	0.850144027781296	-0.882536006807759	-0.437974689864484	-0.171196868329778	0.306079412221749	-0.811399179881344	0.497942531123694	-18.9734046929388	-58.2273380930127	132.686690909596
22699	1646737224777	7.71110644413337	-1.56801075244345	5.37801565639552	0.276660092855757	-0.685714958872127	-0.310261500889135	0.102660429992065	0.157583946704312	-0.0649846599729829	0.1748046875	-0.4208984375	0.349609375	0	0	0	-0.381432911784848	0.323830840678481	-0.757327744943962	-0.419639377526577	-0.356823453272878	0.388569605972325	0.849523798671309	-0.882648567915239	-0.43807275890915	-0.170363621289596	0.305955109046405	-0.810620699967771	0.4992850408656	-18.8404187543881	-58.1599128223859	132.561257161024
22700	1646737224778	7.72970567393366	-1.53418076420726	5.39009618825433	0.246833176098445	-0.685074753073224	-0.292975320020263	0.101200937332586	0.140007720938636	-0.0688291517587066	0.17333984375	-0.426513671875	0.352294921875	0	0	0	-0.381228345033929	0.323017857910455	-0.757615177966186	-0.419932916700866	-0.35664258882759	0.390007976065156	0.848940423374877	-0.882582229615587	-0.43863161788409	-0.169265802095888	0.306357098499664	-0.809627125532455	0.500648824827265	-18.6800290290236	-58.0966103430082	132.441340044823
22701	1646737224779	7.72173663964031	-1.46973063806622	5.41130766244836	0.201393860537088	-0.717996007562445	-0.298935483031512	0.0978708252349355	0.127655449423169	-0.0689863590900448	0.1806640625	-0.433349609375	0.34619140625	0	0	0	-0.380975414897831	0.322382678726353	-0.757803264869753	-0.420311019904772	-0.356392759580071	0.391386376721851	0.848410811479582	-0.882665875856437	-0.438816110007663	-0.168348962563871	0.306406841499159	-0.808861623341276	0.501854283401294	-18.5442272976247	-58.0392389084118	132.320699657139
22702	1646737224779	7.8075156556732	-1.4295782266373	5.46100086405725	0.154785615497395	-0.726778224749762	-0.206890142149845	0.0943671914456346	0.110736511769676	-0.0684995178286443	0.175048828125	-0.428466796875	0.357177734375	0	0	0	-0.380866830259426	0.321656150591853	-0.758023708535743	-0.420568467306201	-0.3561252438317	0.392585421542545	0.847969042771063	-0.882618055580016	-0.439318970188287	-0.16728481818998	0.30685530575495	-0.808007134389892	0.502955556789138	-18.3973099213502	-57.9914536324379	132.212053425709
22703	1646737224780	7.77901944683103	-1.41939437103484	5.46464742440482	0.158600386479922	-0.732441541779096	-0.229965674432362	0.0870440110340684	0.0979736056973318	-0.0613042013730455	0.177734375	-0.42724609375	0.36279296875	0	0	0	-0.380578987208912	0.321239030815441	-0.758074743876663	-0.421055580977294	-0.355743664445824	0.393869553414978	0.847533610011628	-0.88289685341383	-0.439035365617259	-0.166556578883208	0.306495663001315	-0.807536205151203	0.503930239151591	-18.2895031883066	-57.9444160147877	132.088402655925
22704	1646737224781	7.76041084761827	-1.36993034123435	5.43076322037789	0.115720956724303	-0.721698131311907	-0.270170815023377	0.0810633291313148	0.0819082550762588	-0.0658902174865693	0.1806640625	-0.422607421875	0.36474609375	0	0	0	-0.38054772043094	0.32062765914713	-0.758223512497258	-0.421281902959251	-0.355409981427696	0.394823438835488	0.84722971928969	-0.882879938017682	-0.439438924857728	-0.165579124184719	0.306931197742197	-0.806850595504524	0.504762673329295	-18.1612293402501	-57.9116247284213	131.992735017383
22705	1646737224782	7.71161306554431	-1.33731556062706	5.41910644280346	0.103741440288911	-0.735273186535788	-0.322023261627011	0.0778021204060015	0.0650105950107503	-0.0544910317717363	0.181640625	-0.42529296875	0.3564453125	0	0	0	-0.380376063831266	0.320270457768527	-0.758203115327777	-0.421745088711445	-0.354890260424016	0.395890448095555	0.846949618432452	-0.883183312445275	-0.439115828057027	-0.164816644086646	0.306659647939481	-0.806503591223557	0.505481767889942	-18.0589999402589	-57.8814269697767	131.874178292611
22706	1646737224783	7.73508482052479	-1.38299687284668	5.42104374229469	0.14131744831189	-0.698682242142844	-0.293034107380391	0.0682409774710531	0.0448235175291638	-0.0557943825749394	0.188232421875	-0.42529296875	0.35546875	0	0	0	-0.380442921132104	0.319803198966406	-0.758281819271936	-0.421897831533854	-0.354530807015007	0.396501184080409	0.846814453053395	-0.883168636889093	-0.439456267355769	-0.163985816146384	0.307117348407329	-0.806017989938542	0.50597819538265	-17.9573334631338	-57.8668638152605	131.801432059006
22707	1646737224784	7.84678090871381	-1.36865525278628	5.47673581716465	0.109265956974741	-0.697464430806384	-0.172074220243536	0.0628563814745582	0.0283341726193944	-0.0524705910092401	0.177978515625	-0.425048828125	0.353271484375	0	0	0	-0.380352612150073	0.319517991756565	-0.758240393958355	-0.422269639382642	-0.35404048417254	0.397304789857183	0.846642923270143	-0.883422801031404	-0.43919320919901	-0.163320175150847	0.3069519346489	-0.805765616634276	0.506480286748935	-17.8724909479768	-57.8483911227051	131.70440756176
22708	1646737224787	7.88286906595146	-1.35216710880815	5.43296795625665	0.0740628849166001	-0.649498031789282	-0.166041107657955	0.0589952189910034	0.0166263167329552	-0.0481082425959501	0.17138671875	-0.419189453125	0.35791015625	0	0	0	-0.380495598730563	0.319158924585698	-0.75826622184684	-0.422365975204075	-0.353660164673161	0.397654572308425	0.846637661012996	-0.883408836710177	-0.439489127694422	-0.16259807459121	0.307430179302106	-0.805431653065982	0.506721360407942	-17.7905325480839	-57.8478245600962	131.648782961554
22709	1646737224789	7.91210317869121	-1.35267510802578	5.41786203212499	0.0623969195913913	-0.616084877348933	-0.148274377977884	0.0520065106618618	0.00818741274442742	-0.0430516680405092	0.171142578125	-0.4228515625	0.353515625	0	0	0	-0.380392370785423	0.318772874963962	-0.758332065055051	-0.42263220126346	-0.353367333406895	0.398473560586509	0.846374827835995	-0.883508639185017	-0.439531753284825	-0.161939255092174	0.307480100439591	-0.805003515127653	0.507370996870911	-17.7016926018074	-57.8195378715619	131.566690569491
22710	1646737224789	7.89432275887057	-1.35406428926446	5.39024411613779	0.0663538311610857	-0.597122880050363	-0.176941783992964	0.0444281606178642	-0.00109924828925961	-0.0332786460710329	0.1787109375	-0.41064453125	0.359130859375	0	0	0	-0.380548392610254	0.318533727526886	-0.758332306879494	-0.422671619170728	-0.353063246458694	0.398616092031441	0.846434613643387	-0.883486084041477	-0.439769933550845	-0.161414822273986	0.307893948146282	-0.804802843383563	0.50743837061916	-17.6457315483253	-57.8259702020222	131.532034874867
22711	1646737224790	7.91346511874228	-1.34753824335062	5.3155224554349	0.0329543954753168	-0.523924657743709	-0.199260073106902	0.0338980250326424	-0.00734251682076516	-0.0243130530543684	0.17724609375	-0.416259765625	0.360107421875	0	0	0	-0.3804666227358	0.318164539246911	-0.758459812236626	-0.422794498748265	-0.352979921624435	0.399243296827446	0.846173720265738	-0.883447247713703	-0.440032275588009	-0.160911643295074	0.308100852704256	-0.804348423495186	0.508032949899629	-17.5747993516717	-57.7979092078564	131.480617000949
22712	1646737224791	7.96167058564168	-1.34447259805969	5.32683238036084	0.0200469487501992	-0.514271278275303	-0.153180603303788	0.0277833292075563	-0.0133643735298681	-0.0132879350052843	0.178955078125	-0.424560546875	0.359375	0	0	0	-0.380602589159633	0.318051244670359	-0.758452671835196	-0.422770173350334	-0.352814099300624	0.399200080685614	0.846263260998189	-0.883404589513545	-0.440217572577929	-0.160638787408278	0.308412941623881	-0.804268477794694	0.507970149777238	-17.5488642702628	-57.8075375091433	131.47033515056
22713	1646737224792	7.9973288946959	-1.35684144722802	5.2866334621494	0.00610455621985351	-0.456136659334422	-0.141147493209436	0.0114578435339612	-0.0104818249566803	-0.00637683720199425	0.18017578125	-0.42431640625	0.355224609375	0	0	0	-0.380422735132263	0.317870860765982	-0.758513451066588	-0.422958630390062	-0.352769079146102	0.399789016248243	0.846003971199706	-0.88349022533401	-0.440128225708914	-0.160412489144657	0.308219075557747	-0.80402480522779	0.508473316940763	-17.5093743440427	-57.7796631648224	131.424798945568
22714	1646737224793	8.06526753134274	-1.32587527283097	5.31909064651718	-0.0339895199037323	-0.469315725766576	-0.0721638543411966	-0.000137421440014723	-0.0141352708872853	-0.00102907114226068	0.181884765625	-0.424560546875	0.3515625	0	0	0	-0.380483646133276	0.317887302275676	-0.758486566450115	-0.42293969616452	-0.352708416866783	0.399686316259923	0.846077786770165	-0.883489995577203	-0.440139352920313	-0.160383221459981	0.308289150614031	-0.804069772224688	0.508359716154042	-17.5100478968579	-57.7875963437088	131.427213481382
22715	1646737224794	8.09913330795906	-1.36375340243697	5.28529071222063	-0.0246060306588339	-0.407050147978129	-0.054419783789065	-0.00697403813800305	-0.0132298366465753	0.00422177443974781	0.17822265625	-0.416748046875	0.358154296875	0	0	0	-0.380254467733644	0.317807861694865	-0.75853231902669	-0.423123414390568	-0.352746231926142	0.40020985092364	0.845814501581514	-0.883601288085034	-0.439929478478811	-0.160345931223184	0.307926711339528	-0.803924206122094	0.508809405627081	-17.4916972304301	-57.7593082749625	131.393054433591
22716	1646737224794	8.10202876580708	-1.41870977757802	5.27489122059046	0.0196173928673932	-0.375191825373094	-0.0485217205660682	-0.0169140165123959	-0.0186298113506348	0.00847690272927191	0.171875	-0.421142578125	0.353515625	0	0	0	-0.380282309523795	0.31791523248188	-0.758490110403234	-0.423093396828325	-0.352754685247036	0.400029236860384	0.845896413098651	-0.883619392224398	-0.439843765032525	-0.160481251387816	0.307865070641751	-0.804060987748388	0.508630540038482	-17.5113374507765	-57.7681066948539	131.406565222336
22717	1646737224795	8.08482714701284	-1.42744444990123	5.24448860808518	0.021662682515231	-0.348752094681317	-0.0769495654493486	-0.0244469538653636	-0.0203702494323393	0.00626706196804931	0.171630859375	-0.419677734375	0.357421875	0	0	0	-0.380054460979256	0.317812613386492	-0.758574709024854	-0.423223534659964	-0.352880892799386	0.40052113636828	0.845610959495777	-0.883665542260329	-0.439753964964749	-0.160473236770317	0.30758784910797	-0.80386520612603	0.50910749892443	-17.4951128486986	-57.7374543335229	131.381804892742
22718	1646737224796	8.11701602436172	-1.41342614024856	5.21833180328603	-0.0107480627759879	-0.324267447710289	-0.0654086109683085	-0.0373798046974867	-0.0290331998832416	0.00908950099841089	0.17919921875	-0.4267578125	0.35546875	0	0	0	-0.38007770357119	0.318019980381827	-0.758481792741211	-0.423213422998459	-0.352862675683957	0.400254743909472	0.845744684929868	-0.88374395924259	-0.43950738134374	-0.160716757827552	0.307383387012685	-0.804132701562578	0.508808462651987	-17.529705219874	-57.7518107001245	131.399247040477
22719	1646737224797	8.08057522737418	-1.45388504749623	5.16486788807135	0.0183472425116286	-0.275393554269486	-0.116855396537248	-0.0428321328090163	-0.0374759833215897	0.0143390574934685	0.17724609375	-0.421630859375	0.360107421875	0	0	0	-0.379841313259248	0.31808363726449	-0.75848735504704	-0.423367817246219	-0.352960536123324	0.400595658820602	0.845542416484014	-0.883880884839891	-0.439164982049529	-0.16089965803596	0.306876915642392	-0.804150008813981	0.509086752892164	-17.5394262940392	-57.7300979673458	131.382930962675
22720	1646737224797	8.06995550628415	-1.4716757521613	5.10949060894438	0.0197049412167511	-0.232907512529078	-0.151307134917207	-0.0541084354377154	-0.0478823325268924	0.0160666672582372	0.177734375	-0.427978515625	0.354248046875	0	0	0	-0.379889555393648	0.318407019068022	-0.758347017439628	-0.423332844286212	-0.352946457302725	0.400147397881432	0.845760520623998	-0.883985401513302	-0.438812546313524	-0.161286574485319	0.306591924532958	-0.804565478482989	0.508601791822067	-17.594737075941	-57.7535111509223	131.413618633639
22721	1646737224798	8.05417354451273	-1.48319921561686	5.07588888655417	0.0217987100653476	-0.207268283230409	-0.179889278645003	-0.065680908477166	-0.0563172694292088	0.0205755130396373	0.181396484375	-0.4228515625	0.359375	0	0	0	-0.379677562025475	0.31862147639959	-0.758280753215053	-0.423480345441143	-0.353018691838884	0.400287139889053	0.845664241204395	-0.884180841362468	-0.438289503603992	-0.161637095983948	0.305944509641734	-0.804781036475144	0.508650607342674	-17.6290220423328	-57.7431738168962	131.409510740308
22722	1646737224799	8.15933852020388	-1.54969361825584	5.06136491757182	0.0371748359170058	-0.132395519532222	-0.0877270632916964	-0.0756641242930662	-0.0632316301996813	0.0250526761991467	0.176025390625	-0.419921875	0.3583984375	0	0	0	-0.379724090124957	0.319075538139074	-0.758095987440362	-0.423427550080124	-0.353037450423835	0.399676116572908	0.845945364925796	-0.884318790176872	-0.437799821588808	-0.162208487931183	0.305523871306894	-0.805351052683243	0.508000832680067	-17.7086738567133	-57.7733658152861	131.454445534048
22723	1646737224800	8.12947472139143	-1.59999348714269	4.98209679046107	0.0642856877495669	-0.0602771973815949	-0.145120255285876	-0.0775386756450716	-0.0627765961458417	0.0278687538868474	0.18017578125	-0.42578125	0.35205078125	0	0	0	-0.379537251680855	0.319321293855094	-0.75803778658332	-0.423513990310961	-0.353174749194861	0.399690563058908	0.845881227083803	-0.884467868150655	-0.437339622603191	-0.162636541743646	0.304933085676483	-0.805593885467703	0.507970771754504	-17.7534596274578	-57.7664753468712	131.464472198495
22724	1646737224801	8.10313001133351	-1.67617554884756	4.99050804442561	0.141139233689401	-0.0527582039795732	-0.150765156616925	-0.0773660722524532	-0.0582088126527363	0.0272222359399974	0.172607421875	-0.421630859375	0.352294921875	0	0	0	-0.379557935500279	0.319774235129191	-0.757864437092711	-0.423463938413245	-0.35322813292462	0.399110821605599	0.846132636285761	-0.884602215652865	-0.43684546282217	-0.163232844959976	0.304481208242201	-0.806149237851769	0.507360424292614	-17.8345179201801	-57.7934923135019	131.510040615791
22725	1646737224804	8.12374504265819	-1.67974796173623	4.90950961131271	0.108183299000588	0.0203593700718993	-0.173810518818168	-0.0758276393618162	-0.058205759420154	0.027406176117278	0.174560546875	-0.424560546875	0.35107421875	0	0	0	-0.37936361298929	0.320025102278765	-0.757818527337613	-0.423530710427272	-0.353409972929365	0.399107080421017	0.846058466887411	-0.884730596611975	-0.436411342472873	-0.163697622400704	0.303896631196669	-0.806386184479146	0.507334366102356	-17.8829288023975	-57.7855198100266	131.524942359439
22726	1646737224804	8.14972970817151	-1.68593344939392	4.9094264197262	0.101839100115105	0.0254287727198448	-0.150808165174416	-0.077534231957951	-0.0531916904415933	0.029580284074452	0.17529296875	-0.420166015625	0.356201171875	0	0	0	-0.379361080425377	0.320472106453787	-0.757659327025057	-0.423479803314751	-0.353500053685981	0.398557556475305	0.846279851007007	-0.884856134677326	-0.435924970339145	-0.164313849564538	0.303425992571352	-0.806920872459778	0.506765599287126	-17.9647855969713	-57.8093217124679	131.571376355222
22727	1646737224805	8.19367245116763	-1.68555276449338	4.9382526265285	0.0897984866231913	0.0179692267259169	-0.0990215882909808	-0.0719317295137239	-0.0477544238406187	0.0356673334293135	0.175537109375	-0.426025390625	0.3505859375	0	0	0	-0.379131626956921	0.320700611335785	-0.757665791302335	-0.423500739102139	-0.35381266684188	0.398568556134261	0.846144020154541	-0.884919534301523	-0.435596483737592	-0.164842716451235	0.30287623642969	-0.807092813384246	0.506820654659704	-18.0170444569294	-57.7947161268074	131.595734667907
22728	1646737224806	8.11658577016885	-1.71263145578697	4.84220863236933	0.108190200839993	0.06924926772627	-0.208388905738101	-0.0785201827584349	-0.0407679701395162	0.0400875637131753	0.1767578125	-0.422607421875	0.350830078125	0	0	0	-0.379063019509154	0.321144255933383	-0.757550932892344	-0.423431432696649	-0.354034098090132	0.39807393100632	0.846284232892639	-0.885009576414834	-0.435144377370914	-0.165551866484546	0.302353943323952	-0.807580656216861	0.506355188243194	-18.1050582797038	-57.8097929852352	131.648860944817
22729	1646737224807	8.18007903315428	-1.76041218814686	4.89080881904178	0.136407824886527	0.074107075628373	-0.122039866112246	-0.0780740046166915	-0.0409663579950099	0.0494848856169712	0.177490234375	-0.427978515625	0.344482421875	0	0	0	-0.378791650349691	0.321437094549971	-0.757573802979407	-0.42341116295151	-0.354479745426816	0.398015034825831	0.846125370222837	-0.885045784938603	-0.434802362670647	-0.166255417891977	0.301725154146207	-0.807793870655513	0.506390159745262	-18.1757771425444	-57.7927112031727	131.688866224139
22730	1646737224807	8.13164585057445	-1.71445644125573	4.8843676253996	0.105689692813732	0.0327437138592953	-0.173816968318228	-0.0829526484643443	-0.0342037135278571	0.0525941534937571	0.17626953125	-0.42724609375	0.341552734375	0	0	0	-0.378668623987116	0.321906874208718	-0.757490619888388	-0.423313120899863	-0.354832149763444	0.397519370497434	0.846210668553391	-0.885103502931869	-0.434363932022381	-0.167092081367704	0.301141054311743	-0.808273669395076	0.505972075089754	-18.2752756632924	-57.8018819401985	131.752610929993
22731	1646737224808	8.14316681448813	-1.81338414330678	4.83209616071192	0.166269629066476	0.120121855583494	-0.17388036590796	-0.0819204837649733	-0.0259502193799085	0.045321697070332	0.18115234375	-0.438232421875	0.35400390625	0	0	0	-0.378360235339795	0.322221437723882	-0.757502367028996	-0.42332852647824	-0.355272981966756	0.397513163658858	0.846028600581787	-0.885176279693798	-0.433932607481833	-0.167825641757944	0.300406494856383	-0.808508365375365	0.50603375476954	-18.34805571611	-57.7823099639903	131.788398766095
22732	1646737224809	8.17850021857169	-1.75383470877678	4.89495729379863	0.114666642579932	0.0513170150105856	-0.122041288714408	-0.0815705794496808	-0.0263819547699825	0.0423212792230575	0.175048828125	-0.43310546875	0.354736328125	0	0	0	-0.378226840271982	0.322650269316989	-0.757413984839955	-0.423279241844444	-0.355558281442931	0.397125250777533	0.846090919282456	-0.885265218284209	-0.433462974266534	-0.168568511995043	0.299806273772852	-0.808950792777219	0.505682522015094	-18.4357310908239	-57.7890079165428	131.839049774143
22733	1646737224810	8.22992038869613	-1.86888513511139	4.88405901942484	0.187455386220547	0.128892062073932	-0.064528744598956	-0.0748730838732818	-0.0159757612871283	0.040068233982144	0.173828125	-0.414306640625	0.341796875	0	0	0	-0.377860315501807	0.322953931137712	-0.75742860562918	-0.423348848712512	-0.355994668525331	0.397250107725583	0.845848773654932	-0.885376004974562	-0.432953021312977	-0.169295632404526	0.298960073917611	-0.809162550571872	0.505844680663145	-18.504315833592	-57.7629893048204	131.865025454842
22734	1646737224811	8.29957443278563	-1.82223414059311	4.90787511206331	0.123918031751302	0.112177942782673	-0.00132822981022684	-0.0748587316856266	-0.0179228821430046	0.0263805289699783	0.18359375	-0.416259765625	0.349609375	0	0	0	-0.377734564173855	0.323309097846065	-0.757333245484479	-0.423360581020833	-0.356164834932181	0.397000043332754	0.845894541861764	-0.885500128006055	-0.432474091375332	-0.169869607612249	0.298389231808039	-0.809541305853427	0.505575652556703	-18.571960364028	-57.7679056744425	131.896567254114
22735	1646737224812	8.31488866565175	-1.86828600161053	4.94646417474814	0.166437933533827	0.10649336297293	0.0390296392462073	-0.0746836185771501	-0.0229156780863503	0.0240077989153765	0.172607421875	-0.42919921875	0.348388671875	0	0	0	-0.377547434649318	0.323468487014346	-0.757348985167689	-0.423377594073943	-0.356418694851758	0.397039787504953	0.845768952550395	-0.885538577353602	-0.432239101489619	-0.17026681168685	0.297971713386906	-0.80964730980932	0.505652144996739	-18.6097771258624	-57.7544166112514	131.914008941562
22736	1646737224813	8.28848315008789	-1.84290889486124	4.95360182858941	0.152554952026411	0.074102346029611	0.016080115493347	-0.070367026013467	-0.0277013251283045	0.0127772193766043	0.1708984375	-0.429931640625	0.34521484375	0	0	0	-0.377490898357116	0.323800748506457	-0.757213387484256	-0.423416559358292	-0.356438077837447	0.396769703572423	0.845887521479421	-0.885697045342059	-0.431742985055688	-0.170700728550142	0.297477126078447	-0.810044318035905	0.505307393848391	-18.6657714830702	-57.7671515093767	131.934939832819
22737	1646737224814	8.26785808840463	-1.82375316197786	4.93749655131464	0.133426774214037	0.0687492837084904	-0.0126928399268387	-0.0748424827565642	-0.0341900920190502	0.0100702939125387	0.183837890625	-0.4375	0.34326171875	0	0	0	-0.37727198478654	0.324087024283245	-0.757151112204159	-0.423504006444403	-0.356620412041528	0.396775149214788	0.845808112210396	-0.885850968794402	-0.43122391443354	-0.171213307621329	0.296799499328	-0.810318095926654	0.505266900372913	-18.7193180746618	-57.758622058975	131.9491164391
22738	1646737224815	8.24756440525834	-1.88135461005197	4.91767370094085	0.184260206148552	0.0957424075526047	-0.0299368971067491	-0.0783522880478428	-0.0387123661445911	-0.000560616064326508	0.172119140625	-0.431396484375	0.335693359375	0	0	0	-0.377261305317788	0.324447591190517	-0.756953714917844	-0.423590299172047	-0.356490331914508	0.396473457603391	0.846004397546193	-0.886079544642378	-0.430610038036013	-0.171575160524418	0.296272988674027	-0.810792077266814	0.504815336161179	-18.7717197828508	-57.7797089805428	131.960391952707
22739	1646737224816	8.31734383563531	-1.85541200001924	4.94609771268086	0.142015773231316	0.0853232048305478	0.039073543012428	-0.0747210490678126	-0.0426259773010848	-0.00579283283043482	0.17236328125	-0.435302734375	0.344482421875	0	0	0	-0.377139879611854	0.324773128177521	-0.756798654252637	-0.423726000313341	-0.35644357572963	0.396380736693907	0.846067543934331	-0.886320330542049	-0.429957383744492	-0.171967787191162	0.29560826948668	-0.811183678177506	0.504575852840287	-18.819958294419	-57.786495411509	131.963318299397
22740	1646737224817	8.31067911581713	-1.89853828839402	4.97705067430483	0.191627812988025	0.0701613056195534	0.056518358130031	-0.0739805102927519	-0.0419580128341359	-0.0120050767117124	0.177001953125	-0.43115234375	0.351318359375	0	0	0	-0.377169036153778	0.325103196665433	-0.756577355193616	-0.423842111278458	-0.356202765747699	0.396100968467841	0.846299954184407	-0.886576405815094	-0.429331552449873	-0.17221119221169	0.295130253152196	-0.811651674580802	0.504102859369495	-18.8611497995837	-57.8114838643177	131.964179663775
22741	1646737224819	8.2965452111663	-1.88399037017677	4.93695706673202	0.169787206473636	0.0877263462741199	0.021899574530881	-0.0706343641836164	-0.0486959597437361	-0.0153276199027784	0.1748046875	-0.428955078125	0.33984375	0	0	0	-0.377067535286114	0.325380672260916	-0.75643148956849	-0.423979826809584	-0.356122360583541	0.396042407642803	0.846361196913527	-0.886804360119453	-0.428737049155099	-0.172518316577996	0.29454183262405	-0.811994429802489	0.503894983904579	-18.8996440553768	-57.8180714868584	131.961960520752
22742	1646737224820	8.31592919002179	-1.90305555187685	4.96654507138239	0.189450341069089	0.073448751989333	0.0565364789544649	-0.071595809290456	-0.0478017506783249	-0.0202158922283319	0.18115234375	-0.427001953125	0.341552734375	0	0	0	-0.377136794448367	0.325698458149625	-0.75618570447418	-0.424112641854796	-0.355792610584309	0.395750088788099	0.846636572253888	-0.8870815786414	-0.428097962755804	-0.172680071575763	0.294105238118403	-0.812474000512349	0.503376705264333	-18.9341946370704	-57.8477073396094	131.956604960771
22743	1646737224821	8.27823891748344	-1.88768334163223	4.9206731391008	0.175172853119951	0.0854591762318607	-0.00108097200630119	-0.0645579739851193	-0.0502431552685285	-0.0144108797827229	0.18017578125	-0.43359375	0.334716796875	0	0	0	-0.377109983396936	0.325950704207088	-0.756029459462986	-0.424221233878469	-0.355648810297983	0.395608970980211	0.846762933655937	-0.88728602958723	-0.427584966307064	-0.172900544497455	0.293662093966788	-0.812812794355604	0.503088397698531	-18.9667316360774	-57.8613145000103	131.955248903741
22744	1646737224822	8.28110330755318	-1.88953741897937	4.91513873559527	0.175386265418138	0.0856569967696573	-0.00108650952721234	-0.0599627954911365	-0.055039710975005	-0.0147663265998337	0.177001953125	-0.434326171875	0.341796875	0	0	0	-0.377222436667276	0.326250127527336	-0.75580015165856	-0.424299679844444	-0.355346029917411	0.395233788612476	0.847065199002393	-0.887509260887961	-0.427061271944599	-0.173049073511438	0.293353900366162	-0.813270509943703	0.5025281751264	-19.001503083948	-57.8938846721945	131.958015146675
22745	1646737224823	8.23826210824443	-1.86732493765548	4.89194275825693	0.163285441725682	0.0732814128135911	-0.0528239884034285	-0.0572335022604138	-0.0546290813798359	-0.0114077858480218	0.17724609375	-0.433837890625	0.341552734375	0	0	0	-0.377209456714652	0.326544314940499	-0.755636936008536	-0.424375608494066	-0.355236737360656	0.394996561774501	0.847221680916913	-0.887698976302356	-0.426548306590663	-0.173340905779296	0.292911911504304	-0.813654876671283	0.502163672290155	-19.0440629517874	-57.910757755281	131.966355716055
22746	1646737224824	8.24479427627032	-1.899207442572	4.8697101182942	0.184175610007836	0.101115911399741	-0.0528948885190736	-0.0498011194065434	-0.0607517020518481	-0.00970979630228944	0.18408203125	-0.42333984375	0.33642578125	0	0	0	-0.377356580195588	0.326827548603341	-0.755423676099158	-0.424406449580889	-0.35496235387447	0.394552308495847	0.847543629079055	-0.887874412714503	-0.42612583805615	-0.173481403579233	0.292712750967176	-0.814091669286416	0.501571529714043	-19.079259376898	-57.945497631142	131.97640170559
22747	1646737224825	8.22249482010905	-1.84699826353521	4.86813208113715	0.145524075570288	0.0662960865839908	-0.0816053704493829	-0.0442323227842022	-0.0664444866358329	-0.005186813466758	0.172607421875	-0.429931640625	0.33154296875	0	0	0	-0.377438704291486	0.327072901559583	-0.755275743115828	-0.424407697183962	-0.354836262147542	0.394189733402376	0.847765109653213	-0.887989622096399	-0.425802847272804	-0.173684674924033	0.292516081804496	-0.814436240189824	0.501126683136319	-19.115720904375	-57.9694160756262	131.992472159704
22748	1646737224826	8.25823259137682	-1.80888631452532	4.83173031495678	0.0897644597199144	0.086801810207648	-0.0761327113034369	-0.0420004958830801	-0.065405197074143	0.00267674398321344	0.179931640625	-0.432373046875	0.332763671875	0	0	0	-0.377599916923376	0.327359898456704	-0.755092261517351	-0.424369504345551	-0.354657653041943	0.393654116587966	0.848088666138234	-0.888098398433151	-0.425492041327857	-0.173890072940137	0.29240243473551	-0.814857631282914	0.500507599243752	-19.158629729583	-58.0043867647526	132.016867102429
22749	1646737224827	8.25437314447239	-1.82810225851648	4.85484636638281	0.113771447215188	0.0684227163182767	-0.0644292100525181	-0.0393233222276626	-0.0665194742368891	0.00623509100476423	0.178466796875	-0.436279296875	0.328125	0	0	0	-0.377647681585934	0.327673746575043	-0.754962461519123	-0.424315715116977	-0.354676804995076	0.393194412070635	0.848293886760309	-0.888175334913202	-0.425172179420487	-0.174279064430168	0.292145406348116	-0.815246448727783	0.500024288796487	-19.2155507079327	-58.0265851729622	132.051700794718
22750	1646737224827	8.2150792726714	-1.83652153046493	4.81483975187284	0.124492844894056	0.0821576638717657	-0.116256674083075	-0.0362035834493216	-0.0650120528583661	0.00638173090013138	0.17236328125	-0.4345703125	0.334228515625	0	0	0	-0.377813225061023	0.327945756926297	-0.754796649380762	-0.424253185688218	-0.354532802804775	0.392645277954357	0.848608376953431	-0.888254254231968	-0.424921629894872	-0.174487788358657	0.292080248517768	-0.815641645667772	0.499417494966054	-19.2585267602078	-58.0606298689172	132.079955781832
22751	1646737224829	8.26219200884108	-1.80955263496515	4.83624404524503	0.0880191053628222	0.0651002721993548	-0.0702254577446446	-0.0356050322947519	-0.0670117294356542	0.0144746013152308	0.173828125	-0.429931640625	0.32958984375	0	0	0	-0.377837953271998	0.328299431867924	-0.754685446124993	-0.424155444983966	-0.354661279115364	0.392119911653466	0.848797591879909	-0.888295853242811	-0.424623283051304	-0.175001555999823	0.291797625432219	-0.816049656807483	0.498915928204852	-19.3290142910204	-58.0811287093155	132.12844364794
22752	1646737224829	8.28540089591725	-1.78271940003054	4.85226335211573	0.0609268247728726	0.0426044909414251	-0.0471927685717226	-0.0371307382770776	-0.062226947719766	0.0151981913065285	0.173828125	-0.435302734375	0.336181640625	0	0	0	-0.377975839651739	0.328586743620154	-0.754541697140386	-0.424065848463623	-0.354604841612781	0.391555029361523	0.84908189551213	-0.888346430634556	-0.424397816167862	-0.175291508096637	0.291712230603413	-0.816438088659298	0.498330033113332	-19.3797236722192	-58.1119512616628	132.165001937505
22753	1646737224830	8.3135083176308	-1.76256842906881	4.84581689094474	0.0284171886832775	0.0445035919162627	-0.0300385547266746	-0.0399125520927345	-0.0546005544900094	0.013843485425023	0.17431640625	-0.433837890625	0.336669921875	0	0	0	-0.377946468407193	0.328904163928702	-0.754460041120905	-0.42399123141963	-0.354775805395593	0.391152549380968	0.849195979158332	-0.888385218186061	-0.424106973259255	-0.175798120983638	0.291386053225636	-0.816782075186302	0.497957035937784	-19.4450050928014	-58.1243270444943	132.20806431038
22754	1646737224831	8.29025431969848	-1.78885635479693	4.84170334018137	0.0585483745724204	0.0437639562666821	-0.0471833463913391	-0.044116557842097	-0.0486949431524843	0.0110172087641878	0.177490234375	-0.42919921875	0.333740234375	0	0	0	-0.378024672646224	0.329181840349309	-0.754321449565033	-0.423952607706409	-0.354723066579302	0.39071537630569	0.849419237335062	-0.888470806062207	-0.423807004806355	-0.176088754474096	0.291189238832324	-0.817146937457009	0.497473325709914	-19.4922433215817	-58.1485585162753	132.235711188688
22755	1646737224832	8.25664149524207	-1.7808810210766	4.77413197491688	0.0410290892588426	0.0779823573155596	-0.110716683453678	-0.0438385705355921	-0.0410871887427814	0.0100110255883881	0.1806640625	-0.4365234375	0.3330078125	0	0	0	-0.377963140420464	0.329451066052398	-0.754252708595573	-0.423920642498901	-0.354870306693639	0.390445866588675	0.849481660008608	-0.888527304748812	-0.423506567880514	-0.17652596318355	0.290837229637086	-0.817431472495331	0.497211719120878	-19.5464795334465	-58.1553365529954	132.267222146414
22756	1646737224833	8.29409120646422	-1.79468076270524	4.83296868489087	0.0566602966777253	0.0451500267329691	-0.0471785190994645	-0.0507808094911934	-0.0403493298381986	0.0029392818426475	0.18017578125	-0.429443359375	0.3349609375	0	0	0	-0.378008659098745	0.329721131607285	-0.754101764284025	-0.42393862541847	-0.354770991049335	0.390110845081644	0.849677040092033	-0.888660616423206	-0.42312003449982	-0.176781631464356	0.290550946871975	-0.817791516802759	0.496786858035962	-19.5881043392234	-58.1765598440737	132.283720431475
22757	1646737224834	8.29429890215845	-1.82068184335209	4.83503450197973	0.0786096514828029	0.0500132546610944	-0.0413439424817383	-0.0531330893841909	-0.0396379316922969	-0.00361665157052747	0.17333984375	-0.43359375	0.327880859375	0	0	0	-0.377977760241399	0.330003679197311	-0.753967235106702	-0.423985604548891	-0.354738039796414	0.389874404904701	0.849799312497724	-0.888810611042384	-0.422667557703099	-0.177109664794901	0.290132074786402	-0.818138181522843	0.496460768958268	-19.6335808810076	-58.1898482118751	132.298362085228
22758	1646737224834	8.27942278999007	-1.80534432837733	4.79604217820282	0.0593714429715418	0.0645943021871322	-0.0760333770885584	-0.056746826977735	-0.0408508539215522	-0.0131493540725272	0.184814453125	-0.433837890625	0.332763671875	0	0	0	-0.378039017512862	0.33026723580403	-0.753770969087869	-0.424074734395494	-0.354494241770601	0.389602644341857	0.850025653773649	-0.889018249702034	-0.422168345203512	-0.177258116894149	0.289793692561136	-0.818525300665753	0.49602010838455	-19.664895271256	-58.2144597379622	132.298641332353
22759	1646737224836	8.32750928345159	-1.83126502833251	4.80864462741898	0.0678288890118653	0.0790109820727603	-0.0242676872938272	-0.0614960667155256	-0.0406120510859988	-0.0121575950161979	0.17236328125	-0.4287109375	0.3291015625	0	0	0	-0.378001436652494	0.330597186457757	-0.753592664061849	-0.424168021975997	-0.35439280604324	0.389367396512865	0.850175728633553	-0.889232242250083	-0.42157397887837	-0.177598985570158	0.289260710031086	-0.818943472326053	0.495640828389731	-19.7137162510113	-58.2307877418134	132.307705723083
22760	1646737224837	8.29230730728426	-1.86653410370568	4.857343778173	0.126632599619269	0.0352693481978851	-0.0237744124673256	-0.0560384463412165	-0.0401492356175975	-0.0193627437662947	0.179931640625	-0.43408203125	0.326416015625	0	0	0	-0.378071548339055	0.330845516760027	-0.753385226923767	-0.424280388692813	-0.354096112214371	0.389126600264282	0.850409567374115	-0.889459707394274	-0.421054791620933	-0.177691562475952	0.288924509581241	-0.819324936407903	0.495206296752601	-19.7391696926019	-58.2562441631966	132.301461891334
22761	1646737224838	8.28790414754858	-1.86292789876604	4.77230014854702	0.0999977834317397	0.0971006018880272	-0.0702403471063118	-0.0610249460685329	-0.0415498792094915	-0.0305677760601462	0.179443359375	-0.42578125	0.332275390625	0	0	0	-0.378058823053435	0.331146097535554	-0.753171629026966	-0.424436432964103	-0.35385048136832	0.388961551481877	0.850587296110293	-0.889732367053995	-0.420391952919364	-0.177895814838737	0.288385422398399	-0.819743568068365	0.49482757679685	-19.7740547690702	-58.2756045071404	132.293770391976
22762	1646737224839	8.32125471005083	-1.86783591053219	4.85353799248441	0.118243830406801	0.040713654327719	-0.000792527370828466	-0.0605907392854192	-0.0436840610890351	-0.0348796368758208	0.1806640625	-0.431884765625	0.338623046875	0	0	0	-0.378157759320094	0.331390392830298	-0.752916716766349	-0.424609861189738	-0.353406349692875	0.388756028361363	0.85086585453258	-0.890027422013008	-0.419773746640424	-0.177879705689943	0.288019339735437	-0.820157760460852	0.494354233211574	-19.7898654345195	-58.3059697383631	132.27302557383
22763	1646737224840	8.35632370517356	-1.9043167852989	4.81444373577956	0.128683711998184	0.0982490133975348	0.0162099276932128	-0.0554592672306097	-0.0428020695192648	-0.0390801361163513	0.177978515625	-0.43310546875	0.32861328125	0	0	0	-0.378210076623928	0.331574167270224	-0.752714285367788	-0.424778664886127	-0.353040447595364	0.388664555938914	0.851059519257303	-0.890283320778061	-0.419243314913235	-0.177850081936868	0.287676990922203	-0.820472367516036	0.49403141907836	-19.7987501800973	-58.3270962035782	132.250195588166
22764	1646737224841	8.31154860453793	-1.90296915134018	4.79911107397782	0.142082295108975	0.0883690044827088	-0.0297123648456719	-0.0521264310451475	-0.0447471128452389	-0.0415513617381466	0.180908203125	-0.4267578125	0.3369140625	0	0	0	-0.378342123364086	0.331775761959142	-0.752457099039749	-0.424959286955197	-0.352533684237769	0.388477772023898	0.851354815644507	-0.890576757065335	-0.418668896413922	-0.177734056811122	0.28739005071981	-0.820854052690792	0.49356416292957	-19.8041130069255	-58.3593337736922	132.222942291502
22765	1646737224842	8.31291905360303	-1.92537708593098	4.80053003529089	0.164124238148717	0.0934080877085489	-0.0238608776926554	-0.0516932989959346	-0.0468769870424461	-0.0458652333750181	0.186279296875	-0.437744140625	0.326904296875	0	0	0	-0.378419064274562	0.331970339191505	-0.752232033662457	-0.42513724045617	-0.352114677141756	0.388355891700463	0.851583792426146	-0.890851512195496	-0.41810804134878	-0.177677373287896	0.287051976757445	-0.821197520174669	0.493189411381285	-19.8121613274777	-58.3843514946362	132.197980488698
22766	1646737224842	8.29218236945615	-1.9236778565875	4.79044180971363	0.170903343267312	0.0885334839102882	-0.046822896245164	-0.0470461796435487	-0.045377816640712	-0.0455564139146039	0.18310546875	-0.427978515625	0.326171875	0	0	0	-0.378570805410098	0.332146410173511	-0.751973417364259	-0.425322098035732	-0.351570516427266	0.388179955054014	0.851888780577212	-0.89114369110785	-0.417559750262666	-0.177501483822693	0.286811948457073	-0.821559600671092	0.492725814999999	-19.8112480359256	-58.4177017104765	132.166806244455
22767	1646737224844	8.26666155127478	-1.91539870435741	4.80301233284246	0.179360830322033	0.059562714249559	-0.0638591832454978	-0.0383288798589745	-0.0591169273945978	-0.0427783712208304	0.185302734375	-0.43212890625	0.331298828125	0	0	0	-0.378745847396535	0.3323855090996	-0.751697993452317	-0.425466312485772	-0.351060000039281	0.38786508414171	0.852242660793371	-0.891423609366736	-0.416996580560719	-0.177419842363387	0.28656731327212	-0.821994238607797	0.492142912840962	-19.8244726715487	-58.456437854189	132.148513820428
22768	1646737224844	8.27523611960357	-1.92014534290594	4.77453962712979	0.176857783731592	0.0832211575386207	-0.0697662565047281	-0.0354806970033948	-0.0556812092099231	-0.0398269195677916	0.18115234375	-0.4326171875	0.32373046875	0	0	0	-0.37895154347658	0.332551476118584	-0.751450385668248	-0.425590837903156	-0.350536332779215	0.387579008237293	0.852588289724587	-0.891662588879503	-0.416563908848482	-0.177235260141926	0.286464844255629	-0.822348479793494	0.491610486856137	-19.8252317810144	-58.4943120291397	132.126993937915
22769	1646737224845	8.27381487354651	-1.91201603888105	4.79203038945535	0.178295722683754	0.0595623704576719	-0.063839643291983	-0.022171765395449	-0.0646745643978892	-0.0356416020845004	0.18212890625	-0.4306640625	0.327392578125	0	0	0	-0.379152946136562	0.33274642310908	-0.751225442724595	-0.425656194066661	-0.350119695777302	0.387203952395966	0.852929831743358	-0.891851098948808	-0.416193244721597	-0.177157557986987	0.286387527543735	-0.822712758073589	0.491045722688158	-19.8382318157972	-58.531778525346	132.120691221779
22770	1646737224846	8.23992930100676	-1.92219240514548	4.72976742074405	0.186390599804689	0.0967345917638094	-0.121564873768571	-0.0143583538489623	-0.0649117267375748	-0.0363123255483417	0.1806640625	-0.435791015625	0.3271484375	0	0	0	-0.379432385812847	0.332859753160781	-0.751002385322108	-0.425712187472498	-0.349600396067504	0.386826195939335	0.853314160907076	-0.892017277070817	-0.415947036326249	-0.176898955278359	0.286504346348549	-0.823014919127541	0.490470898644229	-19.8329373372706	-58.5739866130045	132.106205342013
22771	1646737224847	8.24378442747279	-1.91987090602572	4.72398907854246	0.184506845205297	0.096646207168409	-0.121527944595064	-0.00569164761298792	-0.0706340206482637	-0.0315228950417219	0.180419921875	-0.42724609375	0.326416015625	0	0	0	-0.379657904026574	0.333026269364618	-0.750816589091444	-0.425708620265462	-0.349264093083651	0.386386077603558	0.853651212332409	-0.892130299254598	-0.415731349089522	-0.176836010292322	0.286562597758946	-0.823330580276442	0.489906759646467	-19.8474788331951	-58.6110444553015	132.111221384756
22772	1646737224848	8.24923968912003	-1.89423947297052	4.71186485519681	0.161312930904917	0.0926448727963444	-0.127380982596167	0.000915340203031789	-0.0724973144890694	-0.0212761050372837	0.1845703125	-0.43212890625	0.325927734375	0	0	0	-0.379972941973322	0.333127408348719	-0.750636243139928	-0.425666446481019	-0.348857279416719	0.385882521630049	0.854045243589823	-0.892200127238894	-0.415668412294174	-0.176631548642202	0.286840603040899	-0.823598476517092	0.489293386350008	-19.8492338789115	-58.6544169367846	132.115173063602
22773	1646737224849	8.30237302543746	-1.86916328947528	4.71008533993641	0.123344379740876	0.0985368413091816	-0.0873007309653424	0.00561795679553374	-0.0742382902678317	-0.0220891462239399	0.183837890625	-0.428466796875	0.3330078125	0	0	0	-0.380242545471927	0.333259468667893	-0.75047659164568	-0.425603828164299	-0.348553976129847	0.385372563366391	0.85439927032301	-0.892250278041997	-0.415599015990176	-0.176541494391482	0.287053247774789	-0.82387222632664	0.488707466312447	-19.8618309178957	-58.6934319951023	132.128074107059
22774	1646737224849	8.32525088673289	-1.86092004276106	4.73213981477145	0.119517149136913	0.0801030892963352	-0.0584438193429051	0.0128118671844866	-0.0784286263380301	-0.0176693896135968	0.181396484375	-0.429443359375	0.328369140625	0	0	0	-0.380599003929872	0.333335680016057	-0.750312080269262	-0.425515575317561	-0.348161786739509	0.384804497430186	0.854815108085868	-0.892273408583778	-0.415647639180796	-0.176309966756613	0.287457013462257	-0.824113183246654	0.488063445271644	-19.8619471797131	-58.7393147227733	132.138031707219
22775	1646737224851	8.2895368191139	-1.81754240007022	4.68022722676409	0.0821108023810722	0.0861206513538847	-0.121957552425373	0.0189869476755808	-0.0769305353250195	-0.017209459647368	0.184326171875	-0.433349609375	0.326416015625	0	0	0	-0.380898723818793	0.333387231344032	-0.750209960426284	-0.425387037234527	-0.347924061492091	0.384285642826292	0.855145246231557	-0.892232726651982	-0.415797645059184	-0.176162084043091	0.287870819858519	-0.824279602489847	0.487538232339951	-19.8662972852504	-58.775784665855	132.157023386406
22776	1646737224852	8.2919679331439	-1.83876532118821	4.68030248407869	0.105604164115642	0.0903260925030471	-0.116105211918747	0.0175680878015025	-0.0786436657112386	-0.01868049543541	0.18408203125	-0.425048828125	0.320068359375	0	0	0	-0.381267676142264	0.333443758851324	-0.7500507456189	-0.425292955277547	-0.347521722640737	0.383719942302008	0.855562772783248	-0.892245250547551	-0.415882323748781	-0.175898566420117	0.288317646300314	-0.824500393373501	0.486900437624356	-19.8628557989717	-58.8219632109183	132.166034581892
22777	1646737224854	8.31944453240049	-1.75978882904649	4.68374326001247	0.0303448777139316	0.0588856297499314	-0.104800257262573	0.019856651248287	-0.0776417559615707	-0.0108311924338271	0.177978515625	-0.431884765625	0.322998046875	0	0	0	-0.381569419501505	0.333580992137525	-0.749908704373646	-0.425165185416761	-0.347278686421632	0.383101535628026	0.855938506761271	-0.892238757734631	-0.415916573588152	-0.175850513251607	0.288630409266639	-0.824770645218499	0.486256999571659	-19.882072651877	-58.8635721299717	132.192072630326
22778	1646737224855	8.34714508870873	-1.75800945853754	4.68278500413214	0.0238536218444834	0.0639853554909177	-0.0818479308048783	0.0202188933585534	-0.0765220605254612	-0.0140366139981273	0.18115234375	-0.432861328125	0.3251953125	0	0	0	-0.381928165835664	0.333632426715479	-0.749767237894191	-0.425052195578216	-0.346923014351088	0.382533179681592	0.856336842928206	-0.89222766287657	-0.416040069756159	-0.175614515217581	0.289092060962197	-0.824972136984021	0.485640559970693	-19.8807091821051	-58.9077387170655	132.205186921003
22779	1646737224856	8.37143269977989	-1.72613958523869	4.69879845041601	-0.00636722438626877	0.0409425639532172	-0.0588456051289299	0.0187881909353944	-0.0734710713061229	-0.0145910869926691	0.1787109375	-0.428466796875	0.324462890625	0	0	0	-0.382152485348814	0.33378390428627	-0.749661541228678	-0.424918058905221	-0.346808242315887	0.381976756684716	0.85663165970818	-0.892202151054431	-0.416065896911266	-0.175682927688694	0.289308424895668	-0.82521689680959	0.485095566362277	-19.9084356781729	-58.9404637031353	132.237257175583
22780	1646737224856	8.366913704619	-1.68771032000199	4.73292467252288	-0.0242746621684511	-0.0101549206409312	-0.0528978952157733	0.0173089442466129	-0.071941341778799	-0.0149484382205744	0.1875	-0.42919921875	0.3310546875	0	0	0	-0.382488502617082	0.333835500087952	-0.749521983077119	-0.424821375557907	-0.34645868846966	0.381449438625293	0.857007994686357	-0.892202400821555	-0.416161315500229	-0.175455508461181	0.289726169256655	-0.825412675728673	0.484512808493539	-19.9067246356385	-58.982282447021	132.247894132561
22781	1646737224858	8.35288957681158	-1.66842061099893	4.69302399662414	-0.0451534527115037	0.00455362874266506	-0.0876268160470879	0.0127088062915313	-0.0671565268606549	-0.0145155993654901	0.1875	-0.424560546875	0.3232421875	0	0	0	-0.382729123520985	0.333921924037093	-0.749422834081069	-0.424711646195536	-0.346276871189472	0.380973920495875	0.857292948986069	-0.892180501740506	-0.416232332466486	-0.175398397152219	0.290010828751771	-0.825596461542508	0.484029133312449	-19.9190765598778	-59.0139806722436	132.268496388312
22782	1646737224858	8.40413588745356	-1.66690122502278	4.69758026849581	-0.0583290869720665	0.0146582692167609	-0.0417253365664507	0.00260674440609881	-0.0679252887018798	-0.0216536483483507	0.181396484375	-0.431396484375	0.32763671875	0	0	0	-0.383029773962866	0.334007214430654	-0.749252131387821	-0.424674718551785	-0.345879151361835	0.380507460352215	0.857660588618554	-0.892246291733576	-0.416181128262474	-0.175185111712885	0.290282909488138	-0.825837357531422	0.483454745932461	-19.91853770969	-59.0549199820446	132.270661423339
22783	1646737224859	8.37569725527991	-1.62832914109502	4.72678984834113	-0.0708944215744972	-0.0416154665857545	-0.0587373649744514	0.00868737751260877	-0.0694650740758464	-0.0208185291786823	0.1865234375	-0.427978515625	0.31884765625	0	0	0	-0.383296029961648	0.334115546434881	-0.749106368632944	-0.424606410125571	-0.34558709979183	0.380020406980961	0.857994199709705	-0.892281056968787	-0.416152396221593	-0.175076264792494	0.290523788754272	-0.826076069982088	0.482901910092321	-19.9281312694191	-59.092112239668	132.283098331276
22784	1646737224860	8.33588693230839	-1.55554292976541	4.69236384368236	-0.127488413414209	-0.0638609549096823	-0.122245281167645	-0.00825636553128088	-0.067680799555965	-0.0212575160813111	0.19287109375	-0.434326171875	0.3193359375	0	0	0	-0.383571856758955	0.334241911929303	-0.748918578468675	-0.42458914003633	-0.345193385731395	0.379553808847719	0.858359151309337	-0.892376971909262	-0.416012812946108	-0.174919065486645	0.290697207508692	-0.826360844700337	0.482309950024663	-19.9341593693418	-59.1328447012784	132.285627060502
22785	1646737224861	8.31882888423646	-1.58388904141148	4.66473937332349	-0.100729291462461	-0.042951069875854	-0.145246298938089	-0.0154078103036466	-0.0667396770026199	-0.0267608534762293	0.182373046875	-0.43115234375	0.32666015625	0	0	0	-0.383811990299952	0.334514995312209	-0.748639891081581	-0.424648545852473	-0.344723937214739	0.379035949957979	0.858776545878275	-0.892599414501811	-0.415546660833305	-0.17489213218814	0.290571320577569	-0.826832946434613	0.481576148026524	-19.9593056346205	-59.1794898256339	132.285753590055
22786	1646737224861	8.29393207080079	-1.57592320238882	4.67661676542302	-0.0913080384173221	-0.0714410394189465	-0.162291444418345	-0.0274297687796062	-0.074906276529497	-0.0315516410345036	0.191162109375	-0.427490234375	0.329833984375	0	0	0	-0.384091412296327	0.33470987256797	-0.748383183133999	-0.424694830917413	-0.344216175184485	0.378550563516748	0.859194212970803	-0.892787314173369	-0.415207203595127	-0.174739204913546	0.290596002024232	-0.827225754521623	0.480886176411493	-19.9695835961937	-59.226229205569	132.280259767317
22787	1646737224862	8.33785348198243	-1.53888367743011	4.71943600588793	-0.123542414031941	-0.112213712764907	-0.110461896314362	-0.0385211723204558	-0.0822686149354973	-0.0301610695860325	0.185791015625	-0.44091796875	0.321044921875	0	0	0	-0.38433022047078	0.334969007002085	-0.74812742703682	-0.4247250862572	-0.343797765473391	0.378019547335202	0.859595438731496	-0.892974396583161	-0.414808730903702	-0.174729630609695	0.290516477161699	-0.827668374772499	0.480172091961838	-19.9959203430231	-59.2711890797002	132.285606066288
22788	1646737224862	8.36476071130207	-1.5619509851692	4.72297056470498	-0.106732983290092	-0.103047532685685	-0.0816367452834896	-0.0474472208680612	-0.0841600728639021	-0.033913366664998	0.182373046875	-0.4326171875	0.313232421875	0	0	0	-0.384605532233236	0.335253659657575	-0.747814172785175	-0.424802932244372	-0.343242106664346	0.377466482334599	0.860060411207588	-0.893228131157567	-0.414294904885573	-0.174651760639893	0.290393460534809	-0.828177992040237	0.479367136523584	-20.0186145560144	-59.3233665341297	132.281230814252
22789	1646737224863	8.39184392060482	-1.58511622507163	4.72614363884079	-0.0932152760380209	-0.0957460469323807	-0.0528611433713362	-0.0563731306254431	-0.0860510944570866	-0.0376621901555785	0.192626953125	-0.429931640625	0.320068359375	0	0	0	-0.384741842553012	0.335769323540928	-0.747444311789675	-0.424923142145777	-0.342828075715745	0.376843754665483	0.860498515437802	-0.893581787513144	-0.413398569275654	-0.174966316603103	0.289793891457109	-0.828909167213431	0.478465351915562	-20.0865722639694	-59.3726023329127	132.293897914221
22790	1646737224863	8.39806858170025	-1.56088892719744	4.71158846686575	-0.116458378415164	-0.0997954339299969	-0.0587411847574284	-0.0604959216921234	-0.0913969245912141	-0.0435605585709513	0.190673828125	-0.43212890625	0.32373046875	0	0	0	-0.385031445397253	0.336101294483249	-0.747073940603236	-0.425049683182494	-0.342167105763526	0.376267949105059	0.861013415812834	-0.893906217964153	-0.412737373346291	-0.174870049260099	0.289574420863509	-0.8295000247857	0.477573411803972	-20.1108968617748	-59.4305602819977	132.282469641552
22791	1646737224864	8.40164259897861	-1.5839351800506	4.70910007760714	-0.093250250019615	-0.0964398265577157	-0.0528683082600061	-0.0611237074740448	-0.0921087120168911	-0.0373415636278796	0.18896484375	-0.42626953125	0.3173828125	0	0	0	-0.385299926017868	0.336508275435328	-0.74667780148539	-0.425180442098541	-0.341531117335029	0.375632368222185	0.861543277981831	-0.894258822740715	-0.41196754444086	-0.174882532797757	0.289236328704189	-0.830170504337007	0.476612295148333	-20.1495155748544	-59.4903061595335	132.277626070365
22792	1646737224864	8.40662378202254	-1.58376267681576	4.70026014191151	-0.0931490061167807	-0.0964111182427257	-0.0528670578161101	-0.068666273717582	-0.0938028350168563	-0.0394201008796446	0.18310546875	-0.431640625	0.3173828125	0	0	0	-0.385574139110192	0.336884159148009	-0.746296756016271	-0.425303184239389	-0.340899569450542	0.375017134155783	0.862061269654319	-0.894592412729201	-0.41125252958195	-0.174859292003006	0.28894964723249	-0.830802928498708	0.475683293129146	-20.1832275636453	-59.5488159261244	132.2715894979
22793	1646737224865	8.43616006409014	-1.66073502456158	4.69146323414559	-0.033930086823611	-0.0561609263025172	-0.0181812131510757	-0.0669353791595951	-0.0924779263015055	-0.0409663694635404	0.18701171875	-0.435546875	0.323486328125	0	0	0	-0.38578112684443	0.337328397111719	-0.745913847709693	-0.425435079028047	-0.340355831406081	0.374405975188208	0.862541635963878	-0.894945691805745	-0.410429092068875	-0.174986196889512	0.288496302829363	-0.83148549363587	0.47476494934536	-20.2325941456711	-59.6031666910673	132.272579911917
22794	1646737224866	8.41597196093478	-1.68386607842423	4.6837696385108	-0.00383910574902561	-0.0570624719294268	-0.0352435737597698	-0.0639480300187203	-0.0955182665132533	-0.0402720505213416	0.1865234375	-0.437255859375	0.317626953125	0	0	0	-0.386072476515496	0.33768927160962	-0.745534936324405	-0.425548654605701	-0.33971277088094	0.373777711462715	0.863067468807677	-0.895267844994874	-0.409748596806086	-0.174933053290904	0.288254607974666	-0.832103545136746	0.473827997433913	-20.2636944564436	-59.6627626807325	132.266541916269
22795	1646737224867	8.39718797384432	-1.6832989612625	4.66988167611387	0.000134995348101935	-0.0625456805786214	-0.0581942929583086	-0.0564700470358848	-0.0968493382835625	-0.0378129083122847	0.18896484375	-0.43115234375	0.311279296875	0	0	0	-0.386260853873441	0.338137348093005	-0.745187331293493	-0.4256307412174	-0.339282049791374	0.373130830726721	0.863516689966413	-0.895567713930341	-0.409003211910714	-0.175142348997333	0.287830089557967	-0.832760323147007	0.472931373179181	-20.3212810683598	-59.7137598028566	132.279758773856
22796	1646737224870	8.40115335454703	-1.7063167993396	4.66671181833439	0.0235399164777087	-0.0584537790900434	-0.0523024819440323	-0.0491154026624512	-0.102741354889825	-0.0347777511587019	0.181884765625	-0.433837890625	0.32421875	0	0	0	-0.386600282417948	0.338469697558294	-0.744830803902713	-0.425682462672352	-0.338669325215128	0.372417860427161	0.864064827077914	-0.895827783090977	-0.408465409615997	-0.175067393279106	0.287742369491591	-0.833343234437103	0.471956970938319	-20.3517971817853	-59.7760916770332	132.282754091556
22797	1646737224871	8.36451652366051	-1.6881275685625	4.61844553499307	0.00833271286635479	-0.0491860189712848	-0.109984043865358	-0.0447386896778151	-0.105586338144489	-0.032434054494581	0.187744140625	-0.4296875	0.32080078125	0	0	0	-0.386842088976157	0.338880457801742	-0.744510545612541	-0.425696230883433	-0.338271834416403	0.371684217822009	0.864536296671576	-0.896057114658899	-0.407885508663441	-0.175245710622358	0.28749576224656	-0.833954587519253	0.471026467033289	-20.4077510441956	-59.8297985032117	132.305499353353
22798	1646737224872	8.39272704104906	-1.71106633580536	4.61948263394572	0.0250403122269703	-0.0400965053279136	-0.0811412724916245	-0.0343159154789718	-0.111482344651248	-0.0291107335595599	0.189453125	-0.432861328125	0.3115234375	0	0	0	-0.38723482985726	0.339187873683416	-0.744173960369698	-0.425682850957401	-0.337686593892396	0.37087346900598	0.865113076015397	-0.896254903227753	-0.407491393493804	-0.175151113809444	0.287567231696455	-0.834508019264014	0.470001545783084	-20.4384483574603	-59.8956195628531	132.318393482204
22799	1646737224872	8.36785440589758	-1.65067783780186	4.63911799372209	-0.0114032294760235	-0.100746324345867	-0.104090653691117	-0.0376152229050718	-0.109556991680766	-0.0265859698894772	0.192626953125	-0.428955078125	0.31103515625	0	0	0	-0.387533073711572	0.339583331693455	-0.743844712379152	-0.425671612256691	-0.337243590596902	0.370067611349334	0.865630824099689	-0.896466700598858	-0.406973678709525	-0.175270874805354	0.287426886909883	-0.835118187963737	0.469002555231269	-20.4912110662085	-59.9548153536426	132.342994816969
22800	1646737224872	8.37086728375208	-1.69753203421968	4.64144247821849	0.0353002009005583	-0.0925967938105745	-0.0922865747057795	-0.0290657793811987	-0.111819664771801	-0.0192883830094436	0.201416015625	-0.43115234375	0.313232421875	0	0	0	-0.387920784204156	0.33989149903596	-0.743536743460147	-0.425610555778636	-0.336746239984466	0.369212219551109	0.866189532833588	-0.896616126952533	-0.406658847385777	-0.175237275519541	0.287543893597072	-0.835649997772402	0.46798246813104	-20.5285458525015	-60.0188131536834	132.366907552108
22801	1646737224873	8.41166410531631	-1.66257246666985	4.57778463545676	-0.0226214532055834	-0.050247439872585	-0.0929494196528502	-0.0277691168345551	-0.109903170961889	-0.0163192485095969	0.190673828125	-0.423583984375	0.3154296875	0	0	0	-0.388317480757595	0.340292157305825	-0.74314638736193	-0.425610419004439	-0.336130610745881	0.368298904120362	0.866817241258699	-0.896864477106624	-0.406114037822027	-0.175229843314866	0.287489690639272	-0.83631770608282	0.466821563628445	-20.5745247368458	-60.090862718635	132.385362444813
22802	1646737224874	8.41256218521277	-1.65623792971952	4.59123590557074	-0.0199677007746519	-0.0738143756266811	-0.0870554502758551	-0.0247365614693576	-0.111421341952851	-0.0158347206551872	0.193359375	-0.43115234375	0.308837890625	0	0	0	-0.388707187796926	0.340590827683433	-0.742852386571663	-0.425529014307725	-0.335663560274602	0.367430282031454	0.867366682637779	-0.896990693304471	-0.40584589216042	-0.175205045423005	0.287641565892245	-0.83682979133322	0.46580922050584	-20.6128102506033	-60.1540581583277	132.413059249881
22803	1646737224874	8.46144672616468	-1.65010626560641	4.61384060555424	-0.0312103526041201	-0.087914433350201	-0.0352775191779155	-0.0278924186623123	-0.10969534637555	-0.0148086276876714	0.199462890625	-0.42919921875	0.306884765625	0	0	0	-0.389054523000229	0.340953522834935	-0.742536123478501	-0.425473123392103	-0.335218398808065	0.366559306992138	0.867907195244976	-0.897157347759311	-0.405446633074832	-0.175276128122917	0.287640954076494	-0.837405100405847	0.464774546799024	-20.662500474305	-60.2163453927823	132.442909112169
22804	1646737224875	8.42751528847332	-1.66224888446784	4.54865549317575	-0.0230476939353385	-0.0508511340676121	-0.0929535606436094	-0.0261752087231269	-0.108366478972503	-0.0163621849577038	0.196044921875	-0.433349609375	0.30517578125	0	0	0	-0.389430370237295	0.341250417906835	-0.742243682893686	-0.425401521176961	-0.334755065034342	0.365716630395747	0.868441358230844	-0.897289736752108	-0.405163396117477	-0.175253390169452	0.28776757071148	-0.837910477735261	0.463784278030509	-20.700423252919	-60.278017368461	132.469115309251
22805	1646737224875	8.42833733524289	-1.65579245990506	4.56237373507087	-0.0203621164792056	-0.0769615805707897	-0.0870806635570176	-0.0244592724809335	-0.107037531999646	-0.0179165362035965	0.195068359375	-0.427001953125	0.309326171875	0	0	0	-0.389794145899372	0.341713933368215	-0.741816582541316	-0.425441264373033	-0.334120508782508	0.364802588020164	0.869069938143478	-0.897594951216877	-0.404462636621396	-0.17530909596265	0.287553106679255	-0.838647153069191	0.462584223129205	-20.7555899797551	-60.3507395433263	132.486381990854
22806	1646737224875	8.45309538589084	-1.64908837912571	4.58088530962515	-0.0243929069088281	-0.0955706180245467	-0.0582480326992041	-0.0254203554493201	-0.101534792598374	-0.0233448946039097	0.193603515625	-0.428466796875	0.308349609375	0	0	0	-0.390158076410683	0.341981328442504	-0.741522181663722	-0.425406041928052	-0.333612749805249	0.364042478059841	0.869583582719586	-0.897749587153829	-0.404156940975618	-0.175222275485624	0.287659889335496	-0.839124687534148	0.461650892816433	-20.7845484864723	-60.4102851328451	132.502504745775
22807	1646737224876	8.45688907007866	-1.67174427041786	4.57809643386908	-0.00144222142592822	-0.0924705089141337	-0.0523539976907727	-0.0250278633259821	-0.0973590134076553	-0.0269320080897673	0.194091796875	-0.43017578125	0.30224609375	0	0	0	-0.390488080964409	0.342308324676397	-0.741184692114909	-0.425428397802143	-0.333059473936469	0.363307390481785	0.870102940371126	-0.897976673685898	-0.403671378401479	-0.175177943176247	0.287592211885463	-0.839676817758336	0.460688138963943	-20.8194454304564	-60.4706040370763	132.512820733897
22808	1646737224876	8.51530965701063	-1.65295151097375	4.54905675783739	-0.040684774928945	-0.0630424853277631	-0.0182488178869686	-0.0288988400495084	-0.0968016048463267	-0.0350823585340125	0.19873046875	-0.42578125	0.30810546875	0	0	0	-0.390846862328052	0.342556273099118	-0.740867684240789	-0.425451530043611	-0.332459451583735	0.362632490617058	0.870613800603638	-0.898180668663384	-0.403292390687985	-0.17500495436577	0.28764943853941	-0.840150536726627	0.459787859937519	-20.8378800017505	-60.5300456077637	132.514424995721
22809	1646737224877	8.51601668129298	-1.64497150077725	4.56363960611709	-0.0382312701996576	-0.0883180928484921	-0.0123808602709321	-0.0270523995083528	-0.0956660063586991	-0.0381471376441586	0.197265625	-0.43017578125	0.3046875	0	0	0	-0.391190144333415	0.34291419647879	-0.740459535472087	-0.42555822299442	-0.331740939636467	0.36192798020052	0.871180857294905	-0.89850659625858	-0.402620105390274	-0.174879807912021	0.287461032922612	-0.840776538613855	0.458760249659415	-20.8668902216427	-60.5961540268563	132.50817807883
22810	1646737224878	8.49259427599174	-1.63695124720213	4.57411109227863	-0.0289343442048571	-0.116956702635933	-0.0294498846794795	-0.0331639456204003	-0.0893837410388177	-0.0379589543380675	0.2021484375	-0.4365234375	0.30859375	0	0	0	-0.391517112935806	0.343157548361842	-0.740142328945141	-0.425613181403448	-0.331135540188095	0.361324557393883	0.871661527342152	-0.898732767860913	-0.402192633635852	-0.174701166058274	0.287452023818589	-0.84124054210028	0.457914494561404	-20.8825941573184	-60.6522975168379	132.503670380105
22811	1646737224878	8.52017160253539	-1.65877452423608	4.57646914087798	-0.0126479820836547	-0.110014571393478	-0.000620491379370591	-0.0343497556463545	-0.0867256859321544	-0.0414931166323195	0.193359375	-0.4267578125	0.305419921875	0	0	0	-0.39179792527681	0.343556669149838	-0.739706526516087	-0.425790389112954	-0.330393860575653	0.360710279133517	0.872197220484757	-0.899129439885189	-0.401342719243415	-0.174614638682005	0.287064709126117	-0.841909802911049	0.456926401662912	-20.9143799082499	-60.7149833570386	132.488236783892
22812	1646737224879	8.52899245070821	-1.66282842767544	4.54537243517495	-0.0151902090137008	-0.0865715565183749	-0.00649601479220863	-0.034139533973256	-0.0838746472630949	-0.043380386076059	0.193359375	-0.42529296875	0.30322265625	0	0	0	-0.392111521210058	0.343782531658959	-0.739385534885208	-0.425876926661925	-0.329754796542655	0.360172295521912	0.872661269735049	-0.89937666133887	-0.400884828526301	-0.174393162986356	0.287025077643157	-0.842358161233043	0.456124251720982	-20.9237032265892	-60.7693845733061	132.475578993819
22813	1646737224880	8.50833175210046	-1.68425242170592	4.53948446633662	0.0135626224835643	-0.0882899640481999	-0.023542913087482	-0.0354284970440457	-0.0795034978585795	-0.0455946182869829	0.19921875	-0.421630859375	0.300537109375	0	0	0	-0.392349668078273	0.344081232402128	-0.73904890821442	-0.426000651096422	-0.329170366448588	0.359670317533009	0.873088845729807	-0.899670946832761	-0.400263101548115	-0.174303290170111	0.286773529596345	-0.842868146405348	0.455339686935004	-20.9467644953191	-60.8195918085953	132.464758009583
22814	1646737224881	8.53670245222509	-1.68181852393652	4.53655763101168	0.00691776827184496	-0.0834219402072713	-0.00059563782147265	-0.0350891179562715	-0.0768447752402597	-0.0489890992658132	0.199462890625	-0.42578125	0.304443359375	0	0	0	-0.392644301737084	0.344285394647644	-0.738727502515299	-0.42612169197686	-0.328501511880351	0.359212229803918	0.87352923857855	-0.899939023322721	-0.399775741318188	-0.174037671078538	0.286699339017849	-0.843294687883655	0.454596038691427	-20.9488584086356	-60.8713865326187	132.443083998645
22815	1646737224882	8.53566530599857	-1.69654951408819	4.55898329955698	0.0337275223454128	-0.104259243955749	0.0111702274053833	-0.0271572432114494	-0.0709517182660104	-0.0505723265235795	0.193603515625	-0.433349609375	0.29443359375	0	0	0	-0.392964675188687	0.344505680366977	-0.738350152265857	-0.426302302243046	-0.327690222312256	0.358763613972743	0.874018184873839	-0.90027786511701	-0.39916436659433	-0.173688151644564	0.286563926168842	-0.843775134577077	0.453789200497471	-20.9443841480439	-60.9289902499958	132.408187462861
22816	1646737224882	8.51557081758109	-1.69335864245008	4.54851158366017	0.0404289242979219	-0.109389689083894	-0.0117811847391298	-0.025323443194437	-0.0635404684123238	-0.0528898369659433	0.1962890625	-0.4296875	0.302001953125	0	0	0	-0.39323788962975	0.344638360519803	-0.73806220685348	-0.42644172102684	-0.327022841454414	0.358431312278401	0.874404400460944	-0.900530758583459	-0.398743718051778	-0.173343013009876	0.28653169809321	-0.844115182716569	0.453176725235524	-20.9321741160346	-60.9745648064113	132.376462113437
22817	1646737224883	8.52229815696824	-1.71950728404413	4.52578295793226	0.0584468923599053	-0.0842926086831607	-0.011745722107845	-0.0203966401478711	-0.0546069777243083	-0.0551254634582338	0.19970703125	-0.423828125	0.2978515625	0	0	0	-0.393343395307583	0.344986350349413	-0.737691798476225	-0.426703880813624	-0.326409542932991	0.358155701745955	0.874746422450037	-0.900948111270793	-0.39781643234237	-0.173304895937709	0.285918364362745	-0.844669509018321	0.45253078288099	-20.9552505276047	-61.014979003688	132.344856889979
22818	1646737224884	8.54549417478781	-1.70934668281141	4.54865626703076	0.0543410754785244	-0.103031959826205	0.0170653350728323	-0.0109416396076921	-0.0487074673184684	-0.0565794406048971	0.200439453125	-0.42578125	0.3017578125	0	0	0	-0.393597954782282	0.345029079584196	-0.737449056799009	-0.426854158769408	-0.325752354264931	0.357960913420963	0.875071076058217	-0.901171873679975	-0.397500922765086	-0.17286489085129	0.285962685990635	-0.844900586379093	0.452071168464974	-20.9260663642445	-61.0533885713534	132.302888071627
22819	1646737224885	8.50139248142933	-1.68139920838007	4.53022710036904	0.0445983878759564	-0.118634115148196	-0.0347699689289165	-0.00478353541139525	-0.0409071930532966	-0.0554766432615807	0.2021484375	-0.43603515625	0.30078125	0	0	0	-0.393832775680609	0.345134861584793	-0.737147351932616	-0.427073124484889	-0.325008582284843	0.357780804547084	0.87542122280582	-0.901482486635412	-0.396980947323122	-0.172439710484772	0.285829927983112	-0.845221286622668	0.451555344237105	-20.9008296352522	-61.0948664666512	132.252051492827
22820	1646737224886	8.5038922083592	-1.67695197824465	4.52718273718926	0.0446114326407803	-0.118817149810034	-0.0347722508840906	-0.000359532012505662	-0.0296863086792114	-0.051870000870792	0.197998046875	-0.427001953125	0.302978515625	0	0	0	-0.394031757221448	0.345108188604646	-0.736969346050136	-0.427218322923341	-0.324446957719091	0.357726444156102	0.875651736010532	-0.901660788105701	-0.396769685433176	-0.171993139147658	0.285905569759376	-0.845343485142395	0.451278624917995	-20.8630471446193	-61.1222024491136	132.207068456292
22821	1646737224888	8.5100723027285	-1.67860340522981	4.50165397495462	0.0406394068154479	-0.097043880507633	-0.0406426832712938	0.00853528897743714	-0.0245356700368297	-0.0471074417847092	0.200439453125	-0.425537109375	0.29833984375	0	0	0	-0.394131220586001	0.345222349363739	-0.736736049409621	-0.427436666606264	-0.323916953999828	0.357690190400038	0.875862737307084	-0.901941814113227	-0.396238851080613	-0.17174322941082	0.285619976307006	-0.845607769941775	0.450964220918339	-20.8486147055059	-61.1472453092236	132.163347493909
22822	1646737224888	8.45970410093577	-1.66857417630767	4.51456695035892	0.0565164705740546	-0.130779421929013	-0.0806912275626015	0.00814592566428549	-0.0239610876757957	-0.0425824220520616	0.198974609375	-0.432861328125	0.303466796875	0	0	0	-0.394310852101344	0.345171776122644	-0.736603111652668	-0.42754093697219	-0.323455398256107	0.357646014736716	0.876051330392191	-0.902065923393733	-0.396130384362563	-0.171341146361813	0.28575107207287	-0.845677271024658	0.450750793766902	-20.8129935961323	-61.1696454585026	132.126220902375
22823	1646737224889	8.45819127697839	-1.6349422777589	4.53020752399	0.0343721256038817	-0.159885895740424	-0.0807775001970565	0.015476754844783	-0.020329910655716	-0.0377672506989876	0.203125	-0.432861328125	0.297119140625	0	0	0	-0.394403941027598	0.345246298577731	-0.736425597059657	-0.427700671750236	-0.323035333372591	0.357606443544472	0.876222463149818	-0.902272446681464	-0.395754257405546	-0.171122762088596	0.285574167865905	-0.845870084162373	0.45050104924055	-20.7992738744193	-61.1899855342252	132.092335419608
22824	1646737224889	8.43250552636832	-1.60145704129818	4.54181681833561	0.0202100391033504	-0.19262604855363	-0.103804871493569	0.0199149009078353	-0.0216461828651124	-0.0356696632388626	0.1962890625	-0.4296875	0.307373046875	0	0	0	-0.39458791667093	0.345162314942323	-0.736331687336499	-0.427760445325578	-0.322642754864318	0.357553383431976	0.87638874406847	-0.902340898497603	-0.395767955517041	-0.170729693622407	0.285801601871129	-0.845886105443403	0.450326704721904	-20.7629238157186	-61.2097615258976	132.061909050208
22825	1646737224890	8.45717420121719	-1.62130086227313	4.5504498095441	0.0349410675532596	-0.185066724256539	-0.0749497678719546	0.0179645675500225	-0.0225951576281423	-0.0310888331100083	0.208740234375	-0.42724609375	0.294921875	0	0	0	-0.394651508031173	0.345258595217699	-0.736177043615141	-0.427890231357405	-0.322320274235256	0.357492280498207	0.876532321252959	-0.902519581551764	-0.395412904674416	-0.17060785366615	0.285601200509625	-0.846077953974179	0.450093379274045	-20.7592084616999	-61.2268473331717	132.038283153561
22826	1646737224891	8.40826699032328	-1.56494905012894	4.55176543109088	0.00407707459335308	-0.22675507522689	-0.126865135646474	0.0191078980773238	-0.0220159073408279	-0.026430825780346	0.196533203125	-0.41455078125	0.310546875	0	0	0	-0.394818631714428	0.345197884346896	-0.736100317086682	-0.427917038546562	-0.322010512345373	0.357398622784722	0.876684352757966	-0.90256084825895	-0.395450857527934	-0.170301304958316	0.285820127228917	-0.846099783543292	0.449913337387147	-20.7326687041906	-61.2449493313786	132.018352239486
22827	1646737224892	8.41373941497045	-1.56811479578557	4.52694279309696	0.00289952724314077	-0.2034066027222	-0.132717195763593	0.0187191954124593	-0.0214407768303854	-0.0219059219994379	0.195068359375	-0.4306640625	0.293701171875	0	0	0	-0.395040847550958	0.345099774042283	-0.736023967235831	-0.427922416305356	-0.321650268779213	0.357265294581807	0.876870922018535	-0.902579323491037	-0.395577103158701	-0.169909741518938	0.286167205320109	-0.846097077612224	0.449697749444372	-20.6981182623133	-61.2671779040455	131.99709063034
22828	1646737224892	8.43095203532893	-1.55340163425917	4.57602610466475	0.00124779106287619	-0.245803765566132	-0.0980797087120333	0.0167131936610595	-0.0254289524508144	-0.0169451255676612	0.201171875	-0.427001953125	0.300048828125	0	0	0	-0.395199490207469	0.345074012409325	-0.735956089133505	-0.427913453594068	-0.321414878345908	0.357104876013381	0.87702256727256	-0.902597171165425	-0.395628004385854	-0.16969628384216	0.286375317690016	-0.846140998695332	0.449482577798972	-20.6833749299521	-61.285257093102	131.98902874923
22829	1646737224893	8.40841069397256	-1.55145771566199	4.5697669435511	0.0052613419314418	-0.252813339078703	-0.121081812420041	0.0164996692069091	-0.0297954041752896	-0.0148677438571077	0.1982421875	-0.433837890625	0.297119140625	0	0	0	-0.395218842828392	0.345296134839623	-0.735784586689552	-0.428011317056323	-0.321216757490196	0.35691318234861	0.877173172739153	-0.90278333772634	-0.395153783473057	-0.169810872828032	0.286010558950493	-0.846443422605856	0.449145291076406	-20.7103817807109	-61.3032226309961	131.986759579046
22830	1646737224894	8.4068053219513	-1.52022097124807	4.58462940279236	-0.0156246949832508	-0.280590624112378	-0.121180864700335	0.0125751785319534	-0.0332126241091331	-0.00551321519937655	0.207763671875	-0.4375	0.30810546875	0	0	0	-0.395376775186409	0.345326607692088	-0.735718095956184	-0.427955164644239	-0.321063165395036	0.356640476702629	0.87734030695269	-0.902776958844069	-0.395207822148394	-0.169719002745647	0.286203085949074	-0.846533134431278	0.44885347932614	-20.7124430992038	-61.323171916943	131.994910215873
22831	1646737224895	8.39670325912099	-1.53763987080456	4.50776230193344	-0.0186849901769315	-0.216779134826536	-0.161700907033602	0.00942741199859029	-0.0377807279576283	-0.00520753927357248	0.203369140625	-0.43017578125	0.300048828125	0	0	0	-0.39539236477806	0.34561634696858	-0.735513228051758	-0.428059002877163	-0.320860735862045	0.356377988537875	0.877521006852694	-0.902994247473321	-0.394629661527806	-0.169908267228353	0.285744251407022	-0.846913312876913	0.448428437166615	-20.7515564369107	-61.3447547122111	131.997918159266
22832	1646737224895	8.41441670143243	-1.52463208381987	4.55539212025579	-0.02044468116643	-0.259229419213296	-0.127085174248133	0.00467443318254432	-0.0391230008622111	-0.003904513459953	0.205810546875	-0.42529296875	0.29736328125	0	0	0	-0.395551748995628	0.345693305254425	-0.735424234181023	-0.428002509745009	-0.320705331036946	0.356047652894624	0.877711888670031	-0.903006018932493	-0.394619980708488	-0.169868185948171	0.285881479666264	-0.847056751164798	0.448069905137542	-20.7622641080015	-61.3675698059499	132.01053700256
22833	1646737224896	8.41954479418687	-1.55397709335222	4.53464539190723	0.000373028571041073	-0.233647190433685	-0.12702808973286	0.00430728666291649	-0.0448160532173598	-0.00012763988628375	0.20166015625	-0.43212890625	0.297119140625	0	0	0	-0.395691743712596	0.345936233608486	-0.735208979264204	-0.428046636528951	-0.320408241827875	0.355639238460032	0.877985928495633	-0.903175684419671	-0.394208398466054	-0.169921810406691	0.285678563497209	-0.847419890400501	0.44751233246892	-20.7919238221462	-61.4003534617678	132.016832255734
22834	1646737224897	8.41434939346275	-1.51803613279568	4.57149488955067	-0.0180896406547278	-0.28501817151668	-0.121314351768632	0.00124364076320853	-0.044825553895651	-0.000389833475822201	0.19970703125	-0.4267578125	0.303466796875	0	0	0	-0.395858714377568	0.346046162761151	-0.735109320592228	-0.427974553294999	-0.320267319966569	0.355245387995059	0.878196765007519	-0.903186944418739	-0.394179669940458	-0.169928606294449	0.28580095729891	-0.84759843210914	0.447095862979244	-20.8103942900484	-61.4255994788282	132.035870061714
22835	1646737224898	8.4508805331847	-1.58327552408215	4.5139529126325	0.0126582300652125	-0.202542268267902	-0.103993894107386	0.00274986548823702	-0.046338858779677	-6.88649289296894E-05	0.20458984375	-0.42626953125	0.300537109375	0	0	0	-0.395920135049251	0.346295742981242	-0.73495346892857	-0.427983531885883	-0.320154686194138	0.354885048151434	0.878383503662545	-0.90330687746389	-0.39381870965511	-0.170127919672293	0.285548003029913	-0.847917110644749	0.446653010111306	-20.8515893514316	-61.447977035176	132.054765725469
22836	1646737224898	8.44976184159709	-1.55351230248175	4.52742477034068	-0.00829853957005389	-0.23034016424608	-0.104117758764701	0.0011185421088191	-0.0446317718554018	0.00111904574435119	0.201904296875	-0.423095703125	0.299560546875	0	0	0	-0.396082952475194	0.346409841868614	-0.734856796538197	-0.427906537454984	-0.320028579923639	0.354485988796272	0.878590571187279	-0.903314120531415	-0.393792433319697	-0.170150283892531	0.285666427289971	-0.848096222846961	0.44623703243019	-20.8718605784327	-61.4728094672577	132.075601482502
22837	1646737224899	8.40372100126939	-1.55409272825631	4.51521730077045	0.00518239742677008	-0.240957761102023	-0.150036133194654	-0.00521981699377431	-0.0490174980241105	0.00267762022769572	0.198974609375	-0.428955078125	0.307373046875	0	0	0	-0.396241308767594	0.346592423916855	-0.734706812790865	-0.427869625176026	-0.319840818155743	0.354048985882704	0.87883511914175	-0.903385928529694	-0.393602551070333	-0.170208389703529	0.28564963710113	-0.848366870750122	0.445733033819166	-20.8999433812967	-61.5021622387285	132.094031216621
22838	1646737224900	8.54546905560931	-1.57077484100491	4.56496064277355	-0.00910257331889885	-0.23111175775763	-0.000565101893561959	-0.00302382304256449	-0.0484520410641172	-0.00492500581212196	0.205810546875	-0.427978515625	0.30712890625	0	0	0	-0.396419816687884	0.346718525754	-0.734581861270148	-0.427816645221994	-0.319648494016285	0.353640506215657	0.879069526622697	-0.903424883902434	-0.393518363939943	-0.170196287820573	0.285741700525131	-0.848576272120287	0.445275185672234	-20.9182159900527	-61.5303238849905	132.109789964458
22839	1646737224901	8.56685001477021	-1.58799701324722	4.59436746127435	0.00923652209619315	-0.244881409531097	0.0341807832873755	0.00125016169803112	-0.0448210799269407	-0.000391603367700896	0.207275390625	-0.41943359375	0.313232421875	0	0	0	-0.396543706963764	0.346784073142201	-0.734535363037597	-0.42772853017956	-0.319602785875741	0.353333378634358	0.879209635299395	-0.903393546153564	-0.393578222170676	-0.170224216259198	0.285891867720216	-0.848676443985457	0.444987790164682	-20.9336931234631	-61.5471686948525	132.130478944325
22840	1646737224902	8.52388607036473	-1.61784880597689	4.56517325509494	0.0434238863128366	-0.22768129471267	-0.0116083661807291	0.00293739598096039	-0.0434877930812718	-0.00196117321338156	0.202880859375	-0.42822265625	0.296875	0	0	0	-0.396711358576356	0.346883528247327	-0.734436985457328	-0.427661349901462	-0.319451735553923	0.352955353718969	0.879416344476667	-0.903405896753996	-0.393555175262291	-0.170211955321523	0.286021632681333	-0.848844415841552	0.444583831614376	-20.9496857107512	-61.5720373675877	132.147517149027
22841	1646737224904	8.47384409669673	-1.61164958131557	4.57662623054973	0.0603568307519706	-0.260453311828612	-0.0516692118211388	0.0046961179952056	-0.0453849277179566	-0.00465937279263731	0.203125	-0.429931640625	0.298583984375	0	0	0	-0.396947850419046	0.34687095083243	-0.734369214859417	-0.427568478472243	-0.319235200529259	0.352606899057106	0.879634731852021	-0.903365612280081	-0.393731479371074	-0.170017918767703	0.286390393157451	-0.8489074725137	0.44422589503261	-20.9432737101974	-61.5983326955065	132.156344823867
22842	1646737224904	8.50800249942259	-1.62310715543262	4.53026264579011	0.0487168099625903	-0.208641086440108	-0.0403817506984279	0.00748482675260201	-0.0465086446635204	-0.00119531281965504	0.201416015625	-0.424072265625	0.29638671875	0	0	0	-0.397135317610896	0.346961439293105	-0.734274068617493	-0.427484375510572	-0.319081296400858	0.352200100568309	0.87985351931263	-0.903362666137913	-0.393749736675987	-0.169991288882085	0.286571142502782	-0.849067861850431	0.4438025982995	-20.9585166681613	-61.6246985945488	132.175505942063
22843	1646737224905	8.48609707307598	-1.62283013336088	4.52229977681875	0.0540893343452834	-0.214773479151982	-0.0633509029743902	0.0119057075642109	-0.0493380240139942	0.00107778750247942	0.20947265625	-0.421142578125	0.29345703125	0	0	0	-0.397244758565585	0.347180509790278	-0.734111571643866	-0.427483912904926	-0.318908211999328	0.351810498729579	0.880072113694689	-0.903473049890841	-0.393446395658513	-0.170106971827341	0.286415782456789	-0.849369946917697	0.443324590827867	-20.9921827915564	-61.6510636776056	132.191591420029
22844	1646737224906	8.46727889158272	-1.65224606186791	4.49709598662537	0.0816140198024886	-0.192616785852203	-0.0861855472546953	0.0164075374836205	-0.0476098533479572	0.00277889362096176	0.200439453125	-0.425537109375	0.2958984375	0	0	0	-0.397448072680283	0.347249544711727	-0.734037684098044	-0.42736572340819	-0.318787135957045	0.351377767177303	0.880288831396717	-0.903432416316431	-0.393552584306585	-0.170077137012192	0.286678619881149	-0.849499869404994	0.442905566440453	-21.0069472091923	-61.6772246264724	132.215855876346
22845	1646737224906	8.51762589915918	-1.65129029947818	4.50124340112785	0.0686235826583984	-0.184274431305556	-0.040316377198387	0.0239935775950911	-0.0521393773043995	0.00398660302464292	0.203369140625	-0.421630859375	0.30419921875	0	0	0	-0.397664386684479	0.347412356213849	-0.73385993371864	-0.427337440432349	-0.318491495135172	0.350904608301574	0.880584535067066	-0.903518694543134	-0.39337473350934	-0.170030255094574	0.286735306751075	-0.849777779721954	0.442335380625597	-21.0263688413538	-61.7129561136999	132.22782194227
22846	1646737224907	8.49179993663569	-1.64448271649972	4.51675190486187	0.0776727879426019	-0.213193228521387	-0.0574553591075322	0.0302069456833314	-0.0475599141263855	0.00392195706047027	0.203369140625	-0.421142578125	0.300537109375	0	0	0	-0.39789513106269	0.347433884578525	-0.733811622029769	-0.427188089601431	-0.31837960155857	0.350466667804465	0.880799377877528	-0.903435671964432	-0.393600063898712	-0.16994992298058	0.287120908213912	-0.849854166582105	0.441938321046562	-21.0345345188213	-61.738942734197	132.253412162441
22847	1646737224907	8.54979332000243	-1.65549716784697	4.47465247910907	0.0599590728900312	-0.155066194452643	-0.0231771812391539	0.0417037832833333	-0.047878870480308	0.0141765093005537	0.20849609375	-0.43408203125	0.301513671875	0	0	0	-0.398167105467066	0.347322462535521	-0.733871514826541	-0.426922314793262	-0.318400586511082	0.350027492598245	0.880966413057152	-0.903197010884093	-0.394208888299649	-0.16980727874739	0.287847574315709	-0.849752968109521	0.441660126284479	-21.0305039679123	-61.7591618734767	132.291050687499
22848	1646737224907	8.54208992577154	-1.68974105621041	4.53029973783592	0.111503672030628	-0.194826625687248	0.000352402870625212	0.0479447116778829	-0.0417807276394464	0.0139160373246448	0.198974609375	-0.4326171875	0.293212890625	0	0	0	-0.398397261833109	0.347286195547136	-0.733886642059667	-0.426711045969827	-0.318394610022434	0.349599334556296	0.881138568890533	-0.903030812069962	-0.394619963259465	-0.169736375150886	0.288375145879333	-0.849738424384171	0.441343840292555	-21.0362380853781	-61.7800147643094	132.325424563708
22849	1646737224908	8.5742017155146	-1.62386612368701	4.49006392628205	0.029567683410347	-0.17994576340155	-0.000384129706082703	0.0596939053327028	-0.0424823842971678	0.0211484666630544	0.205810546875	-0.42529296875	0.298095703125	0	0	0	-0.398443010531891	0.34750096070606	-0.733787803205009	-0.426663461681705	-0.318402915648135	0.349242230617632	0.881277168466305	-0.90307954640342	-0.3944027455483	-0.169981784823426	0.288213317136043	-0.849986081449093	0.440972499333298	-21.0801676950038	-61.7968133345899	132.355320369488
22850	1646737224909	8.53119636180874	-1.62970352412655	4.45657331182891	0.0404281251578766	-0.166686487254872	-0.0521099489375043	0.0652275088418519	-0.0337028455085963	0.0297415064911661	0.206787109375	-0.425048828125	0.3046875	0	0	0	-0.398652156671237	0.347417173681691	-0.733882218744202	-0.426373843502959	-0.318563607115772	0.348819153463226	0.881386649773292	-0.902813575674553	-0.395013306015081	-0.169976867981399	0.288868267206902	-0.849876277024036	0.440755530824796	-21.089076290172	-61.8100892026724	132.404294675338
22851	1646737224910	8.55398830014453	-1.57600581753624	4.47002713491122	-0.0100987633504333	-0.193198686690961	-0.035252891414439	0.0692732141956081	-0.0296761158182453	0.0372748195860608	0.201904296875	-0.42578125	0.30224609375	0	0	0	-0.398842080834997	0.347324637158848	-0.733980187415097	-0.426102893043198	-0.318722638190853	0.348446800568533	0.881476435917725	-0.902557524607314	-0.395603841925383	-0.169963275529141	0.289492305043468	-0.849754333573786	0.440581181955369	-21.0951491326767	-61.8209810906935	132.449008503431
22852	1646737224910	8.53436152153636	-1.58261444393435	4.44151205172274	-0.00590268411747587	-0.174966481635333	-0.064027140122521	0.0719102911893514	-0.0258467657949832	0.0431727313351551	0.197998046875	-0.4267578125	0.30224609375	0	0	0	-0.399013395310204	0.347226578261224	-0.734129864139649	-0.425764437559463	-0.319025908145394	0.348036665534135	0.881528756976134	-0.902228889269956	-0.396316694117352	-0.170047373783294	0.290181841779786	-0.849590229115056	0.44044402742405	-21.1106616494999	-61.8273299006547	132.509758079196
22853	1646737224912	8.52692922692513	-1.57074837524516	4.48740714678515	-0.00334711123094503	-0.221546979424369	-0.0523850561170889	0.0748750488933619	-0.0178513261822304	0.0454710950242858	0.2060546875	-0.430908203125	0.2978515625	0	0	0	-0.399041414577533	0.347130271556148	-0.734353135530312	-0.425431541329643	-0.319547906187693	0.347795263448937	0.881434960943544	-0.901872681866731	-0.397017156422478	-0.170302798593331	0.290714295062305	-0.849362014825654	0.440533048042633	-21.1356783494707	-61.8159493133086	132.576226313663
22854	1646737224913	8.52880815585594	-1.52417130545807	4.47464312243026	-0.0501453551708433	-0.229633421872592	-0.0643104891952824	0.0687181805383735	-0.0193836515985399	0.0451670603410754	0.200927734375	-0.43310546875	0.30419921875	0	0	0	-0.399178018121094	0.347034443321982	-0.734514376530084	-0.425103088282995	-0.319888548362352	0.347431617092342	0.881454813402949	-0.901545702312446	-0.397708918960925	-0.170419958986296	0.291353159015971	-0.849187192098146	0.440448009994235	-21.1526561353608	-61.8183577268188	132.636507239021
22855	1646737224914	8.57322761257383	-1.51868567291145	4.50534164703014	-0.0634355723748968	-0.244374787440614	-0.012636444277021	0.0668808000458166	-0.0157581221913234	0.0491782623869307	0.195068359375	-0.432861328125	0.29638671875	0	0	0	-0.399123727489082	0.347139938732554	-0.734591356134668	-0.424934880404291	-0.320261195142024	0.347203407515686	0.881409417181198	-0.901410552744759	-0.397848420705099	-0.170808809909929	0.291361943785715	-0.84921518353828	0.44038822618396	-21.1992620159375	-61.8128507337403	132.688510394384
