// Start Time : 08/03/2022 10:59:43																																
// Update Rate : 100Hz																																
// Filter Profile : 46.1 human																																
// Firmware Version : 4.4.0																																
PacketCounter	Time_Of_Arrival	Acc_X	Acc_Y	Acc_Z	FreeAcc_X	FreeAcc_Y	FreeAcc_Z	Gyr_X	Gyr_Y	Gyr_Z	Mag_X	Mag_Y	Mag_Z	VelInc_X	VelInc_Y	VelInc_Z	OriInc_q0	OriInc_q1	OriInc_q2	OriInc_q3	Mat[1][1]	Mat[2][1]	Mat[3][1]	Mat[1][2]	Mat[2][2]	Mat[3][2]	Mat[1][3]	Mat[2][3]	Mat[3][3]	Euler_X	Euler_Y	Euler_Z
22631	1646737224731	6.36580220846484	-0.333463340016838	7.46944242734839	-5.20417042793042E-16	1.38777878078145E-15	0.00704798202944623	0.0474341802526791	-0.0250518066701195	-0.0386248418977519	0.64892578125	-0.381103515625	0.256591796875	0	0	0	0.121771863715505	-0.323739054420193	0.376229879089831	0.859543899943699	0.507288205446341	0.567927579067955	0.648164285925292	-0.725616811124923	0.687245382574607	-0.0342640853194559	-0.464907431676381	-0.452937135885206	0.760729275700744	-2.57892206931594	-40.403339462148	48.2279135311112
22632	1646737224732	6.36583727331696	-0.369974351362742	7.37610038349774	-6.93889390390723E-16	8.67361737988404E-17	-0.0624247871028523	0.0200293570113433	-0.0285647663993444	-0.0346675674250851	0.65576171875	-0.396240234375	0.24609375	0	0	0	0.122083079269319	-0.326802138889835	0.378603049849432	0.85729564003199	0.499720185323476	0.569355465022522	0.652774149939516	-0.728943510732405	0.68351090480166	-0.0381339898034836	-0.46789004535402	-0.456779156120552	0.756592167546301	-2.88539770626353	-40.7510889117467	48.7267516467919
22633	1646737224732	6.42771908308166	-0.532162278428322	7.40172407520103	0.169556119102481	-0.0756799031760181	0.00310655175308838	0.00659336115711819	-0.0377847091103332	-0.0304938999427947	0.650634765625	-0.392578125	0.251953125	0	0	0	0.121807412381642	-0.32544093550045	0.377030998707941	0.858544569491167	0.503871647027769	0.568113596468326	0.650661436408634	-0.726678069413809	0.686021160604362	-0.0362484570163027	-0.466960755047512	-0.454556826712422	0.758502303578961	-2.7360558640049	-40.5914899248751	48.429520792721
22634	1646737224733	6.37627207115504	-0.42963958845675	7.4091128762826	0.0671805719204747	-0.0434907505679691	-0.0285175086502338	0.0641983080822426	-0.0231983040499901	-0.0406956509797035	0.6474609375	-0.39208984375	0.244140625	0	0	0	0.12219294085145	-0.325394684778298	0.37694660895439	0.858544371783947	0.504059106231637	0.56772891222069	0.650851979833876	-0.726772646102653	0.685960278407721	-0.0354967227184421	-0.466611121065402	-0.455128969277406	0.758374368648213	-2.67984940425033	-40.6058683404594	48.3996731749698
22635	1646737224734	6.39892482275428	-0.378497831456754	7.37370425886856	0.0604073143335685	0.0143613279452935	-0.0424695730458389	0.0370371659283337	-0.0343212962019228	-0.0360490332552771	0.655029296875	-0.391845703125	0.250244140625	0	0	0	0.122470040843507	-0.325454296898307	0.376835810746357	0.85853093215408	0.504148544739128	0.567333597670557	0.651127356046113	-0.726767201805878	0.685991721669851	-0.0349970310124708	-0.466522967512504	-0.455574304317766	0.758161179452437	-2.64292058448279	-40.6266537096247	48.3748105305783
22636	1646737224735	6.40312651880014	-0.397372113290462	7.37597479817835	0.0766022656877257	-0.00317850119646535	-0.0373583717536707	0.0401297509250125	-0.034099431256312	-0.0346035916010142	0.651123046875	-0.38427734375	0.2470703125	0	0	0	0.122762856785003	-0.325503856681979	0.376731671990819	0.858516026407279	0.504240973208319	0.566940789437025	0.651397867827682	-0.726779922800289	0.686005056625974	-0.0344674643395908	-0.466403242647748	-0.456042984329457	0.757953040558285	-2.60369778401452	-40.6470782125269	48.3498894829159
22637	1646737224736	6.35692538349495	-0.333977852460894	7.43953414627678	-0.0212454909757614	-0.0208945237024773	-0.0214760603671831	0.0372447823751764	-0.0386059956422497	-0.0326026043992158	0.646484375	-0.39599609375	0.252685546875	0	0	0	0.123047744107643	-0.325581066064427	0.376628874448486	0.858491067526062	0.504295320704035	0.566541017566062	0.65170354067722	-0.726789080379619	0.686019887203373	-0.0339756825158792	-0.466330207210473	-0.456517239298455	0.757712444180742	-2.56741213838712	-40.6701650133462	48.3267520834787
22638	1646737224737	6.408702487851	-0.42096543650365	7.32768486902606	0.120582885812716	-0.00589252282054307	-0.0695324487221889	0.0236533762203294	-0.041618217572651	-0.0274325469703683	0.652099609375	-0.390380859375	0.24755859375	0	0	0	0.1232723011809	-0.325698277736053	0.376524007455816	0.858460391311531	0.504300607378362	0.566162741183053	0.652028103607434	-0.72676104593177	0.686067223141956	-0.0336176656900158	-0.466368180211702	-0.45691521732853	0.757449143282668	-2.54127573186478	-40.6946872931741	48.3074474664797
22639	1646737224737	6.41610485023903	-0.460385333286361	7.35769709143692	0.138982823242116	-0.0483731307241055	-0.0406659291602338	0.0343225902060708	-0.0450456810583109	-0.0350268975522704	0.651611328125	-0.385498046875	0.244140625	0	0	0	0.123559449455281	-0.325808600203886	0.376402456837899	0.858430549881518	0.504339893039155	0.565717273462248	0.652384272339311	-0.7267441985382	0.686108505873402	-0.033135902873411	-0.466351950977288	-0.457404727429228	0.757163636966984	-2.50584766553138	-40.7216079336272	48.2828300125059
22640	1646737224738	6.35938225180351	-0.228098276797867	7.39043694318335	-0.0721909131950167	0.0566890544961407	-0.0605645886662778	0.0726407859146541	-0.0420260144242845	-0.0315620141843544	0.657470703125	-0.392578125	0.25439453125	0	0	0	0.124001731707295	-0.325832739776533	0.376359321453775	0.858376524246885	0.504373373689144	0.565308364476371	0.652712764519342	-0.726923660393261	0.685954463376892	-0.0323800267724361	-0.466035934101539	-0.458140728626446	0.75691319244662	-2.44956543142892	-40.7464463261062	48.260360986386
22641	1646737224738	6.44175181620268	-0.348850512991563	7.35778502300382	0.0720175011470736	0.0296593138535686	-0.0275560068092222	-0.0111929581873329	-0.0462154884396177	-0.0154825588102532	0.64794921875	-0.39013671875	0.251220703125	0	0	0	0.124063380313265	-0.326047469784712	0.37624680987783	0.858335402490769	0.504262771007488	0.564990811496552	0.653073074548566	-0.726793016472866	0.686093231444005	-0.0323726577993686	-0.466359270286463	-0.458324623701575	0.756602650224467	-2.45001259742475	-40.7737012454091	48.2506100763246
22642	1646737224739	6.42942577094845	-0.496688757179107	7.35828939825229	0.171257480070142	-0.0834462476312295	-0.0304410254328236	0.0253503392544947	-0.044340266573608	-0.0241560497301679	0.65771484375	-0.3935546875	0.2509765625	0	0	0	0.124294965317569	-0.326175076589109	0.376156946965872	0.85829280100564	0.504231541322805	0.564621759593939	0.653416269561963	-0.726789438922334	0.686113425692037	-0.0320230941056081	-0.466398610853621	-0.458748989838867	0.756321162017586	-2.42448973345344	-40.7996719346796	48.2337738240836
22643	1646737224739	6.37379822417695	-0.261316187245758	7.4146634651818	-0.0541216242721205	0.014249685537464	-0.0317013646262403	0.060767546874324	-0.0494072367678573	-0.0245147985585475	0.6552734375	-0.390380859375	0.244140625	0	0	0	0.12468097038866	-0.326269524848799	0.376122750291979	0.858215899113201	0.504159747735474	0.56422984670473	0.653810086226008	-0.726948250570311	0.68597266467148	-0.0314283998363544	-0.466228688259386	-0.459441164253995	0.756005705555763	-2.38050903044784	-40.8294858555382	48.2180613527505
22644	1646737224740	6.45181416618555	-0.371480747907159	7.30550992211107	0.115744776897165	0.0269908720184508	-0.0597261644437523	0.00407395798337289	-0.0442652257613327	-0.0159935070698094	0.6484375	-0.380615234375	0.248291015625	0	0	0	0.124807785275241	-0.326441829483497	0.3760331613079	0.858171201040295	0.504069587120508	0.563916695823093	0.654149685861062	-0.726886622859226	0.686044156662952	-0.031293012269962	-0.466422221649515	-0.459718800225294	0.755717497396313	-2.37116888901588	-40.8552060397517	48.2073485691192
22645	1646737224740	6.41215194564457	-0.439322933763468	7.34252717715792	0.126393650731017	-0.0635910260534352	-0.055567854203538	0.0330634853329217	-0.0403865536204954	-0.0170308067860772	0.648193359375	-0.391357421875	0.252685546875	0	0	0	0.125046448961019	-0.326557115329021	0.375991158163492	0.858110998072571	0.503982198821729	0.563614680686575	0.654477222663543	-0.726953911305967	0.685988069170232	-0.0309577097514337	-0.466411785987201	-0.460172642244917	0.755447672060456	-2.34662742588025	-40.8800220870969	48.1970333616415
22646	1646737224741	6.40820167767127	-0.310938274245456	7.34206321455454	0.031507537672899	0.0166954499306081	-0.0624899887946029	0.0453203081676257	-0.0434901543160221	-0.0216394346757859	0.65673828125	-0.38671875	0.246826171875	0	0	0	0.125357983350346	-0.326644964595957	0.375945099150333	0.858052286017168	0.503936699057906	0.5632659954192	0.654812356134978	-0.727056211552376	0.685901316870362	-0.0304737388354355	-0.466301478215252	-0.4607285555725	0.755176886228882	-2.31080936847926	-40.9054233350966	48.1819848172013
22647	1646737224742	6.46143897030245	-0.389734663135156	7.27846083077084	0.145021276372143	0.0169282445675289	-0.0732438577238348	0.0236183425820609	-0.0295994947502782	-0.0131906747473317	0.656005859375	-0.384765625	0.25146484375	0	0	0	0.125524534999304	-0.326739849995122	0.375912628761509	0.858006035570838	0.503861531925554	0.563042873176589	0.655062042565958	-0.727098344122109	0.68586657330164	-0.0302496545823638	-0.466317010863341	-0.461052889148866	0.754969323076747	-2.29446535088628	-40.9243545179355	48.1749514469772
22648	1646737224742	6.41699007519343	-0.380628924003252	7.32727463094375	0.0935127847158278	-0.0284552889884642	-0.0657884926686023	0.0311265648443242	-0.0282786547181081	-0.0180936750744155	0.6640625	-0.391357421875	0.249267578125	0	0	0	0.125740776502026	-0.326791297713818	0.37586809975804	0.857974286588745	0.503861238645597	0.562788346425463	0.655280954490681	-0.727152312540024	0.685824857417895	-0.0298961421494329	-0.466233167587013	-0.461425554207195	0.754793409726372	-2.2682072090078	-40.9409568455546	48.162093797383
22649	1646737224743	6.39960465854761	-0.389361654198669	7.40316617149191	0.0553710599285216	-0.0834438097904361	-0.019660181135972	0.0250545873559756	-0.0299769487258132	-0.0177906588866817	0.65234375	-0.38232421875	0.249267578125	0	0	0	0.12591625136943	-0.326893284096913	0.375819830929505	0.857930844027374	0.503800470984905	0.562532495640501	0.655547310866163	-0.727177203365802	0.685809104642377	-0.0296510858943093	-0.466260013662418	-0.461760829150862	0.75457175690681	-2.25029422233856	-40.9611630003717	48.1525804675806
22650	1646737224744	6.44644457647646	-0.46275376363016	7.23979862714857	0.208847727956827	-0.0360785738877873	-0.110081912957575	0.028046920949313	-0.0267083462028641	-0.0166310643481202	0.662353515625	-0.38330078125	0.24951171875	0	0	0	0.126113930564736	-0.326944673585462	0.375777507543082	0.857900764515522	0.503796890477609	0.562295066291761	0.655753727834648	-0.727224177744029	0.685773082684444	-0.0293304341937746	-0.466190613858337	-0.462103383983952	0.754404913863217	-2.22647558519418	-40.9768263261697	48.1407616927236
22651	1646737224745	6.44489757675295	-0.349480783611609	7.29257755508226	0.101274424830322	0.0120570985369096	-0.0746113353870754	0.0446225804714308	-0.0238809145811681	-0.0249665623031241	0.65234375	-0.387939453125	0.24658203125	0	0	0	0.126361355400892	-0.326989643902823	0.375738674760123	0.857864225230928	0.503796442139623	0.562027825013546	0.655983131488913	-0.72730324343601	0.685706512301511	-0.0289235384204298	-0.466067738612016	-0.462527083420896	0.754221161283109	-2.19615293637942	-40.9942382916856	48.1272497628009
22652	1646737224745	6.47069862871859	-0.34368789532475	7.29015203923693	0.113111350295515	0.0273369094645142	-0.0596962312030325	0.0368205699930307	-0.0142853650189948	-0.0179924880742795	0.6572265625	-0.390380859375	0.248291015625	0	0	0	0.126575542557177	-0.326970369166506	0.375712663597289	0.857851388135559	0.503860744199499	0.561838356259343	0.656096038618225	-0.727384163768827	0.685637252877974	-0.0285278068605024	-0.465871901656509	-0.462859826407245	0.75413801942695	-2.16637259919607	-41.0028097439392	48.1140131454248
22653	1646737224746	6.44908904087205	-0.365686914516932	7.29514681779636	0.116163974782931	-0.00532486743705513	-0.0694784350060278	0.0245198571745146	-0.0131285294135468	-0.0177955571955325	0.655517578125	-0.37890625	0.250244140625	0	0	0	0.126702362291866	-0.327023719227056	0.375679178900654	0.857826994791546	0.503841283206869	0.561666126581128	0.656258427441362	-0.727404837587287	0.685623331860382	-0.0283345912848747	-0.465860669719036	-0.463089417996158	0.75400399690513	-2.15209594650573	-41.0151396011997	48.1063815914441
22654	1646737224747	6.45569323138834	-0.401414226620086	7.35110549028843	0.120708015052164	-0.0552268728716562	-0.0219652828978809	0.0339638464275012	-0.0169880237362531	-0.0130713603100668	0.65869140625	-0.38916015625	0.256103515625	0	0	0	0.126901311176216	-0.327024503862641	0.375667886351917	0.8578022326032	0.503857226074554	0.561497826606157	0.656390193748366	-0.72749717991384	0.685539392771282	-0.0279927522082623	-0.465699204368943	-0.463417664397188	0.753902062190301	-2.12644344499056	-41.025146048536	48.0969452300092
22655	1646737224747	6.45062485134144	-0.330565509513362	7.31309109508213	0.0844731209840566	0.00503527288461623	-0.0559474545515908	0.0319524204163754	-0.00863003021568146	-0.0214657832106797	0.649169921875	-0.3896484375	0.24609375	0	0	0	0.127049120749499	-0.327052730056373	0.375636768898837	0.857783218844187	0.50386705922783	0.561326309899777	0.65652932945863	-0.72753335706932	0.685511077536042	-0.0277448540601804	-0.465632044619509	-0.463667269051498	0.753790065358904	-2.10794201647033	-41.0357137854323	48.0876881411749
22656	1646737224748	6.45316852697218	-0.351016588977291	7.3169430133077	0.10066523454557	-0.0125040955133025	-0.0508247898598846	0.0275507261899812	-0.0131817500960836	-0.0193994243878234	0.653564453125	-0.38330078125	0.253173828125	0	0	0	0.127223767449063	-0.327045175808101	0.375590239298158	0.85778058856602	0.503946850249201	0.561132194264957	0.656634017305915	-0.727563871834349	0.685492170280038	-0.0274097954420583	-0.465497996263487	-0.463930107930234	0.75371113195343	-2.08272606734601	-41.0436662316906	48.0733267158529
22657	1646737224748	6.45500624474402	-0.343272005481226	7.34037536338544	0.0849890046218231	-0.0196669647387528	-0.0321740322926836	0.0305357398230739	-0.00644408890828816	-0.0139665395004773	0.65673828125	-0.393798828125	0.25244140625	0	0	0	0.127344925605696	-0.327078749794839	0.375591277998487	0.857749353393279	0.503901366648218	0.561022713567059	0.656762459000142	-0.727629989806371	0.685428923627887	-0.0272357960907796	-0.465443885580679	-0.464155906475584	0.75360552271025	-2.06980607260422	-41.0534244142404	48.0703397521381
22658	1646737224749	6.45323220497256	-0.349384272473929	7.29228140023171	0.112842590717698	-0.00484530407861631	-0.0694391515183348	0.027348326936204	-0.00183620526599996	-0.0127829904645218	0.657958984375	-0.382080078125	0.24853515625	0	0	0	0.127486551147215	-0.327027116810817	0.375580030665855	0.857752927545006	0.50398581087088	0.560926623154504	0.656779739240871	-0.727692860169817	0.685373639683248	-0.0269457841824658	-0.465254128083451	-0.464353634059025	0.753600888293987	-2.04779783347805	-41.054737367425	48.0606876901771
22659	1646737224749	6.42949475464707	-0.315012835656063	7.33707304149663	0.0548855701631162	-0.0171455481272311	-0.0522073699071086	0.0289467033160005	-0.00150431626755984	-0.00978652122508317	0.658935546875	-0.386962890625	0.247314453125	0	0	0	0.127578010255685	-0.327059409469776	0.37560268968205	0.857717094081779	0.503909524361782	0.56087051765567	0.656886180157677	-0.727772872437883	0.68529294160562	-0.0268371073148588	-0.465211604972399	-0.464540468215825	0.753511987952963	-2.0397861356095	-41.0628253292534	48.0621503662638
22660	1646737224749	6.45507282306526	-0.307059139132209	7.3595975979722	0.0527808664896892	-0.00927402471130826	-0.018655743875982	0.0122896307281985	-0.00295633302278262	-0.00309862612628104	0.651123046875	-0.38525390625	0.25146484375	0	0	0	0.127641310029504	-0.327047044810002	0.375607636105161	0.857710225049515	0.503918268361075	0.560835593706495	0.656909290270627	-0.727814446669801	0.68525319934689	-0.0267242212904857	-0.465137087352435	-0.464641248294568	0.753495852909994	-2.03125676097343	-41.0645814931958	48.0598823865216
22661	1646737224750	6.45695330616831	-0.391273664211324	7.30124031123264	0.141096711933792	-0.0393850480956835	-0.0591243461690585	0.0182356249637112	0.00344673089750859	-0.00231315888887966	0.654296875	-0.392333984375	0.2490234375	0	0	0	0.127665318003008	-0.327081185978219	0.375647846682463	0.857676022540622	0.503813186123822	0.560854454795708	0.65697378488306	-0.727882149278549	0.68518052372404	-0.0267437220837214	-0.465144977667613	-0.464725650728535	0.753438928716546	-2.03289118539607	-41.0694827607311	48.0667807578286
22662	1646737224751	6.4805838331643	-0.359386891379641	7.31951394896158	0.122795818956998	-0.013973678305664	-0.0307072112602853	0.0275163465653607	-0.00112081792739293	-0.00518517208618672	0.654052734375	-0.385498046875	0.24560546875	0	0	0	0.127793872224643	-0.327031034152996	0.375669913570793	0.857666336613701	0.50384563747707	0.560813752712413	0.656983643908998	-0.727984001480577	0.685081684519089	-0.0265024362052674	-0.464950392174963	-0.464920445135625	0.753438857845307	-2.01456550648952	-41.0702320295191	48.0628789026878
22663	1646737224753	6.45618000815505	-0.358935923776094	7.3210288720881	0.108570898570653	-0.0288838496333817	-0.0456030001869756	0.0182359257485126	0.00344677779293599	-0.00231387577946386	0.650634765625	-0.392578125	0.247314453125	0	0	0	0.127806672432431	-0.327078946201005	0.375713569971442	0.857627034772752	0.503717352582709	0.560838486403672	0.657060895865447	-0.728049973350298	0.685009535642128	-0.0265550820745573	-0.464986091202411	-0.46499691208415	0.753369634867579	-2.01874936208899	-41.0761033391832	48.07138834604
22664	1646737224753	6.4314770951706	-0.359008309416536	7.32278059421257	0.0967479328176667	-0.0441652438941549	-0.0605291746839445	0.0181963054153403	0.00677214064897962	0.000442431186140078	0.6591796875	-0.38525390625	0.251220703125	0	0	0	0.127871169695823	-0.327016121586662	0.375749607699357	0.857625589926524	0.503745377072393	0.560873089982286	0.657009872081017	-0.728136825888998	0.684922392548802	-0.0264211841051582	-0.464819704683964	-0.465083533485056	0.753418840366079	-2.00844756365665	-41.0722253664542	48.0715610698849
22665	1646737224754	6.43278667276305	-0.381759127639566	7.32768148596568	0.110310255642966	-0.0612122214319952	-0.0553575543933498	0.0152401890790449	0.00364227665683474	0.000810563552297761	0.65771484375	-0.382080078125	0.250732421875	0	0	0	0.127855910829932	-0.327078398884955	0.375805222436329	0.857579746634845	0.503580311544872	0.560928081677532	0.657089458909466	-0.72820370808646	0.68484660171086	-0.0265422616635563	-0.464893782872497	-0.465128820124759	0.753345174097405	-2.01784100689529	-41.0782743228418	48.0836882207104
22666	1646737224755	6.43538300736085	-0.400218267044044	7.35632813970529	0.112547628224415	-0.0861572514844785	-0.0315932140889767	0.0107526280500977	0.00046642709162049	0.00122148534802453	0.656494140625	-0.394287109375	0.245849609375	0	0	0	0.127899014089431	-0.327057128835722	0.375828438949751	0.85757125718466	0.503573237908653	0.560938765093755	0.657085759910598	-0.728259902409791	0.684789653343089	-0.0264697037447306	-0.464813412676825	-0.465199776966138	0.753350953345371	-2.01231400190699	-41.0779931699811	48.0846307644298
22667	1646737224755	6.41305809058818	-0.391660435272113	7.40573364616705	0.0699293777021067	-0.115625311606173	-0.0092520766694335	0.0153268113767669	0.00226751625007815	0.00247153917377154	0.65478515625	-0.385009765625	0.245361328125	0	0	0	0.127873511770908	-0.327135424862075	0.375896450790816	0.857515385908936	0.503368544166353	0.56101006891981	0.657181718639857	-0.728337891326936	0.684700446540485	-0.0266310826796772	-0.464912921740489	-0.465245097854723	0.75326155757537	-2.02481245358899	-41.0852871734608	48.0998303730488
22668	1646737224756	6.45593029849393	-0.381574825107863	7.30265814823823	0.133161217663451	-0.0378914330745539	-0.0590068619360782	0.0261462104952876	-0.00572603105160415	-0.00471491556933749	0.652099609375	-0.379150390625	0.25341796875	0	0	0	0.128003946955866	-0.327108054379205	0.375915412289014	0.857498054299572	0.503375847127665	0.560951225154917	0.657226353340844	-0.728435713321286	0.684605184734602	-0.0264036473353893	-0.464751727362702	-0.465456189164674	0.753230620647942	-2.00761670361662	-41.0886802169116	48.096429725544
22669	1646737224756	6.4577848978374	-0.341946385422683	7.36976515424064	0.0726258655555239	-0.0418339352898572	-0.00828392611743922	0.0200343029954761	-0.00410246374834839	-0.00164757535646868	0.65087890625	-0.396484375	0.253662109375	0	0	0	0.128020335186936	-0.327181977126758	0.375967830999231	0.857444422499665	0.503200287794319	0.560971146701391	0.657343778347556	-0.728514932216959	0.684517967664717	-0.0264791518196224	-0.464817667371449	-0.465560441309926	0.753125495244101	-2.01363381651701	-41.0976074752835	48.1073757180967
22670	1646737224757	6.4311065483349	-0.384237906457932	7.27973942704697	0.132815967916479	-0.0450360638909239	-0.0925172078471856	0.0183966645111925	-0.00111097183231241	-0.00188929198781108	0.6513671875	-0.3828125	0.252197265625	0	0	0	0.128104327163559	-0.327151142880776	0.37598909629847	0.857434318498177	0.503208658352924	0.560952955015787	0.657352894888056	-0.728590863173912	0.684442961653263	-0.026328432213201	-0.464689574079455	-0.465692618045818	0.753122822147548	-2.00218864777362	-41.0983006127546	48.1059783962129
22671	1646737224758	6.42835615029774	-0.301620086334506	7.31394139133401	0.0534074598693073	-0.00597794928847489	-0.0707374655346875	0.0278782055778901	-0.00481196198326363	0.00435921961825345	0.65283203125	-0.39306640625	0.248779296875	0	0	0	0.128110802143964	-0.327228588710138	0.376084177328104	0.857362096589443	0.502964284588429	0.561037603568092	0.657467669023369	-0.728723671504464	0.684296627874947	-0.0264562973227695	-0.464745886498744	-0.465805681010386	0.753018146209603	-2.01218382917499	-41.1070276029228	48.1241090458749
22672	1646737224758	6.4581649444268	-0.371306571031149	7.32586487040114	0.113751291208165	-0.0432995158087009	-0.0403158553240797	0.00199749710672568	-0.00667784641738456	0.00978635422465923	0.650390625	-0.38916015625	0.246826171875	0	0	0	0.128115723613182	-0.327259797185638	0.376125326618974	0.857331397526567	0.50286152764357	0.56107385237888	0.657515335328916	-0.728782355282645	0.684232200077682	-0.0265061314705815	-0.464765061772779	-0.465856660952248	0.752974773018172	-2.016086964251	-41.1106523089873	48.1317674952212
22673	1646737224759	6.46354774496367	-0.443545511335403	7.33917776286661	0.159151808304405	-0.0948129942375397	-0.0247665670618335	0.00658576977745518	-0.00306755361182075	0.0139312047366619	0.65576171875	-0.384033203125	0.25	0	0	0	0.12801650040164	-0.327386762013123	0.376228669194396	0.857252396998511	0.502539793069553	0.561224041871423	0.657633128124728	-0.728867672074402	0.68412752820226	-0.0268596679187852	-0.464979217800595	-0.465829475217454	0.752859367366959	-2.04326761715085	-41.1196105274847	48.1576134975043
22674	1646737224759	6.38909756125546	-0.423526178907712	7.33854847636224	0.107567814709138	-0.123134342211406	-0.0747459599300342	0.0248824171815022	-0.00461676115905908	0.00748232679440069	0.650634765625	-0.392333984375	0.255859375	0	0	0	0.128119207732942	-0.327364747257643	0.376298905055699	0.857214631767742	0.502462912613644	0.561254430547163	0.65766593772142	-0.729021278780539	0.683969205327531	-0.0267226729354355	-0.464821467375381	-0.466025310852111	0.752835581725646	-2.03291907981043	-41.1221059362961	48.1635115784122
22675	1646737224760	6.41278680397612	-0.3643131648973	7.37551133612599	0.055834943625168	-0.0861348252926482	-0.0329026362800171	0.00833518874250714	-0.0125685781531905	0.0101868201359187	0.6552734375	-0.3828125	0.2470703125	0	0	0	0.128035159951724	-0.327524084196684	0.376390056905279	0.857126301749107	0.502116998667929	0.561358437964386	0.657841336322745	-0.729096831997043	0.683875045757955	-0.0270690110907257	-0.465076691762322	-0.466038223663831	0.752669944174519	-2.05969689009347	-41.1354478874396	48.1883952471613
22676	1646737224761	6.41766219436783	-0.440934184932398	7.36441281421049	0.118334081472472	-0.131336804667212	-0.0359734634636837	0.00374097489763914	-0.0127056237788629	0.0103156401216984	0.6513671875	-0.390625	0.243408203125	0	0	0	0.128057792971309	-0.327578171247231	0.376432760007229	0.857083496851373	0.50198183783132	0.561370737281822	0.657933985906758	-0.729166487823815	0.683799157705315	-0.0271098682435937	-0.465113392112261	-0.46613475223927	0.752587486763274	-2.06302886720889	-41.1424965089086	48.1966837113335
22677	1646737224761	6.43552431089114	-0.348136865315522	7.31974918503935	0.076304727798987	-0.037341325629564	-0.0603192774974346	0.0194114269211275	-0.0246904564845132	0.007988871040318	0.646728515625	-0.382080078125	0.250244140625	0	0	0	0.128064651108493	-0.327765607853606	0.376525063593948	0.856970260820286	0.50159716558786	0.56139118747669	0.658209858705973	-0.729291940337231	0.683656643244067	-0.0273287377573674	-0.465331655094925	-0.466319127606584	0.752338302889632	-2.08035821893918	-41.1634889265068	48.219544706726
22678	1646737224762	6.37341222866928	-0.405896620949583	7.43198300023081	0.0335405711130698	-0.165400206572308	-0.0151864429764093	-0.00681955636720063	-0.0175797444990522	0.0110479439293661	0.65185546875	-0.37841796875	0.25048828125	0	0	0	0.128049970637217	-0.327861201371722	0.376550381837587	0.85692476192071	0.501433685146116	0.56138545819719	0.658339294532475	-0.729315927032118	0.68362602991555	-0.0274541399280015	-0.46547023318153	-0.466370902337007	0.752220475309797	-2.09022289141781	-41.1733406058772	48.2285335499613
22679	1646737224763	6.40170632098688	-0.552141637314567	7.30785960354282	0.208147554946807	-0.192007510809343	-0.0858521787523276	0.0105277120491561	-0.0393604863348126	0.00193570835101795	0.657470703125	-0.38671875	0.24755859375	0	0	0	0.128064049508043	-0.328069869468669	0.376579950681145	0.85682979681813	0.501115402983593	0.561301933244349	0.658652786093514	-0.729357757267281	0.683574279937175	-0.0276308834895949	-0.465747372302447	-0.46654725756833	0.751939519940824	-2.10445253310307	-41.1972073625775	48.2423720267617
22680	1646737224763	6.44389082076867	-0.275843440296826	7.42492968239117	-0.0279107630580432	-0.0378109500902195	0.0223108127407734	0.0395022747949875	-0.0337960510457984	0.00219567892609819	0.656494140625	-0.38623046875	0.24560546875	0	0	0	0.128293044028418	-0.328141802514115	0.376632779399587	0.856744770499623	0.500941413849059	0.561159706863653	0.658906278072689	-0.729552949733684	0.683377288671329	-0.0273491291105138	-0.465628815072464	-0.467006707361812	0.75172770459342	-2.08359867541309	-41.2165125930334	48.245043282052
22681	1646737224764	6.42690586369441	-0.443514418670766	7.33155947832723	0.123810826002335	-0.119775315373707	-0.0544133586563475	-0.0184466504373716	-0.0414501761895248	0.00595836988732196	0.656005859375	-0.383544921875	0.244384765625	0	0	0	0.128149779511277	-0.328478174798095	0.376658938755148	0.856625803106799	0.500460265074316	0.561122720467681	0.659303280483795	-0.729500343166252	0.683411355734114	-0.0278956658637427	-0.4662282406741	-0.467001297030971	0.751359445385046	-2.12623953200256	-41.2467586266122	48.2705186142883
22682	1646737224765	6.40577809321605	-0.444096146966779	7.3302183030633	0.112021137850139	-0.135071280735682	-0.0693553259418635	0.0459477896053938	-0.0462035765948911	-0.00140666277140355	0.652099609375	-0.38916015625	0.24951171875	0	0	0	0.128435683229904	-0.328588996528184	0.376698846942834	0.856522927507378	0.500254500145082	0.560897293802407	0.659651166064103	-0.729707502886111	0.683204507970415	-0.027541977427563	-0.466124870948023	-0.467574407013515	0.751067093267738	-2.10012169171118	-41.2732741584232	48.2707865221243
22683	1646737224765	6.51608292697866	-0.185592155852912	7.32260189253253	-0.0219770733540256	0.103912152092214	-0.00947375040297693	0.0322013922931708	-0.0429906476244844	0.0047848921107292	0.661865234375	-0.396240234375	0.24755859375	0	0	0	0.128500976443305	-0.32881760274133	0.376798717716308	0.856381462613424	0.499803420909582	0.560860107929493	0.660024605435582	-0.729873640025524	0.683020450760926	-0.0277043938434248	-0.466348592839059	-0.467887810458509	0.750732966361124	-2.11343437706056	-41.3017493689071	48.2945736035824
22684	1646737224765	6.43541057791684	-0.383169419842799	7.36207120859075	0.0602823677954564	-0.0975508487248335	-0.0275829572080521	-0.0257802495882399	-0.0438345938576907	0.0156097127813865	0.6552734375	-0.3916015625	0.249755859375	0	0	0	0.128447279449729	-0.329064394328073	0.376795037455781	0.85629633920516	0.49948424826839	0.560761569977686	0.660349867394492	-0.729831274838541	0.68305359230132	-0.0280017912250909	-0.466756677509077	-0.46795753191975	0.750435841574923	-2.13694545724844	-41.3265611269822	48.3077522895876
22685	1646737224767	6.4419330021509	-0.493596591945241	7.30565337485913	0.162642423061216	-0.143182338930729	-0.0624179191152727	0.0214976290368352	-0.0449753534157233	0.00371306911531171	0.646728515625	-0.3837890625	0.24853515625	0	0	0	0.128436156108442	-0.329361580684179	0.376897153464024	0.856138796389945	0.49893896975987	0.560748679873218	0.660772897806351	-0.729956421444724	0.682905379029608	-0.0283525322332921	-0.46714401124982	-0.468189236647822	0.750050205946614	-2.16479822699733	-41.3588450386065	48.3381794137198
22686	1646737224767	6.45708925420958	-0.29423077860846	7.28888910108225	0.0310312751808114	0.00499256690015964	-0.0706399379661562	0.0335721199162133	-0.0418694759699402	2.1691892401167E-05	0.65478515625	-0.38525390625	0.240478515625	0	0	0	0.128658255677773	-0.32947825079302	0.37692590759786	0.85604789333416	0.498741884871803	0.560553064222842	0.661087584564181	-0.730113452346017	0.682747826854964	-0.0281025199618184	-0.467109065398973	-0.468653034893839	0.74978227100065	-2.14649304533196	-41.3828710061488	48.3394933387321
22687	1646737224767	6.41611179034927	-0.277902929344697	7.3849420308985	-0.0506719450697675	-0.0536401349236176	-0.0261842599048965	-0.0091416053343318	-0.0407359439372442	0.0102809437682722	0.64794921875	-0.394775390625	0.24658203125	0	0	0	0.128567372384489	-0.329743533994099	0.376956544397821	0.855945907276204	0.498345930849471	0.560520303343798	0.661413881578812	-0.730097342249385	0.682748388787603	-0.0285045338203647	-0.467556631913353	-0.4686913986274	0.749479265094461	-2.17804920277799	-41.4077927810657	48.3604278036419
22688	1646737224768	6.49800806245155	-0.528588686886944	7.2272610648681	0.242176635043644	-0.106466352560503	-0.0829992943308397	-0.0460110583098549	-0.0457335106731814	0.00256429259654987	0.648193359375	-0.387451171875	0.2509765625	0	0	0	0.12845193640717	-0.330028461528271	0.376862459089598	0.855894854256918	0.498111803020446	0.56032368908922	0.661756749219203	-0.729894868900363	0.682949573924378	-0.0288679723817352	-0.468121898702296	-0.46863337794267	0.749162629229062	-2.20672387425808	-41.4339904844743	48.3638159481922
22689	1646737224769	6.43120723176038	-0.398735382963864	7.4019711818317	0.0274050791069449	-0.138619793021589	-1.07394724668808E-05	0.071809587736981	-0.0478436160909673	-0.0112328385726594	0.659423828125	-0.390625	0.24755859375	0	0	0	0.128689458869018	-0.330161884011161	0.37694249005048	0.855772465505139	0.497814979081488	0.560177299743147	0.662103949130779	-0.730130716513434	0.682706764741086	-0.0286462943561268	-0.468069848853434	-0.469161876359573	0.7488643070444	-2.1906664263265	-41.4605299852578	48.3733405527848
22690	1646737224770	6.51011348829891	-0.197786832602826	7.23278215295333	-0.000996125175528252	0.117269043567394	-0.0802631394411897	0.0070994867372668	-0.0288224210461184	0.00102564274524985	0.64990234375	-0.38427734375	0.246826171875	0	0	0	0.128771582166175	-0.330273128202297	0.376940871759615	0.855717897213206	0.497670479969141	0.560050513780538	0.66231979842176	-0.730169686842864	0.682666917647043	-0.0286025867025843	-0.468162708663428	-0.469371176750811	0.748675080827778	-2.18787952816859	-41.4770346947317	48.3751599312594
22691	1646737224771	6.47770094958239	-0.421169114537967	7.25106618954717	0.132221789461071	-0.061895113573072	-0.0815703002969261	-0.0156518367586828	-0.0320966444921837	0.00657970652017559	0.654296875	-0.38623046875	0.239501953125	0	0	0	0.128619375856256	-0.330529666368078	0.376972656243603	0.855627729944277	0.497283512190499	0.560071477445079	0.662592671749371	-0.730121555006034	0.68269734519798	-0.0291006834146955	-0.468648720705662	-0.46930190177765	0.748414391609908	-2.22671669009211	-41.4979057098097	48.3983532937223
22692	1646737224772	6.48344033025068	-0.378762713647014	7.3399200720457	0.059962916794201	-0.0738290186556173	-0.0124915077223147	0.0181925586146124	-0.0391390320802872	0.00169558677370063	0.652099609375	-0.38427734375	0.24755859375	0	0	0	0.128767275594544	-0.330664508652389	0.376985650225811	0.855547655585272	0.497085604482994	0.55990084265001	0.662885320561246	-0.730215914309917	0.682601616519563	-0.0289784680998079	-0.468711660089984	-0.469644631103868	0.748159942907266	-2.21812778687036	-41.520296751654	48.4010086036217
22693	1646737224773	6.52358928164325	-0.265012399758367	7.26399432417216	0.0283662967341511	0.0605464988490079	-0.0459790570180338	0.0104318163240328	-0.027706440599513	0.0115612946658175	0.660888671875	-0.390869140625	0.2509765625	0	0	0	0.12873812040493	-0.330847410277427	0.377067318421277	0.855445337146631	0.496720456982615	0.559935611187821	0.663129624537092	-0.73030630614764	0.682493467466387	-0.0292466419730296	-0.468957873178362	-0.469760341226704	0.747932974934652	-2.23931274330752	-41.5389947853429	48.4236775508822
22694	1646737224773	6.43596154323623	-0.36245669173473	7.31084699142708	0.0319519188493959	-0.0781797220675573	-0.0661840849432558	-0.00822600510293839	-0.0189865293223473	0.0127930721517576	0.658203125	-0.389404296875	0.24560546875	0	0	0	0.128716706739246	-0.330953165301222	0.377096918395079	0.855394602461484	0.496535833028075	0.559934934155013	0.663268449447083	-0.730331740245024	0.682459847086276	-0.0293956851536377	-0.469113755617751	-0.469809989919114	0.74780402356661	-2.25110046410571	-41.5496222889326	48.434216956827
22695	1646737224774	6.49689895679559	-0.595374103303684	7.25135391247819	0.253579706625114	-0.173807357134124	-0.0632367751444907	-0.0183461945507045	-0.0376726886007865	0.0133372636715597	0.66015625	-0.389404296875	0.239990234375	0	0	0	0.128539814311896	-0.331266356758335	0.377177135028063	0.855264594046045	0.496000019384164	0.560010666575463	0.663605330066459	-0.730334330517442	0.682429849897372	-0.0300210865341504	-0.469676214469659	-0.469763294959021	0.747480234033446	-2.29993717507098	-41.5754188759573	48.4687698172492
22696	1646737224775	6.53647580748129	-0.391719631193847	7.25775685955374	0.119700157589377	-0.0176718505839494	-0.0382639130807654	0.0391329534175825	-0.0180396361165856	0.00673313313556003	0.65185546875	-0.3857421875	0.2431640625	0	0	0	0.128729160618914	-0.3312747622231	0.377259882157368	0.855196361331705	0.495864026457275	0.559973112844398	0.663738638439058	-0.730552001145238	0.682207569041918	-0.0297759359988341	-0.469481246577824	-0.470130775033153	0.747371670240758	-2.28150695296356	-41.585629791566	48.4746608657193
22697	1646737224776	6.53028821774821	-0.266977117184229	7.25790058615951	0.0218607966996883	0.0638291504990094	-0.0459832308700303	-0.00530846755657775	-0.0108608658151115	0.0165371799467843	0.648681640625	-0.38818359375	0.24267578125	0	0	0	0.128590459983476	-0.33144882974941	0.377362330609497	0.855104577403228	0.495478689389431	0.560126197530539	0.663897214334351	-0.730610827444385	0.682124330076414	-0.0302360238595418	-0.469796431640305	-0.470069187628569	0.747212333717969	-2.31721540176206	-41.597778206913	48.5045394668384
22698	1646737224776	6.46487957878992	-0.459032562394168	7.19811978659412	0.155860206955359	-0.0753578582257024	-0.128249551056845	-0.00823942057062307	-0.0121753169735938	0.0198165883950918	0.6533203125	-0.3896484375	0.2451171875	0	0	0	0.12854447412966	-0.331530386402205	0.377426124585761	0.85505171863631	0.495274246744356	0.560204914614444	0.663983338762075	-0.730670511326742	0.682051677301806	-0.0304321107928756	-0.469919167931387	-0.470080804895941	0.747127842125467	-2.33248994402671	-41.6043771120082	48.5202692592059
22699	1646737224777	6.53626022278174	-0.313111835411141	7.28966152440748	0.037628594608439	0.0231355884647746	-0.0168744480478757	0.0115765020837709	-0.00508268977489228	0.0231641367515135	0.654296875	-0.3828125	0.24169921875	0	0	0	0.12843617459415	-0.331623130006546	0.377571080184879	0.854968027535712	0.49493235810537	0.560437590910431	0.664041917046485	-0.730807215810347	0.681888456927289	-0.0308049611077394	-0.470066776341178	-0.47004025253571	0.747060497400565	-2.36124776417647	-41.6088658007858	48.5517069539895
22700	1646737224778	6.4970100770941	-0.523544939599657	7.25769753088577	0.185498466201918	-0.125626394652511	-0.0602917711516735	-0.0302594524247635	0.00905775390397571	0.0245616510792099	0.64990234375	-0.38916015625	0.242431640625	0	0	0	0.128247849215655	-0.331658607132809	0.377632550383143	0.854955387360888	0.494792450411697	0.560648960708515	0.663967750626527	-0.730786972863085	0.681892292125363	-0.0311977921274244	-0.470245501104685	-0.469782550544909	0.747110114972567	-2.39116550180089	-41.6031826897346	48.5704630035732
22701	1646737224779	6.47010863241104	-0.4736258998512	7.27438108904387	0.125178533985407	-0.112186348437245	-0.0671759941478687	0.0294134919324723	0.00200933413472969	0.0112265933572592	0.659912109375	-0.397705078125	0.241455078125	0	0	0	0.128256034782634	-0.331680429051558	0.377750249129352	0.854893696203641	0.494585684533774	0.560792580149765	0.664000514083558	-0.730952646730387	0.681710277649097	-0.0312941781396149	-0.470205517717626	-0.469875280682611	0.747076965052021	-2.39865073207076	-41.6056931761113	48.5896240925133
22702	1646737224780	6.48230234093754	-0.213761631413164	7.32320418975542	-0.0808696450900738	0.048980505740207	-0.0307489958329015	0.0125033262634164	0.00985354819391991	0.0186381142390036	0.65380859375	-0.39111328125	0.24462890625	0	0	0	0.128258825414188	-0.331628185765222	0.377857683226753	0.854866066314456	0.494492635265157	0.560966939412525	0.663922530537009	-0.731103905734467	0.681546489859767	-0.0313282808279967	-0.47006820003945	-0.469904751035755	0.747144840218881	-2.40104370289777	-41.5997178794596	48.6038074673146
22703	1646737224781	6.492823550202	-0.446350609865095	7.29308372687325	0.102723566577023	-0.0848688856102308	-0.0388805997798283	-0.0480452346876191	0.00560020056060551	0.0422833106213511	0.654541015625	-0.394775390625	0.25244140625	0	0	0	0.127825075636616	-0.331857443585877	0.378040487098855	0.85476123993148	0.493912054501415	0.561429305339958	0.663963867634139	-0.731108116647713	0.681492280305109	-0.0323912589501935	-0.470671652205682	-0.469430939532149	0.74706277435028	-2.48268395761747	-41.6028851635189	48.6606056634
22704	1646737224782	6.49257871618936	-0.478284907905672	7.27408958006149	0.132875485193018	-0.0950254510567581	-0.0521531427514166	0.0174009882946702	0.00767139299097624	0.0263776322409217	0.65673828125	-0.3876953125	0.25244140625	0	0	0	0.127839629052694	-0.331810691339833	0.378187997224584	0.854711959148525	0.493751007735681	0.561646496675357	0.663899958677734	-0.731320719461766	0.681261735997856	-0.0324415220221334	-0.470510305568246	-0.46950576123993	0.747117388712504	-2.48635008827487	-41.5979884697344	48.680861214519
22705	1646737224782	6.50542527660639	-0.277623752156279	7.28446144735075	-0.0153165696739371	0.0484108220871535	-0.0424042171796852	-0.00560726560648599	0.0120180489656993	0.0312314208846348	0.657958984375	-0.388427734375	0.244873046875	0	0	0	0.127579239614369	-0.331849712701239	0.378388947516186	0.854646775104849	0.493395145155397	0.56210351943471	0.663777721964362	-0.731452055485393	0.681090684034026	-0.0330661556316425	-0.470679425153977	-0.469206898458639	0.747198611599049	-2.53388568792628	-41.5886237474505	48.7244513660011
22706	1646737224783	6.47150236434153	-0.494994216972663	7.35355350859346	0.0925238175217752	-0.147271562955927	-0.00606414296482427	-0.0361261297960627	0.0184041142245322	0.0437774904115313	0.66015625	-0.394287109375	0.244140625	0	0	0	0.127315841605596	-0.331868552317065	0.378529201276868	0.854616629980912	0.493157815527343	0.562490452607851	0.663626295221425	-0.731498948770562	0.68101264051391	-0.0336314050826631	-0.470855239889991	-0.468856347067294	0.747307880918469	-2.57676697632753	-41.57702462031	48.7576629492356
22707	1646737224786	6.4711151088421	-0.556078959457039	7.31554916977384	0.149691738787448	-0.166305230334681	-0.0325161644412173	-0.0054921502138014	0.00731030792306806	0.0301441239866783	0.6533203125	-0.39208984375	0.238037109375	0	0	0	0.127120485723187	-0.331980032442062	0.378727825703344	0.854514408425795	0.492708984195571	0.562853841921693	0.6636515723834	-0.731659693819429	0.680811232295037	-0.0342075784143177	-0.471075311742218	-0.468712725040513	0.747259280338538	-2.62102133836623	-41.5789606791223	48.8018618406025
22708	1646737224788	6.50913777904827	-0.411010338556378	7.28580451622548	0.0761618403488592	-0.0304984859009395	-0.0344451580354335	0.0233634036695489	0.0140473648264257	0.0271343570219069	0.6455078125	-0.38623046875	0.24462890625	0	0	0	0.127147154250759	-0.331894579395467	0.378892641751789	0.854470570213036	0.492572708388513	0.563106320731577	0.663538543343905	-0.731904125857122	0.680547934384568	-0.0342178251532733	-0.470838058682736	-0.468791830727716	0.747359178667679	-2.62145539544147	-41.5703038732949	48.8224505402632
22709	1646737224789	6.4828866872767	-0.356966685432965	7.32703546684156	0.0020397664987893	-0.0243689160135886	-0.0228919342359486	-0.0147380818178821	0.0153866548553317	0.0373083381771556	0.646484375	-0.389404296875	0.24072265625	0	0	0	0.126897116888516	-0.331948623525435	0.379045963725125	0.854418744204879	0.49226853744652	0.563481306082921	0.663445932036176	-0.731974599204877	0.680442558218147	-0.0348010213126441	-0.471046572176386	-0.468494122333065	0.747414466129902	-2.66587367215507	-41.5632117101488	48.8588875155435
22710	1646737224790	6.46329317044825	-0.429231507720803	7.36716298617876	0.0246561850483435	-0.0995885729514302	-0.00335704235354584	-0.0160725230843477	0.0160754090796855	0.0449513278226513	0.654296875	-0.380126953125	0.242919921875	0	0	0	0.12672167712777	-0.331940889644034	0.379222748605974	0.85436934007956	0.492010705444115	0.563864366453334	0.663311723077894	-0.732120791425238	0.680263446971311	-0.0352248417681892	-0.471088752244486	-0.468293304413902	0.747513724656505	-2.69793426792709	-41.5529353849081	48.893049583971
22711	1646737224790	6.41386149855366	-0.46437416175816	7.35158218748457	0.0303310473908469	-0.139956347532353	-0.0464949436240456	-0.0175987569669657	0.00922731504502638	0.0379773521874265	0.650634765625	-0.388671875	0.246337890625	0	0	0	0.126512789210677	-0.332002042705078	0.379347897090496	0.854320976436146	0.491739633225349	0.564164722810178	0.663257339689441	-0.732174740595225	0.680179374278308	-0.0357234942395883	-0.471287897520947	-0.468053612680092	0.747538315611581	-2.73597946059949	-41.5487717361286	48.9238049082167
22712	1646737224792	6.45711164315917	-0.365302285688278	7.35429637009095	-0.0249596039571439	-0.046534209321498	-0.0192905164542783	-0.0138031200657579	-0.00500413396449457	0.0484290144347193	0.653076171875	-0.39453125	0.244873046875	0	0	0	0.126381527745538	-0.33208241079659	0.379529416545419	0.854228543108296	0.491357388832437	0.564471556296881	0.66327956290809	-0.732347885952458	0.679970262842796	-0.036152670585509	-0.471417532958559	-0.467987503872995	0.747497963768457	-2.76894746815941	-41.550473136459	48.9613011036154
22713	1646737224792	6.48576117148928	-0.412578657133124	7.3856029133298	0.00298828214208933	-0.0718219646807531	0.0248569751405139	-0.0382669799488808	0.00128948191135142	0.0577355003963601	0.656005859375	-0.395751953125	0.241455078125	0	0	0	0.12600358700024	-0.332239172264506	0.379753242805188	0.854123938931004	0.49080921398388	0.564986016238542	0.663247402500325	-0.732439326027815	0.679821141284034	-0.037092446012555	-0.471846319426618	-0.467583166204875	0.747480456952138	-2.84087525381435	-41.5480109635707	49.0188149176862
22714	1646737224793	6.43532663239265	-0.487769994038159	7.30150441104089	0.0680940791439136	-0.108173168301559	-0.0686135777387751	-0.0270651962536527	-0.0119525600847919	0.0602054725023238	0.655517578125	-0.3984375	0.2373046875	0	0	0	0.125809179828547	-0.332381650857803	0.379958737592723	0.854005764717578	0.490307591799972	0.565340578749041	0.663316286128279	-0.732607230286955	0.679606815995625	-0.0376990952618931	-0.472107097547356	-0.467466154573771	0.747388976887821	-2.88761275894857	-41.5532847489863	49.0656117986313
22715	1646737224794	6.45233001725962	-0.196157590658134	7.41659675275204	-0.200118058384629	0.0498224198920475	0.0175932127128391	-0.00519182783642423	-0.0165956335782552	0.069219621460128	0.651123046875	-0.3916015625	0.243896484375	0	0	0	0.12558458670859	-0.332641080666034	0.380311667692637	0.853780685218055	0.489425893740357	0.565856327202596	0.66352762678071	-0.732954697753566	0.679183093996156	-0.0385711792765882	-0.472482492350172	-0.467457957248132	0.747156846069132	-2.95521043420085	-41.5694678436812	49.1425015110563
22716	1646737224795	6.43689120540702	-0.473336982961916	7.3183627644277	0.0340524824439348	-0.0966715252185942	-0.0553552015381324	-0.098056172414667	-0.0237846775050788	0.0863893981762543	0.645263671875	-0.39697265625	0.23974609375	0	0	0	0.12506559855118	-0.332986535825619	0.380503255342232	0.85363682892191	0.488674479265637	0.566332863744583	0.663674875791844	-0.732913505394643	0.679151737465999	-0.039883719824661	-0.473323406271648	-0.466926123642461	0.746957126035778	-3.05640144418863	-41.5807456132491	49.2099113732307
22717	1646737224795	6.44599947701586	-0.603761661585545	7.33879478120627	0.113110023816836	-0.182682050910373	-0.028660958500522	-0.0442067735088082	-0.0316804284605955	0.0840341601595049	0.64453125	-0.395263671875	0.2421875	0	0	0	0.124688981981653	-0.333303236115223	0.380790557536987	0.85344019231471	0.487815008171581	0.566845450907188	0.663869529793608	-0.733082415716779	0.6789024181261	-0.0410082726945012	-0.473947981923557	-0.46666662774229	0.746723221134998	-3.14339109722077	-41.595657144167	49.2854208111058
22718	1646737224796	6.49057950142182	-0.485370057788754	7.33468264998696	0.0416141135102955	-0.0717249734713453	-0.00687820322225896	-0.0411607658868315	-0.0367388977477042	0.0782841742125689	0.6513671875	-0.399169921875	0.23974609375	0	0	0	0.124450560227168	-0.333590717174643	0.381034280042644	0.853253871310547	0.487060221694582	0.567206845818892	0.664115000959178	-0.73326905237476	0.678649870983056	-0.0418431528939034	-0.474435282490926	-0.466594842096294	0.746458582948102	-3.20838924713378	-41.6144664528941	49.3473307794418
22719	1646737224797	6.47473600890266	-0.676952697756023	7.29328521777209	0.183144454233985	-0.185823968699624	-0.0400521400021869	-0.0657960359735609	-0.0327876553201275	0.078637420495847	0.648193359375	-0.396484375	0.244140625	0	0	0	0.123976037070383	-0.333958679566364	0.381276959932096	0.853070584652614	0.486198960334459	0.567706570971898	0.664319065092235	-0.733318065523481	0.678515644114523	-0.0431408793229091	-0.475242239017737	-0.466182121029092	0.746203085149228	-3.30880685145679	-41.6301071102891	49.4223740211296
22720	1646737224798	6.47418722151949	-0.6939805582396	7.24279824631322	0.211217523355021	-0.171143068580197	-0.0771376135012787	-0.02467982782028	-0.037629810744475	0.0640663501869469	0.648681640625	-0.40234375	0.240966796875	0	0	0	0.123832794180013	-0.334209842376124	0.381487314996298	0.852898967546223	0.485542419511684	0.567967996936852	0.664575739333208	-0.73351255143244	0.678265735164972	-0.0437599062178134	-0.475613178692319	-0.4662273554358	0.745938440688994	-3.35736501824044	-41.6497855012868	49.4736497982861
22721	1646737224799	6.50331133039243	-0.661446470808894	7.30600795573749	0.162314388988462	-0.157843063058535	-0.0118171463609613	-0.033951332340721	-0.0364749112105777	0.0627007326623589	0.65185546875	-0.398681640625	0.24267578125	0	0	0	0.123505163675247	-0.334517020241492	0.381733923235867	0.852715690934122	0.484755150039413	0.568391853535967	0.664788045428175	-0.733650170884293	0.678051372793008	-0.0447634070973738	-0.476203602749616	-0.466022571006453	0.745689675428607	-3.43531672127269	-41.6660668721359	49.5406707478023
22722	1646737224800	6.48711494140287	-0.85013162609059	7.264424246571	0.305790259183491	-0.273794541882907	-0.044946125741907	-0.0391373601634223	-0.0335956130601515	0.0457167320245143	0.647705078125	-0.39453125	0.2451171875	0	0	0	0.123322758978729	-0.334767111822959	0.381844845752632	0.852594271463125	0.484250989227726	0.568548648462133	0.665021363389065	-0.733686263843525	0.677972021780046	-0.0453696366616002	-0.476660723868978	-0.465946748046768	0.745444955919177	-3.48286762240843	-41.6839643549861	49.5779060176308
22723	1646737224801	6.50500352425162	-0.765184131725651	7.19505970242185	0.279583186010623	-0.171562491043683	-0.0883950583872632	0.0230449172473704	-0.02746657224649	0.0279289717175703	0.654296875	-0.40234375	0.239013671875	0	0	0	0.12330086461593	-0.33488094908535	0.382030266389415	0.85246966062558	0.483815251004256	0.568756201944115	0.665161022344058	-0.733920644206623	0.677699544694793	-0.0456488239476675	-0.476742373722983	-0.466089808803598	0.745303293449319	-3.50491101010109	-41.6946797732179	49.613686373881
22724	1646737224802	6.50350355379547	-0.604173357839328	7.262616008114	0.1262461082393	-0.0957193620651611	-0.046363878434251	-0.00180325365543788	-0.0208688817010113	0.0234689281474194	0.64794921875	-0.396484375	0.23876953125	0	0	0	0.123290593566461	-0.334991340702137	0.382116765345568	0.852389000887772	0.48353515859285	0.568821693201169	0.665308674036602	-0.734026818140333	0.67757241435974	-0.0458285233177992	-0.476863062791998	-0.466194706793704	0.745160462385228	-3.51934646655732	-41.7060103807752	49.6333162458811
22725	1646737224804	6.4818054740392	-0.716175787304028	7.20909773361866	0.218521874161492	-0.157379697288071	-0.0954202720834729	0.00410113214423683	-0.0131291744739211	0.0225684195736533	0.648681640625	-0.3994140625	0.23779296875	0	0	0	0.12316474278732	-0.335143829427058	0.382272606816129	0.852277369058397	0.483092535349938	0.569048776104408	0.665436016986792	-0.734160390296972	0.67739620042427	-0.0462915647797804	-0.477105987814204	-0.466173656553905	0.745018119462201	-3.55549189191672	-41.7157841246116	49.6704911120315
22726	1646737224805	6.52409876332011	-0.565966272612122	7.20244971042831	0.13083985041038	-0.028870970659939	-0.0791622212020648	0.0190680514336006	-0.0089292880652385	0.0140510823206181	0.64697265625	-0.397216796875	0.24365234375	0	0	0	0.123236155420946	-0.335158146996331	0.38236131968208	0.852221618893835	0.482937675425929	0.569105962736018	0.66549951527594	-0.734320368711362	0.677225342416086	-0.0462539910172532	-0.477016559198744	-0.466352054533617	0.7449637329981	-3.55287207381742	-41.7206582596351	49.6823943948549
22727	1646737224805	6.50554632481339	-0.635067492053222	7.24113029685477	0.15132815475386	-0.101968862147937	-0.0594256730507237	-0.00709830096113259	1.58160893858858E-05	0.0186206220955689	0.650146484375	-0.401611328125	0.238525390625	0	0	0	0.123036530444264	-0.335236541520385	0.382470313166563	0.852170718196748	0.482665841551445	0.569367321026564	0.66547316936633	-0.734352684813774	0.677156943445019	-0.0467397930141053	-0.477241888046551	-0.466132307066603	0.744956946811378	-3.59012313678211	-41.7186359001088	49.7112847939566
22728	1646737224806	6.52654307621017	-0.558534407285022	7.25047440578938	0.100374777016306	-0.0413453061430732	-0.0420517808901391	0.0125444441391447	0.0112517941421279	0.0185058206349796	0.649658203125	-0.39892578125	0.240234375	0	0	0	0.123033870525982	-0.335180058757562	0.382579750094449	0.852144195387343	0.482574126057893	0.569549226727313	0.665384017837655	-0.734503226535588	0.67699080304213	-0.0467810090227152	-0.477102948081724	-0.466151403441727	0.745033989829347	-3.59291007924533	-41.7117929399991	49.7256825974224
22729	1646737224807	6.46098358495484	-0.735473932397605	7.26326179522345	0.189515302423584	-0.200757977658181	-0.0677408599715736	-0.0150181061479699	0.010621773539716	0.0194080016350699	0.65185546875	-0.402587890625	0.2333984375	0	0	0	0.122779723224531	-0.335262757536201	0.382705895426102	0.852091673812293	0.482270162030655	0.569874076867344	0.66532625630552	-0.734527951178496	0.676922674342025	-0.0473749079066303	-0.477372160638267	-0.465853227397034	0.74504804594826	-3.63833292808577	-41.7073597553022	49.7595979633275
22730	1646737224808	6.5101193611574	-0.786601918432093	7.24580855700087	0.259143116334664	-0.197701371658408	-0.0456050365172871	0.0120732295376245	0.013005175006153	0.00455489036303525	0.650634765625	-0.4013671875	0.23681640625	0	0	0	0.122794779326646	-0.335191510374497	0.382756344248408	0.852094874107677	0.482288464620914	0.569969902835321	0.665230897324752	-0.734608973029727	0.676838046215428	-0.0473277502052534	-0.477228974013324	-0.465858958330927	0.745136187085967	-3.6342921961102	-41.700041643642	49.7632761951359
22731	1646737224809	6.50182877669322	-0.607579063057713	7.26383140160978	0.113817175103121	-0.0882341182462556	-0.046140630795751	0.0467333470411467	0.0235863984959847	-0.00669042705032437	0.655517578125	-0.41015625	0.245849609375	0	0	0	0.122821195993131	-0.335146550912985	0.382894010846795	0.852046899931923	0.482137931737568	0.570161109456813	0.665176160158192	-0.734813510321236	0.676614260544942	-0.0473523756173279	-0.477066158754951	-0.465950052784843	0.745183486451893	-3.63594792490964	-41.6958413384403	49.7815712362368
22732	1646737224810	6.47028987018479	-0.510373917218787	7.24919897362145	0.0374380383651942	-0.0335235398506847	-0.08265692377317	0.0131301313881009	0.0231055991722277	-0.002557313559335	0.64794921875	-0.4052734375	0.24462890625	0	0	0	0.122832881298376	-0.335027162340061	0.382922109974884	0.852079539396815	0.482254916373498	0.570255486857615	0.66501043250642	-0.734864893511408	0.676565481928644	-0.0472518459653019	-0.476868728182146	-0.465905385643316	0.745337767532611	-3.62750038257235	-41.6831257516735	49.7793933358431
22733	1646737224811	6.47548457059423	-0.600689149244861	7.29263934915056	0.0842083736779123	-0.107083337269556	-0.0424899147428821	0.0116837043066331	0.0233568290793428	0.000530356445627163	0.647216796875	-0.388427734375	0.237060546875	0	0	0	0.122626466000777	-0.334982202312099	0.383115175763377	0.852040161066421	0.482019372467866	0.570703664843456	0.66479669937503	-0.735014399414216	0.676371023871914	-0.0477081829481888	-0.476876459074511	-0.465638878317422	0.745499347940593	-3.66164660466842	-41.6667306150096	49.8153846407986
22734	1646737224812	6.4735632004795	-0.599581993319596	7.29443608856315	0.084046975062148	-0.10702123216008	-0.0424878445102159	0.0175937742908314	0.0294306598896772	-0.00174986758412766	0.655517578125	-0.387451171875	0.246826171875	0	0	0	0.122642843048136	-0.334827620348607	0.383159176171896	0.852078777705462	0.482159020733926	0.570835182417171	0.664582480388744	-0.735092027579551	0.676295557528689	-0.0475818227471804	-0.476615557565933	-0.465587277942294	0.745698395401519	-3.6510024486751	-41.6503023973969	49.8137111239126
22735	1646737224813	6.47433934995803	-0.646550248670706	7.30525269854898	0.11632054196615	-0.142171075411193	-0.0316817584493272	0.00861993994997976	0.0249497801171365	0.00200634425328255	0.64404296875	-0.401611328125	0.2431640625	0	0	0	0.122614060249013	-0.334715324883212	0.383139276094787	0.852135985997035	0.482339892803777	0.570891919595448	0.664402471361046	-0.73505513964144	0.676340174685627	-0.0475174682923853	-0.476489422229648	-0.465452880801956	0.745862887035155	-3.64527586117955	-41.6365009424575	49.8059247833448
22736	1646737224814	6.45231025016363	-0.661134393753779	7.36083983739664	0.0923994997008331	-0.18961379144092	-0.00417690081162192	0.0221541628986736	0.0227400431484956	-0.00892741949529859	0.644287109375	-0.40087890625	0.24462890625	0	0	0	0.122675937026449	-0.334575710092932	0.383154766467251	0.852174943086172	0.482503038298475	0.57094100513097	0.664241813417959	-0.735118560098729	0.676286078816219	-0.0473058368254299	-0.476226333407879	-0.465471275439657	0.746019417380987	-3.62832473370037	-41.6241856481583	49.7988009594511
22737	1646737224815	6.44813072502504	-0.667866000080747	7.31451585130036	0.118550979519556	-0.171814766532862	-0.0411469821278931	0.0251778244771467	0.0210031535611167	-0.0119221759972221	0.65673828125	-0.406982421875	0.239501953125	0	0	0	0.122578866677544	-0.334460017060486	0.383220735826853	0.85220466207612	0.48255672924045	0.571169535671318	0.66400629860399	-0.735160455032223	0.676232578152749	-0.0474194643759421	-0.476107244664029	-0.465268590994383	0.746221836863897	-3.63603259605267	-41.6061364227482	49.806961864806
22738	1646737224816	6.46850114062795	-0.644679286968638	7.2858827927824	0.128070043978533	-0.131583694563013	-0.0501318874266499	0.0252259548443294	0.0161573908070486	-0.0145361398300622	0.64794921875	-0.402099609375	0.232177734375	0	0	0	0.122675165129316	-0.334338767290349	0.383214375824494	0.8522412420839	0.482728661696428	0.571152064301196	0.663896346293049	-0.735212318247097	0.676195092043878	-0.047149173836892	-0.475852798956259	-0.465344514247515	0.746336785094531	-3.61480701892642	-41.5977117005045	49.7960355544802
22739	1646737224817	6.4686749168519	-0.608402593182722	7.33047484012056	0.0786642319504161	-0.126985340851119	-0.0184311021329204	0.0312287415960891	0.0158656210120975	-0.0192877889751737	0.643310546875	-0.406494140625	0.2451171875	0	0	0	0.122658505386008	-0.334379764124343	0.383306040234326	0.852186331690729	0.48253330572806	0.571267292486743	0.663939221162613	-0.735325380882015	0.676062741152703	-0.0472837631308397	-0.475876237160326	-0.465395370153119	0.74629012880124	-3.62532418884965	-41.6009967108867	49.8131667031616
22740	1646737224818	6.48780111803874	-0.560746451681268	7.29721337980287	0.0720097622736521	-0.0692546072264659	-0.0328437809171866	0.026714555727633	0.0177116938164559	-0.0147273383604848	0.6494140625	-0.40478515625	0.248779296875	0	0	0	0.122757751594258	-0.334250631672362	0.383302449098575	0.852224314464909	0.482711495483323	0.571255621805388	0.66381972453671	-0.735383045857627	0.676019533877113	-0.0470038900701831	-0.475606337209055	-0.465472452860865	0.746414099300299	-3.60332558979338	-41.5918414689227	49.8021611212421
22741	1646737224822	6.4408646659218	-0.608059247979974	7.31048707664589	0.0782556796685874	-0.130830609122622	-0.0518239981068564	0.0253147709236468	0.0131183775790345	-0.0142528965399614	0.647216796875	-0.398681640625	0.24169921875	0	0	0	0.122642700535595	-0.334168148674749	0.383421476312491	0.852219682898123	0.482639239827281	0.57155208954582	0.663617037993113	-0.735485226291625	0.675893479015373	-0.0472174430825406	-0.475521656799878	-0.465291536523397	0.746580832833255	-3.61884694455319	-41.5763155940568	49.8210438571063
22742	1646737224821	6.4642702675067	-0.575820502009746	7.3293081173986	0.0594433214856568	-0.105148055349651	-0.0237892308779219	0.0223775626431236	0.0118173884918715	-0.0109762238223078	0.653076171875	-0.400146484375	0.240234375	0	0	0	0.122727492675074	-0.334074240520986	0.383424466674802	0.852242948176845	0.48276016035094	0.571541407951196	0.663538278153642	-0.735541783577076	0.675847281793667	-0.0469971946435833	-0.475311384452539	-0.465371755362611	0.746664728724033	-3.60160751361782	-41.570283563944	49.8134406835333
22743	1646737224822	6.44194302327926	-0.59406997311448	7.36009090052453	0.0469639345914203	-0.143666262632806	-0.0147467068122751	0.0178303714091559	0.00852763471252573	-0.0120658181316833	0.653076171875	-0.40185546875	0.2373046875	0	0	0	0.122686123953245	-0.334085227897651	0.383469715373132	0.8522242386142	0.482676075784447	0.571629129069344	0.663523884019822	-0.735579615792541	0.675798184761957	-0.047110957355398	-0.475338231889488	-0.465335311653723	0.746670350979807	-3.61027552099931	-41.5691812121018	49.82269500039
22744	1646737224822	6.46596084605767	-0.561743160414841	7.37835270990637	0.0281285267534468	-0.117981113080404	0.0132773312352086	0.0302656076410799	-0.000593200840212555	-0.0146333786023392	0.64892578125	-0.405029296875	0.24169921875	0	0	0	0.122834223043857	-0.334027418109685	0.383462659588343	0.852228740598218	0.482764145304824	0.571535802137136	0.663540207435513	-0.735655795652531	0.675736284701293	-0.0468083738334814	-0.475130856008052	-0.465539794661588	0.746674875200379	-3.58712656221997	-41.5704313163568	49.8129305094758
22745	1646737224823	6.48498506380006	-0.604805710804589	7.26213404038942	0.122609979593265	-0.0815798258696041	-0.058830537271124	0.0223403804988321	0.0100079175094159	-0.0138735459929748	0.647705078125	-0.402587890625	0.240966796875	0	0	0	0.122783042488783	-0.334063161966047	0.3835605843321	0.852178036821686	0.48256616392813	0.571689228697387	0.663552050123482	-0.735758394335844	0.675611205248031	-0.0470008990088822	-0.4751731080312	-0.465532947421221	0.746652256588889	-3.60195065642083	-41.5713382859562	49.8320959942729
22746	1646737224824	6.41999433200543	-0.663651829274399	7.35246641287869	0.0934105064541438	-0.202004174953659	-0.0317880394049581	0.019597713684889	-0.00569140221674598	-0.016904375093502	0.655029296875	-0.39013671875	0.242919921875	0	0	0	0.122898580599135	-0.334047249864917	0.383523250294458	0.852184422662125	0.482644702682521	0.571557213536483	0.66360865171192	-0.735772944982254	0.675611710740585	-0.0467652621324989	-0.475070799360097	-0.465694285947972	0.746616747488808	-3.58410963344568	-41.575673281787	49.8209773826889
22747	1646737224825	6.46624608738923	-0.609896279047148	7.34025229553299	0.0823953096679054	-0.135073061581478	-0.0127598023377935	0.0407051746068436	-0.00135938746848503	-0.0256024206322548	0.64501953125	-0.401611328125	0.23583984375	0	0	0	0.123029377347743	-0.334024375099971	0.383516994305752	0.852177331444097	0.482684863835511	0.571459355766836	0.66366371524338	-0.73583859931691	0.675556974776217	-0.0465223557715392	-0.474928287196522	-0.465893741681253	0.746582978297001	-3.56570219633212	-41.5798907603066	49.8137911896004
22748	1646737224826	6.50561689115711	-0.578277574563207	7.20879376025938	0.143965803414592	-0.0328207082105653	-0.0863129927467909	0.0420559410575469	0.00641772582980348	-0.0248492287440045	0.65234375	-0.404541015625	0.239990234375	0	0	0	0.123230840965681	-0.333909256925197	0.383490318018263	0.852205341429403	0.482879568251828	0.571329157729013	0.663634173391925	-0.735920831877484	0.675498671642285	-0.0460659724553898	-0.474602835825577	-0.466137896054553	0.746637535949108	-3.53055431305812	-41.5776280284012	49.7959636021256
22749	1646737224827	6.41641866407424	-0.637539522609593	7.30068493888321	0.0990354753863364	-0.166608618808855	-0.0741392690392271	0.00560575460814421	-0.00342005209325885	-0.0213129739410419	0.654296875	-0.407958984375	0.235595703125	0	0	0	0.123132483608315	-0.334044233867358	0.383506801921173	0.852159242266733	0.482673965400328	0.57135433915632	0.663762052434431	-0.735881123760819	0.675521848721285	-0.046359503801192	-0.474873472429486	-0.466073439521524	0.746505682600836	-3.55361942755468	-41.5874233815001	49.809237932234
22750	1646737224828	6.51130673870407	-0.610065983977225	7.26612837359002	0.143303031619393	-0.080150677910853	-0.038284299933931	0.0514257071968795	0.000562937187746908	-0.0245642737746294	0.642822265625	-0.4013671875	0.238037109375	0	0	0	0.123383711132249	-0.333937639344277	0.383493925019219	0.852170477269518	0.482836125005049	0.571199471769099	0.663777402327626	-0.736009332685257	0.675417738601174	-0.0458382000418731	-0.474509787665451	-0.466414024053285	0.74652422571281	-3.51367327887799	-41.5885992614225	49.7920924073371
22751	1646737224829	6.43928368037552	-0.547480016396647	7.33367123173025	0.0286721352586934	-0.110884534148662	-0.0385518937253071	0.0222752857352518	0.00305300980522237	-0.0224189389455621	0.649658203125	-0.399658203125	0.233642578125	0	0	0	0.123329084321878	-0.334035346692522	0.383559015857195	0.852110794131252	0.482605737029333	0.571277008319093	0.663878213494284	-0.736062102074012	0.675344836629974	-0.0460644497158102	-0.474662284658009	-0.466424625639793	0.746420648240668	-3.53146114839825	-41.5963224420476	49.8094076649228
22752	1646737224830	6.46289033733893	-0.633748112591607	7.25038035038447	0.145077862980139	-0.118747961702355	-0.0811173974187138	0.0208393351493417	-0.00168763274697975	-0.0234566305945511	0.645263671875	-0.404052734375	0.24365234375	0	0	0	0.12345130103403	-0.333999317677403	0.383499124221322	0.8521341759286	0.482745755025017	0.571120119751844	0.663911398320564	-0.736050720998859	0.675376395988969	-0.0457827462917129	-0.474537534998431	-0.4665710369875	0.746408464128069	-3.50997608956353	-41.5988649459958	49.7934553986535
22753	1646737224831	6.46817928023343	-0.639640967090838	7.32711389806356	0.114761196578595	-0.155793346214578	-0.0200555389085935	0.0435082841569589	0.00616627371082534	-0.0279397825757837	0.646240234375	-0.406005859375	0.2412109375	0	0	0	0.123503778659628	-0.333997008332276	0.383540975025048	0.852108640701829	0.48268463780385	0.571137372584001	0.663940992909769	-0.73613694294419	0.675286274267258	-0.0457258025520299	-0.474465954164203	-0.466680350372811	0.746385630163766	-3.50572831869074	-41.6011324631845	49.7978851504413
22754	1646737224832	6.4681155771221	-0.634637196597971	7.32760522493397	0.114422975455238	-0.155691301076917	-0.0200499581621347	0.0388903282896734	0.000908758092332539	-0.0334362886034178	0.646728515625	-0.39697265625	0.241455078125	0	0	0	0.123713703593829	-0.333910242180637	0.383470910426792	0.852143726472485	0.482908022046632	0.570926115753608	0.663960249257068	-0.736163206665924	0.675289960799091	-0.0452460163473627	-0.474197823059484	-0.466933441931995	0.746397739419933	-3.4689779967487	-41.6026079141364	49.7743637561021
22755	1646737224832	6.48172930580427	-0.579104710581051	7.19306215119599	0.145310831073589	-0.0486634592604844	-0.113984737634464	0.0631882300744356	0.00410010592860529	-0.0390539263657452	0.649658203125	-0.40380859375	0.24267578125	0	0	0	0.123856530827247	-0.333833678437359	0.383495551266673	0.852141887874954	0.482972474599305	0.570890283526958	0.663944179094849	-0.736280208665159	0.675181443860219	-0.0449607850778862	-0.473950464824557	-0.467134137096979	0.746429269824842	-3.44701716806227	-41.6013765912575	49.7688201984523
22756	1646737224833	6.43913064039451	-0.552731302545382	7.31640484786804	0.0507965102276138	-0.11570476904627	-0.0514514602689147	0.0172119815078438	0.00964016732653079	-0.0321176362333208	0.65087890625	-0.395263671875	0.2431640625	0	0	0	0.123954246471601	-0.333752637785988	0.383401158320387	0.852201897059105	0.483225457138961	0.570730275461241	0.663897665491285	-0.736210502359927	0.675277793160486	-0.0446542078560037	-0.473800858787514	-0.467190383822526	0.746489043105104	-3.42329536873319	-41.5978127730687	49.7461046350262
22757	1646737224834	6.46470778081848	-0.628032824307696	7.28190819305243	0.136308306424981	-0.135945002274459	-0.0568688615025028	0.0523121278651685	0.0133988502597157	-0.0350341523872453	0.646728515625	-0.40087890625	0.23876953125	0	0	0	0.124067816263197	-0.333650143226924	0.383437059780652	0.852209352259821	0.483307206222843	0.570746807364025	0.663823942244359	-0.736327786028294	0.6751663963089	-0.0444041531607516	-0.473535147518894	-0.467331166496549	0.746569517784669	-3.40380472066326	-41.592164586768	49.7421433266124
22758	1646737224835	6.46627519527588	-0.584244524768743	7.35014263500627	0.0772184212511245	-0.140128165128438	-0.00692108542466663	0.040019411637953	0.0129452685636858	-0.0361693613016656	0.653564453125	-0.399169921875	0.239501953125	0	0	0	0.124262663072413	-0.333509167870718	0.383365858146562	0.852268176291878	0.483604507507463	0.570575566832923	0.663754625484262	-0.736346516267641	0.675178818747405	-0.0439018302052128	-0.473202375626932	-0.467522283156801	0.746660851024667	-3.36497739680558	-41.5868544470151	49.7162861870007
22759	1646737224837	6.43780950071925	-0.651313943912579	7.24260648426344	0.16483467458472	-0.152402375042178	-0.103179163761217	0.0474679493232937	0.015726954545807	-0.0412584715319645	0.646484375	-0.39404296875	0.237060546875	0	0	0	0.124359933233094	-0.333463466370814	0.383374178103196	0.852268128681297	0.48365271231932	0.570536197886381	0.663753343319277	-0.736414175540584	0.675117693139919	-0.043706549535707	-0.473047794550453	-0.467658579853708	0.746673447204443	-3.34998734910411	-41.5867562284879	49.711519295109
22760	1646737224838	6.46355943466648	-0.605262805957453	7.30948237053777	0.117279265364972	-0.141154103856644	-0.0382926127803618	0.0565039442882872	0.015360580638361	-0.0476206815615761	0.650146484375	-0.3974609375	0.235107421875	0	0	0	0.124638789693773	-0.333274690546304	0.38328341740684	0.852342052632551	0.484043605164398	0.570299241334614	0.663672030171994	-0.736455057595645	0.675117988089211	-0.0430075609651349	-0.472584105150867	-0.467947088346043	0.746786305489873	-3.29603381145617	-41.5805276491853	49.6769439815273
22761	1646737224839	6.46236059533786	-0.569153996094917	7.33013063242473	0.0829915626473857	-0.130196372647824	-0.0252969044085063	0.0593973428773219	0.0181753350078053	-0.0510488317354598	0.647216796875	-0.392578125	0.241943359375	0	0	0	0.124825824190066	-0.333213015618501	0.38319821339022	0.852377104978917	0.484256430953937	0.570071588914424	0.663712356817574	-0.736445946136171	0.675155285739629	-0.0425759152272824	-0.472380225559195	-0.468170613826225	0.746775199675391	-3.26307340608496	-41.5836165912818	49.6532307128694
22762	1646737224840	6.48291510203343	-0.54103973200366	7.30149063214583	0.0922234073353564	-0.0899189822839607	-0.0343397647992862	0.0577514524654589	0.017684353127646	-0.0555579532410172	0.64892578125	-0.39892578125	0.253173828125	0	0	0	0.125118300475842	-0.333008568018275	0.383076908914829	0.852468642454792	0.484714750965357	0.569791172848123	0.66361858739863	-0.736453037145485	0.675194985484594	-0.0418169302514046	-0.471898860218781	-0.468454641262972	0.74690140902491	-3.20448573071943	-41.5764342650165	49.6125722784497
22763	1646737224840	6.45359156184318	-0.429294503429765	7.33363857297662	-0.0136616245660401	-0.0470921448069585	-0.0344982323685183	0.0670647898942539	0.0252013247957438	-0.0442882261793278	0.649658203125	-0.3935546875	0.2431640625	0	0	0	0.125274039434888	-0.332750010186706	0.38306544196558	0.852551882841231	0.485076595784925	0.569796451802149	0.663349605966107	-0.736536203394504	0.675134564430762	-0.0413248230497625	-0.471396984834352	-0.468535295815124	0.747167691528827	-3.16572579296159	-41.5558358967113	49.5917315503902
22764	1646737224841	6.41628419902943	-0.645507708289972	7.35691384003455	0.122068052148549	-0.227841333697957	-0.0329762199988988	0.0274761527589174	0.0165679702515743	-0.0423146816240069	0.650634765625	-0.38818359375	0.24951171875	0	0	0	0.125417176870364	-0.332616039238585	0.382950028714985	0.852634961571654	0.485431691896856	0.569601636788319	0.66325715063633	-0.736464695280742	0.675239614506119	-0.0408805039923852	-0.471143104700897	-0.468620783117538	0.747274204374207	-3.13131095032226	-41.5487572624935	49.5613629915127
22765	1646737224842	6.50221813550141	-0.493906801223924	7.29991178233184	0.0849045118455968	-0.052625953867226	-0.0248628856879858	0.102381010925301	0.0144457541731187	-0.0549613141178027	0.654052734375	-0.398193359375	0.244384765625	0	0	0	0.125825997404183	-0.332342159639811	0.38289379836744	0.852706776374472	0.485882056195402	0.569357705567075	0.663136811358505	-0.736626840431632	0.675120315097995	-0.0399181424630042	-0.470424835040669	-0.469088864985497	0.747433014606378	-3.05709035648053	-41.5395449172985	49.5230130240323
22766	1646737224843	6.42875522960158	-0.456484171984145	7.34912050738079	0.00519251372199971	-0.0958162254049631	-0.0383518903584861	0.0272871989048614	0.0277899926073809	-0.0372966493198189	0.653564453125	-0.389892578125	0.23974609375	0	0	0	0.125938682706677	-0.332163540347991	0.382806273215369	0.852799031336549	0.486253479300898	0.569249160546019	0.662957726469362	-0.736578115404467	0.675197610770135	-0.0395078007171648	-0.470117255346979	-0.469109347197384	0.747613661323192	-3.02499369585282	-41.5258378422311	49.4959981619272
22767	1646737224844	6.39314044446498	-0.66810365000797	7.39648948581323	0.123770901421626	-0.283038518764396	-0.0182384762922343	0.0597168505557581	0.009058046532073	-0.0501499564692859	0.653076171875	-0.39501953125	0.249755859375	0	0	0	0.1261669468409	-0.332104430116098	0.38276772302126	0.852805616324862	0.486391035420764	0.569051723920649	0.663026316344423	-0.736654131840989	0.675141543475931	-0.0390459513206642	-0.469855776493081	-0.469429474762583	0.747577098044214	-2.98984176411725	-41.5310873365552	49.4781780883418
22768	1646737224845	6.50944995792626	-0.19191229708086	7.32170502704255	-0.127765264662464	0.134422047781846	-0.0156097864707814	0.121114194532295	0.0180061902079726	-0.0404822728752835	0.64990234375	-0.395751953125	0.24169921875	0	0	0	0.126703536851253	-0.331786925648993	0.382815870744588	0.852828035903977	0.486738890148905	0.568875060398494	0.662922633851962	-0.737029368241418	0.674796445710892	-0.0379139447380961	-0.468906134707437	-0.470139258637861	0.747727299435546	-2.90272961465084	-41.5231522097029	49.4491578314634
22769	1646737224846	6.4270192345016	-0.551063094292407	7.27697126999252	0.119934366394476	-0.13348336040286	-0.0899122942643	-0.0364697650473484	0.0233126318027086	-0.016679239037434	0.65380859375	-0.39013671875	0.243408203125	0	0	0	0.126391777786711	-0.331823347046985	0.382791312454489	0.85287114851648	0.486728154927811	0.569063847101571	0.662768467205953	-0.736822818079192	0.674991859234569	-0.0384463876703292	-0.469241769196228	-0.469629990406298	0.747836769724901	-2.94299268223088	-41.5113551804846	49.4591728986032
22770	1646737224846	6.38370181914556	-0.645596811673085	7.30040984032228	0.160830637700863	-0.234115877379747	-0.0975576903877346	0.089232720805831	0.00970889936013981	-0.0372134227971203	0.6494140625	-0.397216796875	0.248046875	0	0	0	0.126802369867811	-0.331604746824872	0.382795548208195	0.852893322257307	0.4870117203104	0.56887099819957	0.662725713766811	-0.737064069226808	0.674777454535788	-0.0375758526852182	-0.468568183016222	-0.470171430711848	0.747918901758238	-2.8761528621838	-41.5080840133255	49.4330948238323
22771	1646737224847	6.49867543757969	-0.0216290641625929	7.34398266941104	-0.258973239334043	0.228961184388511	-0.0122875939849933	0.0909911312672439	0.0158468370813946	-0.0225335683086777	0.647705078125	-0.390625	0.249267578125	0	0	0	0.127071612459318	-0.3314252028832	0.382932671454175	0.852861483087252	0.487039808053596	0.568947582317893	0.662639324176992	-0.737406522077993	0.674430748879915	-0.0370781089339266	-0.467999836076846	-0.470576044375297	0.748020280401637	-2.8377329573157	-41.5014746449887	49.4352727468415
22772	1646737224848	6.42310794725249	-0.47977849314066	7.31877245056981	0.0556486062884479	-0.110897379831649	-0.0640702301875553	-0.0601978742636105	0.0190213701939026	0.00894136018365872	0.65087890625	-0.39794921875	0.246826171875	0	0	0	0.126750256503145	-0.33148264592622	0.382892103674353	0.852905191020647	0.487025784787161	0.569110304854364	0.662509883594971	-0.737172346444323	0.67465601884043	-0.0376322717909999	-0.468383194179958	-0.470056078729925	0.748107255852278	-2.87974005343265	-41.4915728566879	49.4441818475936
22773	1646737224849	6.40813113024098	-0.681919965210625	7.31223124214572	0.199370754006934	-0.248992747372747	-0.0712225461084319	0.0639332942779482	0.012083551338155	-0.00604724313944331	0.653564453125	-0.391845703125	0.2529296875	0	0	0	0.126858328902498	-0.331346091889278	0.383052379489272	0.852870216589473	0.486961283914617	0.569319908709363	0.662377195799637	-0.737455954731152	0.674355677911344	-0.037458436970814	-0.468003656823098	-0.470233198759822	0.748233463555536	-2.86597721006458	-41.4814242376974	49.4583524838008
22774	1646737224850	6.48782114459953	-0.312997309150025	7.35905939154796	-0.0517645431399056	0.021273853732006	0.00272968052340516	0.0530566670370773	0.0163423911287201	-0.00618134568822705	0.645263671875	-0.394287109375	0.250244140625	0	0	0	0.12704955318373	-0.331188556644774	0.383133943675824	0.852866303817179	0.487045042301923	0.569369344536833	0.662273113051418	-0.737678777101965	0.67413358447845	-0.0370665899643687	-0.467565127637282	-0.470491721266097	0.748345101966731	-2.83562347092168	-41.47346458642	49.455942354068
22775	1646737224851	6.42484407206438	-0.574136090905917	7.3178249724205	0.130720185894097	-0.167947105784006	-0.0600712315145309	-0.0189866276291136	0.0212119963121843	0.00296804204091497	0.652587890625	-0.39599609375	0.249267578125	0	0	0	0.12678228500764	-0.331123290165397	0.383191990729644	0.852905338920409	0.487042529901391	0.569691854756872	0.661997556408579	-0.737614124142539	0.674180300897789	-0.0375010099437663	-0.467669731683257	-0.470034160997945	0.748567237836568	-2.86795185750179	-41.4523963129338	49.4721143380106
22776	1646737224853	6.40488350863578	-0.703169788866118	7.2971533006724	0.227774139674769	-0.256098215330059	-0.0839691845716679	0.0544815065912908	0.0159180661796326	-0.0107752483062992	0.652587890625	-0.389404296875	0.241455078125	0	0	0	0.126987672068104	-0.330961309611429	0.383256658462037	0.852908597932701	0.487157890569603	0.569709785930123	0.661897234826698	-0.737821810938788	0.673976929774475	-0.0370684965271045	-0.467221751375921	-0.470304005880479	0.748677485366023	-2.83451216992916	-41.4447277104598	49.4663027440216
22777	1646737224854	6.46148118735624	-0.358913553945649	7.350326435374	-0.0212809368657764	-0.0177060029512498	-0.0195220260592244	0.0617980091256	0.0215770312971129	-0.0176909142316894	0.64501953125	-0.3955078125	0.244873046875	0	0	0	0.127140978190534	-0.330841867384164	0.383363647124064	0.852884015862796	0.487151945698991	0.569802336498748	0.661821939136392	-0.738056571081171	0.67373497145698	-0.0367924736837242	-0.466857022744215	-0.470538505923192	0.748757660901028	-2.81313882972577	-41.4389726876478	49.4712451273047
22778	1646737224855	6.41485379988107	-0.434832940039897	7.34562902643894	0.0177418034295771	-0.0936211631401765	-0.051098632981617	0.00831268995512551	0.0242265480284509	-0.00576967602808471	0.64599609375	-0.398193359375	0.24658203125	0	0	0	0.127125027190293	-0.330736899598162	0.383378440022424	0.852920454926504	0.487268149940336	0.569892752237379	0.661658522956538	-0.738072501654378	0.67372039837568	-0.0367397212042143	-0.466710544508447	-0.470449865298972	0.748904661412124	-2.80856134975677	-41.4264841683856	49.4689855828542
22779	1646737224856	6.41973767335939	-0.619659652333528	7.28610691592658	0.183909824884662	-0.183820974673334	-0.0855732247488934	0.0357767254967205	0.0261930886784331	-0.00978050612682344	0.6435546875	-0.392578125	0.245361328125	0	0	0	0.127038773084274	-0.330648555471968	0.383502071044084	0.852911979281826	0.487195388538399	0.570176647327286	0.661467492949982	-0.738197394564271	0.673574623276281	-0.036903028828783	-0.466588962627108	-0.470314594416154	0.749065365795087	-2.8204210049976	-41.4118884019093	49.4873051769195
22780	1646737224857	6.43712523512047	-0.450925426100759	7.35267989540875	0.0412032067160605	-0.0923330826054187	-0.0304795029597091	0.0570553111735661	0.0260030841865814	-0.0180072709979019	0.65380859375	-0.3935546875	0.2529296875	0	0	0	0.127246339260717	-0.330435484538089	0.383547501931502	0.85294318302272	0.487407408640366	0.57019504273711	0.661295419037898	-0.738381865814362	0.673399365813703	-0.03640761401417	-0.466075356824393	-0.470543204562268	0.749241519405649	-2.78196421314302	-41.3987437944944	49.475905922293
22781	1646737224858	6.43229648942092	-0.427963324209481	7.325965569063	0.0372499122578952	-0.065345115370734	-0.0545265113389686	0.0310128011227526	0.0322933420642415	-0.00874820573049119	0.6533203125	-0.3896484375	0.24853515625	0	0	0	0.12719078165754	-0.330278422773185	0.383640494130344	0.852970480013949	0.487472269427765	0.570451291348015	0.661026558270035	-0.738484774376578	0.673284952649539	-0.0364363904590281	-0.465844420974341	-0.470396318794154	0.749477337023602	-2.78328497113389	-41.3782110260195	49.4848549619048
22782	1646737224859	6.41232476911389	-0.52221277636767	7.34908184717366	0.089647165337663	-0.150458780747779	-0.0469849452823503	0.0235534622767765	0.0260096787134143	-0.00790458382736967	0.646728515625	-0.395263671875	0.25146484375	0	0	0	0.12723829740097	-0.330136100091528	0.383674122884003	0.853003363721416	0.487608645691096	0.570538724213352	0.660850492033029	-0.738562545358321	0.673209166207388	-0.036259965915499	-0.465578323422746	-0.470398748624351	0.749641142181718	-2.76922508101775	-41.3647684433694	49.4812762747112
22783	1646737224860	6.43615294863269	-0.604441275955931	7.29282009635944	0.190353995334885	-0.163689825172505	-0.0704284847588621	0.0385882559384357	0.0303586934451959	-0.0148899540810143	0.6513671875	-0.39013671875	0.24072265625	0	0	0	0.127248320845062	-0.329967264767429	0.383756042688055	0.853030344550777	0.487705807764611	0.570735537884281	0.660608803202477	-0.738686659386255	0.673078329085032	-0.036160505539558	-0.465279555017673	-0.470347221435443	0.749858938048027	-2.76084005123964	-41.346320124583	49.4853981041083
22784	1646737224860	6.42849974681092	-0.436644815870857	7.36108345593191	0.0360708987670299	-0.0876405009705851	-0.0304160647649549	0.0598450473093434	0.0370261567008154	-0.0161357545997779	0.65673828125	-0.39794921875	0.24658203125	0	0	0	0.127442746083502	-0.329703171010186	0.383821721184265	0.853073884164597	0.487953410745952	0.570820018022851	0.660352917738526	-0.738893128046758	0.672878465635689	-0.035658320333969	-0.46469174112165	-0.47053063397419	0.750108330993049	-2.72165268371596	-41.3267938592128	49.4752234199948
22785	1646737224861	6.40367440796006	-0.486954182484363	7.35105625900135	0.0664770495399709	-0.130219899367814	-0.052522374648273	0.0185308730610119	0.0361871455525645	-0.0119032155148093	0.64794921875	-0.392822265625	0.253662109375	0	0	0	0.12738188177104	-0.329686516205123	0.383929795856142	0.853040778089101	0.48780942577278	0.571023365919932	0.66028348434646	-0.73900772123492	0.67274353610066	-0.0358290746454679	-0.464660684889954	-0.470476832807155	0.750161314457996	-2.73447306497409	-41.3214965025698	49.4936535911666
22786	1646737224861	6.43142225522886	-0.611516567749825	7.32916887947465	0.186543901471801	-0.187394765365965	-0.0462170194286866	0.0460020887786384	0.034649213496055	-0.02013096999862	0.654052734375	-0.39013671875	0.258056640625	0	0	0	0.127527967469421	-0.329458210237174	0.38395380480049	0.853096349189037	0.48807352697309	0.571068906429756	0.66004888938409	-0.739129450100396	0.672632186584691	-0.0354061797513233	-0.464189496070661	-0.470580753621968	0.750387810440872	-2.70143144056983	-41.3036014802733	49.4805942463992
22787	1646737224862	6.40920296424282	-0.256486971509644	7.33391241848628	-0.0824087858615867	0.0378228196817962	-0.0699099460712436	0.0841905167758415	0.0421104185714133	-0.0188165069698731	0.64892578125	-0.403564453125	0.246826171875	0	0	0	0.127724569860165	-0.329073565539748	0.384111206001204	0.853144538833423	0.488338339774516	0.571343196187464	0.659615507759303	-0.739466314631124	0.672290031356673	-0.0348666497430814	-0.46337375349941	-0.470736726747273	0.750794045433986	-2.65888844583809	-41.2705558186341	49.4788333468444
22788	1646737224862	6.43481075238767	-0.293873055816387	7.36916737374669	-0.0535031383296939	0.0113726374860098	-0.0252063144959056	0.00485220321612914	0.0416206935282861	0.00014367417170829	0.643798828125	-0.395263671875	0.244384765625	0	0	0	0.127648245516404	-0.328906686508213	0.384158775591682	0.853198893648293	0.488484853412175	0.571558961697438	0.659320029492683	-0.739496407582987	0.672255921104967	-0.0348860962443415	-0.46317125467665	-0.470523463647308	0.751052633973544	-2.6594546286692	-41.2480349746802	49.4810291527248
22789	1646737224863	6.39773246843597	-0.573268254602538	7.3579890269274	0.138056692832355	-0.186804396155065	-0.0481769995710053	0.0186830548063787	0.0421676199102982	0.00127228059041241	0.654052734375	-0.3935546875	0.250732421875	0	0	0	0.12742759019244	-0.328864590204282	0.38437926455183	0.853148798012464	0.488201324584728	0.572052570607905	0.659101906486854	-0.739678259525329	0.672029580480684	-0.0353880678271123	-0.463179812879726	-0.470246849452332	0.751220581135034	-2.69706283848383	-41.2314149944884	49.5218825242142
22790	1646737224863	6.36042057817129	-0.366334360236656	7.3938224777043	-0.0458155924655658	-0.0841595276034302	-0.0531496064669028	0.0478440728580881	0.0431451544179338	0.00197444105841227	0.650634765625	-0.398193359375	0.253173828125	0	0	0	0.127527195287868	-0.328611248093776	0.384507450147745	0.853173770617182	0.488337336814261	0.57228960052701	0.658795308576033	-0.739917083764789	0.671781670485779	-0.0351012300688435	-0.462654681837507	-0.470312662308779	0.751502924176522	-2.67423006336266	-41.2080607698152	49.5257217938912
22791	1646737224864	6.38609989360253	-0.405957674565891	7.42894737600449	-0.0194896153351286	-0.108529982731805	-0.00839376388614354	0.00843849578723311	0.0353978562797843	0.0129762161472672	0.65283203125	-0.392333984375	0.25048828125	0	0	0	0.127350429429638	-0.328531119543213	0.384752413700167	0.853120596262724	0.488065767287158	0.572803258869161	0.658550099408744	-0.740157575488473	0.671494896551965	-0.0355157338610839	-0.46255655897352	-0.470096831018393	0.75169834323154	-2.70506051125163	-41.1893886561586	49.5668357871611
22792	1646737224865	6.3625384185468	-0.517796045970131	7.38099870703431	0.0757412993975553	-0.171941432282071	-0.0559538785941402	0.017739015637238	0.0326206270299317	0.01303711758278	0.64111328125	-0.395751953125	0.248046875	0	0	0	0.127323075434816	-0.328388084544048	0.38487201837259	0.853125799554275	0.4880695908066	0.573065735079773	0.658318872437482	-0.740311258520959	0.671324727871259	-0.0355295687518796	-0.46230651632547	-0.470019970880026	0.751900200782623	-2.7053872692107	-41.1717861315302	49.5795716865443
22793	1646737224866	6.38082793065661	-0.439024352103868	7.39045798976257	0.0213082735186092	-0.109333869691692	-0.0395523426403965	0.0255752860036255	0.0266053022132029	0.0119394375514757	0.646240234375	-0.398193359375	0.259521484375	0	0	0	0.127213482853491	-0.328335708296521	0.385050893928418	0.853081591363119	0.487862943484696	0.573422200701357	0.658161627654834	-0.74049711669163	0.67110507773042	-0.035804955185389	-0.462226966484897	-0.469898876767394	0.752024784875413	-2.72587398689075	-41.1598183212286	49.6091337961726
22794	1646737224866	6.38058395202186	-0.462312135742721	7.3971089913621	0.0367822573293612	-0.126553109791774	-0.0338614366919838	0.0119617569518891	0.0218288734189627	0.0143079315011284	0.64501953125	-0.4013671875	0.25537109375	0	0	0	0.127179475146753	-0.328251388592595	0.385160037549638	0.853069840319766	0.48780554272359	0.573643144825251	0.658011622148986	-0.740630502094847	0.670954253152316	-0.0358726852013052	-0.46207381645672	-0.469844583422873	0.75215281397686	-2.73055839213301	-41.1484035245141	49.623354132372
22795	1646737224868	6.35745674325752	-0.545141317052738	7.36716385193772	0.0999874954292325	-0.175210243014491	-0.0685177172183824	0.0165982196738596	0.0186014797065519	0.0114630035101305	0.6494140625	-0.398681640625	0.248779296875	0	0	0	0.126971144096814	-0.328142562433481	0.385418096077778	0.853026188637908	0.48755069987074	0.574214185900534	0.657702351954241	-0.740872732216691	0.670662439565053	-0.0363247410785909	-0.461954445495795	-0.469563585542192	0.752401574572671	-2.76400221006547	-41.1248756150392	49.6662580679052
22796	1646737224871	6.40418881457247	-0.512624783308938	7.38458447472215	0.0918753533880767	-0.13371793785174	-0.0258500563868012	0.0242507878452404	0.0169759017561038	0.00837741042895198	0.641845703125	-0.39990234375	0.2578125	0	0	0	0.127007462193728	-0.328051048395187	0.385520643403676	0.853009641037862	0.487512686312868	0.574375789031582	0.657589411151334	-0.74103551353824	0.670485876113449	-0.0362637230231232	-0.461733416983358	-0.469618081963129	0.752503228387855	-2.75899425961409	-41.1162856806479	49.6764165651792
22797	1646737224871	6.37861651701804	-0.512674908601912	7.38705946394045	0.0770066060133958	-0.145537734266258	-0.0407315626483999	0.0242696708779878	0.0152979493939754	0.0070178308542904	0.64208984375	-0.390380859375	0.259765625	0	0	0	0.126867811981242	-0.328010162282309	0.385754403164284	0.852940462260991	0.4872057477578	0.574823214715577	0.657425913069916	-0.741278941101052	0.670196197444918	-0.0366413483714232	-0.461666644703586	-0.469484109160706	0.752627783445251	-2.78721881717477	-41.1038525042994	49.7162253900271
22798	1646737224872	6.37786232732122	-0.539914265132877	7.36953093260184	0.106765557375387	-0.155497845296054	-0.0534331764685394	0.0269780509021083	0.0206477280427766	-0.0012880767612867	0.647705078125	-0.3955078125	0.251953125	0	0	0	0.12692340014491	-0.327891931046598	0.385823751717053	0.852946284745509	0.487253828331023	0.574939553650239	0.65728853361764	-0.741408188724297	0.670060966213266	-0.0364993047865588	-0.461408283919265	-0.469534675190031	0.752754664100377	-2.77596359473125	-41.0934073331186	49.7191556686874
22799	1646737224872	6.3753210757582	-0.479595353230593	7.40847464777553	0.0447975831263332	-0.132384009790436	-0.0279699975466414	0.0363280965108368	0.0163502264190842	-0.00105939937255855	0.648681640625	-0.393798828125	0.251953125	0	0	0	0.126901706473222	-0.327750519333269	0.385917777153835	0.852961325763132	0.487294132706832	0.575161677271638	0.657064283938469	-0.741530078075144	0.669926852341655	-0.0364850081742138	-0.461169786021772	-0.469453999354227	0.752951107941913	-2.77415513163696	-41.0763608517964	49.7277339129537
22800	1646737224873	6.39728308941966	-0.480649720011359	7.38468947822422	0.0699088456802997	-0.109395380416511	-0.0314278227105618	0.0298704046791316	0.0216042815946171	-0.00760218945882355	0.65625	-0.392822265625	0.252197265625	0	0	0	0.126977746175018	-0.327618253908242	0.385966129029893	0.85297894400982	0.48739285389559	0.575241507352825	0.656921162842211	-0.741642417301078	0.669813598435986	-0.036280410830766	-0.460884726185763	-0.469517786211221	0.753085863364855	-2.75812971322187	-41.0654837217396	49.7259314591554
22801	1646737224873	6.36722430431553	-0.436863972349284	7.35351326697907	0.037810802511681	-0.0821157049787335	-0.0762414349930545	0.0331124981895549	0.0208176985414626	-0.00145426044745367	0.647705078125	-0.3896484375	0.2548828125	0	0	0	0.1270222906239	-0.327559092062843	0.386131478604593	0.852920195635122	0.487215044875193	0.575464060167603	0.656858139557304	-0.741893284921631	0.669535637830577	-0.036281999159292	-0.460668919979909	-0.469641507035123	0.753140757783247	-2.75804954449227	-41.0606945548948	49.7471722467074
22802	1646737224874	6.36716849866919	-0.458146434392775	7.36016638340901	0.053247478556542	-0.0992606094448159	-0.0705062391674875	0.0345776208984952	0.0240558943138663	-0.000296724541224945	0.647216796875	-0.396240234375	0.251220703125	0	0	0	0.127101618091553	-0.327412627482992	0.386219974526231	0.852924546088428	0.487270205283282	0.57560364345275	0.656694900762225	-0.74206234239953	0.669358619910933	-0.0360904134564101	-0.460338165955975	-0.46972277312778	0.753292300086386	-2.74295700219067	-41.0482915888433	49.7508261778089
22803	1646737224874	6.36746487261918	-0.445616402790318	7.40942797356079	0.0223204866548491	-0.11206954188499	-0.0336410222393795	0.0270426446260524	0.0209714699213067	0.00174359353632084	0.65478515625	-0.39404296875	0.25048828125	0	0	0	0.127064290155604	-0.327339675654395	0.386338138933769	0.852904593325021	0.487183158295335	0.575832779492921	0.656558588653624	-0.742205513600086	0.669195017144889	-0.0361801687404094	-0.460199463118999	-0.4696750356256	0.753406805819457	-2.74935088034853	-41.0379363170271	49.7671188073861
22804	1646737224875	6.38918718355852	-0.447617423073658	7.38582413167599	0.0474046900315947	-0.0890812135125377	-0.0370907585463271	0.0286188016228199	0.0230173462910428	0.00609577614490899	0.65234375	-0.395751953125	0.24951171875	0	0	0	0.127109439532777	-0.327213585416406	0.386443629259683	0.852898458965197	0.48718518184709	0.576010480845424	0.65640119176068	-0.742378222644583	0.669009023572536	-0.0360763207879074	-0.459918659255838	-0.469722101177649	0.753548919801208	-2.74095524015711	-41.0259813158526	49.7757184865222
22805	1646737224875	6.35828381031266	-0.375628671516124	7.37348066177593	-0.0163406719611695	-0.0519642421162789	-0.0692732371995177	0.0347643818742535	0.0250283250275102	0.00880913368892019	0.649169921875	-0.392822265625	0.251220703125	0	0	0	0.127143118604046	-0.327195165594749	0.386700741767149	0.852783962865038	0.486811719856322	0.576343154522311	0.656386256441892	-0.742745609505846	0.668594327416748	-0.0362020014078733	-0.459720903342798	-0.469904451544586	0.753555902006124	-2.75046393912197	-41.0248470240398	49.8136901948034
22806	1646737224875	6.38537946615898	-0.444982721340214	7.38927545353941	0.0427360482856754	-0.0884100790350765	-0.0370631410719699	0.00562184832454291	0.0277474427112439	0.0138037680701395	0.6494140625	-0.392822265625	0.253173828125	0	0	0	0.127068213327295	-0.327099557929725	0.3868041311662	0.852784915718347	0.486776886629879	0.576593543979597	0.65619215759103	-0.74284936960471	0.66847246654914	-0.0363232094341142	-0.459590118171407	-0.469770631805308	0.753719096727975	-2.7590619675588	-41.010107585867	49.8279786423159
22807	1646737224876	6.33766973318028	-0.494743180868079	7.40393958477555	0.0494345079150653	-0.153432154253189	-0.055476506932294	0.0300474768547075	0.0296131308626871	0.00996851668835058	0.649169921875	-0.392822265625	0.2509765625	0	0	0	0.127045522217556	-0.327016631754905	0.386981060860324	0.852739829241934	0.48661156218219	0.576896330005533	0.656048635374508	-0.743080325026046	0.668210187639773	-0.0364249323074637	-0.459391791513293	-0.469772039994468	0.75383911568029	-2.76633689522871	-40.9992109457973	49.852397177273
22808	1646737224877	6.35617245802124	-0.415517734039625	7.4130286216055	-0.00255026143405856	-0.0925895147619656	-0.0393564701219446	0.0225594771684387	0.0250146760690781	0.012167016048707	0.654296875	-0.3896484375	0.25390625	0	0	0	0.127050619783069	-0.326899562653279	0.387103284793293	0.852728481318688	0.486575445678676	0.577122408226694	0.655876559716247	-0.743253576394347	0.668018373829962	-0.036408424884722	-0.459149710704048	-0.469767153117579	0.753989631899666	-2.76453403697427	-40.986148816349	49.865556475875
22809	1646737224877	6.38306448824281	-0.519127135184659	7.38619594804126	0.0996963240435349	-0.132296688628921	-0.03815650005291	0.0164456883328682	0.0231666903630134	0.010968555136345	0.648193359375	-0.39794921875	0.25146484375	0	0	0	0.127027866475279	-0.326871845642095	0.387251327772761	0.852675276294266	0.486382411329528	0.577355599482416	0.655814502504766	-0.743442932133425	0.667800660553945	-0.0365360701851089	-0.459047662677995	-0.469790154760628	0.754037435330538	-2.77403557721463	-40.9814387364661	49.8881654124438
22810	1646737224878	6.34030905086632	-0.640695557967849	7.41595827885534	0.156690181831445	-0.25015671707013	-0.0392889729013213	0.00870980069188802	0.0261543848684922	0.012360611469392	0.6552734375	-0.39794921875	0.256591796875	0	0	0	0.126971533473917	-0.326777579847352	0.387351891943439	0.852674119933418	0.486349850233893	0.577586966298605	0.655634898048788	-0.743552767971059	0.667673482990241	-0.0366251464742027	-0.458904243192463	-0.469686508720077	0.75418928599278	-2.78022916224929	-40.9678088340445	49.9013661891301
22811	1646737224878	6.33184301606094	-0.514440929655631	7.41566385345381	0.0582608378357612	-0.168555927925309	-0.049637184073104	0.0563876347398534	0.0156872998149056	0.00165118497604639	0.64697265625	-0.39453125	0.253173828125	0	0	0	0.12708592883843	-0.326703570975047	0.387652383980981	0.852548868157884	0.48598081181203	0.577946348858989	0.655591845885139	-0.744024055947772	0.667149591770272	-0.0366009067071597	-0.458531192746521	-0.469988765867146	0.754227886806852	-2.77825002301999	-40.9645420907205	49.9403495387937
22812	1646737224879	6.4164929332544	-0.310159513813263	7.3946197404655	-0.040156027722139	0.0258896330169361	-0.0174998649113629	0.0396371880038679	0.0158827896355548	0.0081507663289578	0.641845703125	-0.3896484375	0.253173828125	0	0	0	0.127187723512349	-0.326591277630234	0.387779207542272	0.852519035893912	0.485930847147478	0.578101510065728	0.655492071538824	-0.744255114548844	0.666901138371268	-0.0364307028067619	-0.458209053007927	-0.470150524511919	0.754322840727195	-2.76500296527621	-40.9569719619923	49.950827012358
22813	1646737224880	6.32785697792536	-0.452754753757777	7.45561424785295	-0.00565957160389083	-0.146575829576805	-0.0243561756436126	-0.00484765893302084	0.023571002485943	0.0206110982394899	0.64599609375	-0.391357421875	0.253662109375	0	0	0	0.126971290016383	-0.326590316861492	0.387869215678125	0.852510720151438	0.485792472923094	0.578390141087138	0.655340001788741	-0.744260516442189	0.666871526081624	-0.0368598883174278	-0.458346983099565	-0.469837431879121	0.754434112887773	-2.79711371629968	-40.945435720013	49.9729495278227
22814	1646737224881	6.27687794513485	-0.460863388777344	7.43538589266527	-0.0149005412373546	-0.170219180737238	-0.0726997668686486	0.0308070656762365	0.0105456050879423	0.01814080487694	0.650390625	-0.390869140625	0.256103515625	0	0	0	0.127029199807997	-0.326524647734804	0.388020903040148	0.852458219282159	0.485642866451141	0.578586886661039	0.655277209163424	-0.7444995455384	0.666606722400096	-0.036822606427524	-0.458117269875559	-0.469970948288176	0.754490473635604	-2.79408066136581	-40.9406727640423	49.9912365617899
22815	1646737224882	6.35225417225549	-0.504772127756296	7.4426283747998	0.0500034152702509	-0.157767299377513	-0.0161954404727016	-0.0012144919839306	0.00713610740247768	0.0238308579663046	0.643798828125	-0.400146484375	0.243408203125	0	0	0	0.126910976068229	-0.326568264342618	0.388140530532215	0.852404658267322	0.485400194564841	0.578815398214762	0.655255206698811	-0.744595786937278	0.66648106542316	-0.0371497443822357	-0.458218032372877	-0.469867773125478	0.754493545755319	-2.8188524031376	-40.9390039109384	50.016477455798
22816	1646737224883	6.3554260633711	-0.582039951188831	7.43467513609008	0.111935285653963	-0.20254038339743	-0.0172265162696004	0.0202377143414649	0.00402195461682812	0.0175438080694055	0.64453125	-0.3955078125	0.255615234375	0	0	0	0.126937548741	-0.326550798902577	0.388267975313892	0.852349349622188	0.48522511016348	0.578976796571622	0.655242292208388	-0.744783028380056	0.666269676130555	-0.0371881608300222	-0.458099152044481	-0.469968709278127	0.75450286891143	-2.82172785058525	-40.9380243863379	50.034518586505
22817	1646737224883	6.32427256992397	-0.487243343488928	7.41588292295087	0.0314642957243087	-0.146668614708722	-0.0552979989410094	0.0291405927454376	0.011523514781874	0.0134652795547047	0.6484375	-0.3935546875	0.25	0	0	0	0.126860236476515	-0.326614868178185	0.38847776812152	0.85224071245241	0.484815503120538	0.579284260923952	0.655273738966983	-0.745022018579274	0.66598300815289	-0.0375343134170785	-0.458144212847923	-0.469996146683585	0.754458416572139	-2.84811736881042	-40.9404095521782	50.0733099602769
22818	1646737224884	6.32432800585514	-0.515369105619857	7.39775696960636	0.0611414704969365	-0.156632954080913	-0.0678802303496031	0.017102643258499	0.0017662263086462	0.0117144277363942	0.648681640625	-0.395263671875	0.2568359375	0	0	0	0.126886518750127	-0.326610654958061	0.388574260433576	0.852194423565327	0.484671048392731	0.579396657776375	0.655281228029201	-0.745166613753684	0.665819710975946	-0.0375610199911574	-0.458061887299913	-0.470088954809061	0.75445058285468	-2.85017007834237	-40.9409775933853	50.0871839859716
22819	1646737224885	6.37232841928261	-0.482747154640606	7.41410088184597	0.0507951581971351	-0.114441979082979	-0.0253062567536606	0.0294689807926854	-0.000940960834025088	0.0117310101769415	0.6484375	-0.40283203125	0.25341796875	0	0	0	0.126920564747558	-0.326657822970928	0.388747814728023	0.852092115607369	0.484339606472162	0.579578705037329	0.65536529528931	-0.745417086520041	0.665532613576696	-0.0376790046278659	-0.458004926530671	-0.47027105474718	0.75437167387211	-2.85940661909369	-40.9473543836057	50.1153291322427
22820	1646737224887	6.32125919389934	-0.431835052211609	7.4302707420435	-0.0194121706728018	-0.117681940706195	-0.0484927355688924	0.0140849506882378	0.00554335272547736	0.019051947020958	0.64697265625	-0.394287109375	0.255126953125	0	0	0	0.126914512979129	-0.326648688792618	0.388872885442799	0.852039447134184	0.48415702615491	0.579757158129543	0.655342362145459	-0.745582995143087	0.665341170725324	-0.0377772933297026	-0.457927910678414	-0.470321979217866	0.754386681010668	-2.86679624746963	-40.9456147648564	50.1346367293245
22821	1646737224888	6.32566977581475	-0.567023122472003	7.38504488460699	0.101029208709355	-0.181099556825071	-0.0745408607467706	0.00643528158758413	0.00365874657130201	0.0178904091454881	0.64404296875	-0.39404296875	0.251953125	0	0	0	0.126786556214895	-0.326723312273973	0.389107915414806	0.851922576612121	0.483693814756535	0.580131388564025	0.655353237246179	-0.745827882957387	0.665040398649423	-0.038236594611952	-0.45801862688058	-0.470285913213434	0.754354092759782	-2.90171706073275	-40.9464397018217	50.1798026037648
22822	1646737224889	6.35009655007508	-0.531027786016021	7.42652796654332	0.0666984592387771	-0.162258546856683	-0.0286055124676334	0.0309844445493891	0.000776780343231889	0.0130478570467195	0.645263671875	-0.401123046875	0.258544921875	0	0	0	0.126871020037834	-0.326698416539932	0.389232341882502	0.851862707798343	0.48353265732593	0.580247910735103	0.65536900398697	-0.746042156139769	0.664803856614446	-0.0381697981771503	-0.457839787001578	-0.47047656085942	0.754343777809722	-2.89669616301863	-40.9476357152344	50.1948524691936
22823	1646737224889	6.37173898009658	-0.510642958428283	7.39655876157731	0.0737529684153377	-0.11979363831691	-0.0377650950008981	0.00630116362372258	0.00468200472513895	0.0131746498448831	0.64892578125	-0.398681640625	0.252685546875	0	0	0	0.126725346940199	-0.326737053709279	0.38938902941418	0.851797961930028	0.483238163010526	0.580549830326767	0.65531883256761	-0.746173296284874	0.664633740429539	-0.0385668639379357	-0.457936993178733	-0.470344432932084	0.754367168352533	-2.92668666645762	-40.9438299505813	50.2266743932449
22824	1646737224890	6.33126997184449	-0.690075429784856	7.38817399540552	0.191740593322965	-0.258020065350721	-0.0636894852286751	0.0183607202759411	0.0073759208985053	0.00647073670999352	0.64013671875	-0.3994140625	0.259521484375	0	0	0	0.126753404733827	-0.326704750170548	0.389469487611079	0.851769392984008	0.483155048871927	0.580654499242899	0.655287380664807	-0.746298256950225	0.664494185216693	-0.0385537220804809	-0.457821046286234	-0.470412404515635	0.754395161208764	-2.92558274272186	-40.941444271032	50.2365988088035
22825	1646737224891	6.37467463890093	-0.550065891244358	7.43185378556698	0.0881056845765527	-0.158751489906247	-0.0076614235595791	0.050282249626374	0.00656455041215969	-0.00950976449797036	0.653564453125	-0.400146484375	0.25048828125	0	0	0	0.126817249902012	-0.326627321811912	0.389627288533591	0.851717414289053	0.483010337351879	0.580860736062478	0.655211278376816	-0.746548650842663	0.664215922314505	-0.0385009151695467	-0.457565433502384	-0.470550755864709	0.754463955546537	-2.9213165910952	-40.9356721413892	50.2550403188834
22826	1646737224892	6.36914577935891	-0.509551998871753	7.37461937426452	0.0837888823683944	-0.109359712517908	-0.0560644163608881	0.0302396059091033	0.0126058929625072	-0.00511420294706682	0.640380859375	-0.385498046875	0.26220703125	0	0	0	0.126904015234065	-0.326542499324803	0.389681743349115	0.851712102739287	0.483036270070211	0.580914205436203	0.655144753256167	-0.74667242267174	0.664087019635734	-0.0383239295068058	-0.457336041678515	-0.47066667215106	0.754530734104366	-2.907653713141	-40.9306268241874	50.2561207940784
22827	1646737224892	6.34469738415619	-0.502649194986337	7.40072839068367	0.056771238416025	-0.131204057313528	-0.0526574827537267	0.0377859536993287	0.0156741701747093	-0.00715157154940535	0.640869140625	-0.40087890625	0.246337890625	0	0	0	0.12697958279347	-0.326435552069892	0.389739985409827	0.851715186944068	0.483085148235144	0.580993628644236	0.655038276003343	-0.746796229487401	0.663957858652688	-0.0381490964078967	-0.45708219302225	-0.470750852795978	0.754632031796842	-2.89402378540445	-40.922552307701	50.257121493522
22828	1646737224893	6.34303659284137	-0.47032177390809	7.4204391141498	0.025397933134471	-0.120722153440364	-0.0401230874297003	0.0362718364501138	0.0139507519614169	-0.00846632216051634	0.64404296875	-0.394287109375	0.253662109375	0	0	0	0.127094975781672	-0.326331201440091	0.389790648643142	0.851714778742321	0.483142394394051	0.581030799842175	0.654963080160971	-0.746931024417505	0.663820234722829	-0.0379043630093624	-0.456801347964081	-0.470899039717953	0.754709628195446	-2.87519420410993	-40.9168505566268	50.2555858970075
22829	1646737224893	6.34251972523674	-0.496336290546264	7.40302070254002	0.0516123766458851	-0.12931530023204	-0.0526036309221887	0.0347005966640375	0.0172766659360086	-0.0057234858195735	0.64501953125	-0.403076171875	0.255859375	0	0	0	0.12706289472815	-0.326342032722586	0.389893437307571	0.851668366212038	0.482967970445956	0.581187886798669	0.654952349229936	-0.74705174019547	0.663676256655581	-0.038046337833707	-0.456788394110703	-0.470908129670888	0.754711796923588	-2.88593709903259	-40.9160369201239	50.2733698270376
22830	1646737224894	6.41414458716016	-0.489195487781749	7.4008418031467	0.0847853234155536	-0.0823235458209418	-0.00763483059823855	0.0437627346459216	0.0220682617605081	-0.00644686843404693	0.652099609375	-0.404052734375	0.26318359375	0	0	0	0.127190374187193	-0.326190885630198	0.389970400679786	0.851672003437682	0.483045185450868	0.581277063257185	0.654816252504349	-0.747230426456212	0.663491390615538	-0.0377606191306154	-0.456414327766783	-0.471058542338596	0.754844229691817	-2.86379895607757	-40.905718715531	50.2731885423909
22831	1646737224895	6.33787684432702	-0.431792041311316	7.44346023894963	-0.0133671859036252	-0.105194833716073	-0.0275465036864269	0.032881080011333	0.0317204455939486	0.000411642997986271	0.648681640625	-0.398193359375	0.253173828125	0	0	0	0.127123912700533	-0.32603232764078	0.390300541456322	0.851591404073423	0.482736817344074	0.581860161905696	0.654525719256006	-0.747646182531929	0.663009996317219	-0.0379859254050139	-0.456059591419748	-0.471016450636832	0.755084864305684	-2.87994114289405	-40.8836972549337	50.3194047616284
22832	1646737224896	6.31924163705091	-0.61299270122818	7.41212848948911	0.130439428026157	-0.220599708026798	-0.0565332182020821	0.0328653585057461	0.0280174154489239	-0.00532573173134966	0.64892578125	-0.394287109375	0.25244140625	0	0	0	0.127190755544805	-0.325877955982908	0.390369082737204	0.851609093863644	0.482831074094631	0.5819863947707	0.654343938758836	-0.747781048518151	0.66286898189371	-0.0377917493679581	-0.455738584460126	-0.471058965677333	0.755252139016687	-2.86461054309107	-40.8699226196556	50.320015386426
22833	1646737224896	6.36232447606497	-0.529214655304426	7.41976046102106	0.086889093681174	-0.143934622797055	-0.0257667327902293	0.0711008637284773	0.0265043825748484	-0.0151991384505189	0.649169921875	-0.3984375	0.251220703125	0	0	0	0.127407062598367	-0.325746211189117	0.390555937564808	0.851541488084324	0.482710931057619	0.582144432667904	0.654291996398589	-0.748153904348515	0.66246700006586	-0.0374594344833667	-0.455253657256655	-0.471429033193231	0.755313692591983	-2.83923149534693	-40.8659871513788	50.3346659749308
22834	1646737224897	6.30541377044859	-0.397321139502382	7.44564422481115	-0.0461264569977641	-0.102322478101216	-0.0484093531145042	0.0417660480928194	0.0390433242089189	-0.00520350679982622	0.642578125	-0.396728515625	0.261962890625	0	0	0	0.127489864054551	-0.325528527700482	0.390646279375575	0.85157089935397	0.482853324126355	0.582322831429455	0.654028124300563	-0.748329182399106	0.662283637946745	-0.0371996999707045	-0.45481436009653	-0.471466332736503	0.755555024433017	-2.81867769209308	-40.8459982110738	50.3349886423348
22835	1646737224898	6.30867945359208	-0.523795830898659	7.42690568911199	0.0605214668316891	-0.17296814871761	-0.0556824774541837	0.032745949205943	0.0308810561168682	-0.0071822317793319	0.64599609375	-0.396728515625	0.256103515625	0	0	0	0.127467102165866	-0.325405039403202	0.390800390159297	0.851550793110886	0.482773230764683	0.582615889570595	0.653826225289942	-0.748529639182177	0.662054385833556	-0.0372474088273671	-0.454569452254361	-0.471426256606924	0.755727396392874	-2.82164413571441	-40.8307079504985	50.3538220896891
22836	1646737224898	6.25784537280086	-0.488439552831125	7.47373877449395	-0.00802123277494401	-0.200840446649401	-0.0548407895360601	0.0465079257308597	0.0327621639470482	-0.0076806335070416	0.6435546875	-0.39013671875	0.25732421875	0	0	0	0.127585963797695	-0.325203663479898	0.390884116336203	0.851571492416892	0.482904369710639	0.582748694949709	0.653610991529964	-0.748714386292205	0.661862858875758	-0.0369367540519701	-0.454125684666105	-0.471531032462573	0.755928798202134	-2.79740399367231	-40.8144117017197	50.3525925581974
22837	1646737224900	6.2758409694406	-0.377419824912511	7.50079999733677	-0.0919846492122346	-0.129074460887924	-0.0267023207060664	0.0421865854885527	0.0216878558790217	-0.00943382595741121	0.6416015625	-0.3974609375	0.263916015625	0	0	0	0.127647994577587	-0.325089755242954	0.390941175236003	0.851579496008146	0.482963297082337	0.582840867323653	0.653485253887775	-0.74882908858158	0.661741973970825	-0.0367771121660659	-0.453873825821052	-0.471586771721395	0.756045281032793	-2.78490414416439	-40.804893430679	50.3536097647892
22838	1646737224900	6.32548473023322	-0.489222750440248	7.42620513842204	0.0518895389953311	-0.138402946330618	-0.046533039492493	0.0131526787698765	0.0253034858455657	0.00305711579609907	0.648681640625	-0.3955078125	0.2646484375	0	0	0	0.127621854541689	-0.324992486760577	0.391011549460399	0.851588230297422	0.482979703475509	0.583009379116667	0.653322791499506	-0.748913954606667	0.661645260863836	-0.0367890931096197	-0.453716315142085	-0.471514170135346	0.756185091585032	-2.78529570290103	-40.7925971373574	50.360790713646
22839	1646737224901	6.25176068403777	-0.486035646644951	7.45483878462074	0.00293569941680841	-0.189571924539187	-0.0731074571410541	0.034914467094397	0.0149196426537603	0.000690672788158143	0.649658203125	-0.389404296875	0.269775390625	0	0	0	0.127619245276821	-0.324825484474781	0.391164218885306	0.85158222546889	0.482957916999145	0.583309025733598	0.653071382702968	-0.749124958434996	0.661407764197646	-0.0367636520062462	-0.453391053129208	-0.471476775628228	0.756403465741397	-2.7825702931279	-40.7735732430688	50.3765228925116
22840	1646737224903	6.30058144675291	-0.476089368863528	7.4770697637907	0.0102035930974423	-0.16524143909622	-0.0247789599936752	0.0214650011277474	0.00411059108865485	0.00370870814100883	0.643798828125	-0.393310546875	0.25244140625	0	0	0	0.127668643826397	-0.324802069368472	0.391237818245351	0.851549941396337	0.482873170617152	0.583383002981158	0.653067969610228	-0.749251161814279	0.661267373916293	-0.0367172536255559	-0.453272762934298	-0.471582158299629	0.756408666234973	-2.77904492075594	-40.7733150146648	50.3850309638523
22841	1646737224904	6.30439943215591	-0.580195944095586	7.45146745638411	0.103057239788553	-0.219560910533724	-0.0378411493935147	0.0256995236910132	0.0109629553196939	-0.00482470751385492	0.646240234375	-0.3984375	0.25830078125	0	0	0	0.12771497659641	-0.324708401750955	0.391268733431484	0.851564511252226	0.482946464142527	0.583440883645156	0.652962057139304	-0.749321387366279	0.661195325983802	-0.0365814069254925	-0.453078548606868	-0.471611573425137	0.756506677170638	-2.76842086681518	-40.7653023679876	50.3835516303764
22842	1646737224905	6.2727973818879	-0.454549205570305	7.45026594288902	-0.00420579975145813	-0.155229991025457	-0.0639977203276896	0.0382132658381421	0.00370706713386827	-0.00427098480912486	0.643310546875	-0.393310546875	0.255859375	0	0	0	0.127849666283872	-0.32464867039079	0.391335012711133	0.851536617809811	0.482920297279739	0.583459737971264	0.652964563082678	-0.749484634647126	0.66102274131496	-0.0363554382771013	-0.452836359961425	-0.471830127939028	0.756515407289189	-2.75131458702063	-40.7654919401581	50.3859859812381
22843	1646737224905	6.30240497966383	-0.516806289689266	7.48924120350653	0.0382922811649974	-0.197410860990602	-0.0129070827174083	0.016800577681106	-6.45891390100875E-05	-0.00494635066734698	0.651611328125	-0.39013671875	0.25341796875	0	0	0	0.127822040132399	-0.324699495833017	0.391412352394154	0.851485838904823	0.482733215598118	0.583556646497419	0.653016296034783	-0.749571654446769	0.660915792899332	-0.0365054728250707	-0.452891794370614	-0.471860101115717	0.756463526924352	-2.76284055581722	-40.7694056083142	50.4015637981301
22844	1646737224906	6.32597790387838	-0.518304411781147	7.46444710150833	0.0630918293003328	-0.174358882056839	-0.0162480243303076	0.0397135137467573	-0.000137277481249938	-0.011553666841571	0.646728515625	-0.393798828125	0.253173828125	0	0	0	0.127982150847398	-0.32464903335429	0.391447715263058	0.851464773447458	0.482743382714914	0.583509317267548	0.653051072357225	-0.749706443504391	0.660778510559611	-0.0362216585845981	-0.452657790182561	-0.47211083089099	0.756447148413198	-2.7414528281687	-40.7720366139444	50.3986887067897
22845	1646737224907	6.30007515631977	-0.492540939482086	7.46046904044234	0.0326264019811615	-0.173273084501359	-0.0371539694147263	0.0288774080967393	0.00260950352629465	-0.0116398862746501	0.6484375	-0.392333984375	0.263671875	0	0	0	0.1281025981748	-0.324715443278966	0.391495949030828	0.851399158520527	0.482581605577192	0.58344485923505	0.653228206824179	-0.749832427041119	0.660641292466634	-0.0361166726822946	-0.452621613841148	-0.472382449843565	0.756299210474021	-2.73405287745388	-40.7854393543216	50.4050119096329
22846	1646737224907	6.29992690879339	-0.524379906748	7.41847896269377	0.076675674632625	-0.176037792504666	-0.06789314243942	0.0258784105039758	-0.000675435304395937	-0.0127459476681872	0.643798828125	-0.38916015625	0.259765625	0	0	0	0.128206955806582	-0.324694587093189	0.391502747531574	0.851388278208257	0.482598047575223	0.583385491113232	0.653269081799494	-0.749897909425604	0.660577150316075	-0.0359298471942515	-0.452495579995751	-0.472545444628203	0.756272803190385	-2.72002620502243	-40.7885325113242	50.4011896707929
22847	1646737224907	6.32069465320778	-0.443041329564323	7.42503572115872	0.0248713651437422	-0.114557706229458	-0.052314486485141	0.0412724020789255	-0.00178248639261998	-0.0129370243102734	0.6513671875	-0.4033203125	0.263916015625	0	0	0	0.128347809373213	-0.324611003633371	0.391501367947487	0.851399562511327	0.482708750430764	0.583321964356586	0.653244018844983	-0.749974409215719	0.660507037448688	-0.0356207664472613	-0.452250647074278	-0.472721841445824	0.756309072298465	-2.69653317607565	-40.7866358899546	50.3916705902473
22848	1646737224908	6.29738581490188	-0.435997728656344	7.44995250895562	-0.00182296588594877	-0.13705113353116	-0.0489704536512274	0.0215019238804139	-0.00297307547792976	-0.00471523945394467	0.64306640625	-0.399169921875	0.253173828125	0	0	0	0.128425206119397	-0.324613391658774	0.391533553663313	0.851372179921775	0.48265524462313	0.583304466723919	0.653299176440405	-0.750058633655497	0.660416885577936	-0.035518774224173	-0.452168067112921	-0.47286936498727	0.756266224777955	-2.68897571031261	-40.7908099735837	50.393945969793
22849	1646737224909	6.29842997767488	-0.463433640393789	7.43138916722607	0.0250979021069887	-0.144682090271205	-0.0613298764114916	0.0200897352194249	-0.0058741789774194	-0.00282255378671075	0.6474609375	-0.389892578125	0.255615234375	0	0	0	0.128397676802033	-0.324684952926349	0.391768410067745	0.851240994553274	0.482194388432412	0.583601074744602	0.653374591885266	-0.750356249337885	0.660063098929664	-0.0358078833631671	-0.452165977096767	-0.472997347760338	0.75618743587011	-2.71111244586375	-40.7965175066321	50.4351299812818
22850	1646737224909	6.29969968455059	-0.456341568525267	7.4548969219519	0.00967697386271368	-0.151560284716226	-0.0429950706352606	0.0201160842780694	-0.00570222520615386	-0.00130602584654864	0.64697265625	-0.394775390625	0.2646484375	0	0	0	0.128468338957055	-0.324704428757907	0.391811621189761	0.851203015344323	0.482101374891305	0.583593989578289	0.653449554025411	-0.750450944036399	0.659959078772533	-0.0357406622852188	-0.452108001392134	-0.473151212271304	0.756125839661233	-2.70625064035351	-40.8021912193566	50.4402157767482
22851	1646737224910	6.30256244839292	-0.472777914028072	7.4837782765649	0.0101881458346746	-0.175178247808117	-0.0187117628092963	0.0247160548737148	-0.00743937142986267	-0.00427757673293874	0.6474609375	-0.391845703125	0.2646484375	0	0	0	0.128538685473822	-0.324715561867724	0.391864606752051	0.85116375639042	0.482003867711977	0.58360487840832	0.653511757666766	-0.750558924309803	0.659839872623444	-0.0356741311763641	-0.452032711924266	-0.473304012653905	0.75607522043518	-2.70140101206862	-40.8068996387563	50.4464311323456
22852	1646737224911	6.30219837039025	-0.511048955103204	7.41747988199225	0.0687086116862799	-0.170785942825644	-0.0677402542181955	0.0169908122441526	-0.00798943493489533	-0.00712936618755644	0.642333984375	-0.394775390625	0.26220703125	0	0	0	0.128610079906471	-0.324747201482056	0.391876288989457	0.851135521878787	0.481944458514849	0.583548132417908	0.653606239304982	-0.750611186545948	0.659784842948606	-0.0355922413928664	-0.452009275943441	-0.473450671313132	0.755997404952048	-2.69548612534489	-40.8140519360478	50.4471632275392
22853	1646737224912	6.30506347615854	-0.527301249771548	7.44639569770883	0.0699783370544027	-0.193296380765499	-0.0434284336440012	0.0261288515051295	-0.00453859727628027	-0.00617225540471631	0.64892578125	-0.39990234375	0.255126953125	0	0	0	0.128641193843816	-0.324689527677867	0.391913865597651	0.851135521415402	0.48196046513726	0.583606727752633	0.653542115985298	-0.750680521628895	0.659709930397488	-0.0355184766271046	-0.451877045767591	-0.473482835018129	0.756056307725522	-2.68969869816543	-40.809197691388	50.4490535197802
22854	1646737224913	6.30233256143804	-0.477480019260161	7.43541140129567	0.0367822931406201	-0.158324132748311	-0.0553154987690991	0.0229591299376315	-0.00345046939967373	-0.00930342724947702	0.64306640625	-0.400146484375	0.26513671875	0	0	0	0.128732577530128	-0.32468834895456	0.391929073619469	0.851115151308797	0.481938154609894	0.583557609482057	0.653602426209386	-0.750749481701746	0.659639049468469	-0.0353771132357389	-0.451786266785269	-0.473642102047443	0.756010799071223	-2.67917036535602	-40.8137632682765	50.4479880577714
22855	1646737224914	6.30576328295356	-0.522693088798867	7.44612800549765	0.0661819143991212	-0.190271312201534	-0.0433425912542713	0.0230078187995789	-0.00496636053254435	-0.0091325248151238	0.63720703125	-0.399658203125	0.256103515625	0	0	0	0.128721140669318	-0.324712663564943	0.392102752531451	0.851027605617238	0.48163423515564	0.583785764397834	0.653622708305394	-0.750975302173242	0.659372598804099	-0.0355509700590071	-0.451735054043683	-0.473731946603525	0.7559851081307	-2.69240887906172	-40.8152987247897	50.4767275518059
