// Start Time : 08/03/2022 10:59:43																																
// Update Rate : 100Hz																																
// Filter Profile : 46.1 human																																
// Firmware Version : 4.4.0																																
PacketCounter	Time_Of_Arrival	Acc_X	Acc_Y	Acc_Z	FreeAcc_X	FreeAcc_Y	FreeAcc_Z	Gyr_X	Gyr_Y	Gyr_Z	Mag_X	Mag_Y	Mag_Z	VelInc_X	VelInc_Y	VelInc_Z	OriInc_q0	OriInc_q1	OriInc_q2	OriInc_q3	Mat[1][1]	Mat[2][1]	Mat[3][1]	Mat[1][2]	Mat[2][2]	Mat[3][2]	Mat[1][3]	Mat[2][3]	Mat[3][3]	Euler_X	Euler_Y	Euler_Z
22631	1646737224731	5.52761914260393	1.14805515333486	8.29433934276991	-3.90312782094782E-15	-2.98155597433514E-16	0.220690371796454	-0.00671609172566206	-0.0234035729522661	-0.00858112139336241	0.541748046875	-0.3701171875	0.441162109375	0	0	0	0.199681870633565	-0.216239452174777	0.492005710501174	0.819327791971972	0.422341760314774	0.719869708214983	0.55083122704572	-0.892586101475131	0.436115062749029	0.114427721714792	-0.157852744504636	-0.539991902937336	0.826735299726865	7.88019355082577	-33.4240573227162	59.6001947424698
22632	1646737224732	5.59697754374528	1.17660944539898	8.21596775721605	1.73472347597681E-16	-1.31188462870746E-15	0.197941650030465	0.00850129487657751	-0.0195206830307331	-0.00285799939239723	0.55029296875	-0.38525390625	0.4375	0	0	0	0.204552365243779	-0.21855511074322	0.494772588735736	0.815838267597771	0.414867498007513	0.717896893620772	0.559025052414141	-0.896720752975339	0.426716830617827	0.117493138739325	-0.154197439279411	-0.55003345043472	0.820783986882389	8.14640267253213	-33.988400404368	59.9766888189674
22633	1646737224732	5.57477385143199	1.22796708080687	8.33584741083521	-0.066117999864556	-0.00569691577404657	0.290181244923565	-0.00952903473874688	-0.0265026827127777	-0.00387715450106322	0.543212890625	-0.383056640625	0.439697265625	0	0	0	0.202095416749004	-0.217503358963894	0.493269705768864	0.817639730406471	0.418754572420242	0.718720954536833	0.555053869085515	-0.894546682433299	0.431684879799488	0.115906848374359	-0.156303682057447	-0.545058119893797	0.823699462736938	8.00978394981028	-33.7144252299925	59.7732709989987
22634	1646737224733	5.58556620337031	1.0767075889701	8.21817155872788	0.0906237017123229	-0.000709971378001224	0.181710038212458	-0.00993310272846915	-0.0173265975139719	-0.00251649934673801	0.542236328125	-0.384033203125	0.43115234375	0	0	0	0.202100277391764	-0.217596148063036	0.493231104775448	0.817637127036371	0.418749987260238	0.718615643181308	0.555193664899611	-0.894520610712983	0.431757110320324	0.115839003351684	-0.156465092526155	-0.545139757367737	0.823614788452601	8.00596861441678	-33.7240549734946	59.7698917287224
22635	1646737224734	5.51565368586166	1.12430021866292	8.36472591195152	-0.00524930638658221	-0.112053045461885	0.269105245461752	0.00567054569185159	-0.0242354770622233	-0.00271246558189605	0.54638671875	-0.38232421875	0.440673828125	0	0	0	0.202179545812777	-0.217683846180778	0.493206260394819	0.817609172572226	0.418722655638603	0.718477482634484	0.555393054153697	-0.894522367240917	0.431742031924594	0.115881630879662	-0.156528183279125	-0.545333773772392	0.823474348733765	8.010224656923	-33.737791641983	59.7667261224544
22636	1646737224735	5.5824446589841	1.12312405286075	8.16531656974597	0.0538849206150823	0.0422856696637421	0.141849224412155	-0.0143913020151267	-0.0206198371792534	-0.00388598315771046	0.54296875	-0.37646484375	0.436279296875	0	0	0	0.202175790603556	-0.217799700339275	0.493153862019046	0.81761085401409	0.418725117815643	0.718348247352857	0.55555834188261	-0.894483553790099	0.431848436139053	0.115784714894886	-0.156743254111019	-0.545419768370504	0.823376480451898	8.00455125902732	-33.749180596984	59.7620954747413
22637	1646737224736	5.57089406422801	1.07818102409186	8.3129376352801	0.065011725653522	-0.0682888507614637	0.251773688220254	0.00595111818850186	-0.0335336249643029	-0.0101848639180033	0.539306640625	-0.385498046875	0.436279296875	0	0	0	0.202292901193867	-0.217911900458382	0.493085107468966	0.817593457995783	0.418762960861868	0.718122255106759	0.555821922319176	-0.894450377300339	0.431889317837772	0.11588847951761	-0.156831454617629	-0.545684930942761	0.823183971530369	8.01348098074053	-33.7673454246412	59.7519981191324
22638	1646737224737	5.62349997061163	1.27637817688188	8.20344847267916	-0.073433636681826	0.111831172414268	0.213855449426596	0.00871991799956533	-0.0240924326680757	-0.00278344680783163	0.546142578125	-0.37939453125	0.4345703125	0	0	0	0.202390977075469	-0.217986074062062	0.493058856970044	0.817565243559705	0.418750070156805	0.717978739939435	0.55601700310211	-0.8944523980125	0.431861711923661	0.115975727909129	-0.156854347830585	-0.545895585958841	0.823039927826892	8.0208208467175	-33.7807920312087	59.7477821817981
22639	1646737224737	5.56280836863214	1.19942380644407	8.2810319252962	-0.0435056416702587	-0.00961254442925537	0.235046622696954	-0.0185587754650468	-0.030011627141401	-0.00513976974609448	0.54443359375	-0.37451171875	0.431640625	0	0	0	0.202394591303174	-0.218149697062128	0.492987298163643	0.81756385862649	0.418748467042027	0.71779255792143	0.556258541635598	-0.894401833040632	0.431999906521066	0.115850946562157	-0.157146690717653	-0.546031065561659	0.822894278165846	8.01370289173697	-33.7974438219521	59.7414104186656
22640	1646737224738	5.5701608561422	1.0974817690644	8.18574391421541	0.0638432803803168	0.00181968137230946	0.148913009038802	-0.00504706295621926	-0.0215948439978959	0.00204823534177729	0.547607421875	-0.38330078125	0.444580078125	0	0	0	0.202424954361968	-0.218252484987492	0.492968309458387	0.817540357730479	0.418696197333049	0.71768347750284	0.556438604392501	-0.894402474754757	0.43201276744259	0.115798022086567	-0.157282254216459	-0.54616425632407	0.82277998129668	8.01118777793098	-33.809859548887	59.7407334297755
22641	1646737224738	5.59357275601509	1.17612774627954	8.27818905933627	-0.0126687110030569	0.000101968118452317	0.247113114518443	-0.00485171447090946	-0.0277834640788001	-0.00242332259181621	0.53955078125	-0.37890625	0.440185546875	0	0	0	0.202475651964463	-0.218376324178538	0.492925213889466	0.817520718337988	0.418673029100589	0.71752137266834	0.556665046924879	-0.89438492711495	0.432056687747179	0.115769688271679	-0.15744363071691	-0.546342473488083	0.822630782799671	8.01068677878124	-33.8254758225276	59.7364797033545
22642	1646737224739	5.61842973135131	1.17627358617424	8.22657731832924	0.00418983815917281	0.0434404791389552	0.218515998899809	-0.00603552194761191	-0.0370920222898755	-0.00680585403718427	0.5498046875	-0.384033203125	0.4404296875	0	0	0	0.202549826593797	-0.218535922892815	0.492853244042569	0.817503087449169	0.418675460484202	0.717289270755368	0.556962261600885	-0.894346923901189	0.432138495167077	0.115757940130324	-0.157652905132835	-0.546582494280567	0.822431236304416	8.01180262328847	-33.8459771218505	59.7282652050313
22643	1646737224739	5.62791649340152	1.07683260481198	8.17981664553143	0.102966580479926	0.030519023338602	0.173847524623181	-0.0067471360125643	-0.0186487620020505	0.000501878986537724	0.54638671875	-0.38330078125	0.43310546875	0	0	0	0.202568583173981	-0.218630583661228	0.492828833628232	0.817487845624308	0.418640817265175	0.717187787787057	0.557118966800318	-0.894338538070079	0.432171419711044	0.115699798217688	-0.157792412498891	-0.546689620382578	0.822333273997673	8.00877230985835	-33.8567883271822	59.7267998659011
22644	1646737224740	5.55168364770781	1.17068827266916	8.27605341481815	-0.0292809379271235	-0.0379599607295618	0.221377799796958	-0.00350520612583344	-0.0246940414048208	-0.00404074318809836	0.542236328125	-0.37548828125	0.43994140625	0	0	0	0.202619521060178	-0.218736062016222	0.49278347050206	0.817474351927279	0.418637972747162	0.717035304129661	0.557317342638672	-0.894316088626926	0.432219561770579	0.115693491804354	-0.157927139520673	-0.546851554861584	0.822199729717959	8.00962530274452	-33.8704763833275	59.721664841094
22645	1646737224740	5.57837526129043	1.12032842298577	8.17788874867324	0.0411726768653565	0.0110716954217931	0.149714583540497	-0.00662608099031931	-0.0233128803772317	-0.00399730292855503	0.54052734375	-0.38525390625	0.441162109375	0	0	0	0.202653232249358	-0.218847463136855	0.492736818841967	0.817464300562996	0.418632430472123	0.716889226404058	0.557509394739492	-0.894289809501081	0.432284189632772	0.115655159919726	-0.158090558793128	-0.54699197111048	0.822074910674902	8.00820592061812	-33.8837301890995	59.7169119031444
22646	1646737224741	5.59887570884578	1.22300256450698	8.24473948265509	-0.0535981480848279	0.030816094474888	0.227982439398767	0.00612363559227919	-0.0365499597877006	-0.0086190910796871	0.548828125	-0.380615234375	0.43408203125	0	0	0	0.202777736724737	-0.218973030526413	0.492671246806016	0.817439321271908	0.418651708945368	0.716651988130783	0.557799851654085	-0.894263410266394	0.432312464118798	0.115753559021966	-0.158188810147371	-0.547280422887325	0.821864002781743	8.0169608461114	-33.9037789726345	59.7075040300418
22647	1646737224742	5.58755208447484	1.09811093460589	8.22425001454032	0.0551060551168934	-0.0226213580815046	0.190378432760594	-0.0173007435499212	-0.0222298432131405	-0.000718284578764713	0.548583984375	-0.379638671875	0.43798828125	0	0	0	0.202763687359922	-0.219110061624787	0.49262675806496	0.817432899522277	0.418619316266378	0.716523510389196	0.557989181891741	-0.894233766520002	0.43241152865323	0.115612459117634	-0.158441910062078	-0.547370376388165	0.821755335965979	8.00836038084833	-33.9168500275615	59.704960722636
22648	1646737224743	5.61007842212129	1.12318165445238	8.19682267334316	0.0451274392088217	0.0178591864704499	0.183314996950097	0.000775427442803861	-0.0183821473918742	-0.00425773080401646	0.55859375	-0.38525390625	0.439697265625	0	0	0	0.202816797950162	-0.219178965057559	0.492591567233023	0.817422458485485	0.418628258334422	0.716404468091662	0.558135305658216	-0.894217171575681	0.432437788720314	0.11564259140072	-0.158511928204401	-0.547505431009581	0.821651855491081	8.01141627630791	-33.9269395482876	59.7002809287018
22649	1646737224743	5.5836993000608	1.1703555455647	8.2196196685024	-0.0127471998812691	0.00522974955848068	0.192780510101649	-0.00522050042884301	-0.0185781978021452	0.000467405760798282	0.547607421875	-0.377197265625	0.438232421875	0	0	0	0.202838689662633	-0.219277038584795	0.492570086874423	0.817403667622034	0.418584579732012	0.71630145678483	0.558300253106254	-0.894212925503399	0.43246235098494	0.11558355784121	-0.158651169151785	-0.547620797622325	0.821548092650858	8.00837786825118	-33.9383302384892	59.6992961454136
22650	1646737224744	5.6198984893697	1.07593714807724	8.2453010693694	0.081502580487895	-0.0251304745984062	0.223179067793083	-0.00989316400922279	-0.0188837718194394	-0.0040047556431435	0.55322265625	-0.376708984375	0.4384765625	0	0	0	0.20284915393762	-0.219374519773019	0.492523717525196	0.817402855693758	0.418590415499037	0.716180714941145	0.558450756646219	-0.894180457866859	0.432545216843905	0.115524647389523	-0.158818679069429	-0.54771326342517	0.821454081642299	8.00525326455808	-33.948724812965	59.6947404975584
22651	1646737224745	5.62126117309558	1.07585283922133	8.2443831121526	0.0812409630895727	-0.0251621180196985	0.223181109724827	0.002153061738249	-0.0152616279889431	-0.00434943551752995	0.54541015625	-0.3779296875	0.43505859375	0	0	0	0.202895178683673	-0.219438608038465	0.492495124715477	0.817391458176894	0.418590498867256	0.716076545096268	0.558584260269706	-0.89416868744851	0.432564197196815	0.115544682656028	-0.158884714949769	-0.547834461189206	0.821360487538123	8.00752412375645	-33.9579463454729	59.6911045046411
22652	1646737224745	5.61299346664412	1.17373797640456	8.24013066550218	-0.00899009776279616	0.0120515292872134	0.22638050338454	0.00962710558901281	-0.0118544024281771	-0.00458554840205325	0.546630859375	-0.383056640625	0.439697265625	0	0	0	0.202968747283347	-0.219458696318044	0.492474918186942	0.817379974793473	0.418612671134299	0.715991759083901	0.558676321755047	-0.89416478577234	0.432544285165988	0.115649372047367	-0.158848252903557	-0.547960986105933	0.821283136473227	8.01543015770696	-33.9643059160625	59.686826248547
22653	1646737224746	5.56553044790604	1.16955000026185	8.24167151482896	-0.0259402542474866	-0.0259884060962365	0.200642615690032	-0.00387511074067972	-0.015488498360054	-0.00114870780166213	0.54638671875	-0.373291015625	0.44091796875	0	0	0	0.202984022285062	-0.219544990903807	0.492453776779373	0.817365745184955	0.418578549409558	0.715901445800451	0.558817606983723	-0.894157947105219	0.432573528865419	0.115592853384193	-0.158976613383134	-0.548055893158484	0.82119496733205	8.0124128390604	-33.9740667680918	59.6857120400891
22654	1646737224747	5.62474961563306	1.07662688512265	8.24190243569414	0.0808873332525609	-0.0251714253449129	0.223183942809205	-0.00844203273190302	-0.0172884916029298	-0.00406570143137479	0.5498046875	-0.377685546875	0.444091796875	0	0	0	0.202996546850952	-0.219632304970763	0.492410350427298	0.817365340207109	0.41858739481059	0.715789108225061	0.558954868886617	-0.894127506168982	0.432648897517309	0.115546242643776	-0.159124465804981	-0.548143123667012	0.821108105159637	8.01006018206619	-33.9835507372662	59.681266454814
22655	1646737224747	5.62612969448974	1.05060334151359	8.19315355408101	0.111602020311178	-0.0100886666432919	0.180926142539068	0.00820996732395387	-0.0134199399281425	-0.00299749636402428	0.54248046875	-0.384765625	0.4365234375	0	0	0	0.203053892712263	-0.219678945025088	0.492398298858777	0.817345822187918	0.418570152787294	0.715706054980785	0.559074118574151	-0.894132714717853	0.432626063870759	0.115591424123835	-0.159140553181468	-0.548269579425611	0.821020555534123	8.01399502437414	-33.991791030163	59.6793977125279
22656	1646737224748	5.61963438067655	1.17655524013021	8.28571070875886	-0.01831610993259	-0.0122187376600109	0.267842877845698	0.00175286323259297	-0.00767038173273523	-0.00601074070725214	0.542236328125	-0.375244140625	0.440673828125	0	0	0	0.203086551653381	-0.219699850445606	0.492367871362549	0.817350419038022	0.418611709928183	0.715638001906553	0.559130115928484	-0.894110342009599	0.432659463574903	0.115639460784609	-0.159156943368742	-0.548332051594902	0.820975656503435	8.01771489208309	-33.9956607885841	59.67454438536
22657	1646737224749	5.62978470857762	1.02735059996044	8.19297319591347	0.133616578081709	-0.0192837326734008	0.180135543883091	-0.00296092059427007	-0.00642207425158552	-0.00898039800812363	0.54931640625	-0.38671875	0.4423828125	0	0	0	0.203082320972149	-0.219743804437303	0.492328320896628	0.817363478363875	0.418650969709053	0.715570214081473	0.559187476863587	-0.894074541378983	0.432740790703343	0.115611947995899	-0.159254764511554	-0.548356341060118	0.820940462639971	8.0161712977675	-33.9996249615081	59.6698369144373
22658	1646737224749	5.59774890928434	1.12438216262153	8.21459403308161	0.030804400113158	-0.0132465283953231	0.191184807524117	0.0200456371717431	-0.00839159986773779	-0.0094826983294305	0.55029296875	-0.3779296875	0.4384765625	0	0	0	0.203195294352057	-0.219719110542762	0.492303095405824	0.817357233447727	0.418722349432284	0.715483213474295	0.559245353420486	-0.894066770840331	0.432698669214051	0.115829490802356	-0.159110663894825	-0.548503083762421	0.820870369630956	8.03173523666419	-34.0036249561905	59.6625423505005
22659	1646737224749	5.58995679659818	1.25017885406985	8.28277458676105	-0.0956586178399401	-0.00307812099301014	0.257355282181903	0.00487450345648639	-0.00905106281765974	-0.00605765161387424	0.55078125	-0.3828125	0.4345703125	0	0	0	0.203218504973505	-0.219768053787671	0.492284311302092	0.817349618349784	0.418716318760409	0.715414917261368	0.5593372333071	-0.894058658588037	0.432716792164318	0.115824404953287	-0.15917210624821	-0.548577864973545	0.820808483541426	8.03198481688441	-34.0099753936199	59.6605177763728
22660	1646737224750	5.59538134441602	1.14946447278378	8.18838632986011	0.011713081960394	0.00835378531317299	0.171250972331931	-0.00452857455197495	-0.00335583047040222	-0.00441530428339857	0.54052734375	-0.38037109375	0.4404296875	0	0	0	0.2032130777613	-0.219788449409946	0.492257904105836	0.817361387868353	0.418750386702602	0.715377432856269	0.559359671585641	-0.894032981900184	0.432773201744218	0.115811843637528	-0.159226696602946	-0.548582249450374	0.820794965065503	8.03125564932038	-34.011526326241	59.6571767313743
22661	1646737224750	5.60509857492961	1.07849293533103	8.23938857636493	0.070208949050743	-0.0437529007663913	0.21033401297945	-0.00271084442559385	-0.00938094038747506	-0.00434493692170488	0.54345703125	-0.384033203125	0.439453125	0	0	0	0.203209768636866	-0.219850757954351	0.492235208033128	0.817359121885865	0.41874028839896	0.715314231481441	0.559448050413683	-0.894017518115614	0.432820579806269	0.115754148947515	-0.159340039456357	-0.548627283259118	0.820742868314898	8.02780972586949	-34.0176353417128	59.6555721479404
22662	1646737224751	5.60424844808532	1.0781656802654	8.21476201448907	0.074493503421581	-0.0315913346003856	0.189602847126338	0.0120147516877255	0.00201032418352948	-0.00490601550255567	0.544921875	-0.379150390625	0.4365234375	0	0	0	0.203259251851453	-0.219808046915271	0.492230446696358	0.817361172550535	0.418787219712797	0.715304071819763	0.559425910593434	-0.894016148487471	0.432789727763784	0.115880014608981	-0.159224341257401	-0.548664867091212	0.820740198096164	8.03645061905747	-34.0161049282109	59.6524176916753
22663	1646737224753	5.62490476818337	1.15713450948257	8.28389808996973	0.00144771761481314	-0.0208830160788999	0.267046922371795	0.00323837076111085	-0.00604407565503241	-0.00454749250264106	0.54248046875	-0.384765625	0.435791015625	0	0	0	0.203261880053317	-0.219846399295383	0.492220506653655	0.817356190203307	0.418773067092947	0.715266171229282	0.559484961882416	-0.89401174100421	0.432807161893619	0.115848899693571	-0.159286299549543	-0.548700523882193	0.820704337668091	8.03466740628796	-34.0201869057148	59.6519382439396
22664	1646737224754	5.63001956059261	1.08261751265166	8.2375183323698	0.0776953286260512	-0.0244711463535208	0.223210894107085	-0.00151961700614162	-0.00165733575439674	-0.00298953673655372	0.550537109375	-0.378173828125	0.440185546875	0	0	0	0.203262927851168	-0.219853948952614	0.492205011203562	0.817363230294471	0.418796936152084	0.715244241121441	0.559495131178315	-0.89399687057644	0.432836818214944	0.115852855800347	-0.159307004457303	-0.548705717429823	0.820696846582624	8.0350105806828	-34.0208898879499	59.6497483624042
22665	1646737224754	5.57213352688906	1.17580257069434	8.23631847038463	-0.0300333120466781	-0.0249931145350404	0.200633709479783	0.0121616376620889	-0.00103787385539265	-0.00485259612052712	0.545166015625	-0.376953125	0.438720703125	0	0	0	0.203286080607258	-0.219853136598597	0.492209985248693	0.817354695453925	0.418787857498479	0.715234120287972	0.5595148644922	-0.894006450081336	0.432808199705641	0.115885846765386	-0.159277109544347	-0.548741483253684	0.820678735518196	8.0374438370612	-34.0222540274304	59.6499364319337
22666	1646737224755	5.52722237908288	1.17471127259904	8.31151380303955	-0.059492717829313	-0.0995048023464493	0.237086509453013	-0.00274916055479328	-0.00782695610711644	-0.00284380811239139	0.546630859375	-0.38525390625	0.433837890625	0	0	0	0.20329711059817	-0.219889110692972	0.492187464239896	0.817355836748102	0.418800558087509	0.715178951629689	0.559575874829723	-0.893990235053218	0.432843569735073	0.115878832270997	-0.159334717419279	-0.548785487494757	0.820638127642178	8.03735619140495	-34.0264717349844	59.6472516097472
22667	1646737224755	5.60825907374772	1.05617277475256	8.2141926705387	0.0946544300959143	-0.0398680970750418	0.188836667529191	-0.00238531238322799	-0.0138631452080712	0.000318179410462206	0.5478515625	-0.37939453125	0.433349609375	0	0	0	0.203285253459893	-0.219968535239983	0.492183831687586	0.817339602035439	0.418737838659405	0.715129955360695	0.559685420053677	-0.89399539311854	0.432860363102147	0.115776263274923	-0.159470560159788	-0.548836089375405	0.820577898460247	8.03091657118395	-34.0340452354603	59.6492817782887
22668	1646737224756	5.58354804051977	1.13166936977926	8.33391537016949	-0.00277427070161443	-0.0917686253606504	0.281984518204721	0.00360221311094036	-0.0120802927047737	-0.00138589594137375	0.54345703125	-0.371337890625	0.44384765625	0	0	0	0.203331081714431	-0.220007813747569	0.492169923834237	0.817326005442048	0.418730655926032	0.715057702182468	0.559783101153726	-0.893995409202149	0.432850474563681	0.115813103729577	-0.159489329151628	-0.548938019469889	0.820506066197709	8.03413280023771	-34.0407990701047	59.647185969144
22669	1646737224756	5.5929213642715	1.03339583982152	8.31229552691281	0.091151444647722	-0.116179867898149	0.258118302747805	-0.0100747552086688	-0.0142855745677515	-0.00254728769332147	0.542724609375	-0.391357421875	0.439697265625	0	0	0	0.203286911188926	-0.220097111124005	0.492145711377016	0.817327530545341	0.418699720896158	0.715002754132503	0.559876419671713	-0.893974201660522	0.432934061024954	0.115664279576172	-0.159689293588872	-0.548943676880769	0.820463386828266	8.0243551420195	-34.0472517708867	59.6471118573336
22670	1646737224757	5.58042896728944	1.15351716624267	8.25814024119381	-0.0130556754368895	-0.0453469208900325	0.22057940187841	0.0177325250749861	-0.0237760924011469	-0.00914547907514966	0.541748046875	-0.379150390625	0.443603515625	0	0	0	0.203427921105035	-0.220141413138314	0.49210367522624	0.817305825236293	0.418743462100587	0.714832580717485	0.560060973906229	-0.893964220812893	0.432902107487423	0.115860852919983	-0.159630463428545	-0.549190446819432	0.8203096782727	8.03930101671147	-34.0600145990121	59.6385541008212
22671	1646737224758	5.59015989371023	1.10826236423509	8.33180578981219	0.0181928835259149	-0.0992741997826413	0.281218429621125	-0.0160227180552014	-0.0176243647245512	-0.00233920047952727	0.54296875	-0.386962890625	0.43603515625	0	0	0	0.203338263776483	-0.220261550964512	0.492084735080209	0.817307171846738	0.418674925335496	0.714793563575036	0.560162001895003	-0.893943968974393	0.433012327970812	0.11560494868131	-0.159923379246523	-0.549154336500222	0.820276799302147	8.02209318025878	-34.0670019926932	59.641280331636
22672	1646737224758	5.58759589790394	1.10419434574699	8.23304013112318	0.0353680564586452	-0.0506481249504946	0.198286912294536	0.00746530929714981	-0.0302878416548774	-0.00419450023183023	0.54052734375	-0.384033203125	0.436767578125	0	0	0	0.203447663021981	-0.220362659482099	0.492045266393625	0.817276454167436	0.418663508251206	0.714609485038224	0.560405345042495	-0.893938557393991	0.433001008461042	0.115689162310358	-0.15998350684725	-0.549402776262667	0.820098693433742	8.02958152698991	-34.0838346886723	59.6355257009142
22673	1646737224759	5.53444231105068	1.22506549697436	8.32685623683687	-0.112229689678244	-0.0896020189470448	0.259390227256155	-0.00443653412903071	-0.0337938744655685	0.00227299945065358	0.548095703125	-0.37744140625	0.43798828125	0	0	0	0.203436566853248	-0.220527110688046	0.492040902400476	0.817237485118905	0.418527087633016	0.714501982713918	0.560644266549928	-0.893955095899687	0.433018627263779	0.115495259459314	-0.16024781880702	-0.549528693646177	0.819962713437092	8.01761060443586	-34.1003647840926	59.6399101276684
22674	1646737224759	5.60065243591649	1.05637883424992	8.27954126506988	0.0708413368403729	-0.0923700456265653	0.23820784694457	-0.0251073894267008	-0.0485264872097351	0.00305396370752148	0.5400390625	-0.386474609375	0.44287109375	0	0	0	0.203449480920313	-0.22079034383313	0.491976780556674	0.817201798931203	0.418420942926277	0.714249258516455	0.561045373592349	-0.893927981896726	0.433134312212691	0.11527111852535	-0.16067569107594	-0.549766008673447	0.819719865566607	8.00459262652232	-34.1281231605332	59.637408222763
22675	1646737224760	5.59414041203549	1.1513356580383	8.24916298966079	-0.0158307275220823	-0.0415318751860639	0.220591924477183	0.00250585774649135	-0.0486574002047587	0.00696095606824786	0.544921875	-0.378173828125	0.435791015625	0	0	0	0.203494284165172	-0.220983245779096	0.491984369159109	0.817133931433613	0.418235571176098	0.714096588725111	0.56137783085384	-0.893971898374365	0.433082913630435	0.11512356334959	-0.160913802763893	-0.550004774427034	0.81951296279408	7.99647100291	-34.15113757922	59.6431392433706
22676	1646737224761	5.55162210067848	1.41793481253283	8.31153252887636	-0.285164975252826	0.0053460123191523	0.278460741291237	-0.0109543240881123	-0.0475117465574853	0.0210289427138489	0.54638671875	-0.382080078125	0.430908203125	0	0	0	0.20354259156482	-0.221225622222877	0.492010407245006	0.817040633416589	0.417969966469409	0.71392731663046	0.561790791752938	-0.894042662501596	0.43299234516336	0.114914518912934	-0.161210498282894	-0.550295752844564	0.819259274982356	7.98457795141723	-34.1797336138176	59.6530875695303
22677	1646737224761	5.58453408256874	1.36642692660528	8.28487394817788	-0.227591284714665	0.0189626887516752	0.269034475875648	-0.0618470183195378	-0.0682284964022405	0.0242192845233967	0.5390625	-0.37451171875	0.436279296875	0	0	0	0.20338431354194	-0.221661872618658	0.491980411555209	0.816979871158544	0.417642577746314	0.71371109088787	0.562308772825981	-0.894041282091737	0.433180191302083	0.114215181912275	-0.162064379705032	-0.550428379180378	0.819001670464527	7.93907165577729	-34.2156156212398	59.6650941304856
22678	1646737224762	5.62066255952218	1.23617854722005	8.16276789003496	-0.08502799787445	0.0522154105428481	0.17434427958255	-0.0506952620420282	-0.0705068231352709	0.0377304822210845	0.543212890625	-0.373779296875	0.4384765625	0	0	0	0.203308280196395	-0.222113020076574	0.492007095977426	0.81686018817415	0.417189647640648	0.713487185764283	0.562928799806544	-0.894116850248265	0.433189521422889	0.113586516063878	-0.162812333696172	-0.550711244010481	0.818663099032096	7.89915017386612	-34.2585867400954	59.6843544320653
22679	1646737224763	5.62287281720606	1.32975346977295	8.25351962388064	-0.191542111282059	0.0419235422841641	0.260399155940032	-0.0651878170412752	-0.078554651086092	0.0535299851097247	0.55078125	-0.384033203125	0.43408203125	0	0	0	0.203152408473518	-0.222586696942401	0.49206825117279	0.816733186214098	0.416647997064049	0.713338894074276	0.563517585123486	-0.894214988386331	0.433195870238322	0.11278693432174	-0.163658183687069	-0.550898321116839	0.818368522551361	7.84702788820986	-34.2994129764772	59.7115929833238
22680	1646737224763	5.63451877938519	1.24526727918721	8.20383071589712	-0.115273239174412	0.0383121622615941	0.216597745075111	-0.0925305856265433	-0.0766196425764768	0.0633773364073842	0.54931640625	-0.382080078125	0.4296875	0	0	0	0.202892122324761	-0.223191202978826	0.492146613723031	0.816585686999455	0.415954795027635	0.713192287629773	0.56421482553982	-0.894327235056135	0.433252994599014	0.111672016673087	-0.164804141726978	-0.551043195708284	0.818040947222837	7.77348452419911	-34.3477851441314	59.7480010053703
22681	1646737224764	5.58651127376952	1.05768847053605	8.23419989485424	0.0141327531544167	-0.0954593215308968	0.193337350316495	-0.0996300106424231	-0.0844872088016549	0.0698093488613701	0.5498046875	-0.37939453125	0.429931640625	0	0	0	0.202607179556555	-0.223811798167571	0.492231332305886	0.816435499772951	0.415233188994741	0.713058513233698	0.56491499843977	-0.894442021946549	0.43331729257702	0.110497028602089	-0.165996590728326	-0.551165746993288	0.817717219586272	7.69568713370584	-34.3963888581637	59.7866037570027
22682	1646737224765	5.69561439834951	0.980501566846269	8.17848377197271	0.123555042796281	-0.0229735162137793	0.200962997922273	-0.087405282943005	-0.0854783659796582	0.0679635074585414	0.5458984375	-0.38623046875	0.43408203125	0	0	0	0.202384366850423	-0.224444575655596	0.492324537346147	0.816260834807254	0.414482364771363	0.712882329026383	0.565688212936648	-0.894578622374661	0.433314235962912	0.10939772073554	-0.167133053833739	-0.551396008213514	0.817330401026666	7.62359260881314	-34.450095701275	59.8255252369338
22683	1646737224765	5.67704207242476	1.01814586655658	8.22307875344026	0.0621125084252847	-0.0468560803736841	0.231135819794904	-0.0705601650931987	-0.0846581916626037	0.0705419914151949	0.5556640625	-0.392822265625	0.43359375	0	0	0	0.202204878967197	-0.224993280258398	0.492447509279349	0.816080058183628	0.413746948886263	0.712763706043983	0.566375636511454	-0.894742662056311	0.433217275052854	0.108435977849449	-0.168074480465342	-0.551625499720804	0.816982421520855	7.56053139625664	-34.4978725925811	59.8655793842382
22684	1646737224766	5.62407740951029	1.14985841899297	8.24198066384533	-0.0941142703195579	-0.0412206044853411	0.230822621550388	-0.0856854432026619	-0.0868539096433082	0.0725204511840319	0.545654296875	-0.392333984375	0.430419921875	0	0	0	0.20198728289039	-0.225631888025497	0.492559274453483	0.815890157929647	0.412951224511815	0.712598984455732	0.567163092528817	-0.894898072438528	0.433172997400831	0.107324714155624	-0.169200254491533	-0.551873030393259	0.816582777313214	7.48755416757612	-34.5526355461262	59.9077013111621
22685	1646737224767	5.67465420002973	0.895493717623365	8.17029504850345	0.1526987444067	-0.0777316160374176	0.173701105295965	-0.0856838977422701	-0.0868567473482725	0.0725158502071617	0.5361328125	-0.38330078125	0.42919921875	0	0	0	0.201730230716139	-0.226238908991024	0.492694404552281	0.815704047922185	0.41213635956285	0.712507185748358	0.567870699528718	-0.895064094979266	0.433114275476174	0.106171042463082	-0.170305275917188	-0.552037620670642	0.816241740147529	7.4110272829453	-34.6018762324146	59.9535737817273
22686	1646737224767	5.66810526107813	0.542221210779226	8.2264489604325	0.44333581453974	-0.270321748373206	0.178621242014046	-0.070141309276133	-0.0985213784467054	0.0630712438147229	0.547607421875	-0.38818359375	0.421630859375	0	0	0	0.201615024737394	-0.226877368129132	0.492773125252447	0.815507626365244	0.41140261371947	0.712236711046993	0.568741379593354	-0.895204255797832	0.433052057658153	0.10523904104224	-0.171339516242574	-0.552435320010409	0.815756083261877	7.35101086837407	-34.6625048811048	59.9883837028317
22687	1646737224769	5.75908131154374	1.35035927115315	7.94566990600516	-0.200616278515327	0.292540401617265	0.0867227055630852	0.14671547057732	-0.077669466063261	0.0900787696946425	0.542236328125	-0.39599609375	0.42919921875	0	0	0	0.202237175535863	-0.226915799180707	0.493239532056873	0.815060800756468	0.410447968196997	0.712258795304502	0.569403085620667	-0.895822036547579	0.431629777695187	0.105823503261568	-0.170397606317415	-0.553518873678381	0.815218689826915	7.39620417990274	-34.7086115815159	60.0467694302352
22688	1646737224768	5.6169710509322	1.17589757958524	8.44371810629551	-0.194951868167424	-0.16757675849159	0.393358004696735	-0.110936345244617	-0.109436646436277	0.0630067089504552	0.54296875	-0.387939453125	0.43115234375	0	0	0	0.201982830514976	-0.227699367790927	0.493260018826833	0.81489293033608	0.40969510346913	0.711925478693092	0.57036131967467	-0.895890929944619	0.431794980008222	0.104558772385028	-0.171841100544614	-0.55381875015867	0.814711868169542	7.31326871004927	-34.7754255170721	60.0806619724068
22689	1646737224769	5.85427143433775	0.413258649598494	7.88660317333564	0.669359206480764	-0.0231556792914245	-0.00487409832159891	-0.00835365008885181	-0.0867200903766196	0.0519487414062295	0.552001953125	-0.3916015625	0.43017578125	0	0	0	0.202045190633807	-0.228090124347675	0.493408711896279	0.814678144509637	0.409045476399834	0.711769562474072	0.571021793080002	-0.896107613096131	0.431451167933206	0.104120293123995	-0.172258364058143	-0.554286910926589	0.814305272233621	7.28652705464766	-34.8215092686027	60.1145314434043
22690	1646737224771	5.72558360421097	1.1210972237716	8.28352131650493	-0.0910335602473707	-0.0357447143297397	0.31876479512835	0.0380967190883996	-0.0647902530723651	0.0532689562074415	0.543701171875	-0.384765625	0.428466796875	0	0	0	0.202298435315804	-0.228314078850355	0.493604517187774	0.81443391695049	0.408454524021078	0.711641358891396	0.571604302049873	-0.896391682539379	0.430859847361205	0.104123692818209	-0.172182616082276	-0.554911135450611	0.813896048934984	7.29038675860174	-34.8621745499148	60.1458485002605
22691	1646737224772	5.71110613282259	0.966051539032478	8.13913245719506	0.0613300909606544	-0.0366394101631058	0.176824982285856	-0.0327753391373788	-0.0619958076168399	0.038598661273283	0.544677734375	-0.386962890625	0.421630859375	0	0	0	0.202215961284488	-0.228676422371501	0.493681693040853	0.814305952826993	0.407970959615375	0.711531837743849	0.572085780270206	-0.896499928035652	0.430774181916214	0.103544595351408	-0.172764507762967	-0.555118048770959	0.813631597706322	7.25260440099205	-34.8958020002928	60.1713372971089
22692	1646737224772	5.74367695029505	0.864550005518311	8.03909733975053	0.177022585240884	-0.00627459619002055	0.103611182101966	0.00410733126995525	-0.0696183846500461	0.0345043248234771	0.544921875	-0.388671875	0.42822265625	0	0	0	0.202364132359875	-0.228984677337754	0.493757311176122	0.814136655076337	0.407539470409302	0.711295280374506	0.572687178287989	-0.896648422587149	0.430504951188723	0.103378398488145	-0.173012098797985	-0.555629832819431	0.813229550957519	7.24462892605115	-34.937824248534	60.1892757210585
22693	1646737224773	5.7994476038419	0.969586196492478	8.20036263889532	0.0724197694047227	-0.0149913624802912	0.277613182370196	-0.00605238957455593	-0.053381687232362	0.0254175335803291	0.5537109375	-0.394287109375	0.43017578125	0	0	0	0.202381533476222	-0.229256807350581	0.493812235065173	0.814022424562843	0.407181585566714	0.711153777270151	0.573117319097734	-0.896743154196044	0.430382382815502	0.103066580250728	-0.173363409570493	-0.555905846017513	0.812966062382463	7.22532451811165	-34.9678932346086	60.206068613184
22694	1646737224773	5.78419956923024	0.815566492504135	8.08151920444059	0.220959068566032	-0.0291830404819974	0.156434460056436	-0.0193744214840449	-0.0357725379960828	0.0148868461394707	0.548095703125	-0.392333984375	0.43017578125	0	0	0	0.202372969966926	-0.229465374720777	0.493815297562412	0.813963927164076	0.406984187395199	0.711020499021561	0.573422811877414	-0.89677085656883	0.430383265840224	0.102821570176251	-0.173683338346187	-0.556075619368295	0.812781645662038	7.20994767239369	-34.9892554059686	60.2134176425859
22695	1646737224774	5.78416560578955	0.863807384738939	8.10279651365999	0.170249376089923	-0.0213963487830593	0.178739109044466	0.00602650447813685	-0.028685032002076	0.00633310220731895	0.555419921875	-0.388916015625	0.421630859375	0	0	0	0.202381289704945	-0.229589502326111	0.493865968257933	0.813896110935337	0.406770131636605	0.710981942609943	0.573622469304447	-0.896840420943842	0.430276437948034	0.102661805497581	-0.173825542914759	-0.556207572970149	0.812660947998023	7.199920405742	-35.0032198489417	60.2250724739167
22696	1646737224775	5.75524150604384	0.959679427678605	8.12456570893313	0.0674115584540994	-0.0153276299901763	0.189691228495571	-0.00180274522469218	-0.027557713474113	0.00198286469574579	0.543701171875	-0.386962890625	0.4248046875	0	0	0	0.202438667451331	-0.229708102160511	0.493845086675693	0.813861047162612	0.406702436336186	0.710838954547685	0.573847635680208	-0.896846162964277	0.430271232573612	0.102633456513155	-0.17395427058415	-0.556394326999421	0.812505547444691	7.19931532243917	-35.0189712994725	60.2242155384079
22697	1646737224776	5.7813858643276	0.96140055722154	8.12168280426797	0.0743965363524825	0.00424001803716348	0.202545636366256	-0.0084893191195463	-0.0187637363419924	-0.00404158213921506	0.54052734375	-0.3857421875	0.421875	0	0	0	0.202397495914775	-0.229844851375754	0.49380438143153	0.813857377445526	0.406657154350163	0.710732632951239	0.574011396467028	-0.896812722420664	0.430384973052905	0.102448601135828	-0.174232315373084	-0.556442179771133	0.812413195886972	7.18729255297981	-35.0304290453531	60.2232711771703
22698	1646737224777	5.77283006578153	1.05762177154506	8.09378048301935	-0.0115524539709503	0.0535963867742892	0.184832679483403	-0.000725491816601133	-0.0183662925024717	0.000286801351379024	0.546142578125	-0.3896484375	0.427734375	0	0	0	0.20243869918861	-0.229921912622871	0.493786846769153	0.813836001369098	0.406620928107237	0.710632839993863	0.574160593865049	-0.896813211619188	0.430386246057202	0.102438970465679	-0.174314326119479	-0.556568635414399	0.81230897433333	7.18753639860101	-35.0408692423921	60.222003406503
22699	1646737224777	5.75247375363309	1.08145732534957	8.166911256479	-0.0564093929405565	0.00837120793150473	0.234983575703295	-0.0145245051794175	-0.0158782155586185	0.00222595805524913	0.546630859375	-0.385498046875	0.42626953125	0	0	0	0.202351790586381	-0.230048469335728	0.493779905821758	0.813826062011674	0.406518212725888	0.710600473127353	0.574273375939833	-0.896803351894315	0.430470314906282	0.10217169870178	-0.174604383545404	-0.556544944793922	0.812262909205548	7.16938122166296	-35.0487621360148	60.2271178966211
22700	1646737224778	5.76389703855774	0.907452948152226	8.09757168632492	0.114406288692902	-0.0203676090689282	0.167450068434213	-0.0208012368685016	-0.0131123672193027	0.000861794144301432	0.542236328125	-0.39306640625	0.425048828125	0	0	0	0.202297577698788	-0.23015405100185	0.493747115109551	0.813829582397713	0.406485798256867	0.710532802968887	0.57438004119281	-0.896771231029838	0.430578952756397	0.101995708931468	-0.174844659663101	-0.556547303783228	0.81220960572928	7.1576250409921	-35.0562276543846	60.2267352616413
22701	1646737224779	5.78562959954809	0.983021792277355	8.14239304477275	0.0452519629301074	0.00329508654787576	0.224062489704284	-0.00127568313538406	-0.00461674672341131	0.0016350590140015	0.550537109375	-0.39697265625	0.422607421875	0	0	0	0.202235511944516	-0.230199568060421	0.493773605559617	0.813816062157776	0.406391570634901	0.710572727555738	0.574397327788784	-0.896790837540161	0.430576848322389	0.101832074479375	-0.174963096168629	-0.556497957357217	0.812217913146669	7.14618835031327	-35.0574376103118	60.2338477165321
22702	1646737224780	5.75596917009542	1.02834023900021	8.11817832131455	-0.00385209565073917	0.0150100536370358	0.191973741036064	-0.00574984348881413	-0.00476466857781232	0.00483920004503207	0.544189453125	-0.39111328125	0.427734375	0	0	0	0.202217210727517	-0.230237805019101	0.493782994173509	0.81380409650641	0.406337815610062	0.710569153417227	0.574439777363274	-0.896801340357181	0.430573108701255	0.101755363479771	-0.175034098217479	-0.556505414416843	0.812197505651138	7.14103822800281	-35.060408896819	60.236989746868
22703	1646737224781	5.75922222526427	1.02871135563835	8.16692581563861	-0.0141885638527607	-0.00835424084284132	0.233470792207148	-0.0152249819440621	0.00247050926040419	0.00504548352478697	0.54931640625	-0.394775390625	0.4326171875	0	0	0	0.202069270052063	-0.230314927765072	0.493831288392799	0.813789716544455	0.406171385305756	0.710670509732754	0.574432095512595	-0.896828787075081	0.43059733740987	0.101410352967387	-0.175279583614984	-0.556357223024667	0.812246088298392	7.11665329036042	-35.0598711925024	60.2506243968405
22704	1646737224782	5.77676186333034	1.05109445354894	8.09182526777511	-0.015558521310263	0.0563820500891634	0.184811925750544	-0.019548458575325	-0.00227647788596464	0.0067809680797195	0.548095703125	-0.388671875	0.4326171875	0	0	0	0.201986056848034	-0.230379274799313	0.493835499219257	0.813789605667701	0.40610377890762	0.710689589756257	0.574456288823645	-0.896823194941149	0.4306562650997	0.101209378744893	-0.175464747948132	-0.55628723546605	0.81225404516385	7.10262488563564	-35.0615646567996	60.2553957223819
22705	1646737224783	5.74407480356904	0.975976900314606	8.24319082582988	0.00899278117398524	-0.0810183012232236	0.281393856349178	-0.0286779944409319	0.000453828639858416	0.0116246307928984	0.5517578125	-0.390869140625	0.426513671875	0	0	0	0.201792285887287	-0.230448696117256	0.493900488992589	0.813778580934102	0.405911410861476	0.710845739771605	0.574399043158156	-0.896856816448589	0.430684360658529	0.100791032705576	-0.175737808459502	-0.556065927505645	0.81234654362848	7.07276712542059	-35.057557676648	60.272508968524
22706	1646737224784	5.76828581385673	0.823773275026879	8.05088500891812	0.187114763495678	-0.0208008288397263	0.123762107724298	-0.0169338565204184	0.0101006746371383	0.00958106730092243	0.556396484375	-0.393310546875	0.42626953125	0	0	0	0.201685890540094	-0.230458287015867	0.493931897381318	0.813783177665926	0.405840517390007	0.710946568304779	0.574324343433455	-0.896867307701337	0.430708164612681	0.100595771842209	-0.175847965075418	-0.555918567734191	0.812423559005523	7.05854109872153	-35.0523292740283	60.2803171833878
22707	1646737224787	5.73905086837714	1.02093109284015	8.24298038089415	-0.0374502878037647	-0.0620540618898863	0.282879857166778	0.000110534389745646	0.00316532608829942	0.00759419571145321	0.54736328125	-0.39306640625	0.421630859375	0	0	0	0.201626209751189	-0.230496941575495	0.493987079589099	0.813753523288683	0.405695850246752	0.711019003571215	0.574336881675868	-0.896915902327649	0.430647273480806	0.100423055098551	-0.175933911581432	-0.555873099190943	0.812436062931424	7.0464365957072	-35.0532068305846	60.2916240599421
22708	1646737224789	5.76700363962055	0.896492029917746	8.14765707304371	0.100872635363915	-0.0410161813001747	0.209013382301549	-0.0386286725178795	0.0152485224198678	0.00715788286344296	0.54052734375	-0.388671875	0.423583984375	0	0	0	0.201421846295573	-0.230536987679724	0.4939884616529	0.813791949395079	0.40565619413072	0.71113729497864	0.574218425212778	-0.89687803777012	0.430809279177367	0.100065730099259	-0.17621815323343	-0.555596177691262	0.812563874292883	7.02052127563903	-35.044916392017	60.2981372442544
22709	1646737224791	5.7408701861177	0.866697894773121	8.10197842324279	0.122549691900649	-0.0444760073858362	0.153947652428222	-0.000136648485471834	0.00771652030345882	0.00601300361047228	0.539794921875	-0.390869140625	0.4248046875	0	0	0	0.201336630941501	-0.230547440638547	0.49403696873011	0.813780629029781	0.405550702285959	0.71124014041361	0.574165560217429	-0.896910720295012	0.43078206913818	0.0998897829055168	-0.176294604838741	-0.555485617791728	0.812622877312283	7.00779604580187	-35.041216789473	60.3081157922896
22710	1646737224790	5.71753805933968	1.01618328707666	8.31955213963254	-0.0599577095096655	-0.116720562938654	0.332291640389434	-0.0152558435541247	0.000900697600051547	0.0020094660323675	0.549072265625	-0.379150390625	0.425537109375	0	0	0	0.2012684776037	-0.230583067807284	0.494030091090764	0.813791569052249	0.405531435874865	0.711256839938031	0.574158481744053	-0.896893252013083	0.430850538039879	0.0997512323941045	-0.176427744447031	-0.555411128365387	0.81264489752734	6.99798469637261	-35.0407214358723	60.3098658983184
22711	1646737224790	5.71760348451018	0.862928739452814	8.12857448069294	0.109883255586217	-0.0749709092111696	0.161863426935945	-0.0184047726439452	0.00539183111487109	0.00510729594845049	0.54638671875	-0.38916015625	0.428955078125	0	0	0	0.201141728816234	-0.230602604174462	0.494022917993488	0.813821725179398	0.405527590890311	0.711325553852888	0.574076065920347	-0.896860779745596	0.430966722852032	0.0995410746792575	-0.176601570720145	-0.555232960323918	0.812728887753546	6.98267238469227	-35.0349541738726	60.3124812070899
22712	1646737224792	5.7199438851443	0.888332821430701	8.20129960814445	0.0743668835559414	-0.101977228120297	0.224856098299103	-0.00299929250283858	-0.00010690301072111	0.00162653443388909	0.5478515625	-0.392578125	0.425048828125	0	0	0	0.20112675290787	-0.230611095384481	0.494027440641572	0.813820274903153	0.405510821157415	0.711334973506836	0.574076240050282	-0.896863216703667	0.430969834315748	0.0995056402110335	-0.176627700115782	-0.555218477156413	0.812733103900612	6.98017537736078	-35.0349663586395	60.3138270946993
22713	1646737224793	5.72456005160033	0.813980155323416	8.17887417465008	0.145435622606085	-0.116697856934695	0.201920180202519	-0.0155811776903391	0.00386148019969547	-0.00413277984459607	0.55029296875	-0.394775390625	0.422607421875	0	0	0	0.200994344564816	-0.230638915910842	0.494026286700946	0.813845803557963	0.405487437031892	0.711408205088497	0.574002007088887	-0.896836676027055	0.431078603002869	0.0992734333335863	-0.176816048315901	-0.555040182118247	0.812813927840863	6.96336085665759	-35.0297720613571	60.3177862365333
22714	1646737224794	5.71187841773708	0.959848441123768	8.17541990351614	0.0100750189411052	-0.0608450256384653	0.206322118498022	0.00762384486973696	-0.00434114065833261	-0.00630142612446434	0.550048828125	-0.39453125	0.41943359375	0	0	0	0.201042198509083	-0.230630141763414	0.49400664857506	0.813848390852043	0.40553433774765	0.71136025054089	0.574028304927533	-0.896825813511202	0.431078931164544	0.0993700927140775	-0.176763574096998	-0.555101386285818	0.812783544257645	6.97033219099558	-35.0316121602332	60.3132734995268
22715	1646737224794	5.73061459426433	1.0097978801546	8.14815298017094	-0.0246461962991602	-0.0106456901617786	0.199870329037147	-0.0136966364389474	-0.00213025158902345	-0.0010574225783829	0.545166015625	-0.38720703125	0.42724609375	0	0	0	0.200919998470959	-0.230751732651311	0.494007770038253	0.813843421816925	0.405419922040502	0.711364672401215	0.574103640183709	-0.896815223487105	0.431174954712526	0.0990485403750387	-0.177079478580799	-0.555021135893188	0.812769584185696	6.94811584382249	-35.0368837094852	60.3203823139983
22716	1646737224795	5.71647309893545	0.935289618779542	8.19980701275952	0.0261018601616904	-0.0817934037441873	0.226351173135612	-0.0132471308650418	-0.015923347450295	-0.00547422199864997	0.541015625	-0.393310546875	0.421142578125	0	0	0	0.200910340851385	-0.230843427212794	0.49395565560219	0.813851434446265	0.405438244822524	0.711255374440126	0.574226107004259	-0.896770701018624	0.431285690475182	0.09896950533327	-0.177262910474239	-0.555075171054679	0.812692694103264	6.94327621836171	-35.0454539937353	60.3154807781858
22717	1646737224795	5.7168688423865	0.883856365137724	8.12739243001231	0.0832973657890108	-0.062822877540837	0.162652929928663	-0.00904148407859408	-0.00500863456772556	-0.00269768607595069	0.53955078125	-0.39208984375	0.42578125	0	0	0	0.200816566273109	-0.230888542467184	0.49395517266311	0.813862073736708	0.405397536713474	0.711290273733019	0.57421161928287	-0.89675525089327	0.431361988219272	0.0987767944148119	-0.177434092614684	-0.554971153856058	0.812726375335315	6.92960364117014	-35.0444400894623	60.3191653101111
22718	1646737224796	5.75858402598899	1.01050274695897	8.16964865127888	-0.0216390470725669	-0.00239007761965353	0.233460696196133	-0.00568081790470897	-0.0109574558304891	-0.00120042495771361	0.546875	-0.3974609375	0.42138671875	0	0	0	0.200820281939485	-0.230945387279266	0.493934477371107	0.813857588599079	0.405385920317123	0.711227609786299	0.574297433988963	-0.896741680930482	0.431399892851755	0.0987344424680087	-0.177529189967772	-0.555021999136217	0.812670884912351	6.92712971440488	-35.0504459031774	60.3176999702697
22719	1646737224797	5.73146648911659	1.03056512519299	8.14594092405941	-0.0498715346159441	0.00146280552132889	0.20058564068912	-0.0285242480184063	-0.00881380344575057	0.00409774339224026	0.544189453125	-0.391357421875	0.427001953125	0	0	0	0.200623412730699	-0.231084000503265	0.493966566355417	0.813847321245659	0.405194432068892	0.711305012009689	0.574336706218804	-0.8967484552434	0.431494555174654	0.09825811352354	-0.177931672950447	-0.554849194596626	0.81270086195139	6.89378139999481	-35.0531945502101	60.3320264395658
22720	1646737224798	5.75295847430541	0.810051716237236	8.17496933250066	0.148822637597779	-0.0943057102903502	0.214864498554487	-0.0269480832739402	-0.0133900853664773	-0.000479144100214098	0.5458984375	-0.397216796875	0.423828125	0	0	0	0.200545074937368	-0.231204131559661	0.493922417393301	0.813859304833745	0.405170590292202	0.711233010744107	0.574442683990442	-0.896700410301952	0.431644637029447	0.0980371434101811	-0.178227851152901	-0.554824757695248	0.812652644936217	6.87883105520262	-35.0606123520974	60.3309819167644
22721	1646737224799	5.72610986898676	0.805381397164902	8.1276121874935	0.147856339682876	-0.0876312351744763	0.160552460787771	-0.00624149359937209	-0.000324295485961813	-0.00437725481702035	0.54736328125	-0.392333984375	0.426513671875	0	0	0	0.200436705380721	-0.231228799559014	0.493953002299474	0.81386043085406	0.405087347547667	0.711324129000717	0.574388565657576	-0.896711084091708	0.431671117310917	0.0978226872796875	-0.178363316082287	-0.5546873263208	0.812716738781239	6.86339118181698	-35.0568243125093	60.3392014434251
22722	1646737224800	5.73900998153432	0.978758200010661	8.17065263350204	-0.0105125067387163	-0.0276214620203942	0.219904233888196	-0.00586194845749575	-0.00792850024863326	-0.00276431848023664	0.544677734375	-0.390380859375	0.427734375	0	0	0	0.200432871087154	-0.231272222965406	0.493929896205411	0.813863060168547	0.405092833038302	0.711273482365608	0.574447412653677	-0.896691704972267	0.431719843644544	0.097785289473722	-0.178448263804755	-0.554714349811714	0.812679646144799	6.86110246641133	-35.0609433455783	60.3371134252645
22723	1646737224801	5.76102282381599	0.953953720536423	8.09637016046105	0.0327063553178708	0.0198606233738516	0.169755087933247	-0.0123856299720743	-0.000605461484246866	-0.00570137420637889	0.54931640625	-0.398193359375	0.42431640625	0	0	0	0.200322147596487	-0.231284619760882	0.493929162363951	0.813887243056949	0.40508281445702	0.711342424970575	0.574369104207879	-0.896668151916722	0.431810039497554	0.0976028438487897	-0.178589301946756	-0.554555717873419	0.812756923688791	6.84777789428536	-35.0554621416319	60.340110868611
22724	1646737224803	5.70821635898107	0.829360800000086	8.2501313648765	0.0947230281028409	-0.15633802121311	0.252243176339729	-0.0184633624998172	-0.00241195178908788	-0.00700859889755847	0.54296875	-0.390625	0.426513671875	0	0	0	0.200258282964389	-0.231331909576302	0.493879979125731	0.813919365744976	0.405136227661098	0.711304696715066	0.574378155458251	-0.896609220741561	0.431958372645844	0.0974877919657882	-0.178763929017421	-0.554488586656427	0.812764335431872	6.83972063065748	-35.0560956655905	60.3355553754116
22725	1646737224804	5.75143389014332	0.78033183475093	8.1020510360209	0.180972515981343	-0.062756407426004	0.151972747710454	-0.00198430163802882	0.00595033825170302	-0.00612308360151075	0.541259765625	-0.39404296875	0.425048828125	0	0	0	0.200155382820029	-0.231320932239606	0.49391482834526	0.813926649874938	0.405077537296944	0.711420623623816	0.574275965943329	-0.896621142610634	0.43197193013768	0.0973179233067034	-0.17883711975159	-0.554329277465865	0.812856898071935	6.82714511864843	-35.0489434026962	60.3431400773602
22726	1646737224805	5.74885905358833	0.881323619228009	8.1974264844885	0.0733533203433235	-0.0738768250174389	0.23783869075104	0.0133234907303976	0.000415173079042819	-0.0126651708316666	0.54296875	-0.3916015625	0.430419921875	0	0	0	0.200220057569623	-0.231272487156146	0.493882617841399	0.81394405521851	0.405185992957473	0.711374860150178	0.574256144466371	-0.896596422920872	0.431983776681886	0.0974929284058672	-0.178715319759007	-0.554378773971343	0.812849930462854	6.83936413452479	-35.0475561664128	60.3349592532768
22727	1646737224805	5.73937618830839	0.929025340424112	8.12354194397344	0.0404010984813797	-0.0168271267837123	0.176984569656193	-0.00552428281845511	0.0102664232523118	-0.0152321939950377	0.5458984375	-0.39501953125	0.42236328125	0	0	0	0.200090916753792	-0.231200013981897	0.493893928625107	0.813989536686225	0.405230681604057	0.711526934765126	0.574036162441406	-0.896571025769636	0.432064824599769	0.0973672588396851	-0.178741406610487	-0.554120391654481	0.813020357134795	6.82921313602497	-35.0321619702017	60.337508682521
22728	1646737224806	5.74217336103925	0.906584871434693	8.14893425775487	0.0586046451545682	-0.0381214829413282	0.197042526601386	0.0128940491548693	0.00799939990404584	-0.0158027883762402	0.545654296875	-0.39111328125	0.425537109375	0	0	0	0.200138271904346	-0.231117822747526	0.493856794677357	0.814023765303319	0.4053800367189	0.71151129174581	0.573950091513184	-0.896533378349749	0.432100276940299	0.0975564050839441	-0.178591509693402	-0.554112833623556	0.81305844825517	6.84203643426888	-35.026139572929	60.3278864212821
22729	1646737224807	5.76516023857701	0.910425736977079	8.14803836338755	0.0654076790434836	-0.0179057794599274	0.209881042966058	0.00778960118032699	0.0200041845664233	-0.0157894369975342	0.546875	-0.396484375	0.419189453125	0	0	0	0.20005952657932	-0.231029040451873	0.493861717937184	0.814065336351376	0.405452372048042	0.711632290129451	0.573748950017104	-0.896510531964956	0.432153578761984	0.0975302539683008	-0.178541984072454	-0.553915849212065	0.813203536585491	6.83901088434641	-35.0120673982469	60.3276799372588
22730	1646737224808	5.78551674373741	0.938506756751359	8.14695592924944	0.0510621789537795	0.0105533400014365	0.22340602581394	0.0108371877852786	0.0201350781794148	-0.0158899799777052	0.547607421875	-0.394287109375	0.422607421875	0	0	0	0.200068354015202	-0.230902538967106	0.493834213352611	0.814115741736149	0.405623574441904	0.711683831978337	0.573563980003629	-0.896468995614657	0.432200846888111	0.0977024454701501	-0.178361587116233	-0.553812740237916	0.813313342440383	6.85005446264794	-34.9991287425325	60.3190601512514
22731	1646737224809	5.73648958266329	0.936712129772082	8.17574461483041	0.027761952842024	-0.0390203992288933	0.218526334585549	0.010666415444106	0.0262786541719505	-0.0129068062682476	0.548828125	-0.4052734375	0.4296875	0	0	0	0.199977350806378	-0.230838770424082	0.493862570589224	0.814138982363924	0.405626446880204	0.711820489748665	0.573392340344124	-0.896470592839903	0.432217641070934	0.0976134566560911	-0.17834702622868	-0.553623970869261	0.813445042467122	6.84277699275756	-34.9871243750406	60.3236179902045
22732	1646737224810	5.75115264048612	0.987662411073513	8.12572149557128	-0.000490199612150371	0.0229100021979234	0.191214759535562	0.0138584640509257	0.0264751079331703	-0.00842748763548044	0.5419921875	-0.398681640625	0.430908203125	0	0	0	0.199973694522465	-0.230687381513297	0.493875387385263	0.814175015119373	0.40574086749119	0.711939186061111	0.573163976361163	-0.89646481790482	0.432195246468185	0.0977655317030668	-0.178115632964584	-0.553488811342153	0.81358770701915	6.85214593150947	-34.9711554731801	60.3207759909812
22733	1646737224811	5.68225282601832	0.985081356281757	8.22933892664416	-0.0451861319324354	-0.0798964281537398	0.235793907100826	-0.00133133464752149	0.0258390901445891	-0.00640464801837725	0.544677734375	-0.3857421875	0.4208984375	0	0	0	0.19976362605891	-0.23059169846084	0.494034710349379	0.81415702863437	0.4055143471419	0.712315995993344	0.57285603436997	-0.896571331287824	0.432048397347602	0.0974373145265545	-0.178095373816549	-0.553118526358844	0.813843924609482	6.82722987307691	-34.9496268150887	60.3475749989537
22734	1646737224812	5.72658318546002	0.938036413673221	8.13153086771201	0.0337325944693885	-0.0118692565547131	0.17701643420402	0.00168669391685599	0.03218005529208	0.00105801366373798	0.550537109375	-0.3818359375	0.43017578125	0	0	0	0.199684037851549	-0.230456497664672	0.494079119265762	0.814187884715195	0.405551253179405	0.712509497988258	0.572589203811191	-0.89658343399949	0.43202421786574	0.0974331619890175	-0.177950349598693	-0.55288813556995	0.814032175422868	6.82537777555419	-34.930976885997	60.3520239434709
22735	1646737224813	5.73334016423835	0.866690277319624	8.1838134554428	0.0936186737884255	-0.0639690284515861	0.216484422480919	-0.00171287400242163	0.033442279383988	-0.00802001801945479	0.54150390625	-0.396240234375	0.427490234375	0	0	0	0.199611925757529	-0.230295872235869	0.494009020120578	0.814293545575548	0.405837798541254	0.712597107978553	0.572277068364434	-0.896476318182599	0.432220334269754	0.0975489291664119	-0.177836700973001	-0.552621881890633	0.814237780652983	6.83170163456462	-34.9091657836353	60.3376526252665
22736	1646737224814	5.72454804217326	0.86487384322664	8.08821945129247	0.110949508002483	-0.0155230766087384	0.133427412398772	0.0151633466055487	0.0326634579479861	-0.00701482121801721	0.539306640625	-0.392822265625	0.427978515625	0	0	0	0.199596334303569	-0.230116735410065	0.494035745762898	0.814331795600104	0.405949939985423	0.712757118175968	0.571998196426633	-0.896478945574981	0.43217997048215	0.0977034966355775	-0.177567300949816	-0.552447068598917	0.814415182833584	6.84094765723248	-34.8896839367733	60.3363772123115
22737	1646737224815	5.67856210105415	0.965923651034808	8.30974314726086	-0.0362616644265849	-0.122976898010123	0.297429762092598	0.0155194288700041	0.0234910351339607	-0.0084348942074311	0.55517578125	-0.403076171875	0.42578125	0	0	0	0.19949947506305	-0.229961235833707	0.494134214226089	0.814339712770148	0.40589841669	0.713031936498204	0.571692166171773	-0.896540519832902	0.432062675561466	0.097657261298981	-0.177374100776583	-0.552184119583577	0.814635578926804	6.83590862188974	-34.8683101387821	60.3490016614579
22738	1646737224816	5.71063897059353	0.746213929303809	8.16882789632997	0.2011069766058	-0.114893525544565	0.179526414427951	-0.000464063820777729	0.0364902362523409	-0.012690090374389	0.539306640625	-0.3994140625	0.418701171875	0	0	0	0.199416453545088	-0.229798980350786	0.494124651502497	0.814411649881541	0.406066514814549	0.713190349974918	0.571375104680821	-0.896493140734243	0.432147813666071	0.0977154837274394	-0.177228762233499	-0.551912848053285	0.814851013370477	6.83815427890897	-34.8461717541337	60.3442740586288
22739	1646737224817	5.70382233538324	0.847906958040166	8.24123815137609	0.0938021583937068	-0.112904749976238	0.244598232561277	0.0365530884621116	0.0258313042180364	-0.0167587633208635	0.538818359375	-0.397705078125	0.429443359375	0	0	0	0.199394968735037	-0.229710334659959	0.494236130113524	0.814374272852459	0.405927619681634	0.713380208161954	0.571236768934222	-0.896592548152504	0.431944588267123	0.0977019716492267	-0.177043978087375	-0.55182655904691	0.814949617187127	6.83639822122802	-34.8365145159758	60.3592573161451
22740	1646737224819	5.68782967200005	0.971440171716976	8.19080297787886	-0.0104349803043551	-0.042183654625651	0.206417700026718	0.0212223640492073	0.0251244719273194	-0.0193310521274039	0.54296875	-0.396484375	0.435302734375	0	0	0	0.199434742639875	-0.229535736389767	0.494213658193432	0.814427399590191	0.406132411550146	0.71344748794177	0.571007133263712	-0.89655708999596	0.431957286966465	0.0979708457376451	-0.176753638340038	-0.551729629606886	0.815078258296349	6.85396147055508	-34.8204861175779	60.3491569771607
22741	1646737224820	5.65098103729683	0.849717228212943	8.24664192811918	0.0758715262831181	-0.147755084548704	0.219018386827265	0.0152837782584345	0.0202614753799059	-0.020610896027989	0.540771484375	-0.39404296875	0.427734375	0	0	0	0.199331328316558	-0.229352468624327	0.494305415285267	0.814448662045155	0.406119203111174	0.713738503794383	0.570652732461434	-0.896607032688658	0.431858355942433	0.0979499328021105	-0.176530512369913	-0.551430601802307	0.815328933374967	6.85042553220081	-34.7957553246664	60.3600028397406
22742	1646737224821	5.71490674103473	0.906228524258489	8.19296502459502	0.0640061215294309	-0.0476296268041306	0.217253739875172	0.0261296055663546	0.0145812993155063	-0.0239245671478879	0.547607421875	-0.390869140625	0.424560546875	0	0	0	0.199421321722384	-0.229203256200431	0.49426067257693	0.81449578963517	0.406344509781842	0.713730441003185	0.570502407493215	-0.896562506181441	0.431875047972597	0.0982833426798296	-0.176237941090472	-0.551427964945618	0.815394007579235	6.87297754575332	-34.7852675898755	60.3460633753506
22743	1646737224822	5.69137570686923	0.934114240547863	8.26760237983074	0.018689745759575	-0.0924880358594724	0.267425303565936	0.0260617921647933	0.0161060419548033	-0.0239436339875226	0.545166015625	-0.394775390625	0.423095703125	0	0	0	0.199435941530987	-0.229077021751882	0.494250884444433	0.814533662015777	0.406479562662367	0.71379558268972	0.570324671805853	-0.896540348754523	0.431882736903089	0.0984515343720694	-0.17603910983906	-0.551337616799127	0.815498046661874	6.8837565458132	-34.7728692092568	60.3401249944414
22744	1646737224823	5.66179425308417	0.907581681071919	8.17310306428866	0.0503564819261551	-0.0724054117266786	0.170871789266714	0.0106875096725115	0.0184876883109	-0.0235059116915421	0.54443359375	-0.395751953125	0.428955078125	0	0	0	0.199452586981566	-0.228950655907262	0.494194254385102	0.814599473139253	0.406707272184776	0.71381115727744	0.570142812370953	-0.896470359724759	0.431981408958228	0.0986557471687508	-0.175869522336815	-0.551240141917028	0.815600525411991	6.89703936747562	-34.7601850945268	60.3268624347635
22745	1646737224824	5.68553564177028	0.938442785255875	8.22024038997328	0.0249774091830299	-0.0668255967077348	0.225900773992304	0.0279957284146615	0.00702474639297622	-0.0238758702811519	0.546142578125	-0.3974609375	0.42724609375	0	0	0	0.199475297213638	-0.228880848053061	0.494215172750043	0.81460083858273	0.406729840836313	0.7138640379412	0.570060498462708	-0.896488338708775	0.431921937650352	0.0987527130540973	-0.175725624575492	-0.551218264492977	0.815646326392085	6.9033689514029	-34.7544446029623	60.3273205737162
22746	1646737224825	5.70159501368141	1.04177830819659	8.2408756180713	-0.0615852177313102	-0.0225152448345027	0.262093940162577	0.0171922207475944	0.00960438260633844	-0.0235826947974565	0.546630859375	-0.384765625	0.4287109375	0	0	0	0.199539795055326	-0.22877508616622	0.494157240035195	0.814649895513229	0.406941164140874	0.713830820308811	0.569951268886139	-0.896429755538299	0.431984984620154	0.099008416047679	-0.175535131279225	-0.551211876722532	0.815691660277834	6.92068994640142	-34.7468276550317	60.3133706218436
22747	1646737224825	5.72849268567884	0.971774520920596	8.19295207927547	0.0220696872268742	-0.00616397394551137	0.231411029466628	0.00968638013245504	0.0108867358018427	-0.0172592917263303	0.5390625	-0.3935546875	0.421630859375	0	0	0	0.199511419455207	-0.228703993037558	0.494140034120069	0.814687242907032	0.407040220496987	0.713881047442538	0.569817610293074	-0.896397280586527	0.43204164037357	0.0990552186429127	-0.175471291825315	-0.551102414334813	0.81577935415129	6.9231926204269	-34.7375081445906	60.3091050367266
22748	1646737224826	5.68404370333213	0.946427452412645	8.24580405689885	0.0193680125419612	-0.0775711264048612	0.246684862380812	0.00818600890542569	0.00927068142507105	-0.0187191885960077	0.546875	-0.39453125	0.421875	0	0	0	0.199534458555488	-0.228626759082803	0.494091259657457	0.814732859292154	0.407207264322802	0.713866936294199	0.569715930221962	-0.896342602633731	0.432119653958151	0.0992095931192008	-0.175363002330962	-0.551059526665698	0.815831609760524	6.93343743763028	-34.7304190800016	60.2985010290375
22749	1646737224827	5.71924727538917	1.02267331651223	8.14388931622646	-0.0173461669379335	0.0374876192587766	0.191155727265984	0.0174194387874427	0.00972349202853799	-0.0159495315822114	0.5478515625	-0.398681640625	0.4248046875	0	0	0	0.199500337371814	-0.22862242404306	0.494109714023532	0.814731239809049	0.407174755464517	0.713912738361469	0.569681771270276	-0.896353741270879	0.432110411792232	0.0991491932919577	-0.175381552684735	-0.55100743554509	0.815862805226415	6.92899496798348	-34.7280376778407	60.302051709343
22750	1646737224828	5.70112276373476	0.97483306518734	8.1960015560261	0.010703615346504	-0.024100846979395	0.218605980632367	-0.00257562057120511	0.0149905470451431	-0.0123622159020109	0.536376953125	-0.39501953125	0.4248046875	0	0	0	0.199457339208646	-0.228556011362462	0.494080565908218	0.814778076470952	0.407293088123794	0.713957678451759	0.56954084466907	-0.896306373997749	0.432202328455245	0.0991767674854883	-0.17534886454605	-0.55087710122825	0.815957839011778	6.93010385163023	-34.7182136603697	60.2964386301098
22751	1646737224829	5.73076700756663	0.853957719152639	8.12542103364419	0.141836736716963	-0.0134643751404161	0.165944909408871	0.00508850394078792	0.0153532784619999	-0.011070948418386	0.541748046875	-0.39306640625	0.41845703125	0	0	0	0.199323122667504	-0.228538023052038	0.494167889329954	0.814763009681171	0.407136938349289	0.71415360879055	0.569406828623439	-0.896365258402511	0.432136779850507	0.0989299096807178	-0.175410481330414	-0.550674519613782	0.816081329579083	6.91198550456107	-34.7088724614993	60.3126586299415
22752	1646737224830	5.68199933380308	0.852430361939875	8.15372924098184	0.120875650293561	-0.0635223063355178	0.161098643683426	0.0228276198319636	0.0221240032088893	-0.0208726526689074	0.537841796875	-0.396728515625	0.428466796875	0	0	0	0.199374508421568	-0.228372167005826	0.494141043700135	0.814813222560645	0.407341564536009	0.714202135365665	0.56919957803962	-0.896328489501484	0.432148868645199	0.099209849494203	-0.17512306732508	-0.550602093319485	0.816191917457442	6.93042418259137	-34.694428738653	60.3019455550546
22753	1646737224831	5.70263742455858	0.907822222328268	8.20078835743396	0.0723018262269636	-0.0483745035751147	0.21674809213396	0.0211449896261138	0.0235325270378657	-0.0238992958667056	0.53955078125	-0.393310546875	0.429443359375	0	0	0	0.199302847743215	-0.228268702912372	0.494178417453624	0.81483707934481	0.407362181987471	0.714360591624131	0.568985938157376	-0.896339001788473	0.432132133208954	0.0991877680015146	-0.175021274590406	-0.550409633439224	0.816343548304296	6.92762215749834	-34.6795423703442	60.3061673862701
22754	1646737224832	5.67825535720961	0.884426608161384	8.20420000976142	0.0864667412892379	-0.0765372442212724	0.203317639910642	0.0209365435394593	0.0281068134510366	-0.0239599539312861	0.54345703125	-0.389892578125	0.425537109375	0	0	0	0.199334123209047	-0.228080845878827	0.49414357656027	0.814903160388953	0.407602506974846	0.714429733581661	0.568726957407733	-0.896286915317797	0.432176066137409	0.099466644097916	-0.174728251115636	-0.550285383807738	0.816490070135358	6.94567530920962	-34.661500250256	60.2940108895128
22755	1646737224833	5.67576396068657	0.888100615266086	8.20552701278048	0.0850452752149539	-0.0749400289874203	0.203341888088087	0.0331080540035307	0.0270798368778696	-0.0273646987508029	0.545166015625	-0.39892578125	0.4296875	0	0	0	0.199339259060728	-0.227874549847337	0.494152572591661	0.814954160876571	0.407772849065833	0.714574702432143	0.568422640478674	-0.896272078133603	0.432154189596326	0.0996951271247298	-0.174406609745177	-0.550114307265642	0.816674098657987	6.95992040933317	-34.6403047642421	60.2887101034437
22756	1646737224834	5.67444651316501	0.893085415318934	8.23131683237581	0.0804410888087674	-0.0867762073159009	0.224120812233288	0.0281247005031241	0.0328990379716192	-0.0318886422598264	0.544189453125	-0.391357421875	0.42822265625	0	0	0	0.199396463705424	-0.227641493695165	0.494098852485864	0.815037866962117	0.408091348640773	0.714636731926144	0.568116002719934	-0.89620036726789	0.432214748467848	0.100076535290617	-0.174029747093577	-0.549986138542414	0.816840801220012	6.98487295748007	-34.6189531117822	60.2715910297591
22757	1646737224834	5.6464212248355	0.869376477327625	8.18645837677183	0.101179446423945	-0.0893771018009271	0.169184220403416	0.0323981083173276	0.0376295361741737	-0.0351429925156407	0.540283203125	-0.394287109375	0.426025390625	0	0	0	0.199365592468135	-0.22741571253491	0.494138249464208	0.815084562881985	0.408218968217374	0.714851181603436	0.567754403019223	-0.896206654667778	0.432161501912555	0.100250029395883	-0.173697743556827	-0.549749237766507	0.817070908464138	6.99491114161103	-34.5937814315429	60.2712792346923
22758	1646737224836	5.638919587936	0.923326411832809	8.18659568453301	0.0557770974216983	-0.0706246651750395	0.17040795063307	0.0464745881543882	0.0275015438343698	-0.0399881416272154	0.546875	-0.391357421875	0.430908203125	0	0	0	0.199519323823254	-0.227151660160099	0.494067497855248	0.815163462301076	0.408598861699131	0.714849253043281	0.56748349371734	-0.896133835605172	0.432178693968332	0.100825220869535	-0.173179441336835	-0.549738230345399	0.817188325415244	7.03364330201089	-34.5749278885605	60.2482568561327
22759	1646737224837	5.64359007918764	0.882059774954694	8.23785867251045	0.0900418680093356	-0.111791392479271	0.210777408613747	0.0325436661167858	0.0267494118623391	-0.0472123697720762	0.5380859375	-0.38623046875	0.427734375	0	0	0	0.199539060437759	-0.22695646891661	0.494019627185979	0.815242008566503	0.40887073834386	0.714917745140962	0.567201319646481	-0.896064467412529	0.432257542629285	0.101103348514244	-0.172896470660472	-0.549587149160763	0.81734984915304	7.05147081352423	-34.5552949352378	60.2342003795863
22760	1646737224838	5.67487784012668	0.768135207865188	8.21693178474561	0.215254785437866	-0.126709475807992	0.199796998006155	0.0488210193793338	0.0350612712228099	-0.0524012450029769	0.542236328125	-0.3935546875	0.423583984375	0	0	0	0.199697123800177	-0.226643788875382	0.493908814734699	0.81535742741298	0.409373351383152	0.71490421558618	0.566855732717271	-0.895944666648533	0.432350282946604	0.101766335986124	-0.172327053828977	-0.549531796507809	0.817507303420297	7.09588793777869	-34.5312561866611	60.2033889851882
22761	1646737224839	5.66038148614018	0.897818906154541	8.21469079940178	0.100131732023818	-0.079133576259449	0.202842860999986	0.0717783286214778	0.0283303430099198	-0.0621300944210196	0.5400390625	-0.38623046875	0.431884765625	0	0	0	0.19988524703551	-0.22634676116222	0.493809268654009	0.815454129868946	0.409839099805533	0.714870858441754	0.566561177651046	-0.895844371524146	0.432396588417893	0.102450243206524	-0.171740427037722	-0.549538757573401	0.817626063457853	7.14205712712562	-34.5107726504468	60.174133372797
22762	1646737224840	5.67532296807681	1.00822279703558	8.25997999531595	0.00892206476809801	-0.0468278498320397	0.259591100370626	0.0656705119230847	0.0264688660758692	-0.0649831537227056	0.54248046875	-0.3916015625	0.439697265625	0	0	0	0.20014675414557	-0.226015391108846	0.493657919391821	0.815573527285337	0.410437803207307	0.714756167346703	0.56627239994389	-0.895701155016211	0.432486270853461	0.103320213055784	-0.171056279045776	-0.549617363957071	0.817716639573817	7.20128128798814	-34.4906957618924	60.1340617451789
22763	1646737224840	5.66955045060627	1.0150769822163	8.21231024375052	0.017327126769455	-0.0199331678291419	0.218041380276793	0.0547576355357434	0.0320966754168807	-0.0632373279042205	0.539794921875	-0.390380859375	0.431640625	0	0	0	0.200252668762206	-0.225618723891197	0.493581756029271	0.815703445008284	0.410946483089537	0.714871174408759	0.56575806846724	-0.895594180736501	0.43255183753735	0.103971011700267	-0.17039381287845	-0.549416155425469	0.817990120166643	7.24376355493543	-34.4549495093419	60.1073894930165
22764	1646737224842	5.62634606697492	1.21749293002239	8.25731724449321	-0.180559543871857	0.0111918384527114	0.251537029536998	0.0752693042072378	0.0256227363786344	-0.0514873865019179	0.543212890625	-0.3818359375	0.4384765625	0	0	0	0.200539628262917	-0.225279532996464	0.493496004310213	0.815778574883479	0.411421651485499	0.714811986609045	0.565487443263751	-0.895521881818462	0.432491102452051	0.104842765530719	-0.169625422249332	-0.549540963077221	0.818065979018133	7.30317637512493	-34.4361470879353	60.076721986376
22765	1646737224842	5.64256778999773	1.02966666199842	8.26429543338976	-2.37767067172087E-06	-0.0606552005289218	0.246819728054103	0.0128685983868912	0.0211547820483185	-0.0496406523462196	0.542724609375	-0.390625	0.432861328125	0	0	0	0.20051011488645	-0.225054958305527	0.493380810811808	0.815917480565898	0.41185128252956	0.714864465143048	0.565108235256309	-0.895367647325474	0.432742138701811	0.105123819920265	-0.169396863021727	-0.54927501114426	0.81829191914064	7.32054205281468	-34.4098076957579	60.0526804482795
22766	1646737224843	5.64994313708177	0.860501396117415	8.14898573837213	0.179775111996872	-0.0650089095503519	0.138781815342192	0.047684499921072	0.0258055662583395	-0.0537636565712333	0.5478515625	-0.384765625	0.42822265625	0	0	0	0.200686398989558	-0.224779922289463	0.493255260626332	0.816025859676393	0.412346468799984	0.714797549846162	0.564831702724013	-0.895238642523862	0.432848434250106	0.105782824216716	-0.168873214572995	-0.549278340826539	0.818397911592294	7.36498741155382	-34.3906052633627	60.0205697950993
22767	1646737224844	5.63195145037896	1.11678147304235	8.28788601008911	-0.0743764245655629	-0.0438178624638516	0.269359739778654	0.071027182241618	0.0177744368785663	-0.0527529538196599	0.546142578125	-0.384765625	0.437744140625	0	0	0	0.200915863468454	-0.224533395104752	0.493190770909203	0.816076242626536	0.412695235945439	0.714737900533385	0.564652438026322	-0.895187184353284	0.432791358593424	0.106449729433657	-0.168293039658742	-0.549400922339951	0.818435140578918	7.41057187450456	-34.3781594672558	59.9975280241384
22768	1646737224845	5.65670866494864	1.32123908023598	8.2302525946599	-0.230211025260025	0.0927905921188533	0.258036189324496	0.0469134396070545	0.0199500025495029	-0.0368312759228893	0.5419921875	-0.387939453125	0.42724609375	0	0	0	0.201084065746037	-0.224301627604412	0.493127561666487	0.816136744842383	0.413027975557754	0.714712079476798	0.56444179049448	-0.895126012405393	0.432780812855817	0.107005560318509	-0.167801410369172	-0.549442819112061	0.81850795671411	7.44817778158547	-34.3635372207635	59.9766311898781
22769	1646737224846	5.610259079676	1.29757221431292	8.25866545512796	-0.229752707019531	0.0344901842856299	0.252613382358467	0.0140460402284542	0.0093423572096251	-0.0280765313561347	0.544921875	-0.384765625	0.4296875	0	0	0	0.2010723837426	-0.224220207688056	0.493094159766851	0.81618217608829	0.413166896136297	0.714740345383674	0.564304310295363	-0.895078311956067	0.432856092199784	0.107100041603208	-0.167713837839862	-0.549346741253972	0.818590389920787	7.45393801054375	-34.3539953121314	59.9692650641646
22770	1646737224847	5.648808711453	1.10462491300329	8.19110408396422	-0.0280000524497356	0.0159553423369977	0.198425636896749	-0.00235910405479304	0.00563578792060181	-0.0199079813386201	0.54150390625	-0.390869140625	0.43408203125	0	0	0	0.201055479136816	-0.22418550443675	0.493030603996324	0.81623426626951	0.41332336624692	0.714709498582586	0.564228790075571	-0.895004394622825	0.432995035664171	0.107156113666064	-0.167722772813193	-0.54927737230475	0.818635107819011	7.45739379393355	-34.3487542410665	59.9587927992096
22771	1646737224847	5.68316812179855	1.01217871556143	8.21773289327891	0.0641137028979204	-0.0125028268066607	0.229711370709152	0.0113278363492477	0.0094358469811868	-0.0157738427487321	0.541015625	-0.382568359375	0.435791015625	0	0	0	0.201001012860873	-0.224137392444676	0.493073204178341	0.816235160635897	0.413282489258811	0.71482368623278	0.564114067961987	-0.895031057838279	0.432954816300414	0.107095903503197	-0.167681214144376	-0.549160472578695	0.818722044274009	7.45246813743628	-34.3407932020967	59.9652149701343
22772	1646737224848	5.62282534186723	1.13178881411028	8.24128521577136	-0.0698294755469321	-0.0162555897223849	0.227768395672898	0.0173204748303775	0.014393410504286	-0.0114461107642928	0.541015625	-0.388916015625	0.433837890625	0	0	0	0.20103269129536	-0.224027336150769	0.493075529139946	0.816256168277519	0.413376550441105	0.714878247554127	0.563975991261466	-0.895025520794604	0.432924759187813	0.107263553961829	-0.167478788721919	-0.549113143219241	0.81879521937547	7.46334343408391	-34.3312124943774	59.9614598665938
22773	1646737224849	5.62718500726167	1.03297230191591	8.17227363993955	0.0329792000838854	-0.015066319637013	0.163132628519069	-0.00569262441558802	0.0147517943574877	-0.0138702495061906	0.543701171875	-0.38232421875	0.440673828125	0	0	0	0.200894985242204	-0.223934815642842	0.493100424045552	0.816300419608883	0.413410340298208	0.715061403147835	0.56371897277169	-0.895010929082973	0.432986353421264	0.107136616396968	-0.167473363125468	-0.548826026605158	0.818988806495083	7.45286831870959	-34.3133817031796	59.9657907260461
22774	1646737224850	5.63103028581756	1.0114707828041	8.22252177199894	0.0464713188952698	-0.0480559343346444	0.204146982887492	0.0114579389581301	0.0111109084127108	-0.00816463662298094	0.538330078125	-0.384521484375	0.436279296875	0	0	0	0.200906624748587	-0.223855485307784	0.493106936501258	0.816315379619967	0.413468541743921	0.71511345215724	0.563610251443239	-0.895009652095815	0.432964154612949	0.107236950141371	-0.167336450432904	-0.548775720457866	0.819050499659494	7.4592138148082	-34.305840244405	59.9641027944679
22775	1646737224851	5.62993879306122	1.01299039400074	8.22308210265831	0.0471604095099172	-0.0456406576169009	0.204155058412198	0.00809049463991663	0.0123065270110186	-0.0172649392774267	0.543701171875	-0.3876953125	0.437255859375	0	0	0	0.200855283476438	-0.223672083284231	0.493108603614206	0.816377277550362	0.413629408401881	0.715273879322813	0.563288549558399	-0.894976758098091	0.433002120282496	0.107358121700666	-0.167114676103993	-0.548536636323735	0.819255908517784	7.46569603765582	-34.283529347224	59.9600140534151
22776	1646737224854	5.64812775091312	1.06561839090009	8.22066466001128	0.00985056891937815	-0.00769896190474931	0.218068359974152	0.0127081558457735	0.014143520112003	-0.0128408297345192	0.543212890625	-0.37890625	0.429443359375	0	0	0	0.200869602515785	-0.223571406065565	0.493101070950649	0.816405881288431	0.413734320434379	0.715323829846897	0.563148053843632	-0.894958627728038	0.433005473224947	0.107495650202169	-0.166951989355772	-0.548468849261658	0.819334458350034	7.47444315512793	-34.2737874469386	59.9554507806731
22777	1646737224854	5.62995550589203	1.01797240752057	8.27318692662048	0.0375056141769988	-0.0685176798631356	0.245751240403885	0.00353074225876589	0.0152535422644869	-0.011080257775276	0.535400390625	-0.3896484375	0.432861328125	0	0	0	0.200810214809522	-0.2234925418616	0.493088711070047	0.816449547967095	0.413829213495041	0.715404939842526	0.562975269534094	-0.894923281200743	0.433077561286866	0.10749951941621	-0.166906269573588	-0.548306117017429	0.819452682720788	7.47364294681847	-34.2618082196717	59.9525714613129
22778	1646737224855	5.60160683072498	0.988863681673156	8.17870698764916	0.0692607240592365	-0.0485293737650722	0.149237443132753	0.0126275711818781	0.0140831459298174	-0.0158941260936466	0.538818359375	-0.390625	0.43359375	0	0	0	0.200827721920423	-0.223389206397462	0.493068594557506	0.816485670195412	0.413961247052395	0.715441392914362	0.562831856990684	-0.894892374604017	0.433103174338677	0.107653510176603	-0.166744486608729	-0.548238318327456	0.81953097714673	7.48352059390133	-34.2518666479945	59.9459144217976
22779	1646737224856	5.6465189843741	1.04634084312037	8.22362929544788	0.0288208777906353	-0.0127725771531545	0.217521513706623	0.0186822147317986	0.0143497757787333	-0.0175936962819751	0.53564453125	-0.38330078125	0.431884765625	0	0	0	0.200726122427385	-0.223278827749578	0.493203330641131	0.816459468374601	0.413794079446539	0.715725271643071	0.562593810263181	-0.894996844900291	0.432918996839523	0.107525763396437	-0.166598641751717	-0.548013209427394	0.819711177708082	7.47311613835997	-34.2353674856348	59.9657951769972
22780	1646737224857	5.62546616078215	0.997412058816554	8.22757503183784	0.0655586031317421	-0.0500492209515368	0.203643692355124	0.00611257879786284	0.0213758982541248	-0.0173821833068778	0.54541015625	-0.383544921875	0.4404296875	0	0	0	0.200699267104147	-0.223160453232153	0.493178524223814	0.81651341663288	0.413948710715282	0.715797484827251	0.562388144978304	-0.894950042468541	0.432989494856558	0.107631402617543	-0.166465871525406	-0.547863174578146	0.819838432594156	7.47922707838717	-34.221115303602	59.9590236422377
22781	1646737224858	5.62137204691801	1.0239262728177	8.22758722110951	0.0428344479790116	-0.0389647180293263	0.20420268481779	0.023214138227665	0.0145436229445483	-0.019248086313505	0.546630859375	-0.3828125	0.4365234375	0	0	0	0.200706716474863	-0.222978743530184	0.49318401061554	0.816557913175024	0.414100023213744	0.715919950123761	0.562120801775889	-0.894933275954296	0.432972691270101	0.107838213097391	-0.166179428221694	-0.54771641716231	0.819994587791159	7.49202422830658	-34.202592571898	59.9541965802629
22782	1646737224859	5.61487066748754	1.07516567597807	8.22664936220225	-0.00265297216209244	-0.0201388849916194	0.205301464236554	0.0168542567761708	0.0203727696789811	-0.0176573307383147	0.540283203125	-0.388427734375	0.4384765625	0	0	0	0.200726237997631	-0.222837101648987	0.493169493859978	0.816600547289733	0.414254952909145	0.715986450984722	0.56192191272146	-0.89490346338591	0.432985655410424	0.108033390341638	-0.165953683930624	-0.54761923287546	0.820105207015994	7.50442882595773	-34.1888152892776	59.9472136012325
22783	1646737224860	5.6191062515453	1.02972412474204	8.25376166850585	0.0374257585909603	-0.0489135991928905	0.225015292567422	0.0106830723067078	0.0215976595004689	-0.0175139190043498	0.54296875	-0.38232421875	0.4296875	0	0	0	0.200664548706547	-0.222678385312676	0.493213455880293	0.816632452542486	0.414309647306315	0.716180912814017	0.561633702932614	-0.8949155435959	0.432948451662032	0.1080824131573	-0.165751880771751	-0.547394317036934	0.820296151213875	7.5060676121321	-34.1688546448812	59.9506791408613
22784	1646737224860	5.64136832408525	1.03445330397612	8.25347457833572	0.0452572948077368	-0.029396474518303	0.237788216784503	0.0197463275383734	0.0219850390319828	-0.0208229397970368	0.546875	-0.39111328125	0.435302734375	0	0	0	0.200695112228933	-0.222519544206857	0.493191223854038	0.816681664473217	0.414494938318658	0.716243289405945	0.561417399524778	-0.89487762899685	0.432967777281544	0.108318663935883	-0.165493127437934	-0.547297409291174	0.820413048746776	7.52122743279857	-34.1538771457103	59.9417370516794
22785	1646737224861	5.61138241212823	1.05811279907349	8.23062365369508	0.0165571199583728	-0.0268293467694475	0.204766705469899	0.0213490111962473	0.0221224289956477	-0.0178117014277536	0.540283203125	-0.385009765625	0.43896484375	0	0	0	0.200680276161186	-0.222434107797168	0.493235860557943	0.816681627262432	0.414482907096287	0.716357054088488	0.561281115647653	-0.894909606810099	0.432891625239072	0.108358831836034	-0.165350280810181	-0.547208746143132	0.820500988896696	7.523187414798	-34.1444418036581	59.9464027991644
22786	1646737224861	5.61302581264253	1.01126960825802	8.20903954189389	0.0658354107980459	-0.0329282398092996	0.182893441941561	0.0182231944080094	0.0219090102775771	-0.0207815629602253	0.546142578125	-0.38525390625	0.444580078125	0	0	0	0.200704348567283	-0.222280200627274	0.49321208150577	0.816731975333418	0.41466671013169	0.716418949440424	0.561066313719903	-0.894869360905632	0.432919214245857	0.108580757268932	-0.165107075623386	-0.547105878984524	0.820618553750563	7.53735077041675	-34.1295725600084	59.9375365046977
22787	1646737224862	5.60138648080624	1.13769462281267	8.25422951188321	-0.0558179160914597	-0.00843122708527827	0.227182977202283	0.0291983706115974	0.0179268466969279	-0.0179396652152137	0.540771484375	-0.396240234375	0.434814453125	0	0	0	0.200726262500565	-0.222034705578341	0.49328713020646	0.816748042075381	0.414736793382829	0.716646202361912	0.560724186079733	-0.894918988746528	0.432753549430459	0.108831838338939	-0.164661458135844	-0.546939289222844	0.820819114122587	7.55275440224087	-34.1058948414264	59.9412167996522
22788	1646737224863	5.57927086777577	1.11443921835341	8.28154195781337	-0.0460584181897704	-0.0484350588542708	0.234685810362379	0.00645859544367373	0.0153018161386258	-0.015756576038323	0.536376953125	-0.38623046875	0.432373046875	0	0	0	0.200712736064807	-0.221940935005936	0.493264724832766	0.816790383259822	0.414864265208693	0.716695022669765	0.56056746777996	-0.894880511909057	0.43280861763407	0.108929196761342	-0.164549417678206	-0.546831733700661	0.820913237900141	7.55857609496871	-34.0950510091978	59.9352752276923
22789	1646737224863	5.63117110934517	1.04566316929506	8.23368957649796	0.0429981123223168	-0.011280370796516	0.217026845836759	0.006459489769583	0.0184775054905504	-0.00970439570014467	0.544677734375	-0.38720703125	0.436279296875	0	0	0	0.200544503311286	-0.221899986809003	0.493453985037691	0.816728512234155	0.414527121009172	0.717034232832912	0.560383060855308	-0.895037523390482	0.432570133684103	0.108585962110901	-0.164545123509874	-0.546575693193756	0.821084596091587	7.53347871910026	-34.0822930927219	59.9672163428563
22790	1646737224863	5.5978448619669	1.14391966982363	8.28111013938781	-0.0646806217029309	-0.017163560122618	0.247964984418502	0.0155245738425451	0.0188677593835556	-0.0130084877597181	0.54248046875	-0.388427734375	0.439453125	0	0	0	0.200554665802941	-0.22177280248519	0.49345759636791	0.816758379626031	0.41463284932934	0.717116113074023	0.560200036260832	-0.895026394220418	0.432554853222951	0.108738459627067	-0.164339142950877	-0.546480355843534	0.821189300205071	7.54298612612031	-34.0696327109146	59.9637197328484
22791	1646737224864	5.60349136733635	1.04591944102519	8.23701260642556	0.0328112196459145	-0.0283866272293586	0.204276093682667	-0.00439999853098143	0.0209629432821695	-0.010997737278962	0.54541015625	-0.38330078125	0.43603515625	0	0	0	0.200411621376697	-0.221694313649246	0.493558434916753	0.81675387029097	0.41450340523623	0.717371290169145	0.559969069760666	-0.895091757562903	0.432470506679377	0.108535737872081	-0.16430968501742	-0.546212131770743	0.821373626625506	7.52741492502353	-34.0536587375858	59.9803023427291
22792	1646737224865	5.6273154018302	1.0499507031814	8.26110748869772	0.0361492474907788	-0.0207968778671492	0.237846576899363	0.00661348554983139	0.0170173343303867	-0.00662254820099322	0.535888671875	-0.38671875	0.435546875	0	0	0	0.200382300089923	-0.22160323777275	0.493576866288578	0.816774642042744	0.414547764146761	0.71747140358231	0.559807945890866	-0.895092869551421	0.432457621750838	0.108577899536743	-0.164191674938539	-0.54609082617385	0.821477877638612	7.52936078442011	-34.0425169625767	59.9811098411203
22793	1646737224866	5.59422209534985	1.1211975250065	8.26058482743639	-0.0411291786274825	-0.0109370923179013	0.226628100152526	0.00516726881895995	0.0154172061891399	-0.00655335495867591	0.5390625	-0.3935546875	0.4423828125	0	0	0	0.200292694856487	-0.22153197609321	0.493641899862524	0.816776649185983	0.414482516536711	0.717647880757846	0.559630023077004	-0.895132826712213	0.432401022174488	0.108473861204722	-0.16413855740684	-0.545903723440526	0.821612839910728	7.52100738402986	-34.030215234758	59.9911196194955
22794	1646737224867	5.59898176036562	1.0478267808586	8.23983627419204	0.0307335224939901	-0.0261669739358412	0.204288728082892	-0.00260639424441396	0.0180857015602915	-0.00640395354187976	0.5390625	-0.393310546875	0.439208984375	0	0	0	0.200222387446494	-0.221459615587066	0.493652465936128	0.816807123563718	0.414525763078418	0.7177553555712	0.559460133783558	-0.895120047394501	0.432436476880812	0.108437974046818	-0.164099032589235	-0.545734315406107	0.82173326845851	7.51745835517611	-34.0184706154357	59.9922465554395
22795	1646737224868	5.59869442267555	1.04906085575784	8.26518966165443	0.0235065401216409	-0.0343827302756856	0.225117830348193	-0.0010050620565348	0.016637504253831	-0.00641695347539914	0.54150390625	-0.388427734375	0.433349609375	0	0	0	0.200014547557459	-0.221361595943287	0.493912819560909	0.816727219627348	0.414098341029667	0.718233008798184	0.559163579848676	-0.895335166634959	0.432088614877555	0.108047990633548	-0.164004583299458	-0.545381310612955	0.821986449213652	7.48844929413149	-33.9979734335341	60.0343351050502
22796	1646737224871	5.59990203142466	0.998939076831496	8.21910675399118	0.0771651158194343	-0.0283797817148229	0.18249836915988	0.000560428104504481	0.0135690465171913	-0.0109827697710619	0.532958984375	-0.38916015625	0.44482421875	0	0	0	0.199971881014942	-0.221295219369598	0.493905164712231	0.816760283656161	0.414172228309492	0.718298602305304	0.559024581949129	-0.895309887413114	0.432137870147861	0.108060476976498	-0.163956002627132	-0.545255884067581	0.822079345375016	7.48846816127896	-33.9883678944126	60.0321758359346
22797	1646737224871	5.59254757079178	1.07372037891142	8.24141470818968	0.00319618540677215	-0.00975496726995993	0.204811056814497	0.00837221707044667	0.0109334792418974	-0.00960343645492328	0.534912109375	-0.3857421875	0.445068359375	0	0	0	0.199854011996384	-0.221188449104048	0.494051294157764	0.81672967535956	0.413977977447968	0.718601908255479	0.558778606998937	-0.895423504098287	0.431943385259975	0.107896525609017	-0.163826073921198	-0.545010283739432	0.82226808774379	7.47553827330097	-33.9713722974769	60.0542691964947
22798	1646737224872	5.58524435221008	1.1486377789078	8.26364690288598	-0.0694542657543028	0.00630466363691004	0.227099463900519	0.00684602790464651	0.0124456379862976	-0.00653693888599754	0.53857421875	-0.385986328125	0.436279296875	0	0	0	0.199833840318162	-0.221115312296721	0.494068722300934	0.816743872077129	0.414008232623692	0.718682558629722	0.558652452998502	-0.895427846667336	0.431925067815236	0.10793380937177	-0.163725852364569	-0.544918448682223	0.822348909863238	7.47736557749401	-33.962657026252	60.0552392950292
22799	1646737224872	5.59770488324097	1.00209722680494	8.24552215544162	0.0702185772424413	-0.0339664342444061	0.203352262883211	-0.0147946830759631	0.0158860204510328	-0.00910744316158504	0.541259765625	-0.382568359375	0.435546875	0	0	0	0.199633376393349	-0.221007386050893	0.494133652833838	0.816782825160906	0.413975336896079	0.718958860566984	0.558321213329747	-0.895440663307817	0.431956896333759	0.107699852388768	-0.163738935310555	-0.544528600279112	0.822604500681486	7.45904828144641	-33.939777786869	60.0667329555417
22800	1646737224873	5.59899437750188	0.952267104712569	8.19938817398781	0.123877478267945	-0.0279201298037966	0.160746920481044	0.0173250636958702	0.0128202988733648	-0.0144540717716206	0.550048828125	-0.387451171875	0.436279296875	0	0	0	0.199663168951985	-0.220898185306231	0.494131591377235	0.816806330224899	0.41407592426283	0.719009160214087	0.558181831013977	-0.895430086990027	0.431937178734104	0.107866736950067	-0.163542313359312	-0.544477824300913	0.82267722138493	7.4698229843617	-33.9301522713467	60.0624466990104
22801	1646737224874	5.58016801246879	1.1768196199496	8.28925411658216	-0.0987622826822207	0.00665620251060986	0.248381894341595	0.0159506507300562	0.0128726449962398	-0.0083056682830498	0.542236328125	-0.380859375	0.441650390625	0	0	0	0.199687225187002	-0.220855573378995	0.494170164186248	0.816788636449288	0.414037329071144	0.719061075928942	0.558143582978024	-0.895469222389485	0.431841721850504	0.107924042837376	-0.163425707551795	-0.544484982669959	0.822695655609102	7.47358102161423	-33.9275111145547	60.0665452493253
22802	1646737224874	5.59517924321112	0.980202535712531	8.22425107857996	0.0950052265605681	-0.0304348040192951	0.182070312855966	-0.016545865682075	0.0172009841010967	-0.01520848200316	0.5400390625	-0.38623046875	0.437255859375	0	0	0	0.199568778305676	-0.220812036604314	0.494131664032765	0.816852646330074	0.414151886181731	0.719131138040673	0.557968297909873	-0.895399891561917	0.432012402651581	0.107816131196195	-0.163515287857194	-0.544257007539209	0.822828694432471	7.46499909502729	-33.9154081326897	60.0621047615678
22803	1646737224874	5.61542205841504	1.00814106998073	8.22294893713982	0.0803037798941949	-0.000835090938324838	0.195297060406867	0.0279098397120796	0.0164711146332136	-0.0117353857206272	0.549072265625	-0.386474609375	0.438720703125	0	0	0	0.199606269518436	-0.220635737608523	0.494163147936378	0.81687207791703	0.414245309023105	0.719255601956648	0.557738471872196	-0.895416707982591	0.431920240781086	0.108045475005798	-0.163186221899927	-0.544165677581368	0.822954416917753	7.4795689147627	-33.899541841449	60.060804100932
22804	1646737224875	5.56942512374735	1.25527604897814	8.31319384862508	-0.171989683545569	0.0244051818282039	0.27062703943605	0.0249363844078083	0.0163824647939507	-0.00860144273252714	0.543701171875	-0.385498046875	0.4345703125	0	0	0	0.19965192265907	-0.220499310784987	0.49419674782424	0.816877431541494	0.414299256766581	0.719350117391204	0.557576483051358	-0.895442562764094	0.431817368436963	0.10824221499327	-0.162907159551481	-0.544122384142978	0.823038327443766	7.49227858802682	-33.8883605401389	60.0608332352513
22805	1646737224875	5.56473904005349	1.03407242923481	8.29942180524843	0.0261725064194979	-0.0656835242799572	0.232760796216175	-0.0229163041616075	0.0230171238307654	-0.013644056287011	0.539794921875	-0.381591796875	0.438232421875	0	0	0	0.199497049072914	-0.220512861018029	0.49420657518539	0.816905665655692	0.414267878338341	0.719456972435038	0.557461917794981	-0.895423632657927	0.431921576909453	0.107982727682405	-0.163090904267316	-0.543898350994614	0.823150011073686	7.47351813182336	-33.8804535418496	60.0663902877784
22806	1646737224876	5.62969511514093	1.03668257794005	8.17507066181433	0.072020915066253	0.052206247808254	0.166894040227818	0.0216852454477189	0.022425000830281	-0.00405046126526179	0.539306640625	-0.385009765625	0.43896484375	0	0	0	0.199509484488494	-0.220365055727886	0.494260896882116	0.816909648386201	0.414290816054663	0.719603153630939	0.55725615386209	-0.895462828301134	0.431804262824843	0.108126785475331	-0.162817206903003	-0.543798105817502	0.823270415626362	7.48229343544571	-33.8662540856574	60.0700519828274
22807	1646737224876	5.54189569123131	1.23079440368461	8.31890293259202	-0.160028870139645	-0.0025479031153877	0.257366881701305	-0.00136401888423731	0.0242871689085702	-0.00504127921439198	0.541259765625	-0.38427734375	0.435302734375	0	0	0	0.199392411837101	-0.220248845999057	0.494291066373231	0.816951316567567	0.414333575079396	0.719791577666215	0.556980945170216	-0.895455372098576	0.431838015610796	0.10805371281511	-0.162749393675452	-0.5435218606405	0.823466223875735	7.47553621840568	-33.8472660430076	60.0739812239598
22808	1646737224877	5.58826735120744	0.936482975116524	8.20833750905483	0.141137578498406	-0.0331827330928418	0.160352064782579	-0.0137107483207322	0.0267198245556775	-0.00478369533028177	0.54541015625	-0.3818359375	0.440673828125	0	0	0	0.199250308960631	-0.220170018327032	0.49430787123961	0.816997065991998	0.41436978292088	0.719958272647965	0.556738510117507	-0.89543404935008	0.431918085619317	0.107910289497627	-0.162774525852851	-0.543237381777712	0.823648954817935	7.4640880604399	-33.8305427154422	60.077552744925
22809	1646737224877	5.55676629873163	1.00973680542639	8.25683977435805	0.0558141005077964	-0.0486808003857935	0.190668938119506	0.0247030971281948	0.0209584595571608	-0.00867472723233445	0.54150390625	-0.38818359375	0.433837890625	0	0	0	0.199291400647981	-0.220035496849787	0.494328707354359	0.817010677310402	0.414447018422873	0.720041299300184	0.556573621565462	-0.895446028738057	0.43184413342627	0.108106678991433	-0.162511779688838	-0.54318612991075	0.823734635507667	7.47674964382457	-33.8191704649065	60.0757924786114
22810	1646737224878	5.52417627421083	1.10931868399983	8.32842314505032	-0.0563849716969936	-0.066590352444697	0.242268111810558	0.00642494105323656	0.018444670313753	-0.0112315501524924	0.54541015625	-0.39208984375	0.4404296875	0	0	0	0.199259261188873	-0.21993445638236	0.494332848633467	0.817043215802067	0.414527739315435	0.720134646070718	0.556392707416836	-0.895430555225619	0.431861563184773	0.108165202407911	-0.162391114616454	-0.54304850775249	0.823849163452521	7.47972317737921	-33.8066946794281	60.0741794036007
22811	1646737224879	5.60937248106794	0.970860176529974	8.3067756465155	0.10481971610929	-0.0511947121550475	0.256897657186142	-0.00100074818516544	0.0150437944647831	-0.009452057240896	0.5380859375	-0.383544921875	0.438720703125	0	0	0	0.199151306386874	-0.21994220637556	0.494473290031533	0.816982465212347	0.414243182600084	0.720348459484635	0.556327855304287	-0.895555570401852	0.431669845219586	0.10789515767778	-0.162427848571505	-0.542917343291051	0.823928366038104	7.46055083997053	-33.8022229400886	60.0985387295655
22812	1646737224880	5.52887169905852	1.0384194312721	8.33283770919482	0.00796697112373478	-0.0928062817680775	0.24088138505053	0.0127203820848246	0.0141487719337352	-0.0128267071027835	0.53515625	-0.382080078125	0.4404296875	0	0	0	0.199156620387093	-0.219842476452755	0.49447382756027	0.817007686598484	0.414329838810032	0.720411666621309	0.556181458939042	-0.895544005132748	0.431664548827775	0.108012277802618	-0.162270513471948	-0.542837680970308	0.824011852206222	7.46780973895944	-33.7921293493462	60.0955320242476
22813	1646737224881	5.56288403390097	1.13879740238639	8.25404746234181	-0.0533400399788983	0.0198841010572331	0.205725540287375	0.0100946519094404	0.00799667741542272	-0.00805183236160754	0.537109375	-0.380615234375	0.439697265625	0	0	0	0.199112026543699	-0.219740363587483	0.494481439059819	0.817041418730674	0.414404558071542	0.720517734796134	0.555988359674713	-0.895529531225546	0.431685014621983	0.108050482894674	-0.162159553996932	-0.542680607719741	0.824137146992204	7.46929843927874	-33.7788175533341	60.0947124114861
22814	1646737224882	5.49542612570298	1.11075900845792	8.33211387514919	-0.0685404642763441	-0.0823009596973326	0.22953073111927	-0.012745729771532	0.00365699898761147	-0.0135222325936782	0.540283203125	-0.38427734375	0.43994140625	0	0	0	0.199039765478498	-0.219745317898678	0.494441088086021	0.817082111805286	0.414480011347842	0.720521823754156	0.555926813247101	-0.89547404991236	0.431822364341153	0.107961435653539	-0.162273060384801	-0.542565891988062	0.824190334039747	7.46273602439305	-33.7745751263346	60.0903445234103
22815	1646737224884	5.59733026375807	0.773160014282256	8.21992523338951	0.29438081302936	-0.0920234421553555	0.157263736998219	-0.00672967954893737	0.00549070058408672	-0.0137058350587795	0.534423828125	-0.393310546875	0.427490234375	0	0	0	0.198962453767762	-0.219698480581876	0.494393940182691	0.817142063249323	0.414614419081297	0.720556671106454	0.555781402364152	-0.89540366624893	0.43197714780269	0.107925985027825	-0.162318076497511	-0.542396374895922	0.824293039241452	7.45939406888112	-33.7645527135676	60.0835123913989
22816	1646737224883	5.53311019886405	1.1886563584066	8.27847628648847	-0.111957034548496	0.00922007387032949	0.214713148655717	0.0454643436571746	0.00209645334917171	-0.0118473999118501	0.53564453125	-0.386962890625	0.439453125	0	0	0	0.199129980028	-0.219567253325423	0.494422967610502	0.817118964056277	0.414672300732709	0.720559920660058	0.55573400448723	-0.895449611738035	0.431786360306546	0.108307580027568	-0.161916261824576	-0.542543951944537	0.824274944642356	7.48563221199892	-33.7612860787359	60.0801665243606
22817	1646737224884	5.49007950669414	1.1643323008428	8.35501164550596	-0.12275701091805	-0.0723736970886776	0.251236074398911	-0.0204434589490509	0.00478864011050516	-0.0133598967996145	0.53955078125	-0.380859375	0.435791015625	0	0	0	0.19890213411016	-0.219677594096883	0.49452816625987	0.817081139467727	0.414367294854911	0.720750590608889	0.555714253093765	-0.895527959737112	0.431759667644148	0.107764849208362	-0.162263422507076	-0.542311880316808	0.824359391396458	7.44778939161468	-33.7599248606345	60.1049394254829
22818	1646737224884	5.58663312820209	0.87401480226705	8.21622642825264	0.19897059565695	-0.0524400707461106	0.159193549829032	-0.00269629711234028	-0.012611365926411	-0.0119065302103627	0.540771484375	-0.385498046875	0.440185546875	0	0	0	0.1989081331698	-0.219726407592425	0.494490259554671	0.817089495447707	0.414399378024165	0.720674854282031	0.555788547829803	-0.895496332451294	0.43182987552892	0.107746355701527	-0.162356010235125	-0.542356628987102	0.824311720730866	7.44695142874269	-33.7650451858132	60.1004208075768
22819	1646737224886	5.64415607513236	1.10818553381114	8.34954866963598	-0.00790897486230221	0.0165974526972761	0.326306511775904	0.0321992065452041	-0.00936373851252368	-0.0158787843421671	0.54052734375	-0.397216796875	0.438720703125	0	0	0	0.199037552534105	-0.219683931290932	0.494466233040747	0.817083941462741	0.414484229430109	0.720590133195901	0.555835122580826	-0.895491541256771	0.431774394127454	0.108008203917309	-0.162165727240072	-0.542513347777347	0.824246046027589	7.46543343480239	-33.7682552310132	60.0924401568879
22820	1646737224887	5.5844258470477	1.14805493492335	8.22843017911187	-0.0475220892862579	0.0566807002088917	0.1975790693402	-0.0103086371595969	0.017620789271274	-0.00928329863413295	0.541015625	-0.382568359375	0.43994140625	0	0	0	0.198934803007068	-0.219630749836062	0.494460737533328	0.817126585613873	0.414541825528894	0.720689628455588	0.555663148250556	-0.895458428267314	0.431867046381073	0.107912267583994	-0.162201350586867	-0.542307397779741	0.824374555757977	7.4577274400475	-33.7564029391884	60.0924182742217
22821	1646737224888	5.51704863774357	1.09319214431299	8.25891358806844	-0.033305568870356	-0.0296089272294668	0.179337579069628	-0.000212142788678274	-0.000198951254375415	-0.00916290084307532	0.536865234375	-0.384765625	0.437255859375	0	0	0	0.198848544760245	-0.219654708675239	0.494597245681535	0.817058522853637	0.41425074704207	0.720873751588452	0.555641388708471	-0.895585828267679	0.431665641621944	0.107660568683297	-0.162241618523676	-0.54222302433031	0.824422130407057	7.44010330883527	-33.7549034109896	60.1161326151739
22822	1646737224889	5.5472396957026	1.04795646652024	8.28413703971784	0.0150619513404624	-0.0401152973122268	0.212040627957187	-0.0141024553772386	0.00532695031273848	-0.00282434835749097	0.536865234375	-0.389892578125	0.443359375	0	0	0	0.198752906660381	-0.219668006828776	0.494602250246193	0.817075188046563	0.414229161654551	0.720935143541299	0.555577825729263	-0.895573762971345	0.431731792290906	0.107495556199445	-0.16236328622048	-0.54208871813788	0.824486497739846	7.42825376673043	-33.7505232079915	60.1195300918265
22823	1646737224889	5.55868992474092	0.899149386047178	8.21694207591382	0.162775362113022	-0.0568848582948423	0.147026920719192	-0.00054765406888464	0.00268434151014271	-0.0168572173244898	0.5400390625	-0.39111328125	0.43603515625	0	0	0	0.198656845428659	-0.219621505989756	0.494658774285764	0.817076831695301	0.414158182257794	0.721089816990954	0.555429991898954	-0.895607079263819	0.431696309572878	0.107360401795491	-0.162360585246086	-0.541911221634236	0.824603703742251	7.41797555157383	-33.7403366623204	60.129079876999
22824	1646737224890	5.54218167848669	1.09888349892529	8.30718935682853	-0.036508606397158	-0.0309532428689293	0.233726244049421	0.0176296580714458	0.00991713286263542	-0.00827346638907464	0.53466796875	-0.38818359375	0.4453125	0	0	0	0.198684847059581	-0.219532015064085	0.494681581799121	0.817080264441342	0.414191653981244	0.721153745665995	0.555322022689706	-0.895624485016753	0.43162892835526	0.10748604581696	-0.162179084997906	-0.54187982368676	0.824660051821626	7.42605818093653	-33.7328977676585	60.1292737853357
22825	1646737224891	5.53606635754953	1.14837219840649	8.30586453811141	-0.0838154034633188	-0.0101876209759385	0.234553363096648	-0.0101326492487562	0.0113900235326886	-0.01527592877355	0.547607421875	-0.386474609375	0.435302734375	0	0	0	0.198513221768974	-0.219485998404605	0.494794665402415	0.817065870280082	0.414008271187291	0.721417922440977	0.555115602887773	-0.895701413146889	0.431541479744428	0.107195754331297	-0.162222470315232	-0.541597758895783	0.824836794574472	7.40465594963468	-33.7186775895299	60.14929092878
22826	1646737224892	5.55581997785581	0.927844689837335	8.266213514896	0.128286603538668	-0.0680176467189691	0.189174131423277	-0.0114964974584667	0.00826367516481167	-0.0151790794057887	0.534912109375	-0.374267578125	0.447509765625	0	0	0	0.198433093016532	-0.219468477717409	0.494756415555417	0.817113201552301	0.414099353110317	0.721444379699864	0.555013272591832	-0.895643615112245	0.431680793725296	0.107117725131589	-0.162309089278096	-0.541451474583066	0.824915789768591	7.39862503349497	-33.7116289693512	60.1447567587834
22827	1646737224892	5.5474535262611	1.00170603019073	8.26375234004411	0.0613833634145712	-0.0402107093085884	0.190405812853733	0.0177288669981521	0.00521666398084327	-0.0142918870891054	0.534912109375	-0.39013671875	0.43212890625	0	0	0	0.198503810678413	-0.219349345583615	0.49466719973642	0.817182025770952	0.414380452193937	0.721382926789777	0.554883333481701	-0.895549650662432	0.431801197302154	0.107417639179152	-0.162110036820504	-0.541437345354605	0.824964203476377	7.41867909792382	-33.7026794581971	60.1258595598965
22828	1646737224893	5.58727123643213	1.10759205668691	8.30653798063289	-0.0225127105145924	0.0115012520122858	0.259169169134186	0.00226171492395462	0.00741192120903655	-0.0170224452603929	0.5390625	-0.3837890625	0.43798828125	0	0	0	0.19848445176382	-0.219298965459676	0.494635402259836	0.817219496211136	0.414487565159133	0.721396518622679	0.554785653426199	-0.895506258349225	0.431879482478533	0.107464663361719	-0.162075906864119	-0.541356791342969	0.825023772312665	7.42136066435102	-33.6959523921074	60.1199295418146
22829	1646737224894	5.54437847257945	1.02941957584803	8.28798007360516	0.0311689549170347	-0.0413821178734042	0.211671314630239	-0.00708618938223763	0.0115443590568991	-0.0153542327741239	0.5390625	-0.3955078125	0.43994140625	0	0	0	0.19834893333005	-0.219322612245193	0.494673266560372	0.817223134618243	0.414391902216872	0.721512062632638	0.554706854881639	-0.895521687408615	0.431912119994645	0.107204608028571	-0.162235195805073	-0.541176740148104	0.825110584809553	7.40283076809105	-33.6905260486554	60.1296051710592
22830	1646737224894	5.548471999069	0.981909175321801	8.29042986304681	0.0759441354678205	-0.0591125409994495	0.210867512084475	0.00664834492132614	0.00907366303793293	-0.0217475699559232	0.541259765625	-0.392822265625	0.447998046875	0	0	0	0.198347982625332	-0.219250531688573	0.494628954176443	0.817269527042981	0.414542804089193	0.721514541583171	0.554590867092035	-0.895466144183011	0.432000550957559	0.107312201516773	-0.162156246256134	-0.541102846283765	0.825174564285478	7.40960976043004	-33.6825393469349	60.1206801557284
22831	1646737224895	5.58966142340201	1.03668794951889	8.26219111970812	0.0483627814409288	0.0125762760679325	0.216287707228984	0.0187573250925525	0.0112297228839019	-0.0220816073786521	0.543212890625	-0.385986328125	0.4375	0	0	0	0.198290927206088	-0.219120297294483	0.494852164377661	0.817183173414671	0.414215261448644	0.721870590274117	0.554372228814116	-0.895668857954904	0.431604087196989	0.107215711556714	-0.161873450796572	-0.54094432505772	0.825334007002655	7.40160703346476	-33.6674863421471	60.1524428175463
22832	1646737224896	5.5317265941647	1.13303363776601	8.31017967648785	-0.0675618289645131	-0.0127384860695055	0.234109303865781	0.004767580653923	0.0150552035813082	-0.0233558461251034	0.540771484375	-0.384033203125	0.438720703125	0	0	0	0.198268235222115	-0.219026953570924	0.494806084650703	0.817241603874882	0.414388264404164	0.721900061352816	0.554204536017981	-0.895604411555149	0.431713290989099	0.107314362441928	-0.161787219294543	-0.540817839759528	0.825433801022697	7.40745603939993	-33.6559426625834	60.1431236383471
22833	1646737224897	5.54605444203454	0.962496170490836	8.26891691545239	0.098443842888295	-0.0525713296712267	0.18969487379629	-0.00296610618214884	0.0161487364065254	-0.0247235260730715	0.541015625	-0.390625	0.43701171875	0	0	0	0.198212073390908	-0.218988018180792	0.494768606511493	0.81728835050183	0.41449654780785	0.721925098328972	0.554090935008035	-0.895549374854495	0.431831999945506	0.107296043826358	-0.161814489626542	-0.540689630218453	0.825512443710653	7.40550789980857	-33.6481234469998	60.1375178650495
22834	1646737224897	5.54966631005537	0.916174920476714	8.27161106611304	0.143210766214273	-0.0702547889671312	0.188926311860612	0.0214592349811865	0.0158642533727332	-0.0268254751004041	0.53564453125	-0.384521484375	0.44384765625	0	0	0	0.198259365529112	-0.218847047773157	0.494727273003258	0.81733965950988	0.414701790055467	0.721943488054618	0.553913373534457	-0.89549739541232	0.431876298653508	0.107551278333164	-0.161576112512162	-0.540629690931675	0.825598387321934	7.42216370307134	-33.6359032224531	60.1258990989785
22835	1646737224898	5.55803923318941	1.06860620392719	8.28962006995347	0.00916640422029746	-0.00646393193134757	0.22481199789531	0.0185529188772487	0.0110323287591317	-0.0312430375115611	0.54150390625	-0.385498046875	0.4404296875	0	0	0	0.198252058396744	-0.218730257698182	0.494755748611755	0.817355458123553	0.414747647165817	0.722055175487015	0.553733431104566	-0.895510070776275	0.431825741114151	0.107648699246604	-0.161388048840955	-0.540520908812629	0.825706391417482	7.42785085199234	-33.6235209033387	60.1269908942482
22836	1646737224898	5.53377189388967	1.04446603196592	8.26795521443713	0.0277586744867555	-0.0223635501949938	0.190879583289854	0.028858530522656	0.017653611917507	-0.0331534893102196	0.538818359375	-0.3828125	0.44140625	0	0	0	0.198331576076421	-0.218557482569695	0.49469883214762	0.817416832598657	0.415011384569156	0.72205660496604	0.553533928411718	-0.89544400489141	0.431875302805647	0.107998874672671	-0.161076332159708	-0.54047940021008	0.82579442548768	7.45095666462908	-33.6097946701038	60.1113063999264
22837	1646737224900	5.4862647985603	1.26650737190724	8.30992991120049	-0.19364125633066	0.0174660953009977	0.22326170700029	0.0319128835941307	0.0210311841148051	-0.0256529108646732	0.534912109375	-0.38623046875	0.44921875	0	0	0	0.198390284942615	-0.218366176409586	0.49469804087758	0.817454192106524	0.415180122704284	0.722142518765072	0.55329526322109	-0.89542943060398	0.431830286384545	0.108299300871596	-0.160722122060065	-0.540400579526597	0.825915015681292	7.47037096818143	-33.5933768397266	60.104188469084
22838	1646737224900	5.44416869676913	1.19101911418129	8.31581684617124	-0.142153160266344	-0.0478407586205379	0.196698871508811	-0.00389743366153549	0.00701347669611398	-0.0199321439262924	0.540283203125	-0.3837890625	0.447509765625	0	0	0	0.198347707743642	-0.218330988871792	0.494648881554585	0.817503669782531	0.415308126550127	0.722143649505151	0.553197712848495	-0.895365454193642	0.431961341619281	0.108305599038484	-0.160747825671261	-0.540294316855038	0.825979532262217	7.47022355454875	-33.58666722802	60.0965948476951
22839	1646737224901	5.49220945225693	0.950128578210396	8.27561242991736	0.101859189376334	-0.0929289299085666	0.163978349466984	0.00591541885285128	-0.00628562419271826	-0.0229370851732994	0.545166015625	-0.377685546875	0.4541015625	0	0	0	0.19832793457162	-0.218203150128131	0.494647325705655	0.817543539400171	0.415422816892809	0.722239890660594	0.552985916225194	-0.895343010988327	0.431980107081599	0.108416233840357	-0.160576386430883	-0.540150652526075	0.826106831285431	7.47662886671286	-33.5721014412842	60.0930573990303
22840	1646737224903	5.53663997222678	1.00779076763203	8.29523303435331	0.0675123207513678	-0.0475095273828513	0.21098956063436	0.0331763602961391	-0.00178497719005223	-0.0236701694706777	0.537841796875	-0.3818359375	0.438232421875	0	0	0	0.198462459775955	-0.218107550982769	0.494615215630755	0.817555830956222	0.415569769341681	0.722178785109685	0.552955304836477	-0.895323429364685	0.431936881052438	0.108749655711417	-0.1603050954897	-0.54026690915157	0.826083496527952	7.49957049864223	-33.5699964223426	60.0822028028394
22841	1646737224904	5.53298251671708	1.08856913312845	8.3893602317784	-0.0166366833492136	-0.0668819523404662	0.295502019179022	0.0193622669177557	-0.00261675548703847	-0.0279161329870316	0.5419921875	-0.384765625	0.441650390625	0	0	0	0.198571017663169	-0.217962732258005	0.494483109081269	0.817648000746141	0.415957404359895	0.722064087971836	0.552813612910879	-0.895188414200304	0.432112011555071	0.109164612175261	-0.160053556160817	-0.540280170218406	0.826123596581677	7.52749785341678	-33.5602535215258	60.0551684368833
22842	1646737224905	5.53279184138333	1.03739385373605	8.26917691571843	0.0503564200088617	-0.0249922638368192	0.190516999651555	0.0133018003541091	-0.00290665676754141	-0.026239467495957	0.539794921875	-0.381103515625	0.438720703125	0	0	0	0.19863027466882	-0.217917558453939	0.494417544960049	0.817685295782027	0.416126457906303	0.721985863999234	0.552788551994009	-0.895125961962692	0.432194610441334	0.109349581278709	-0.159963380968016	-0.540318638296648	0.826115903404926	7.54017526571742	-33.5585304182664	60.0424119659245
22843	1646737224905	5.50928728692333	1.06517384667764	8.34203354051254	0.00540001814163535	-0.0703910772343681	0.240738942268621	0.0180873557597404	-0.00726882941818194	-0.027786625312489	0.546875	-0.38037109375	0.435302734375	0	0	0	0.198713932863815	-0.217899469688507	0.494355909993721	0.817707055276854	0.416264110727495	0.721877309657864	0.552826681629398	-0.895075952020835	0.432250014280151	0.109539788519083	-0.159885053192109	-0.540419351019126	0.826065187990526	7.55359802829207	-33.561152095723	60.0304845632773
22844	1646737224906	5.50900282840754	1.0404613910511	8.26935709252651	0.0408693479364851	-0.0432116211432827	0.177828170000931	0.013482740324738	-0.00754839768475079	-0.0292017274298795	0.537841796875	-0.3828125	0.4375	0	0	0	0.198788601257903	-0.21787008395284	0.494273755377707	0.817746399119634	0.416452162526403	0.721760988789064	0.552836930196704	-0.895001345768771	0.432353093509491	0.109742396569705	-0.159812976316604	-0.54049225488901	0.826031437056618	7.56771323607473	-33.5618567695289	60.0152879276291
22845	1646737224907	5.50103661701124	1.14262526190075	8.31338692466827	-0.0602492568786293	-0.0311942739993373	0.220995637248947	0.0214526187581201	-0.0116059546021259	-0.0247144810278233	0.541259765625	-0.38037109375	0.446533203125	0	0	0	0.19891423271255	-0.217923143088805	0.494187740611195	0.817753696879615	0.416575961471798	0.721551674079143	0.553016862272241	-0.894943733270411	0.432423210107961	0.109935806905426	-0.159812961313743	-0.540715589745213	0.825885263461347	7.58222175149469	-33.5742295254735	60.0007201289614
22846	1646737224907	5.53008775428158	1.09852153860392	8.28905229014132	-0.00306757678380813	-0.0176600958281217	0.212116181365607	0.0135997607892692	-0.00903861820798485	-0.0276436444326849	0.540283203125	-0.37353515625	0.441650390625	0	0	0	0.198991473136132	-0.217901767685633	0.494110238517524	0.817787432925417	0.416747783663264	0.721433099577361	0.553042102959584	-0.894875474580286	0.432514931622535	0.110130463171013	-0.159747205942593	-0.540800440789165	0.825842426517177	7.59587988470851	-33.5759653048367	59.9864098625148
22847	1646737224907	5.49729424132016	1.17031757274593	8.26213016062496	-0.0730094261932613	0.00289076978484987	0.179676844192436	0.0183720870470181	-0.0118044708589331	-0.0261670961017614	0.54150390625	-0.389892578125	0.4462890625	0	0	0	0.199119656190547	-0.217817266675429	0.493936130129434	0.81788391609651	0.417165475381608	0.721221434318081	0.5530032629468	-0.894708231329185	0.432756923742635	0.110537892799765	-0.159593693300952	-0.540889163907895	0.825814001713207	7.62391039639499	-33.5732943265652	59.954256975766
22848	1646737224908	5.54741324723113	1.17901025899793	8.28338593995622	-0.0620465114656486	0.0300986431390553	0.225917401488124	0.00762668284317125	-0.00763238215997414	-0.0183600336452211	0.538818359375	-0.387939453125	0.43603515625	0	0	0	0.19915932488431	-0.217813500204728	0.493891243458311	0.8179023670802	0.417257437527536	0.721150454906548	0.553026448025801	-0.894668813512396	0.432814005893658	0.110633405581704	-0.159574261572081	-0.540938127414184	0.825785684880382	7.63067899725011	-33.5748887250121	59.9463386738166
22849	1646737224909	5.54807096181448	1.18020701474586	8.2827749850934	-0.0649227676975524	0.0319619382406117	0.225893452247035	0.00195595664175065	-0.0123555667122139	-0.0104768650769237	0.541748046875	-0.378662109375	0.440185546875	0	0	0	0.199101964306585	-0.217882185430942	0.494040776524019	0.817807723253235	0.416902128806762	0.721299183073312	0.553100446116402	-0.894822267500161	0.432564237881608	0.110368880087525	-0.159642489902471	-0.540939616411737	0.825771522162191	7.61277722400193	-33.5799776448486	59.9726116442743
22850	1646737224909	5.51489357110679	1.05544825202117	8.31401018241311	0.0274931783047994	-0.0634073377414119	0.219561189061569	-0.00440948356910743	-0.00974498821801588	-0.0149700769876024	0.5439453125	-0.38134765625	0.448974609375	0	0	0	0.199093226689061	-0.217920599149566	0.493995088035402	0.817827214361156	0.416958930926379	0.721232223018773	0.553144945199836	-0.894778284005575	0.432661480166867	0.110344306839343	-0.159740641017777	-0.540951129085812	0.825744999105665	7.61134374094412	-33.5830380340856	59.9669248627283
22851	1646737224910	5.56357930354436	1.03408468550988	8.23882366960329	0.0800326739697926	0.0024789073091314	0.182038724814143	0.00958948928942485	-0.0135367704060999	-0.0136911010265843	0.538818359375	-0.382080078125	0.446533203125	0	0	0	0.199167858973857	-0.217893006604002	0.493938511819221	0.81785056591449	0.417094768429763	0.72114121561523	0.553161189247321	-0.894730350058013	0.432713820987166	0.1105275975119	-0.159654485792251	-0.541030587183086	0.825709603249676	7.62416117320579	-33.5841552326342	59.9557040961955
22852	1646737224912	5.54065518834966	1.0609380108583	8.3114173360893	0.0355890867700168	-0.0428207388881918	0.232261960775686	0.0153117583601495	-0.00714685619348726	-0.015497859637242	0.531494140625	-0.38037109375	0.446533203125	0	0	0	0.199234174753535	-0.217871180017971	0.493914616251967	0.817854659692373	0.417161001540497	0.721085971276764	0.553183261516086	-0.894715510290602	0.4327081909259	0.110669675842407	-0.159564577645408	-0.541108716926165	0.82567578505571	7.63415517538642	-33.5856732953708	59.949858481841
22853	1646737224912	5.53631675350115	1.08468960390878	8.26106941138589	0.0225346757109389	-0.00704481047540337	0.190915232081711	0.00630503204517809	-0.0107270194318911	-0.0167322662708422	0.54296875	-0.38427734375	0.4375	0	0	0	0.199210100988293	-0.217775676875413	0.493891912858902	0.817899669053769	0.417289065948062	0.721141834984968	0.553013823764567	-0.894674293317547	0.432772228153619	0.110752460088705	-0.159460792412876	-0.540983042593264	0.82577818045138	7.63886219265164	-33.574020572388	59.9441591920698
22854	1646737224913	5.53544158769176	1.11227196786629	8.28364326265884	-0.0050638992063516	-0.0092540820181686	0.212126655775014	0.0231137067997551	-0.0113737940044956	-0.0186501078355415	0.538818359375	-0.386474609375	0.446533203125	0	0	0	0.199321908283363	-0.217747810361861	0.493860000667254	0.81789911829139	0.41737638164711	0.721051500038565	0.553065719725333	-0.894659136381965	0.432746153238437	0.110976558541037	-0.159317248694053	-0.541124293623444	0.825713335921788	7.65472970506233	-33.5775894401828	59.9358503570607
22855	1646737224914	5.51518245402377	1.11520987656591	8.35723611613863	-0.0280078138740197	-0.0627762680965406	0.262013654473289	0.00310398032150366	-0.00944297977846583	-0.0197414007325172	0.5322265625	-0.38525390625	0.439453125	0	0	0	0.199305396017332	-0.217768760015801	0.493902979383956	0.817871611706389	0.417273228233663	0.721093473640382	0.553088831267369	-0.894703429460992	0.432674412148052	0.110899172147843	-0.159338715666331	-0.541125729702058	0.82570825255911	7.64950165392155	-33.5791788606611	59.9434361649002
22856	1646737224915	5.56573675784395	1.04266571581052	8.21102548810796	0.0819970895664389	0.0204531817705495	0.161197272128097	0.0138882195910976	-0.0103478872285512	-0.0184520603664954	0.531494140625	-0.38818359375	0.442626953125	0	0	0	0.19937635602296	-0.217759842777378	0.493863151705673	0.8178807412575	0.417359676521823	0.721009993311428	0.55313243437594	-0.894674649075774	0.432696512092691	0.111045039168621	-0.159273892131574	-0.541219288244492	0.825659439065154	7.65989122272309	-33.5821776011085	59.9354146075655
22857	1646737224916	5.53563903674009	1.14362070453898	8.30497496169658	-0.0366439230032321	-0.00666811408810154	0.233326244791767	0.0138228112080933	-0.00719243319869177	-0.0139341111398386	0.536865234375	-0.383056640625	0.4423828125	0	0	0	0.199300859035308	-0.217724179425326	0.493986838550251	0.817833939513692	0.417146370065393	0.721213172494482	0.553028449324003	-0.894783636463383	0.432512341853833	0.110884255246089	-0.159220444223199	-0.541095771527147	0.825750698562714	7.64809640955495	-33.5750263522662	59.9551098105684
