// Start Time : 29/03/2022 10:51:55																																
// Update Rate : 100Hz																																
// Filter Profile : 46.1 human																																
// Firmware Version : 4.4.0																																
PacketCounter	Time_Of_Arrival	Acc_X	Acc_Y	Acc_Z	FreeAcc_X	FreeAcc_Y	FreeAcc_Z	Gyr_X	Gyr_Y	Gyr_Z	Mag_X	Mag_Y	Mag_Z	VelInc_X	VelInc_Y	VelInc_Z	OriInc_q0	OriInc_q1	OriInc_q2	OriInc_q3	Mat[1][1]	Mat[2][1]	Mat[3][1]	Mat[1][2]	Mat[2][2]	Mat[3][2]	Mat[1][3]	Mat[2][3]	Mat[3][3]	Euler_X	Euler_Y	Euler_Z
17503	1648551154526	4.62366032691071	-0.242807605671286	8.64410778851744	-2.60208521396521E-16	-2.60208521396521E-16	-0.00667954880744403	0.0260396691736203	-0.00476219622929094	-0.00756952738175706	0.59228515625	-0.3974609375	0.383056640625	0	0	0	0.0859871303600681	-0.227698291439942	0.390025245168236	0.888054057824877	0.592067592413577	0.653568757913967	0.471491086546061	-0.731885248589211	0.680973043087796	-0.0248937238125532	-0.337342480146066	-0.330338603960454	0.881519402975544	-1.6175779462933	-28.1311297936186	47.8265858529169
17504	1648551154526	4.67195840807509	-0.247054312395384	8.59443115873034	0.0321635209146035	0.000764537201381831	-0.0274207549360081	0.023038046208022	-0.00785626186897652	-0.00726395995563857	0.5859375	-0.3896484375	0.380615234375	0	0	0	0.0881935223325196	-0.22915141998097	0.391063299114673	0.887006778680319	0.589118245612506	0.653332252664367	0.475496225342479	-0.734170936166848	0.678582797408263	-0.0227689162998621	-0.337539226126885	-0.335681924878418	0.879423058678577	-1.48309896615931	-28.3916641266877	47.9586055307859
17505	1648551154527	4.67284894974937	-0.211965210788043	8.63794591979229	-0.00644143195858088	0.00811806571534763	0.010471400859398	0.0307716669382728	-0.0106287222640729	-0.00558732287074514	0.594482421875	-0.39404296875	0.38037109375	0	0	0	0.0883571787455906	-0.229135923422851	0.391069083748406	0.886991944325008	0.589123400666678	0.653258646432979	0.475590958332346	-0.734241861404615	0.678515961400603	-0.0224717397123913	-0.337375914593817	-0.335960162794886	0.879379475122554	-1.463822765364	-28.3978342402412	47.9551456285693
17506	1648551154528	4.60165369483494	-0.264246205065357	8.62413526271236	-0.00385425396243677	-0.0714677559405019	-0.0343629202794915	0.0213692384465423	-0.0019365907094411	-0.00929052648708978	0.591552734375	-0.3994140625	0.374755859375	0	0	0	0.0884675058442347	-0.229100100587909	0.39104970709028	0.886998743462986	0.589186540990433	0.653185368665944	0.475613387192229	-0.734257026616646	0.678507253988613	-0.0222379214162297	-0.337232618202646	-0.336120187500792	0.879373288640621	-1.4486084102557	-28.3992951209206	47.9488950478179
17507	1648551154528	4.64921661744204	-0.184016406902513	8.63360360792386	-0.03721546124474	0.00841610897433648	-0.00520390395719161	0.0202951576199056	-0.0247633037356876	-0.00728816769112304	0.593994140625	-0.39892578125	0.389404296875	0	0	0	0.0886142805631339	-0.229167016691837	0.391029673212994	0.886975638001282	0.589156546255005	0.653052647125162	0.475832748019399	-0.73428252837695	0.678486607894435	-0.022024791219391	-0.337229495336971	-0.336419623373432	0.879259975481683	-1.43491547196629	-28.4135840243736	47.9445549819924
17508	1648551154529	4.67604581980079	-0.237177566473063	8.59248629551228	0.032159820284281	0.000740583409837479	-0.0274207409307543	0.0292084013156703	-0.0109205807815178	-0.00860830741014925	0.593017578125	-0.404296875	0.385009765625	0	0	0	0.0887745489480761	-0.229153830213265	0.391020250552808	0.886967172569129	0.589183371512418	0.65295819626638	0.475929142480071	-0.734330307934006	0.67844448623337	-0.0217273548571038	-0.337078556990514	-0.336687797563403	0.879215203115311	-1.41561748151661	-28.4198636546287	47.9391356888635
17509	1648551154529	4.62901687108592	-0.232365024125448	8.6173180538318	-0.00667573701077394	-0.0376207823340696	-0.0280820667524999	0.0171143402272069	-0.0169521196879989	-0.00486391450152943	0.59326171875	-0.3974609375	0.3837890625	0	0	0	0.0888891635946778	-0.229193389129462	0.391010761441451	0.886949655511386	0.589161949632655	0.652868103001184	0.476079234149825	-0.734359337645774	0.678418602064831	-0.0215537371437264	-0.33705275598563	-0.336914589259705	0.879138213949579	-1.40443312471042	-28.4296421384096	47.9362395738494
17510	1648551154530	4.655929975734	-0.253353647036833	8.62007247526571	0.0240836383090635	-0.0379280646599365	-0.012406647661523	0.0262995285233677	-0.0185749329087396	-0.00790341648352988	0.593994140625	-0.39501953125	0.385498046875	0	0	0	0.0890498012252961	-0.229220340149069	0.390997939614326	0.886932229531114	0.589157293758593	0.652753297194273	0.4762423922889	-0.734401400102551	0.678381488238174	-0.0212870839518532	-0.336969237080276	-0.337211638912071	0.879056337127361	-1.38719407995976	-28.440272928649	47.9314530478993
17511	1648551154531	4.65571400335839	-0.202907928623122	8.61073227972125	-0.00950815372482393	-0.00375910835144202	-0.0218013136398323	0.0217845380908869	-0.0215633637699634	-0.0060516023026609	0.599365234375	-0.40283203125	0.38330078125	0	0	0	0.0891954990761371	-0.229270680546302	0.390986464275627	0.886909636174756	0.589129079590159	0.652639500010195	0.476433217363877	-0.734439151109607	0.678347495395605	-0.0210667702296459	-0.336936286111562	-0.337500160765816	0.878958235972789	-1.37299580465445	-28.4527077512611	47.9278491866433
17512	1648551154531	4.63410958894479	-0.225879332824685	8.61475293144061	-0.00668828015716379	-0.0375386748598438	-0.0280817599682148	0.0171772083211283	-0.0199920287966706	-0.00459767351775816	0.593505859375	-0.392822265625	0.385009765625	0	0	0	0.0893134174181909	-0.229323123009656	0.390977513105366	0.886888156966889	0.589094978998083	0.652543388409022	0.476606999490061	-0.73446991564504	0.678319395430055	-0.0208983443308748	-0.336928848173639	-0.33774239299661	0.878868037444364	-1.36216277786968	-28.4640332687566	47.9253016427244
17513	1648551154532	4.63716340088613	-0.248249864195031	8.61792483081338	0.010107610522436	-0.0546231272049771	-0.0233843165837602	0.0157834979026882	-0.0277527252744538	-0.00543039023156056	0.598388671875	-0.3935546875	0.38134765625	0	0	0	0.0894438872415975	-0.229412907821778	0.390959131392585	0.8868598910429	0.589041350611025	0.652412780820153	0.476852021798016	-0.734491109856065	0.678301497231737	-0.0207337501574254	-0.336976403940611	-0.338030534531572	0.878739017519738	-1.35163680554848	-28.4800036271792	47.9221915019074
17514	1648551154532	4.66389715312609	-0.245659211729012	8.61598725411494	0.0240602791860982	-0.0377546686654587	-0.0124059207597895	0.0172668416511568	-0.0263393727937613	-0.00710642193418757	0.593505859375	-0.3955078125	0.382568359375	0	0	0	0.0895743865127528	-0.229490949606771	0.390937104899308	0.886836238176132	0.58900416812306	0.652281360902229	0.477077683562329	-0.734507404987252	0.678289218587623	-0.0205574309359192	-0.33700587821662	-0.338308678823538	0.878620666658892	-1.34032718731082	-28.4947142173603	47.9182491721321
17515	1648551154533	4.66581076711555	-0.247986686031235	8.59066922711067	0.034964857908345	-0.0328896416020512	-0.0337007119037747	0.0204232992775841	-0.0308440354477592	-0.0067523833413307	0.5859375	-0.39892578125	0.3857421875	0	0	0	0.0897329839418877	-0.229584768246262	0.390916777333335	0.886804882136716	0.588949814777261	0.652131160652018	0.477350044496156	-0.734536465941394	0.67826412958441	-0.0203457789585753	-0.33703752888389	-0.338648371952022	0.878477651564391	-1.32674849374525	-28.5124717953961	47.9143159076405
17516	1648551154534	4.64454414643396	-0.242678281563314	8.61410806574318	0.010029792141786	-0.0543224910905807	-0.0233825636477114	0.0157495505238621	-0.028021283973173	-0.00847028730653152	0.588623046875	-0.394287109375	0.384765625	0	0	0	0.0898578416351699	-0.229673771747752	0.390887129957229	0.886782261043618	0.588914420409924	0.65198756701372	0.47758980086762	-0.734539524651567	0.678265639860938	-0.0201843629743901	-0.337092705583929	-0.338921722885331	0.878351053735661	-1.31641591570387	-28.5281060730685	47.9097525890769
17517	1648551154535	4.6492490823907	-0.288771705332941	8.62121627285905	0.0436214976715169	-0.0884911040787991	-0.0139863604623507	0.0189017682767041	-0.0343141757611117	-0.0110231607992466	0.593505859375	-0.394775390625	0.390380859375	0	0	0	0.0900213718377997	-0.229784018054677	0.390844535504	0.88675588902795	0.58887970822662	0.651796442041764	0.477893384951736	-0.7345383321685	0.678273403358206	-0.0199656923745588	-0.337155939906225	-0.339273618836734	0.878190915318176	-1.30239661309349	-28.5479058212669	47.9030765944775
17518	1648551154535	4.60223052314995	-0.236146731939074	8.63659040952038	-0.0289237987708456	-0.0923621456411903	-0.0240400549506958	0.0190334094649165	-0.0386048621003256	-0.0075821220509933	0.5966796875	-0.397705078125	0.385986328125	0	0	0	0.0901729817015308	-0.22991349424238	0.390819709848477	0.88671786546244	0.588799479118423	0.651629667176477	0.478219562800757	-0.73455760841349	0.678257575530015	-0.0197934625065825	-0.3372540486217	-0.339625437933643	0.878017237072629	-1.29142089648505	-28.5691832835801	47.8996663592926
17519	1648551154535	4.60880967949473	-0.278010363334785	8.66708284537058	-0.00623717812315615	-0.131394383144978	0.00665251314598869	0.0146680510182874	-0.0527705758041182	-0.0108670274482994	0.595703125	-0.399169921875	0.385986328125	0	0	0	0.0903536214493242	-0.230113885579629	0.390764584267273	0.886671789579923	0.588701278691743	0.651376620657645	0.478684972113533	-0.734543112289225	0.678278525546836	-0.0196126992143021	-0.337456990822782	-0.340068728116299	0.877767645508876	-1.27999470714174	-28.5995506427832	47.8933501379675
17520	1648551154536	4.73228377710822	-0.232460935664296	8.60409863203923	0.0517322019257625	-0.00318442355691671	0.00955127827273294	0.0132521059194327	-0.0572233711652876	-0.00892134515445383	0.589599609375	-0.40234375	0.379638671875	0	0	0	0.090507205117784	-0.230329711147347	0.390721434517554	0.886619101188945	0.588569969542649	0.651149177351352	0.479155652984731	-0.734535170997484	0.678290412860624	-0.0194986765977047	-0.33770323291355	-0.340480344008317	0.877513339969094	-1.27292430709233	-28.6302708918147	47.8897543003878
17521	1648551154536	4.68908164084767	-0.256684064921961	8.60749212864093	0.0405975365635192	-0.0537670499570395	-0.00770123405898815	0.013062655605483	-0.0481047008699511	-0.00972545391790701	0.593017578125	-0.40087890625	0.378173828125	0	0	0	0.0906702873358832	-0.230513037016923	0.390671582584215	0.886576761099008	0.588478908652759	0.650919326079891	0.479579612792869	-0.734522059283857	0.678309227111146	-0.0193374466070626	-0.337890394205369	-0.340882125303718	0.877285277519326	-1.26273028708552	-28.6579494643794	47.8841014430486
17522	1648551154536	4.71713641749624	-0.258181027190474	8.58037280224189	0.0652771476593322	-0.0315372087587877	-0.0180167384483401	0.0192137977515477	-0.0513025303368313	-0.0125980629502757	0.586669921875	-0.3984375	0.383056640625	0	0	0	0.0908384092926966	-0.230693526482698	0.390622726861378	0.886534131038129	0.588388764196716	0.650689093483971	0.480002464356247	-0.734512425403214	0.678324537313107	-0.0191655682735048	-0.338068275789594	-0.341290969262251	0.877057760472298	-1.25183481202515	-28.6855629652104	47.8783845024969
17523	1648551154537	4.72054693540135	-0.23205606565492	8.57371832923352	0.0484812911870629	-0.0144535341221483	-0.0227181281376652	0.0161523980242678	-0.051358885502781	-0.0125474281845701	0.59375	-0.396484375	0.381103515625	0	0	0	0.0910247797645825	-0.230883934927401	0.390562402059124	0.88649202374249	0.588307237380494	0.650428589742348	0.480455246710358	-0.734493227054136	0.678350999133233	-0.0189636859957776	-0.338251820183326	-0.341734650892655	0.876814196122498	-1.23899659457695	-28.7151391137594	47.8709204539011
17524	1648551154537	4.72749940250815	-0.273524338120646	8.60403186816521	0.0708402074875878	-0.0528184838902051	0.00798573831471749	0.0221824683565984	-0.0466871155545266	-0.0130540666394309	0.593505859375	-0.3984375	0.375732421875	0	0	0	0.0911928590650811	-0.231043164024438	0.39051805640199	0.886452799892428	0.588229407963177	0.650212675622524	0.48084263545061	-0.734490622401848	0.678359020159097	-0.0187767242227063	-0.338392803131265	-0.342129385216453	0.876605837626225	-1.2270766603197	-28.7404503333536	47.8652278542553
17525	1648551154538	4.72799827358483	-0.231805418643516	8.54534452254937	0.0590618678274165	-0.00893202040889267	-0.0440106613968894	0.0190976627687772	-0.0434334799350383	-0.0102307005895051	0.586669921875	-0.39404296875	0.385009765625	0	0	0	0.091374127939614	-0.231193702916145	0.390474960605224	0.886413868131329	0.58815755374454	0.649994594498823	0.481225226994126	-0.734495086455195	0.678360147767248	-0.0185601156885551	-0.338507990963897	-0.342541292464876	0.876400480950392	-1.21320946722196	-28.7654541335267	47.8591478716626
17526	1648551154538	4.73314671716371	-0.249067524747699	8.57182113220163	0.0644535784383018	-0.0301611250952176	-0.0180069502577052	0.02346656332118	-0.0361564205695813	-0.0155435375319853	0.596435546875	-0.39892578125	0.375244140625	0	0	0	0.0915243933545424	-0.231309332298027	0.390427145051343	0.886389261340627	0.588125274397798	0.649799964787136	0.481527431593624	-0.734481750050421	0.678379859656282	-0.0183664056253384	-0.338593001193743	-0.342871363306066	0.876238556425848	-1.20077283821496	-28.7852085787981	47.8521755533616
17527	1648551154539	4.73492133378017	-0.194012863104441	8.58556898445286	0.0199559508639672	-0.000853563731917275	-0.00612246156952167	0.0250958799253422	-0.0372407718315535	-0.0108758896565241	0.596923828125	-0.39892578125	0.373291015625	0	0	0	0.0917208954419825	-0.231420396599738	0.390390914793253	0.886355916674463	0.588079067369015	0.649598422286579	0.48185568408516	-0.734502766285245	0.678364421972416	-0.0180941239454159	-0.338627666976153	-0.34328355737614	0.876063754753882	-1.18321246921614	-28.8066699577888	47.8455723638607
17528	1648551154539	4.71672013918649	-0.264373176175801	8.59772730639985	0.0557295166874996	-0.068159506631311	-0.00297258503188935	0.0219136309521028	-0.0328746227251091	-0.0127465257548846	0.596923828125	-0.399658203125	0.380126953125	0	0	0	0.0918527464601743	-0.231532987141781	0.390356249548389	0.886328126187724	0.588028948607439	0.649433564885582	0.482138984525867	-0.734501327945985	0.678370142812477	-0.0179373517043171	-0.338717810050216	-0.343584042325287	0.875911097665854	-1.1731680537198	-28.8251958945637	47.8407664504091
17529	1648551154540	4.66900878761142	-0.243774211075476	8.5697035492696	0.02191518795366	-0.0797255600610191	-0.0509226721101257	0.0264319200025191	-0.0315413846606539	-0.0160039180641455	0.598388671875	-0.391357421875	0.37255859375	0	0	0	0.092049966725845	-0.231613905140747	0.390301397388374	0.886310680161255	0.588039636284271	0.649216489451458	0.482418216885501	-0.734496698497254	0.678383245644907	-0.0176287244268144	-0.338709294314898	-0.343968198897233	0.875763605142448	-1.15318233281972	-28.8434590327281	47.8307179404695
17530	1648551154541	4.72102130753041	-0.238844590425316	8.56624590952775	0.0491402736469325	-0.0453311177485936	-0.0289669100943541	0.0297833635036924	-0.0435055862335337	-0.013457394238211	0.58740234375	-0.3974609375	0.379150390625	0	0	0	0.0922281798388755	-0.231756449536616	0.390270000795902	0.886268716259666	0.587956549153897	0.649019234186722	0.482784765669675	-0.734517136213451	0.678366578644749	-0.0174172783926901	-0.338809198393185	-0.344373080587753	0.87556582188358	-1.13961156985383	-28.8674379527489	47.8260831351708
17531	1648551154541	4.75172077353219	-0.27857869101876	8.59616944929507	0.0857800718113486	-0.0675988645092105	0.012721332515687	0.0218708787579356	-0.0365974298873778	-0.0200747380697711	0.587158203125	-0.40478515625	0.37744140625	0	0	0	0.092419802291142	-0.231866804829009	0.39018941227217	0.886255373757221	0.587980014738171	0.648756758298413	0.483108860227833	-0.734473095339116	0.67842160539033	-0.0171288517591044	-0.33886394687467	-0.344759037447522	0.875392729925705	-1.12096623400341	-28.8886442077223	47.8134133284433
17532	1648551154542	4.70513099824668	-0.253130165791133	8.59196977024748	0.0401746246234213	-0.0828853337390759	-0.0139226006087778	0.0342025951610679	-0.0376122651769268	-0.0171258351875906	0.59619140625	-0.39013671875	0.385498046875	0	0	0	0.0925953180459942	-0.231976179392093	0.39015335827025	0.886224303605501	0.587934818450187	0.648566960244988	0.483418604661138	-0.73448659268461	0.678412928212815	-0.0168921283521721	-0.338913107478152	-0.345133013361936	0.875226318541217	-1.10568831515578	-28.9089155490291	47.8072628507772
17533	1648551154543	4.73232952530292	-0.253026689811262	8.56520030570144	0.0650465112952534	-0.0612769743389477	-0.0242435061237867	0.0281669953656108	-0.0440814025471371	-0.0195080347945113	0.6005859375	-0.402587890625	0.37548828125	0	0	0	0.0928286607534876	-0.232107578080431	0.390079228512286	0.886198119735994	0.587928535361793	0.648282486463425	0.483807663283804	-0.734467428959193	0.678442070451948	-0.0165515207442367	-0.338965533801608	-0.345609859213641	0.875017823880701	-1.08365701440534	-28.9343832508063	47.7950593099745
17534	1648551154545	4.76034060737495	-0.248451852075758	8.56237252966434	0.0779890576842291	-0.0432512796285078	-0.0132568256274865	0.0341693513999236	-0.0395430001222687	-0.0215521775141156	0.592041015625	-0.388427734375	0.375244140625	0	0	0	0.0930050561622004	-0.232226683122017	0.390026887576185	0.886171458659128	0.58789958922756	0.648064880347086	0.4841342622112	-0.734457903171585	0.678458172991799	-0.0163124482965801	-0.339036371876035	-0.345986153424305	0.874841654348825	-1.06822319335504	-28.9557671855117	47.7868909910825
17535	1648551154546	4.71386853223929	-0.222442473936863	8.55813297718202	0.033274053670005	-0.0596823391322975	-0.0399187809494155	0.032605108102963	-0.0380530252536479	-0.0216595887288246	0.59521484375	-0.3994140625	0.370849609375	0	0	0	0.0932488583964377	-0.232321643877543	0.389951076402132	0.886154310606576	0.58792962359771	0.647786198414117	0.484470637748503	-0.734441110703576	0.678485616841159	-0.0159223945488303	-0.339020666928659	-0.346453905857412	0.874662608387594	-1.04289956537944	-28.9777958569705	47.7731704723125
17536	1648551154546	4.74328950309872	-0.237388764245549	8.58388658305853	0.0520829327636267	-0.0637013359228273	-0.0029225834358666	0.02945087650235	-0.0352108283620064	-0.0233937367622556	0.60498046875	-0.392822265625	0.381591796875	0	0	0	0.093401592892518	-0.232433338438787	0.389880303953864	0.886140075956495	0.587936183542086	0.64755783621622	0.484767875211358	-0.734396412422254	0.678538982067966	-0.0157085720385841	-0.339106109504518	-0.346776150519518	0.874501771254681	-1.02908664683921	-28.9972653455413	47.7627984944518
17537	1648551154546	4.76718509596965	-0.221867094179881	8.50504879354782	0.0819972356646419	-0.0153229567144387	-0.0605505022924184	0.0340255041286502	-0.0318069351855398	-0.0207174598082056	0.59716796875	-0.398681640625	0.37841796875	0	0	0	0.0936384175901252	-0.232498362763955	0.389813148263206	0.88612756841463	0.587980441506417	0.647306796850029	0.485049390431195	-0.734389911976076	0.678555112384691	-0.0153106709314537	-0.33904344499443	-0.347213004088779	0.874352716126595	-1.00319603716683	-29.0157083857822	47.7495952883304
17538	1648551154547	4.72587561382428	-0.254596091013108	8.58619317626582	0.05355687671863	-0.0961008796416552	-0.00915092452152244	0.0340478701706145	-0.0351226652587728	-0.0234832300420421	0.599365234375	-0.39306640625	0.372314453125	0	0	0	0.0937943101697425	-0.232608908584434	0.389760405856731	0.886105269735677	0.587959843347109	0.647102714887904	0.485346576165885	-0.734372283367959	0.678578906812357	-0.015100220206258	-0.339117342570641	-0.347546750256784	0.874191446053881	-0.989591993116717	-29.0351816295359	47.7416022601562
17539	1648551154547	4.77284562405872	-0.180797162482997	8.54595319462985	0.0420131788290265	-0.00650203313383537	-0.0226797237708691	0.0397903151498254	-0.0182878850885492	-0.0251149408710399	0.589111328125	-0.396484375	0.3779296875	0	0	0	0.094035519326831	-0.232600686867458	0.389686702624916	0.88611427895675	0.588082388532214	0.646868450260303	0.485510362768994	-0.734359355801739	0.678603189804507	-0.0146303565781042	-0.338932796944617	-0.347935222196577	0.874108483147439	-0.958896334703036	-29.0459153989295	47.7253332939769
17540	1648551154548	4.7750144941622	-0.204730493861261	8.52541541379776	0.0684619613457109	-0.0173835837417259	-0.0392337900948885	0.0415867084407156	-0.0236421695776196	-0.0169968796759655	0.596435546875	-0.396240234375	0.3837890625	0	0	0	0.0941981742224781	-0.232647035147322	0.389667820452067	0.886093138848534	0.588068693482592	0.646734112366978	0.485705877714667	-0.73439381616358	0.678571387354574	-0.014373414499792	-0.338881888755318	-0.348246837982179	0.874004122020625	-0.942171480135355	-29.0587299504473	47.720074239088
17541	1648551154548	4.68281779439765	-0.243835449754457	8.58538340128181	0.0243741166739465	-0.128267767099134	-0.0310720245092373	0.0305727104027741	-0.0100402370039584	-0.0165033828835573	0.595703125	-0.40087890625	0.3759765625	0	0	0	0.0943724123359784	-0.232624291379492	0.389625441562347	0.886099205584467	0.58815590869507	0.646586957396925	0.485796185237454	-0.734400219578646	0.678571726154468	-0.0140260452937251	-0.338716613926616	-0.348519323693726	0.873959573700154	-0.919452383559299	-29.0646494750145	47.7093550018133
17542	1648551154548	4.84659056605069	-0.0368438602177642	8.56658751605614	-0.0247529792980919	0.122671320218804	0.0291395178049694	0.0399978695675758	-0.0222920271976842	-0.0186228020692933	0.59423828125	-0.39501953125	0.372802734375	0	0	0	0.0945027299552565	-0.23267000338486	0.389612628064081	0.886078948857772	0.588133339155779	0.646479194876334	0.485966898014178	-0.734430996870606	0.678542468168008	-0.013828583735021	-0.338689070105787	-0.348776102226795	0.873867807111787	-0.906605497277181	-29.0758403738037	47.7056957844147
17543	1648551154549	4.76056329860745	-0.343156170504051	8.52695153293868	0.164626979690955	-0.129965522331525	-0.0430595244098306	0.0182054044174922	-0.000610470635224477	-0.0110091540657321	0.60498046875	-0.4013671875	0.380615234375	0	0	0	0.0945972969339936	-0.232632066443929	0.389584814780939	0.886091047899092	0.588211987508258	0.646402504218102	0.485973723870079	-0.734427962881162	0.678550047009767	-0.0136162050980021	-0.338559042250849	-0.348903476972658	0.873867346149619	-0.892684640876139	-29.0762878609655	47.6984985756387
17544	1648551154549	4.70638947708305	-0.132557204184494	8.58937299990824	-0.0431129397069151	-0.0447078398128407	-0.0177323782324841	0.0368360680767269	-0.0108786237056175	-0.0104112728475589	0.59814453125	-0.39501953125	0.3720703125	0	0	0	0.0946916474759479	-0.232654287625691	0.389610326369221	0.886063918650422	0.588151552071702	0.646378469483525	0.48607882692397	-0.734500140634004	0.678474570969519	-0.0134833214140826	-0.338507452213797	-0.349094730318094	0.873810948695346	-0.88403115927972	-29.0831784169404	47.700368587588
17545	1648551154550	4.85652701569495	-0.25681973973212	8.53332942574271	0.157337333734573	-0.015001107752733	0.00793081888613045	0.0259246691451483	-0.00183741139341682	-0.00950715502650461	0.596923828125	-0.391845703125	0.37548828125	0	0	0	0.0948209663350547	-0.232607597784663	0.389597597375611	0.886067944299581	0.588214835143998	0.646307730023693	0.486096313324983	-0.734532038818963	0.678445392924875	-0.0132110850224315	-0.338328230665099	-0.349282359890438	0.873805379592269	-0.866190304139871	-29.0843248700704	47.6941784902465
17546	1648551154551	4.70927506252239	-0.174411583749268	8.59800332489725	-0.0110502927485394	-0.0776992077109999	-0.00823979713503497	0.0319799720652984	0.00132439044045147	-0.00990968435784257	0.600830078125	-0.396240234375	0.381591796875	0	0	0	0.0948883472929326	-0.232580554809291	0.389609693722286	0.886062511130137	0.588221144164457	0.646298718243771	0.486100660721949	-0.734575456077079	0.678400976211285	-0.0130772628912859	-0.338222981015496	-0.349385292008744	0.873804974145236	-0.85741791461484	-29.0846098985041	47.6934748910302
17547	1648551154551	4.78408188083867	-0.249474010573749	8.56052678632782	0.10302873957989	-0.0689685810719996	-0.0036648086561204	0.0258674289649884	0.00300121426661837	-0.00688551296028928	0.59765625	-0.399658203125	0.37646484375	0	0	0	0.0950049457485731	-0.232513967304041	0.389610704339122	0.886067048454133	0.588281508145817	0.646262459980792	0.486075817124508	-0.734622367378816	0.678355118695367	-0.0128183574040556	-0.338016041809301	-0.349541364875988	0.873822630583692	-0.840428114232997	-29.0829810880843	47.6889479767043
17548	1648551154552	4.73036721402138	-0.1526167597454	8.54501249649266	0.00605602480499238	-0.0324167976445624	-0.0445853982804642	0.0334294802348972	0.006053581624787	-0.00883950393276745	0.5986328125	-0.39306640625	0.380615234375	0	0	0	0.0950350837674194	-0.232468177228279	0.389652956826532	0.886057251347689	0.588258239625004	0.646324390418136	0.486021631065857	-0.734694921202732	0.67827781217932	-0.0127507750410328	-0.337898825496929	-0.349576875459261	0.873853758858962	-0.835967971067409	-29.0794285994559	47.6928091800116
17549	1648551154552	4.73222736243229	-0.197530832843138	8.55421795339832	0.0396251224181071	-0.0665655681634044	-0.0350783886405512	0.028895696463157	0.0045822577094236	-0.00708723584918331	0.593505859375	-0.389892578125	0.37646484375	0	0	0	0.0951621404854288	-0.232388598215422	0.389657439653547	0.886062518200801	0.588325238284227	0.646292511569022	0.485982925098829	-0.734750897291373	0.678222493481748	-0.0124646806988016	-0.337660381044815	-0.349743104042391	0.873879412875405	-0.817189602315223	-29.076891075096	47.688154125348
17550	1648551154553	4.75809283087125	-0.213244463011501	8.58198643366251	0.0582019420687019	-0.0701888967564419	0.00194952005210425	0.0288847547772017	0.00624261753642305	-0.00570775978719491	0.589599609375	-0.393798828125	0.38134765625	0	0	0	0.0951905452842591	-0.232327606917861	0.389686477499975	0.886062691013433	0.588336664634962	0.646342514636151	0.485902585730951	-0.734804080984544	0.678166418684293	-0.0123802721044267	-0.337524712598452	-0.349759434958853	0.873925286304611	-0.811613883769415	-29.0716243062066	47.6898068048769
17551	1648551154554	4.73209279612539	-0.18764692787566	8.5788321907103	0.027460438155975	-0.0698822212007137	-0.0137773599849069	0.0274390657923942	0.00497501977323108	-0.00249773824183365	0.59814453125	-0.397216796875	0.384521484375	0	0	0	0.09530513981357	-0.232251158149432	0.389709724749144	0.88606018999801	0.588371459948388	0.646343087312007	0.485859690242137	-0.734882003709187	0.678086521522125	-0.0121288892481725	-0.337294331026437	-0.349913250412168	0.873952659726726	-0.7951112062268	-29.0688123377153	47.6881452949136
17552	1648551154554	4.73204685613607	-0.213692137059466	8.55960645437316	0.0537529743148961	-0.0799845184291649	-0.030279323758112	0.0258828876775632	0.00480230745959612	-0.00398633372317262	0.591552734375	-0.39453125	0.37744140625	0	0	0	0.0952891856384948	-0.232199324527657	0.389757635436605	0.886054417295078	0.588344918615534	0.646440780026078	0.485761849735607	-0.734945118186274	0.678017913438439	-0.012140111644875	-0.337203099027049	-0.349865727066631	0.874006889578505	-0.795797423723805	-29.0623987936006	47.6937425522211
17553	1648551154555	4.73048347313455	-0.187417403405492	8.55540996158646	0.0369645754684716	-0.0629026551118841	-0.0350437175808036	0.0243760385890019	0.00491296795708364	-0.00243602649585813	0.59765625	-0.39501953125	0.37744140625	0	0	0	0.095390128946826	-0.232128730568851	0.389777858808427	0.886053156716187	0.588378946454424	0.646442225348114	0.48571870939481	-0.735013383513017	0.677947888164452	-0.0119158293922912	-0.336994868545396	-0.349998728883888	0.874033951488004	-0.781073137202112	-29.0595710273908	47.692156788449
17554	1648551154556	4.7554528264394	-0.208330007586328	8.55926644040936	0.0661911319216992	-0.0614952631104239	-0.0192910321504112	0.0228212315524353	0.00820418163747602	0.000352182166619976	0.60205078125	-0.389892578125	0.375732421875	0	0	0	0.0953664071637163	-0.23208261258319	0.389833899251318	0.886043136825606	0.588334383862149	0.646553532012734	0.485624528836224	-0.735085071721644	0.677869558758396	-0.0119498385212218	-0.336916295387343	-0.34994484072573	0.87408581864249	-0.783255656810041	-29.0533979426835	47.6992274514696
17555	1648551154556	4.7314515983887	-0.231120316524271	8.56522570234616	0.0690313726006258	-0.095331243747006	-0.0254871382619264	0.0289373833511033	0.00998973777581056	0.00160722045276407	0.6025390625	-0.3974609375	0.384033203125	0	0	0	0.0954728126194784	-0.231982598708734	0.389879883602384	0.886037635943902	0.588355500517067	0.646600438383284	0.485536484822569	-0.735192563093278	0.677757236825434	-0.0117056867841244	-0.336644768537471	-0.350075707545236	0.874138031893736	-0.767208769377899	-29.0476274132496	47.7002728536576
17556	1648551154557	4.73024522186584	-0.200306469360443	8.58522500237847	0.0394520928582486	-0.0813379520980916	-0.00895041790579576	0.024268604819671	0.00946939295760139	-0.00285874271780246	0.59326171875	-0.38671875	0.3818359375	0	0	0	0.0954538346954774	-0.231939625277175	0.389943207933497	0.886023064177647	0.588296609625635	0.646718298595919	0.485450864006011	-0.735276405198073	0.677665720056924	-0.0117379648461625	-0.336564565963179	-0.350035161263736	0.874185151336425	-0.769282607095877	-29.0420160131516	47.7083258349718
17557	1648551154557	4.72889027505956	-0.202777424279479	8.56161622209873	0.0503986417287969	-0.0765188494414279	-0.0302337446968419	0.0245114854244518	0.00396299693564767	0.00378406189957285	0.600830078125	-0.399169921875	0.376708984375	0	0	0	0.0955500000688094	-0.231876087956355	0.389990595761169	0.886008472046829	0.588281630103811	0.646758423285602	0.485415559692441	-0.735381464166342	0.677555065409398	-0.0115427682396555	-0.336361153885182	-0.350175206499816	0.874207354641815	-0.756472102076992	-29.0397023349046	47.710821448997
17558	1648551154558	4.7529319595885	-0.200166493014262	8.56086128411755	0.062844573426052	-0.0579381554936462	-0.0192472954773866	0.016827676683624	0.0036650575162419	0.00241809019708968	0.5947265625	-0.39599609375	0.379150390625	0	0	0	0.0955029981833492	-0.231859961458355	0.390050408765534	0.885991430112257	0.58820327378874	0.646875996000194	0.48535384463602	-0.735449281911989	0.677479711919663	-0.011644469605437	-0.336349910717022	-0.350103821367332	0.874240271221043	-0.76310773423154	-29.0356579456913	47.7198043246794
17559	1648551154558	4.72963463753395	-0.190691618452754	8.61007851690888	0.0269954363068004	-0.0843272475586115	0.0123530511839469	0.0198925354881467	0.00719386364489991	0.00663147616299412	0.59375	-0.399169921875	0.371337890625	0	0	0	0.0955691051559905	-0.231792458916369	0.390106579467482	0.885977233785027	0.588178225291369	0.646946700554789	0.485289956556251	-0.735555492076965	0.677366805591729	-0.0115034237456133	-0.336161409695565	-0.350191629431272	0.874277604258374	-0.753833331954956	-29.0314713181015	47.7241357766194
17560	1648551154558	4.70437004067418	-0.223524098492627	8.56792230456121	0.0498080281070226	-0.106721437437613	-0.0363648064961737	0.0153447292101193	0.00391976321755844	0.00548755613427973	0.598388671875	-0.3955078125	0.378173828125	0	0	0	0.0955005055526039	-0.231799487204952	0.390181610226601	0.885949751516244	0.588054617544996	0.647088664823116	0.485250478249579	-0.735636537682745	0.677275928960348	-0.0116704960066468	-0.336200314113701	-0.350105092662667	0.874297302341437	-0.764763260485814	-29.0288843637598	47.7363867441659
17561	1648551154559	4.75039664245662	-0.172640353060132	8.55719265765197	0.0440977307586616	-0.039008749479212	-0.0240126435581498	0.0153574339635635	0.00572508717205968	0.00838425777150733	0.592529296875	-0.389892578125	0.373779296875	0	0	0	0.0955469072241118	-0.231748562917434	0.390239906395758	0.885932394464634	0.588010838083867	0.647166632496911	0.485199550781444	-0.735738066258485	0.677167207952273	-0.0115788743990068	-0.336054686255278	-0.350171275601998	0.874326784211222	-0.758734453311592	-29.0255472587484	47.7419456671939
17562	1648551154560	4.70453079345718	-0.245638789650888	8.57303589525756	0.0651242767724647	-0.122236254881743	-0.0315468406973434	0.0122090633010514	0.00689597298541176	0.00526466047927809	0.5908203125	-0.397705078125	0.37744140625	0	0	0	0.0954799072493915	-0.231732924513017	0.390296188620664	0.885918915113836	0.587937473689655	0.647289875713501	0.48512404994004	-0.735793228270034	0.677104944919661	-0.0117140427395999	-0.336062274382872	-0.350063866121802	0.874366878016585	-0.767555446913855	-29.0206001420215	47.7509337839563
17563	1648551154561	4.67791012492635	-0.164940202663739	8.60858117993886	-0.0211047843140298	-0.0974002958377822	-0.0143310668033649	0.0108693862011005	0.00107556461313049	0.00890230087994747	0.59716796875	-0.392822265625	0.3759765625	0	0	0	0.0955148351470646	-0.231711850836601	0.390349316260003	0.885897254620452	0.587874058954451	0.647354936766855	0.485114086223024	-0.735882613703972	0.677008655124355	-0.0116644646221945	-0.33597748385365	-0.350129785551433	0.874373068897412	-0.764301846514415	-29.019947297182	47.756875682871
17564	1648551154562	4.7532998674001	-0.271151739108888	8.55187503504487	0.119121853462855	-0.0989503770583006	-0.0260654570734644	0.0094334565056923	-0.00184988057806007	0.0107365146217166	0.594970703125	-0.390380859375	0.37109375	0	0	0	0.0954246878764991	-0.231740301979829	0.390433485623782	0.885862435531406	0.587716251483924	0.647513225005737	0.485094043649635	-0.735968208945061	0.676911644494674	-0.0118920548987851	-0.336066069640903	-0.350024640547184	0.874381122763941	-0.779205463880941	-29.0186340758164	47.7715025245739
17565	1648551154562	4.72622297091123	-0.195264493498669	8.56326352305884	0.0438477099156237	-0.0693094023131155	-0.03014845243354	0.0108339216808762	0.00259442320932812	0.00875981722734629	0.599365234375	-0.398681640625	0.384033203125	0	0	0	0.0954563709932273	-0.231712708418188	0.390486885057459	0.885842703075684	0.587658426711262	0.647583007032582	0.48507094586038	-0.73605682406703	0.676816147669853	-0.0118428880640195	-0.335973101988242	-0.350080206889762	0.874394603988622	-0.775972327903598	-29.0171206925443	47.7773808192129
17566	1648551154563	4.72890022969857	-0.238164603012127	8.59651662580378	0.0646903260313593	-0.106337145903068	0.000763885795315389	0.00923055261529131	0.005601943144685	0.00850555313736498	0.589599609375	-0.3955078125	0.382080078125	0	0	0	0.0953561704429166	-0.231715338500237	0.390572110534082	0.885815234196802	0.587522856753346	0.647758476502441	0.485000875165833	-0.736140425751508	0.676721254462828	-0.0120672006963091	-0.336027032196482	-0.349938994508318	0.874430405324364	-0.790635573448863	-29.0125297473894	47.7916840762617
17567	1648551154563	4.70261920351903	-0.214742424710226	8.59338396286855	0.033943703761663	-0.106041019832773	-0.0150043395605746	0.0106443376213058	0.0118522355021966	0.00942456095691214	0.599609375	-0.400146484375	0.379150390625	0	0	0	0.0953680708050287	-0.231647676036693	0.390632634940013	0.885804961477158	0.587490997413245	0.647865068349342	0.48489708307134	-0.736232236229693	0.6766221511815	-0.0120232635646886	-0.335881559920483	-0.349933304707086	0.874488570515453	-0.787704813229598	-29.0057297927345	47.7979215578351
17568	1648551154563	4.74804794895405	-0.197708528233226	8.53933734265149	0.0651087822755438	-0.0431620818228137	-0.0404190422128323	0.00781791736031835	0.00282084817999457	0.0118597164486381	0.596435546875	-0.39794921875	0.375	0	0	0	0.0952290905411137	-0.231655175543978	0.390749124995621	0.885766572677902	0.58730200191769	0.648104403076131	0.484806189375513	-0.736345649820912	0.676493083259737	-0.0123366239933613	-0.335963454163237	-0.349739604584705	0.874534599916802	-0.808189417159062	-28.9997752460836	47.8176252001477
17569	1648551154564	4.63390586735133	-0.33665684645653	8.61968530383422	0.0741716714100574	-0.239055197441547	-0.0237779650598711	0.0136964321775431	0.0101060066065418	0.00646754874964274	0.59375	-0.3876953125	0.37841796875	0	0	0	0.0952609530534983	-0.231587789743377	0.390799690094106	0.885758459563027	0.587285395728256	0.648185715857914	0.484717589656152	-0.736430810123943	0.676401906091379	-0.0122524828562366	-0.335805785930647	-0.349765262988927	0.874584892930233	-0.802631785804213	-28.9939713104988	47.822007934239
17570	1648551154564	4.79611563507423	-0.133153741110831	8.60065132076049	0.0249918386482679	0.0120840394536887	0.0357078167487437	0.0064498085396004	-0.006610798148299	0.00970783542181019	0.591552734375	-0.3984375	0.38525390625	0	0	0	0.0951747732626811	-0.231639151247514	0.390863925891248	0.885725949479075	0.587137390092424	0.648304236356805	0.484738385396985	-0.736489051151774	0.676334307942556	-0.0124812432643524	-0.335936843303942	-0.349676308922528	0.874570132287457	-0.817629132368358	-28.9953335557552	47.8344057004311
17571	1648551154565	4.67950369629116	-0.318988080094596	8.56557737100967	0.105700756480464	-0.176960289440882	-0.0491769204836405	0.0136508178414123	0.0132874736393199	0.00770047661342061	0.59814453125	-0.392333984375	0.3759765625	0	0	0	0.095198752941435	-0.231558593022604	0.390921330789865	0.885719102520245	0.587122262261746	0.648404801949188	0.484622184764466	-0.736581159103689	0.676235421143753	-0.0124036786477816	-0.33576129200686	-0.349681094713119	0.874635630871575	-0.812487823133024	-28.9877219501833	47.8395619914413
17572	1648551154565	4.63312354615794	-0.306326141199074	8.63940085743009	0.0433218856145109	-0.222359792718632	-0.00719931835335608	0.00952112714097618	-0.0151533442894165	-0.000272163581263962	0.597900390625	-0.392822265625	0.37939453125	0	0	0	0.095126050785499	-0.231627968038514	0.390967576045574	0.885688361313026	0.586985677806795	0.648483155806713	0.484682793881384	-0.736618571210607	0.676190777886006	-0.0126139783399824	-0.335917987903805	-0.349622122493536	0.874599037768608	-0.826295919660023	-28.9916920195246	47.8496389798753
17573	1648551154566	4.75063617702579	-0.209370050225535	8.59193685590129	0.0567724857803417	-0.065328915119979	0.00700040062330664	0.0124220189847621	-0.00569086020349195	0.00184803708867854	0.6064453125	-0.39990234375	0.37744140625	0	0	0	0.0951882887808671	-0.231630943357595	0.390988839623211	0.885671509674064	0.586949666738731	0.648478245455784	0.484732971733798	-0.736672457963414	0.676133833938131	-0.0125191166727487	-0.335862737429197	-0.349741338384114	0.874572591516481	-0.820107523303185	-28.9949789267476	47.8511720131917
17574	1648551154566	4.65936547650214	-0.332024189609344	8.61827603049192	0.0826582529939276	-0.21573458564764	-0.0126243769627212	0.0124926873976895	-0.00872888054853061	0.00213403441887739	0.59228515625	-0.391357421875	0.37890625	0	0	0	0.0951259989072527	-0.231706802112297	0.391076284617718	0.885619750116489	0.586742594928989	0.648607080910182	0.484811284820362	-0.736772444928331	0.676020767882998	-0.012739143817815	-0.336005195927572	-0.349720997345105	0.87452600437358	-0.834563582240143	-29.0001090452408	47.8668929711944
17575	1648551154567	4.77580486304743	-0.210796602645935	8.5661863199085	0.0793038958093855	-0.0416441319549759	-0.00329025021241591	0.0171464121730386	-0.0134841589391408	-0.000566527111823938	0.600830078125	-0.391845703125	0.379150390625	0	0	0	0.0952272072489294	-0.231734477433898	0.391088366817619	0.885596296462409	0.586698042616731	0.648557964267791	0.484930895875397	-0.736827672705072	0.675963336678993	-0.0125915925056951	-0.33596188403705	-0.349923040754136	0.874461821936015	-0.824959117658254	-29.0079449945235	47.8668988227938
17576	1648551154568	4.73026530896991	-0.259193427502466	8.57676059440706	0.0837892274759813	-0.107311514880982	-0.0155001734975624	0.0155085813880636	-0.00895734446294563	-0.000965669938239132	0.592041015625	-0.3916015625	0.376708984375	0	0	0	0.0951945591746107	-0.231759019289981	0.391116970689071	0.885580751891267	0.586630544433501	0.648606926608425	0.484947068341718	-0.736855717312625	0.675931022285112	-0.0126848325295156	-0.336018237899897	-0.349894709688754	0.874451505762596	-0.831076842181093	-29.0090045293655	47.8723301865058
17577	1648551154568	4.75436481473682	-0.232701252736054	8.5707950455979	0.0808841376283452	-0.0734345027060603	-0.00938551223578976	0.0185594182359401	-0.0107052110073294	-0.00392203818561467	0.59765625	-0.39892578125	0.37646484375	0	0	0	0.0953006676756308	-0.231770023090018	0.391116938105562	0.88556647399524	0.586620394247565	0.648544419700564	0.485042934932661	-0.736895771491264	0.675890646935018	-0.0125082110654453	-0.335948113569827	-0.350088516037047	0.874400878274864	-0.819554100663541	-29.0152854267604	47.8700762798149
17578	1648551154569	4.73065494004473	-0.231809914780088	8.57145551682918	0.065050889316403	-0.0879970284772654	-0.0203073521387438	0.0199502830007511	-0.00459928614902586	-0.00452674994633327	0.595947265625	-0.387939453125	0.380859375	0	0	0	0.0952624447020678	-0.231791778035685	0.391149412772556	0.885550549179507	0.586549417045481	0.648603051708921	0.485050371278574	-0.736927257458994	0.67585440703414	-0.0126110152841324	-0.336002974060606	-0.350049856172527	0.874395276528883	-0.826294328216356	-29.0157726502574	47.8761020749336
17579	1648551154569	4.73203202104478	-0.225445205104878	8.59513615375557	0.0540028203385905	-0.0927414993539696	0.000966418800988578	0.0170169867389392	-0.00907164477976215	-0.00251518482197039	0.597412109375	-0.393310546875	0.385498046875	0	0	0	0.0953565983369717	-0.231799601310951	0.391154774127179	0.885535999642703	0.586533775019199	0.648556024889697	0.485132160695415	-0.736970510797211	0.675810123662234	-0.0124556401253949	-0.335935405959278	-0.350222442648827	0.874352127971371	-0.816155548624024	-29.0211315797512	47.8747954886881
17580	1648551154570	4.7562685116698	-0.227485487830504	8.56987879001102	0.078133225894237	-0.0687584821891486	-0.00932928950074974	0.0185030543065377	-0.00585868770753612	-0.00131446120602414	0.589599609375	-0.39794921875	0.378662109375	0	0	0	0.0953258831852706	-0.231775573141726	0.391195133058165	0.885527767809331	0.586492903132857	0.648639883488728	0.48506945494694	-0.737016728330757	0.675758687733105	-0.0125115192466086	-0.335905368720744	-0.350166385452632	0.874386119379545	-0.819784662525413	-29.0170230076171	47.8804670639628
17581	1648551154571	4.73552972966644	-0.269779220267814	8.60371730320382	0.0867338947368351	-0.124422015251149	0.0107015647197084	0.0230612494374946	-0.00772242193474154	-0.00582072260385534	0.591552734375	-0.392822265625	0.3828125	0	0	0	0.0954483475560437	-0.231763414289498	0.391193341446373	0.885518549977196	0.586506978809791	0.648575051120895	0.485139121150768	-0.737060790792412	0.675714765113684	-0.0122860442707634	-0.335784089086834	-0.350371173572952	0.87435066549139	-0.805045602944244	-29.0215876490203	47.8769339079167
17582	1648551154571	4.73295808055425	-0.224406285116523	8.57038104721735	0.0627879683026897	-0.0825217571829402	-0.0202449096094952	0.0199153075327669	-0.00308090449142037	-0.00467191813260961	0.59814453125	-0.40185546875	0.385009765625	0	0	0	0.095381183695578	-0.231738326190662	0.391230292051788	0.885516028399404	0.586472413510847	0.648674437095082	0.485048021179493	-0.737088340533871	0.675682576755806	-0.0124029721300457	-0.335783987765628	-0.350249240010614	0.874399555942362	-0.812660867527222	-29.0156186733778	47.8829812030833
17583	1648551154572	4.70906493268029	-0.252056878830403	8.55197961427773	0.0766022509542179	-0.111603913904096	-0.0476038033183794	0.0198691242028896	0.000102262546573598	-0.00344130525621451	0.5986328125	-0.393798828125	0.376708984375	0	0	0	0.0954709589641196	-0.23169848394021	0.391239762106916	0.885512595664683	0.586494522172664	0.648654521636447	0.485047922397418	-0.737136427445665	0.675633489081991	-0.0122178461087741	-0.335639781304452	-0.35038079284043	0.874402217068559	-0.8005302944529	-29.015612201249	47.8810316164234
17584	1648551154573	4.71069638767804	-0.240956410386333	8.59991516861145	0.052279773593725	-0.118341576024516	-0.00501061446113837	0.0199296268941279	-0.00127107372924139	-0.00177790362765286	0.599853515625	-0.3974609375	0.375244140625	0	0	0	0.0954034212768612	-0.231710461437147	0.391342069373818	0.885471532014142	0.586323293597604	0.648832581886551	0.485016779160567	-0.737256464953527	0.675499143893775	-0.0124020757539253	-0.335675289929251	-0.350310130143577	0.874416898538508	-0.812586029086154	-29.0135717395355	47.8971771776451
17585	1648551154573	4.73363143324545	-0.247242957270184	8.55099839956171	0.0881455666279234	-0.0919982578494223	-0.0366076002564881	0.0229200976033487	-0.00164776463790114	-0.00639720487015132	0.587646484375	-0.3935546875	0.3837890625	0	0	0	0.0955131918994113	-0.231671172883716	0.391341456458593	0.88547024923751	0.586360664223102	0.648787127588313	0.485032405646829	-0.737297740361129	0.675458189260107	-0.012176888758284	-0.33551931913113	-0.350473248104851	0.87441139565574	-0.797838685464319	-29.0145955602189	47.8933638434876
17586	1648551154574	4.71226440714171	-0.260632480362046	8.60440702884882	0.0672371883311386	-0.132734335863299	-9.10803468823218E-05	0.0214346900373032	-0.00486171762215612	-0.00759587921097045	0.593505859375	-0.400634765625	0.38134765625	0	0	0	0.0954733074709404	-0.231674368968825	0.391374275205091	0.885459209128882	0.586306326941173	0.648854475869585	0.485008000070882	-0.737329348916372	0.675422048536498	-0.0122673378252665	-0.335544814019393	-0.350418215129816	0.874423668646912	-0.803752920315924	-29.0129965530291	47.898963672185
17587	1648551154575	4.73397778018169	-0.214229189466319	8.57007829554941	0.0585465090095443	-0.0770252701302135	-0.020173855918113	0.0245985191714794	-0.00421677051541526	-0.00158199931969053	0.595703125	-0.398193359375	0.375244140625	0	0	0	0.0955895458177306	-0.23164547902589	0.391396130787098	0.885444566069562	0.586298881703509	0.648833382110544	0.485045218069622	-0.737404926633806	0.675343415070497	-0.0120518005753809	-0.335391704562599	-0.350608776244849	0.874406021554451	-0.789648711646052	-29.0154350158421	47.8983990278704
17588	1648551154576	4.71379378256857	-0.251577725772007	8.62808616250056	0.0535263715305923	-0.134534692010023	0.0212360124320377	0.0213993603193604	-0.00334377325072141	-0.00774089076747341	0.59375	-0.40185546875	0.3759765625	0	0	0	0.0955247983963908	-0.231673866567382	0.391466893549993	0.885412843647169	0.586161781608075	0.648958432028523	0.485043626162769	-0.737480829618769	0.675257368291294	-0.0122275309497551	-0.335464441821871	-0.350543064497639	0.874404464882096	-0.801162716775264	-29.015330715513	47.9105568653125
17589	1648551154579	4.73573668623446	-0.233718705118214	8.57447300211176	0.0726058725527955	-0.0911334947011954	-0.0152470699728102	0.0245138135892466	-0.00299014420001231	-0.00476528696064717	0.59912109375	-0.393310546875	0.3779296875	0	0	0	0.0956411155834742	-0.231638640739244	0.391475864163838	0.885405536973652	0.586180375787304	0.648921439419332	0.485070646920423	-0.737538151469496	0.67519884957425	-0.0119995275143746	-0.335305893429887	-0.350724220714155	0.874392634252848	-0.786236183529033	-29.0171011059351	47.9080281456996
17590	1648551154576	4.73593370476844	-0.231556955090639	8.57442282922236	0.069985726607109	-0.0887987346314537	-0.0152065640998291	0.0214384699404027	-0.00138571223861806	-0.00332935716899458	0.59375	-0.3916015625	0.383544921875	0	0	0	0.0955913502936991	-0.231671087154317	0.391553140326345	0.885368250744481	0.586029291354629	0.649045933758308	0.485086637154846	-0.737628941938669	0.67509686409921	-0.0121559902045115	-0.335370263572712	-0.350690176587853	0.874381602251529	-0.796496708590231	-29.0181487946936	47.9208418373402
17591	1648551154577	4.73720823408179	-0.253335662741083	8.57904521417886	0.0866722561951558	-0.105780972966919	-0.0103082910420387	0.0244785311177487	-0.00147159616100064	-0.00491081182779174	0.595703125	-0.400390625	0.37646484375	0	0	0	0.095704120172169	-0.231629850226053	0.391562495564661	0.885362719981761	0.586052849102862	0.649013810188958	0.485101156711083	-0.73768553427494	0.675039066898492	-0.0119294041053785	-0.335204580189344	-0.35086084470175	0.874376667732654	-0.781656382266552	-29.0191001330326	47.9182856580227
17592	1648551154580	4.69047698368304	-0.272235548319695	8.6096468266056	0.0627516809742911	-0.158533920292043	-0.00597365152167128	0.0228857524574473	-0.000130368779313299	-0.00654432556818213	0.59423828125	-0.39208984375	0.375732421875	0	0	0	0.0956589871131306	-0.231612447789842	0.391617658342942	0.885347751952462	0.585982567405578	0.649124002560884	0.48503861701529	-0.73774725119436	0.674969935716962	-0.0120241105037499	-0.335191622884483	-0.350789987282389	0.874410064426576	-0.787831011103821	-29.0150025212872	47.9265418328509
17593	1648551154580	4.71192640521615	-0.225663164945955	8.57539799931065	0.0540235566575386	-0.10281506537374	-0.026108024037665	0.0260226631666614	-0.00310678845641972	-0.00631506666814608	0.593505859375	-0.387939453125	0.386474609375	0	0	0	0.0957829749210552	-0.231574812156332	0.391622246979964	0.885342161969256	0.586010244090246	0.649077524782762	0.485067377426241	-0.737801222483234	0.674915274771273	-0.0117782843683439	-0.335024401982205	-0.35098110875416	0.874397456180063	-0.771737346618524	-29.0168868882266	47.923155232413
17594	1648551154581	4.73845564811991	-0.24146910613638	8.60294745055059	0.0730644141176353	-0.105660492287628	0.0110324560594535	0.0244546241514193	-0.00161873202323226	-0.00642997092996215	0.592529296875	-0.40625	0.3818359375	0	0	0	0.0957863299107265	-0.231519594252063	0.391615370122202	0.885359282079114	0.586072158722821	0.649087781413428	0.484978841589781	-0.737793430356731	0.674924761772568	-0.0117226306216196	-0.334933245427235	-0.350943895752635	0.874447312959188	-0.768047449287761	-29.011086176928	47.9205946755584
17595	1648551154581	4.71351146550018	-0.244804446030699	8.57994344059667	0.070100314569454	-0.117694368963929	-0.021171516914956	0.0229585956513621	-0.003168097995801	-0.00625245573825949	0.5908203125	-0.390869140625	0.384521484375	0	0	0	0.0958969806005074	-0.231487829395448	0.391616607251418	0.885355062603913	0.586099635533345	0.649041523890045	0.485007543749754	-0.737837459429201	0.674880404073189	-0.0115032022095044	-0.334788142996051	-0.351114711261858	0.87443430790698	-0.753683743024124	-29.0129666559673	47.9172274854703
17596	1648551154582	4.71465015587193	-0.237570016848507	8.60376778462031	0.0572627383507338	-0.11861492443477	0.00015302743986112	0.0291246490560793	-0.00456416769127188	-0.00623137866619607	0.590576171875	-0.400146484375	0.37890625	0	0	0	0.0958440903345615	-0.231449882037434	0.391715728816703	0.885326860685023	0.585979479804914	0.649226706144636	0.484904870336593	-0.737959119752314	0.674745396291079	-0.0116184232314485	-0.334730319543887	-0.351031813675885	0.874489724905597	-0.761183845568416	-29.0062399610594	47.9312006022972
17597	1648551154582	4.71536439129679	-0.263581058441819	8.58437701848426	0.0849745055619723	-0.13084586117916	-0.0161919022644525	0.0244667381465303	-0.00328563199687837	-0.00780289660786823	0.59130859375	-0.40087890625	0.3818359375	0	0	0	0.0959625376105049	-0.231414473370127	0.391712945720054	0.885324517363829	0.586016619340289	0.649171909020749	0.48493335046719	-0.738000389438333	0.674704319061341	-0.0113801155020778	-0.33457427732246	-0.351212064682192	0.874477065780358	-0.745583629002108	-29.0081058057544	47.9269889700153
17598	1648551154582	4.71452757022409	-0.237043099086432	8.57960311174459	0.0656418797431377	-0.110066395840537	-0.0210518961919277	0.0259497382654135	-0.0035511576208498	-0.0108720670606174	0.595703125	-0.39208984375	0.380126953125	0	0	0	0.0958880213728537	-0.231410669016285	0.39179848100541	0.885295735844519	0.585886105094578	0.649336026735818	0.484871319259085	-0.738094071441978	0.674598875278105	-0.0115541843381413	-0.334596194777092	-0.351111210097963	0.874509179245269	-0.756958872086074	-29.0040419420279	47.9405401861343
17599	1648551154583	4.71600705991507	-0.258271218124288	8.58418537712184	0.0823131088143075	-0.126979842567128	-0.016118305932391	0.0259750283304356	-0.00340292328422785	-0.0093533291567912	0.589599609375	-0.402587890625	0.38623046875	0	0	0	0.0960139036354487	-0.231372170796514	0.39179185789728	0.885295085818841	0.585932117332613	0.649272922299029	0.484900222981388	-0.738132703542153	0.674560940788161	-0.0112981912066928	-0.334430360224177	-0.351300739441679	0.874496497779183	-0.740200401209768	-29.005935497849	47.9355326549566
17600	1648551154583	4.71546234991571	-0.260196797510226	8.5601947054697	0.0916538938080367	-0.118773377183038	-0.0373248278974447	0.0290039887718082	-0.00182262295534642	-0.00956362785797474	0.59326171875	-0.393310546875	0.376708984375	0	0	0	0.0959741648744901	-0.231321215561004	0.391871876409677	0.885277294065076	0.585853855421077	0.649428827773887	0.484785991695816	-0.738232269698764	0.674450784311607	-0.0113690596300279	-0.334347687390943	-0.351224055551004	0.874558909816048	-0.74478967178651	-28.9984521203063	47.9461811994599
17601	1648551154583	4.69165184499542	-0.196620389969823	8.62341214187266	0.0110059258987551	-0.115501513365224	0.0056644054041417	0.0200166720812141	-0.00945254375093602	-0.00711855759961073	0.591796875	-0.396728515625	0.373779296875	0	0	0	0.0960822124763632	-0.231321854276265	0.391866277465359	0.885267885312282	0.585862040639266	0.649361430447911	0.484866375390826	-0.738265092659905	0.674418058062179	-0.0111774737530972	-0.334260859655834	-0.351411461973399	0.874516816359675	-0.73227545722349	-29.0037180602112	47.9428255388207
17602	1648551154584	4.71661016324686	-0.226892862335642	8.57873285073798	0.0612427653583989	-0.104297763065299	-0.0209602485919298	0.0232165685328341	-0.0137973415537282	-0.00522013144582324	0.586181640625	-0.38818359375	0.380126953125	0	0	0	0.096074227477932	-0.231409747467456	0.391888195988119	0.88523607779888	0.585746341244452	0.649362113666805	0.485005225799597	-0.738292164542001	0.674386769319392	-0.0112767523179312	-0.334403803050481	-0.351470241558419	0.874438543183134	-0.738844948648418	-29.0128147895867	47.9484837455381
17603	1648551154584	4.71970867397788	-0.243965789416693	8.60680731962684	0.0668485025555301	-0.125874938738278	0.00525477691539855	0.0201152746456522	-0.0123409599081783	-0.00530462573592677	0.591796875	-0.38916015625	0.3818359375	0	0	0	0.0961855711166936	-0.231424730382631	0.391889763137487	0.885219375987854	0.585730015430741	0.649297383436429	0.48511159219927	-0.73833626288595	0.674341498913999	-0.0110953030617024	-0.33433502947061	-0.351676628033522	0.874381860152564	-0.727004927164652	-29.0197838838594	47.9464372607881
17604	1648551154585	4.71861875784329	-0.222804502051969	8.57773537184983	0.0610717646473373	-0.101845013780765	-0.0209333620329435	0.0200055815121349	-0.00778545894999792	-0.00574852274803929	0.597412109375	-0.39599609375	0.378173828125	0	0	0	0.0961707342979473	-0.231379724230655	0.391833918482903	0.885257472945512	0.585859207082559	0.649243893019188	0.485027171253203	-0.738251724942863	0.674434740381854	-0.0110531255737518	-0.334295348599832	-0.351596570437412	0.87442922615908	-0.724202372004842	-29.0142526105609	47.9378047876409
17605	1648551154585	4.72182597981208	-0.268775356111856	8.58673933041769	0.0944988359109685	-0.135758095223769	-0.0110236034050768	0.0186086215547456	-0.012222759769025	-0.00375371469838133	0.597412109375	-0.395751953125	0.375732421875	0	0	0	0.0962733740353507	-0.231397162235139	0.391840935949312	0.885238652384622	0.585832068447785	0.649190713076631	0.485131122103341	-0.73830025527896	0.674384236732434	-0.0108919374693141	-0.334235726147301	-0.351791585035612	0.874373581522749	-0.713687815718212	-29.0210635283519	47.9367905618595
17606	1648551154586	4.69803109918841	-0.239032405556888	8.60651337035203	0.0498846823011751	-0.138309339556826	-0.0055936731595061	0.0230824596306151	-0.00939144277282322	-0.0071835297738133	0.596923828125	-0.390380859375	0.375244140625	0	0	0	0.0962652366705438	-0.231480258482331	0.391905875425561	0.885189063956758	0.585653349479755	0.649254586319492	0.485261410361722	-0.738388593788933	0.674285578031377	-0.0110110772085572	-0.334353762960049	-0.351862816168455	0.874299788283435	-0.72155444605102	-29.0296007222144	47.9482890428261
17607	1648551154586	4.72136385304257	-0.216765656227354	8.57637948072906	0.0579013565579073	-0.0995821761952898	-0.0208908268266406	0.0201419942751875	-0.0121914422262628	-0.00378533750380172	0.592041015625	-0.398681640625	0.379150390625	0	0	0	0.0963741301499617	-0.23149556229278	0.391914681928286	0.885169313614993	0.5856253734556	0.649201333097113	0.485366409086909	-0.738442066895285	0.674229818253778	-0.0108381740574022	-0.33428466283156	-0.352067864597737	0.874243663353176	-0.710270885646957	-29.0364813223459	47.9473128883509
17608	1648551154586	4.72229703966316	-0.214887360968543	8.57591295467434	0.055548349442283	-0.0974283614793206	-0.0208555283544847	0.0185104867898602	-0.00933562717935497	-0.00556904043592225	0.604736328125	-0.40087890625	0.3818359375	0	0	0	0.096338126478689	-0.231560999240923	0.391953088238564	0.885139110895781	0.585504560501596	0.649249710407869	0.485447446349377	-0.738482321737483	0.674183484013658	-0.0109768103027504	-0.334407341595619	-0.352067384769599	0.874196938034243	-0.71939379514731	-29.0417920337826	47.955315535412
17609	1648551154586	4.72564874257405	-0.260920553096492	8.58487842435762	0.0889332011230801	-0.13132672120455	-0.0109111502618351	0.0186470182442184	-0.0137410253432022	-0.00360436663618506	0.59619140625	-0.4013671875	0.3818359375	0	0	0	0.0964426947610265	-0.23158684206604	0.391960530753152	0.885117666494584	0.585468953827173	0.649192662436326	0.485566670132279	-0.738532098916507	0.674131497917879	-0.0108195371886446	-0.334359750829095	-0.352272068937961	0.874132682418221	-0.709139671077617	-29.0496057648621	47.9545445608637
17610	1648551154587	4.74969897716951	-0.23425833054114	8.57869081581905	0.0827267036546699	-0.0941962562842528	-0.00489777727412388	0.0184879841904449	-0.00599877793682206	-0.0028299029855585	0.5849609375	-0.39013671875	0.3818359375	0	0	0	0.0963629809190981	-0.231647884102471	0.39216033859735	0.885021865566295	0.58509905324412	0.649496387661642	0.485606363536674	-0.738785510204505	0.673848889479195	-0.0111195350408702	-0.33444740663474	-0.352252915619068	0.874106867398468	-0.728821713720283	-29.0522073367741	47.9858806977477
17611	1648551154587	4.72599073257189	-0.233268774782654	8.57940920805799	0.0686785667246129	-0.110883338274613	-0.0158178243176543	0.0231087963185792	-0.00924235030034651	-0.00566642755045223	0.59716796875	-0.390380859375	0.373779296875	0	0	0	0.0964800108844176	-0.231644708526327	0.392166668473112	0.885007141581465	0.585092066300906	0.649442436577955	0.485686931596296	-0.738838772577706	0.673793823276886	-0.0109156699192553	-0.334341953825129	-0.352457664529524	0.874064673022991	-0.715495461203087	-29.0574881035334	47.9838540828546
17612	1648551154588	4.7257115404433	-0.23590347615524	8.55524520798857	0.0787036546061733	-0.104299924889554	-0.0370468466714406	0.0214539127589879	-0.00304967006109469	-0.00471196780439973	0.58740234375	-0.402587890625	0.378662109375	0	0	0	0.0964619827139203	-0.231628494116787	0.392132768889755	0.885028371390965	0.585160264552087	0.649410564047968	0.485647386580255	-0.738783939230148	0.673853954907507	-0.0109150625786717	-0.334343769083434	-0.352401428428449	0.874086653208178	-0.715437666344703	-29.054896124411	47.9791347773486
17613	1648551154588	4.72686060531598	-0.229151892092833	8.57904092116196	0.0674605885241351	-0.10878872558771	-0.0157858783275486	0.0199843210992985	-0.00444884007055963	-0.00301163644568733	0.590576171875	-0.39453125	0.3837890625	0	0	0	0.0965525034204913	-0.231611546035481	0.392149735132986	0.885015418544456	0.585149353956366	0.649391774760003	0.485685655994184	-0.738842473123267	0.673792398636729	-0.0107519044107082	-0.334233501423094	-0.352553721315513	0.874067411652581	-0.704759915742938	-29.0574044931423	47.9788416514211
17614	1648551154588	4.75109693536874	-0.25974730304651	8.53479198546427	0.118194284132762	-0.0954629771115608	-0.0423249539453216	0.0214800712395434	-0.00289914481514052	-0.00319366197457862	0.599609375	-0.400390625	0.380859375	0	0	0	0.0964394027325523	-0.23158487265718	0.39226597420782	0.884983216697207	0.584991704470295	0.649629793708696	0.485557243614939	-0.738965420912506	0.673653694158757	-0.0109912256761024	-0.334237658555319	-0.352380237062549	0.874135776713893	-0.72038883977997	-29.0489879448384	47.9969602109813
17615	1648551154589	4.70314041778981	-0.226199500961648	8.57982356886452	0.0513667603592373	-0.121293570694826	-0.0266402828527763	0.0214917056602988	-0.00456847442753168	-0.00456267566495564	0.59033203125	-0.39306640625	0.380126953125	0	0	0	0.0965373141800174	-0.231564470455968	0.39227929080837	0.884971977520327	0.584989708050659	0.649603135379236	0.485595312971894	-0.739021583528584	0.673595009947582	-0.0108102568249834	-0.334116956399566	-0.352541528162548	0.874116885986712	-0.70854427752731	-29.0514830577409	47.9958882449888
17616	1648551154590	4.72933120203908	-0.275710682509191	8.56431193832764	0.107551029468151	-0.130915525514432	-0.0269159322472738	0.0229502515095428	-0.00150043401238014	-0.00489487650143574	0.59423828125	-0.392578125	0.370849609375	0	0	0	0.0964860442847154	-0.231564439927301	0.392388876977206	0.884928992995489	0.584817758771446	0.649787113920957	0.485556274398566	-0.739158061143321	0.673442824965711	-0.0109600250478755	-0.334116072155157	-0.352493217075841	0.874136706838887	-0.718343333055711	-29.0489244219823	48.0123317073253
17617	1648551154590	4.72910140845945	-0.244884359816701	8.58344945683264	0.0795018414599818	-0.118330585140524	-0.0106646086706998	0.021443603449405	-0.00138066012117226	-0.00334378232555204	0.593017578125	-0.392333984375	0.3828125	0	0	0	0.0965753763978224	-0.231530877225288	0.392409712635043	0.884918791186282	0.584816140641944	0.649781093878016	0.485566279392783	-0.739221820341017	0.673375628206604	-0.0107871993155864	-0.333977816593221	-0.352632660676871	0.874133299129815	-0.707019882285047	-29.0495801554701	48.0121465876309
17618	1648551154591	4.72847844090528	-0.247608937766694	8.55948072056769	0.0884959108084324	-0.11194184192035	-0.0318813701264613	0.0229880410125008	-0.00301898219270632	-0.00474488695826878	0.59912109375	-0.396240234375	0.38427734375	0	0	0	0.0965629131773773	-0.231558465530222	0.392425300584097	0.884906020039117	0.584766121005541	0.649799101800091	0.485602420735244	-0.739238941810017	0.67335597452036	-0.0108405945106275	-0.33402749981961	-0.35263700724333	0.874112561679975	-0.710536032954415	-29.0519489160586	48.0153729575238
17619	1648551154592	4.72952370017752	-0.240583648686553	8.58333840712216	0.0772014030574497	-0.116367790130664	-0.0106227219485646	0.0213666213015862	-0.00183545387409223	-0.00789957059984504	0.5966796875	-0.397705078125	0.3818359375	0	0	0	0.0966577153257153	-0.231525481423715	0.392425798259	0.8849040797625	0.584795888624609	0.649760931618685	0.485617648350814	-0.739275827915095	0.6733185578576	-0.0106475304655052	-0.333893723972474	-0.352778756994496	0.874106475039061	-0.697887963257142	-29.0529469742896	48.0122491654072
17620	1648551154593	4.70480447643267	-0.210671230912125	8.6035537675653	0.0333614325340936	-0.117954783584117	-0.00525761407516789	0.0229023657309631	0.0016878937716168	-0.00367773920956641	0.602294921875	-0.39453125	0.37158203125	0	0	0	0.0966099245904766	-0.231499834244879	0.392579136400792	0.884847993091483	0.584578896814804	0.650015358889445	0.485538408992134	-0.739476085005867	0.673096288266862	-0.0107938142363564	-0.333830245938234	-0.352734205782767	0.874148698430432	-0.707440935126235	-29.0477535225996	48.0339750419758
17621	1648551154594	4.72947973949265	-0.23617082779158	8.58348518463201	0.0748421942723003	-0.113199022717924	-0.0105673181435346	0.0244470140672067	4.92075829015959E-05	-0.0050783399263362	0.590576171875	-0.39208984375	0.378173828125	0	0	0	0.0967108954331037	-0.231453901071186	0.39259707760541	0.884841019075827	0.584593252669243	0.650003768420966	0.485536641225086	-0.739540224517284	0.673029074720438	-0.010588715780312	-0.33366298154653	-0.352883784863365	0.874152188766914	-0.693997066388722	-29.047637663806	48.03276750114
17622	1648551154595	4.70504698227245	-0.235070782391677	8.58461712325318	0.0579870696929323	-0.128895751790962	-0.0214463976010393	0.0198372785566728	0.00162472712317723	-0.00361268276237874	0.58740234375	-0.390380859375	0.37744140625	0	0	0	0.0966870935245722	-0.231518627404277	0.392640169291842	0.884807565840779	0.584465645246627	0.650052258523817	0.485625339860401	-0.739591711245888	0.672970606808489	-0.0107080823770672	-0.333772392781104	-0.352905969855853	0.874101462221221	-0.701860441881129	-29.0534510998581	48.0411115028035
17623	1648551154596	4.73054343953733	-0.25603291528622	8.58847362422791	0.0883566942075002	-0.12878828854708	-0.00549206367256083	0.0214077593862781	0.000138088815660017	-0.00349446140186382	0.5927734375	-0.396240234375	0.38134765625	0	0	0	0.0967722389684436	-0.231480328643027	0.392661520672109	0.884798802779376	0.584467575269566	0.650051147416549	0.48562450432504	-0.739654626136297	0.672904127897002	-0.0105389133381837	-0.333629566276265	-0.353034758064418	0.874103982432702	-0.690771361763726	-29.0533963361408	48.0409687433104
17624	1648551154596	4.72920738265967	-0.23008796461504	8.5838004493464	0.0700603042683326	-0.10895929338107	-0.0104839284289397	0.0228916290215022	0.00335852669011801	-0.00231101744849309	0.592041015625	-0.3876953125	0.37841796875	0	0	0	0.0967060952886129	-0.231433389763246	0.392701672817418	0.884800493559495	0.584447964538191	0.650163228974158	0.485498045760291	-0.739687306747803	0.672866654600863	-0.0106373569285115	-0.333591464194376	-0.352899760294817	0.874173034473447	-0.697168127754333	-29.0451081638566	48.0468357440171
17625	1648551154597	4.70485599006487	-0.257884652493243	8.56599428063561	0.0838199204785816	-0.137974945717484	-0.0375981439695359	0.0213472974850772	0.00499763013786939	-0.000911289997659811	0.591796875	-0.394775390625	0.378173828125	0	0	0	0.0967777793780557	-0.231374905167326	0.392737451410205	0.884792071018542	0.584445895037256	0.650198066947754	0.485453879901587	-0.739765865051362	0.672782711356938	-0.0104827574624161	-0.333420846197281	-0.352995604840358	0.874199429354926	-0.68701597698736	-29.0422136631325	48.0484629444889
17626	1648551154598	4.70614035440871	-0.246316954582915	8.61406316036071	0.0600910845271948	-0.145282309662378	0.00493938983280095	0.019826461093622	0.00329498770422497	-0.00224563697832431	0.59912109375	-0.402099609375	0.376220703125	0	0	0	0.0967316678171657	-0.231354436074302	0.392744562021704	0.884799309647352	0.584453667822243	0.650241633772377	0.485386163665753	-0.739758835605845	0.672789386887379	-0.01055016752423	-0.333422817623827	-0.352902619146891	0.874236218700103	-0.691404357034351	-29.037775897499	48.0499927412354
17627	1648551154598	4.72936693065702	-0.248227071326996	8.58935067875662	0.0847644761878605	-0.123509628393662	-0.00539245955698497	0.0212706846655815	0.00453888294216869	-0.00546666949799729	0.592529296875	-0.394775390625	0.3798828125	0	0	0	0.0968088768037435	-0.23129615526292	0.392760096509699	0.884799206895147	0.584483190300566	0.650244601783631	0.485346637061924	-0.739810685783741	0.672735095923379	-0.0103749656940491	-0.333255981876189	-0.353000635359498	0.874260259865178	-0.67990491120726	-29.0351856201557	48.048683900328
17628	1648551154599	4.68014675991374	-0.248162745230171	8.59174685488268	0.0534761193198684	-0.154567808253535	-0.0271510373771147	0.0244017430620313	0.00673274699465036	0.000389755323688281	0.59521484375	-0.39697265625	0.38818359375	0	0	0	0.0967312051280743	-0.231319135097391	0.392938129386275	0.884722644768789	0.58418216842442	0.650530964707943	0.485325311570596	-0.740034079536561	0.672485400857771	-0.0106276412076757	-0.333287796385374	-0.352948791738004	0.874269063384531	-0.696454927216171	-29.0337881342964	48.0758993137578
17629	1648551154599	4.77633896340479	-0.218126651364227	8.58287534821006	0.0917536196246396	-0.069713406933367	0.0114392301066193	0.0230551135658186	-0.00438562438392529	-0.00306909127391267	0.596435546875	-0.391357421875	0.3876953125	0	0	0	0.0968300634443368	-0.2312990115069	0.392962681497907	0.884706186843559	0.58416219645181	0.650519635122016	0.485364535743307	-0.740106426957318	0.67240853952668	-0.0104514471758156	-0.333162130220511	-0.353116071982452	0.874249412178593	-0.684925010904976	-29.0363585575202	48.076377041566
17630	1648551154600	4.65646908543047	-0.268855869294931	8.59802098041092	0.0558327445132784	-0.18488289896261	-0.0329300494438147	0.0226302852996766	0.0139848959612659	-0.00337640923375852	0.59814453125	-0.392578125	0.380615234375	0	0	0	0.0967687759639569	-0.23112986708587	0.39309351869633	0.884698973718317	0.584112940199612	0.650806556478708	0.485039069700258	-0.740271173785154	0.672226579114751	-0.0104888318906184	-0.332882355125823	-0.35293377902378	0.874429577078612	-0.68723313460603	-29.015032180701	48.0913384047046
17631	1648551154601	4.74908336518229	-0.195833488101784	8.55575044454582	0.0716601155425815	-0.0613774353274728	-0.0257518638659064	0.0245513077546194	-0.0028358882333341	-0.00325190310432653	0.60302734375	-0.39794921875	0.380859375	0	0	0	0.0968712804951131	-0.23109882585567	0.393120258198073	0.884683983294401	0.584099590564823	0.650800713509678	0.48506298518574	-0.740348070235901	0.672144835219036	-0.0102983195888131	-0.332734733984873	-0.353100200769797	0.874418575406736	-0.674760333655198	-29.0165991087241	48.0917336309561
17632	1648551154601	4.75126278638021	-0.270240606857814	8.54679646075091	0.130346533189887	-0.106076266127866	-0.03173573161245	0.0225554666670248	0.0170208353811121	-0.00368358036081467	0.591552734375	-0.396240234375	0.373291015625	0	0	0	0.0968377418387004	-0.231059561782787	0.393270803895302	0.884630999608238	0.583899107424578	0.651048516346704	0.484971815378519	-0.740549661119843	0.671921053118247	-0.0104066224948776	-0.332637989057273	-0.353069295945174	0.874467861328655	-0.681817398889499	-29.0106258459516	48.1123528585479
17633	1648551154602	4.67770871602524	-0.237252433608748	8.59338263209226	0.0495802210237386	-0.148785768737597	-0.0270409009886396	0.0274678076910395	0.00329974010044899	-0.00392511107215019	0.5888671875	-0.391357421875	0.38134765625	0	0	0	0.096941658137605	-0.230996152396969	0.393300765815271	0.884622857552555	0.583910570373835	0.651059394592688	0.48494340960395	-0.740631994739765	0.671833645053306	-0.010188314001076	-0.332434496064261	-0.35321554055136	0.874486184990655	-0.667501662937103	-29.00876482718	48.1122696182554
17634	1648551154603	4.749337314902	-0.236707845841928	8.5668303467886	0.0996897662057435	-0.0910008505441564	-0.0155144048817188	0.025760187453864	0.0126843561514349	-0.00177358678512071	0.587158203125	-0.39501953125	0.37841796875	0	0	0	0.0968679904601052	-0.230953499788801	0.393354041491365	0.88461837613851	0.583866157955428	0.651192424034684	0.484818250970609	-0.740680429691762	0.671778380933261	-0.0103105762357623	-0.332404588816092	-0.353075393918238	0.874554146719051	-0.675458617434173	-29.000565394792	48.1202541535567
17635	1648551154603	4.67661722387216	-0.227748497592041	8.61843901418934	0.0356784069136851	-0.150687762375249	-0.00574447546626189	0.0226193107029057	0.0156566862339421	-0.00201524987065014	0.594482421875	-0.38232421875	0.378662109375	0	0	0	0.0969231450158559	-0.230846473594142	0.393393455992856	0.884622743530473	0.583902988822291	0.651260864181542	0.484681943577339	-0.740758329127798	0.671694985484464	-0.0101461471908697	-0.332166219643401	-0.353107821012983	0.874631619178769	-0.664628770446126	-28.9916363211398	48.1214506648481
17636	1648551154604	4.7489205885197	-0.251250837704706	8.5970681489058	0.103897419855545	-0.110881742474427	0.010848885683254	0.0272689363960977	0.0125614866630944	-0.00332359827153246	0.59375	-0.390380859375	0.383056640625	0	0	0	0.0969112639524932	-0.230766524816546	0.393349872703105	0.884664284114418	0.584045377337092	0.651237415886988	0.484541871627224	-0.740692918278571	0.671768169127163	-0.0100760984271409	-0.332061738270383	-0.353011834215764	0.874710035886449	-0.659981429650415	-28.9824614463019	48.113481491942
17637	1648551154605	4.67551465758488	-0.247060452582064	8.62469275787679	0.0509885076098138	-0.165946158995062	-0.000620154283788921	0.0242533166411779	0.0128073331840978	-0.000223097523609789	0.593505859375	-0.398681640625	0.379638671875	0	0	0	0.0969771236765657	-0.230669924514284	0.393397684812931	0.884661000040027	0.584059295016801	0.651307766923906	0.484430524068284	-0.740786590116249	0.671667398134492	-0.00990627009435335	-0.331828220331571	-0.353073786945217	0.87477364681599	-0.648811504872822	-28.9751686328809	48.1158791559089
17638	1648551154605	4.60077568918799	-0.253102349095166	8.60435391496692	0.0184980547461127	-0.209488649647115	-0.0545176527674709	0.0197798147279235	0.00648518705645209	-0.00103070966400744	0.59619140625	-0.39453125	0.3818359375	0	0	0	0.0969034971847022	-0.230643036001438	0.393505647160433	0.884628061860047	0.583914191193776	0.651512042377362	0.48433075058249	-0.740912509536708	0.671526035772446	-0.0100715684856589	-0.331802457095388	-0.352965780093513	0.874827004354828	-0.65959655091982	-28.9686343109232	48.1318853765104
17639	1648551154606	4.70004204189608	-0.237176852502552	8.64802788271772	0.0511984543391493	-0.150740478505182	0.0315845677409641	0.0231602869886103	-0.0107687034442077	-0.00547547647827683	0.595458984375	-0.398193359375	0.375	0	0	0	0.0970163854192122	-0.230650597335322	0.393518022727494	0.88460821197731	0.583887735475006	0.65146477443512	0.484426217325268	-0.74097232342814	0.671462773497669	-0.00988735153224032	-0.331715432675921	-0.353173316485004	0.8747762458181	-0.647570614801842	-28.9748865690099	48.1311095174095
17640	1648551154607	4.69679630043297	-0.226214189809324	8.57131051486857	0.0642687936826263	-0.117769525795028	-0.0371857407980052	0.0167640773908787	0.00323077482844276	-0.00217869997131715	0.591796875	-0.393310546875	0.3798828125	0	0	0	0.0969376123813602	-0.230711787793306	0.393651987523229	0.884541283942151	0.583620367384457	0.651673569226517	0.484467569549918	-0.741132168654189	0.671282424049626	-0.0101496673835547	-0.331828834431202	-0.353130947855935	0.874750340558035	-0.664769115033878	-28.9775949045845	48.1532768586286
17641	1648551154607	4.69824241920626	-0.219553023987888	8.59489334767786	0.0527803834197127	-0.122077038760696	-0.0159436230328165	0.0203080628882655	-0.0182667068261962	-0.00312156848801721	0.59033203125	-0.395263671875	0.376708984375	0	0	0	0.0970491892757616	-0.230760384705725	0.393668202729	0.884509155335038	0.58354998202117	0.651616042450874	0.484629705758689	-0.741196475461487	0.671213602042073	-0.0100042589518021	-0.331808986084706	-0.353367844680819	0.874662199422767	-0.655312212133145	-28.988214588388	48.154197415843
17642	1648551154607	4.72614618577859	-0.293528540398825	8.5843500145306	0.125399652148401	-0.148987164721741	-0.01086306510261	0.0137104632659262	0.00149358052488511	-0.00348012896194402	0.589599609375	-0.392822265625	0.37939453125	0	0	0	0.0969456868552352	-0.230793746595765	0.393722158498484	0.88448778524056	0.58343421687917	0.651735963369674	0.484607829719241	-0.741233796512152	0.671168791414924	-0.0102426724448494	-0.331929169376196	-0.353231775865697	0.874671560664914	-0.670920497376262	-28.986781676264	48.1650863689532
17643	1648551154608	4.69908539853282	-0.187608780159381	8.61326955518332	0.0218433545081916	-0.106866366930657	0.000218178790301948	0.0187125987968228	-0.0134336349295035	-0.000514954213591277	0.594482421875	-0.3994140625	0.3779296875	0	0	0	0.0970369100736072	-0.230825991875876	0.393750993937201	0.884456530492794	0.583359032495969	0.65171399391895	0.484727871424346	-0.741308557984193	0.671087985713667	-0.0101260698284448	-0.331894352264035	-0.353425785082221	0.87460639911577	-0.663332835302784	-28.9946448254944	48.1677959759885
17644	1648551154609	4.7018041449943	-0.296360870808042	8.56113551510767	0.119322553162184	-0.158218439204662	-0.0429093666250289	0.0182218429265552	0.00629826755083233	-0.00252349397424769	0.59228515625	-0.391357421875	0.384033203125	0	0	0	0.0969330071594139	-0.230838201322367	0.393863157334458	0.884414795346516	0.583171076209573	0.65192512533408	0.484670121660819	-0.741428489419869	0.67095161083513	-0.0103793542340384	-0.331956760661897	-0.3532952969909	0.874635433866575	-0.679900738855765	-28.9908619404745	48.1861933653662
17645	1648551154610	4.67680477287039	-0.209089145231031	8.6188101240393	0.0213661696190972	-0.137666041140439	-0.00551141384362985	0.0203724418669544	-0.0196288873356959	-0.00144501295553697	0.592529296875	-0.402099609375	0.37841796875	0	0	0	0.0970439300856401	-0.230894827758568	0.393887497282124	0.884377008765323	0.583080435998332	0.651876210228571	0.484844935720722	-0.741503976317125	0.670870230236716	-0.01024633046648	-0.331947372729305	-0.353540012898358	0.874540108295749	-0.671260957998981	-29.0023135201076	48.1884825266225
17646	1648551154610	4.80190992787109	-0.2501595778404	8.62309164709927	0.121388734268127	-0.08369557361539	0.0593381640397226	0.0153067298723895	0.000163009164017489	-0.00184204686484821	0.596923828125	-0.39599609375	0.385009765625	0	0	0	0.0969357539605258	-0.230904342374048	0.394022885226845	0.884326076848594	0.582858301180642	0.652123651520864	0.484779273352225	-0.741655197604015	0.670698851043234	-0.0105175603747149	-0.331999651523561	-0.353408820399804	0.874573288553826	-0.689002031191839	-28.9980120134274	48.210134995121
17647	1648551154612	4.67868653405615	-0.263685806916943	8.58038266929439	0.0742993068477552	-0.1588819875378	-0.0376251863745907	0.0185498772386067	-0.00568815104229697	0.000230784891605391	0.593017578125	-0.39111328125	0.380859375	0	0	0	0.0970083528864239	-0.230904015994961	0.394060110822367	0.884301613662627	0.582799928912124	0.652136747227523	0.48483183246929	-0.741735220293649	0.670612017057853	-0.0104108382721721	-0.331923343312812	-0.353549410257045	0.874545429735323	-0.682033087556378	-29.0014551188095	48.2135578415662
17648	1648551154614	4.70515950894277	-0.313425208760546	8.56512351031193	0.131310635179802	-0.168976916953875	-0.0376013809678373	0.0261656648099736	-0.00584136609912996	-0.00296761048143318	0.597900390625	-0.398193359375	0.38037109375	0	0	0	0.0970155889181445	-0.230893177178345	0.39415499801706	0.884261360558928	0.582660356541321	0.652271594513058	0.484818188506305	-0.741872544757612	0.670459626090073	-0.0104411262813987	-0.331861471475684	-0.353589672890135	0.87455263247871	-0.68401148929972	-29.0005613027729	48.2262618902986
17649	1648551154614	4.72791585179786	-0.228886768474878	8.596894089816	0.0720434286364545	-0.109944352345065	0.000308472409638938	0.0153575149042452	-0.00302938631960542	-0.00305061608694217	0.593505859375	-0.393798828125	0.380615234375	0	0	0	0.0970723829176402	-0.230885804984011	0.394175548719385	0.884247891896468	0.582634763697314	0.652272525441188	0.48484769225598	-0.74192306652781	0.670405178532926	-0.0103469778295989	-0.331793453047744	-0.353691177654759	0.874537395063152	-0.677856091597576	-29.002494103175	48.2275529042067
17650	1648551154615	4.67963694920561	-0.257849017454924	8.58004177152974	0.0695696693624971	-0.153876397937995	-0.0375103034722652	0.0259767905440282	0.00174747519897304	-0.00374445736149064	0.590087890625	-0.394775390625	0.377685546875	0	0	0	0.0970475480373097	-0.230898263967743	0.394320044550734	0.884182937848348	0.582395388324379	0.652485890158437	0.484848197689387	-0.742118331615001	0.670186951770906	-0.0104800551996807	-0.331777023826942	-0.353711199738109	0.874535530233257	-0.68657495366266	-29.0025272145996	48.248559867191
17651	1648551154615	4.70151219976261	-0.207278351653452	8.56920363411909	0.0493570954245509	-0.102653727359306	-0.0369286612872592	0.0137994614499406	0.000287713401434854	-0.000292759720998998	0.59033203125	-0.389404296875	0.38427734375	0	0	0	0.0970871587858869	-0.230881291874329	0.394352943763519	0.884168348453151	0.582359169614975	0.652517564700271	0.484849074788212	-0.742179999279845	0.670119678687861	-0.010414648541679	-0.331702647312809	-0.353780219900585	0.87453582532265	-0.682290174022566	-29.0025846742054	48.2517117796111
17652	1648551154615	4.72917878205648	-0.247727996178985	8.60195028567003	0.0842118056321511	-0.12169971181751	0.00556845160271102	0.0185512846779352	-0.00218089283094861	0.00447486169663045	0.592529296875	-0.39794921875	0.38037109375	0	0	0	0.0970201406316159	-0.230868631573593	0.39439942643598	0.884158277512646	0.582297534764614	0.652625220853825	0.484778198883313	-0.74222084926462	0.670072369477583	-0.0105465908996006	-0.331719447611923	-0.353671232599137	0.874573534534316	-0.690903433232635	-28.9979416270315	48.2594199962331
17653	1648551154616	4.61035529625433	-0.265155748045814	8.65978327606171	0.00931896385020085	-0.232210599934617	-0.00128985325623354	0.0184500623664666	-0.00280944096874143	-0.00159702600694532	0.592529296875	-0.393310546875	0.379638671875	0	0	0	0.097087508924357	-0.230855475551512	0.394430874726833	0.884140288687815	0.582260068940221	0.652638088811051	0.48480587573872	-0.742290820982427	0.669996601346177	-0.0104350979778	-0.331628631458387	-0.353791010651247	0.874559530037496	-0.683611213837628	-28.9997546999839	48.2618125702824
17654	1648551154616	4.80063788386943	-0.193996120788844	8.58857709827548	0.0888916598742604	-0.0338406748975264	0.0279613998438695	0.0156493201552852	-0.00999001764392725	0.00380160994605648	0.5947265625	-0.396240234375	0.375244140625	0	0	0	0.0970103205537943	-0.230930749114587	0.394560814486418	0.884071122982332	0.581985505570381	0.652834312700993	0.484871355584354	-0.742444976690329	0.66982152275573	-0.0107044028554819	-0.33176547121918	-0.353760494986957	0.874519973638852	-0.701283557732275	-29.0040443217662	48.2837924392417
17655	1648551154616	4.63452070271358	-0.329229063939673	8.57290800610687	0.098243534291712	-0.227847162978727	-0.0648486645000243	0.0167279876856141	0.00825408619081574	0.00189630834039271	0.59326171875	-0.398193359375	0.374267578125	0	0	0	0.097043497962697	-0.230874267950192	0.394611648890983	0.884059544635522	0.581957437916005	0.652910696149943	0.48480218987463	-0.742530082355798	0.669728412125407	-0.010626889887168	-0.331624210893795	-0.353795812362128	0.874559263803254	-0.696174634316395	-28.9995132422318	48.2884946673133
17656	1648551154617	4.65720226419906	-0.244849632167002	8.60461229575492	0.0347631707024568	-0.167180680811302	-0.0269999245658923	0.0217440516671669	-0.0153604945520182	-0.00496639485535398	0.5986328125	-0.408935546875	0.38232421875	0	0	0	0.0970137172788944	-0.231058723320073	0.39473062530741	0.883961502827951	0.581599199644239	0.653021622199918	0.485082603184827	-0.742685084835902	0.669552144208304	-0.0108991260361731	-0.33190546204525	-0.353924691319283	0.874400410074858	-0.714136883864486	-29.0178844858063	48.3108525931574
17657	1648551154618	4.75702936462816	-0.229169372852459	8.64785848606503	0.0669735936699689	-0.108087725607338	0.0590467743838658	0.0123047585421183	-0.00126237360489117	-0.000105509159559163	0.591552734375	-0.402587890625	0.383056640625	0	0	0	0.0970474942391023	-0.231053663948336	0.394763260532439	0.88394454371966	0.581552345019694	0.653051302175364	0.485098821611798	-0.742744018659163	0.669487503991418	-0.0108537894477838	-0.331855680602473	-0.353992201505063	0.874391976475921	-0.711173486134023	-29.0189471339998	48.3144385242198
17658	1648551154618	4.61215524932007	-0.32083534812625	8.59735065594591	0.0639916702454724	-0.242256652533463	-0.0542773307270501	0.0139016590494572	-0.00259035691956225	0.0015360509650683	0.591552734375	-0.38330078125	0.375	0	0	0	0.0968775109563336	-0.23111329061349	0.395137002603423	0.883780597176863	0.580906792150774	0.653649471567933	0.485066662585731	-0.743208192942183	0.668962994088975	-0.0114058968576633	-0.331947105389868	-0.353879754801649	0.87440278954542	-0.747336007933996	-29.0168400518372	48.3720903051288
17659	1648551154618	4.70799502832602	-0.267224339730041	8.58285849653005	0.0848913441404301	-0.1400679694966	-0.021096085301652	0.026344708639589	-0.0152657646907599	-0.0050632743261937	0.598876953125	-0.38330078125	0.3828125	0	0	0	0.0970050726571971	-0.231140664200209	0.395158675535952	0.883749755519361	0.580847229003517	0.653599131942955	0.485205803018009	-0.743286399642052	0.668879274054889	-0.0112180589658379	-0.331876218892062	-0.354130895945581	0.874328018463716	-0.735092726024215	-29.0259569408896	48.3728164498434
17660	1648551154619	4.73188864006087	-0.240423796018921	8.57648131458497	0.081837736656912	-0.106919665109375	-0.0154185555728379	0.0137872384460488	-0.00154648115116426	-0.00317504621247725	0.588623046875	-0.39794921875	0.380615234375	0	0	0	0.0970617037364336	-0.231151764486073	0.394974221578579	0.883823088480467	0.581128452126742	0.653302704606094	0.485268274548358	-0.743046640936899	0.669148779912353	-0.0110272269497813	-0.331920791034803	-0.354168726027825	0.874295774885512	-0.722615941094291	-29.0300505205551	48.3461384826931
17661	1648551154619	4.71001490741923	-0.25871650470261	8.60618122932612	0.0731580280817869	-0.145022072370278	0.00011785271030007	0.0185520606751101	-0.00919690343599188	-0.00400749008431045	0.5908203125	-0.39794921875	0.3828125	0	0	0	0.0971426316793231	-0.231168381221735	0.39499329212701	0.88380132824544	0.581082957395978	0.653278582633924	0.48535522053003	-0.743103802285638	0.669087216570164	-0.0109103460540029	-0.331872468958441	-0.354329493683776	0.874248977267476	-0.714995783600821	-29.0357481107923	48.3473154580007
17662	1648551154619	4.6651776828956	-0.301623209450371	8.64184121976142	0.0657123880227485	-0.213451291160504	0.0100617010211543	0.0200352741041459	-0.00597146559737275	-0.00283663962416447	0.6005859375	-0.40380859375	0.37890625	0	0	0	0.0970392965068932	-0.231171745447638	0.395133768609902	0.883749005059851	0.580857858021658	0.653532662648082	0.485282605938643	-0.743263636850119	0.668905359675167	-0.0111707624703586	-0.331908594210553	-0.354204289429058	0.87428599808028	-0.732029014725775	-29.0309896382213	48.3694024341688
17663	1648551154620	4.73462535595648	-0.230193955171766	8.5994408847236	0.067274176119141	-0.106740238655352	0.0058731422738898	0.018628744834783	-0.01223228560964	-0.00369298442151553	0.589599609375	-0.4033203125	0.370361328125	0	0	0	0.0971251527620288	-0.231201788092272	0.395153951220715	0.883722689942125	0.580798176035186	0.653502007453427	0.485395307938326	-0.743324043402691	0.668840119071219	-0.0110571976681119	-0.331877756431002	-0.354384002707711	0.874224875767777	-0.724638474657641	-29.0383751538423	48.3709912256511
17664	1648551154621	4.66337322675019	-0.255428185123103	8.60730037735704	0.0367688600560013	-0.171501396469343	-0.0215102977697299	0.0184776002311085	-0.00265107537971858	-8.31814076618711E-05	0.588134765625	-0.3994140625	0.382568359375	0	0	0	0.0970033632705049	-0.23136915426563	0.395457113260922	0.883556638558025	0.580163972051492	0.653930343131724	0.485576844449015	-0.743704687614997	0.668408038171098	-0.0115772245267932	-0.332134164386797	-0.354409086847234	0.874117323937236	-0.758808118489305	-29.0502726002926	48.4207100948266
17665	1648551154621	4.71305373394485	-0.217834325988144	8.64769282455869	0.0244514054220936	-0.129272992612138	0.0374704453384815	0.0170452333964571	-0.00907083680978633	-0.0024560388180358	0.595458984375	-0.399658203125	0.388671875	0	0	0	0.0970730202294779	-0.231390849941051	0.395483385428891	0.883531547346663	0.580102332826522	0.653920477641282	0.485663764728875	-0.743767712270257	0.668339441186461	-0.0114883218459816	-0.33210069803223	-0.35455662492184	0.874070206614171	-0.753022412821323	-29.0559696226922	48.4233031287004
17666	1648551154622	4.68833372244791	-0.285242808071593	8.56305207657181	0.0876144941535494	-0.157527417417217	-0.0476883330669757	0.0169185927752517	-0.0028418270164909	-0.001568401066529	0.59130859375	-0.397216796875	0.3798828125	0	0	0	0.0969570275308308	-0.231336561819192	0.395681113052104	0.883469969354878	0.579839703879046	0.65428535085851	0.485485939505375	-0.744004172431275	0.668071583172468	-0.0117537722577236	-0.332029681218884	-0.354388260823336	0.874165459956121	-0.770335818343278	-29.0443147473706	48.4520480144229
17667	1648551154623	4.64292280978452	-0.270458148454405	8.63637183561661	0.0259552312599884	-0.204714680465648	-0.00584199479381731	0.0187442407137757	-0.0167856141570612	-0.00321838175791994	0.596435546875	-0.39453125	0.377197265625	0	0	0	0.0970494261374762	-0.231388129506776	0.395703388181644	0.883436342353714	0.579756724209845	0.654245337457013	0.485638939078435	-0.74406967819164	0.668000474935908	-0.0116481535528508	-0.332027792103701	-0.354596113770526	0.874081884819484	-0.763487434085936	-29.0543424411252	48.4543789703969
17668	1648551154624	4.73775816885502	-0.256301905595017	8.55496268350952	0.0948515077633208	-0.104034466586979	-0.0310919126214788	0.0108735808279099	-0.00768161905288247	-0.00248038946757506	0.59619140625	-0.400634765625	0.374267578125	0	0	0	0.0969779628806947	-0.231479101482294	0.395803845848789	0.883375353914614	0.579513482376516	0.654389981392466	0.485734367733037	-0.744183468237292	0.667869180653637	-0.0119047526373245	-0.332197365049996	-0.354576521763932	0.874025400584921	-0.780354788023829	-29.0605973923226	48.4725999010816
17669	1648551154624	4.66717385811973	-0.247817456227622	8.60546268629476	0.030665622205356	-0.163686223203781	-0.0213555107594452	0.0186299558035042	-0.0122331361641841	-0.00369189639264571	0.593505859375	-0.4013671875	0.381103515625	0	0	0	0.0970608862945712	-0.23151124037129	0.395826375252954	0.883347729146097	0.579448052471709	0.65436328707647	0.485848374509189	-0.744246031786841	0.66780133001164	-0.0117994832185319	-0.332171339305912	-0.3547535372074	0.873963459866918	-0.773510045800662	-29.0680705595741	48.474650753786
17670	1648551154625	4.71740783977131	-0.273070575318737	8.58392975032217	0.0818344437645842	-0.139078463167353	-0.0154268161108337	0.0171874419961608	-0.0134639704609792	-0.000464946606313126	0.5908203125	-0.40087890625	0.380859375	0	0	0	0.0969895522657828	-0.231653762970268	0.396073890286182	0.883207243112605	0.578924015070569	0.654694667914746	0.486026621265309	-0.744566646919426	0.667437000369705	-0.0121802640633583	-0.332366504133215	-0.35482776433291	0.873859121705996	-0.798564113255013	-29.0797557564728	48.5147745671847
17671	1648551154626	4.69401743802786	-0.272451866770905	8.5845162998645	0.0675002452659792	-0.15564500409355	-0.0263107162403386	0.0185535291149758	-0.00919854863716752	-0.00400846961354098	0.597900390625	-0.389404296875	0.37890625	0	0	0	0.0970654590066288	-0.231673597753654	0.396097096106322	0.88318329424183	0.578868869120035	0.654677668146257	0.486115195395363	-0.744627684568959	0.667370774247943	-0.0120772949443137	-0.332325809616352	-0.354983662314592	0.873811281543421	-0.791857446571487	-29.0855628411787	48.5167447692272
17672	1648551154630	4.69411800971954	-0.27578836617177	8.56019243186612	0.0766130933193142	-0.149042193575137	-0.0474626292888676	0.0170706786321715	-0.0124252867634492	-0.00517592491360169	0.591064453125	-0.399169921875	0.373291015625	0	0	0	0.0970482920992105	-0.231741425812883	0.396174795212888	0.88313253376878	0.578682886400477	0.654769482255818	0.486212959610973	-0.744729920590923	0.667254321277305	-0.0122072156285066	-0.332420610618312	-0.35503323202654	0.873755081125677	-0.800426171163122	-29.0919728251248	48.5298679394794
17673	1648551154631	4.72046201658598	-0.267946277687707	8.5824120996365	0.0784425143829611	-0.136101371225141	-0.0153572620274733	0.0186693943695025	-0.0137508596815508	-0.00353377289070861	0.59521484375	-0.3984375	0.375244140625	0	0	0	0.0971328630720651	-0.231781724105695	0.396198195471198	0.883102162372724	0.578608444551916	0.654739721357241	0.486341613652641	-0.744794211237904	0.66718439363358	-0.0121065188349699	-0.332406153372229	-0.355219484500548	0.87368487856403	-0.793888116166627	-29.1004087317297	48.5322332164288
17674	1648551154631	4.69795013761107	-0.261968504529063	8.60685954955903	0.0490529496879202	-0.155344884595173	-0.00499366510437227	0.0200346119731927	-0.00948631888021258	-0.00707870159904992	0.597412109375	-0.40576171875	0.3759765625	0	0	0	0.0970810382384645	-0.231926278236989	0.396341222566665	0.883005724087926	0.578247673515	0.654911848664684	0.486538897266288	-0.744974424208803	0.666977814617806	-0.0123976643936435	-0.332630027732392	-0.355290114253495	0.873570946955361	-0.813083544167399	-29.1133460550624	48.5574373604538
17675	1648551154632	4.72327748306897	-0.259058894677117	8.60530864903176	0.0620674115063923	-0.137859601939688	0.00591440402608967	0.0170715118502394	-0.0124255298238031	-0.00517567579792311	0.58642578125	-0.401123046875	0.3759765625	0	0	0	0.09715690751323	-0.231964418689952	0.396356641399107	0.882980439535961	0.578187842561306	0.654876431725122	0.486657659844449	-0.745024214017201	0.666923896282571	-0.0123059780321179	-0.332622517641779	-0.355456573632064	0.873506087568597	-0.807131138789396	-29.1211349666995	48.5588415046201
17676	1648551154633	4.67561340465329	-0.259364933204559	8.60694783726872	0.0298827913917274	-0.168104326648103	-0.0157985942254992	0.0186320375141715	-0.0122331183405879	-0.00369225165132365	0.591552734375	-0.396484375	0.37255859375	0	0	0	0.0970459211953046	-0.232103263796575	0.396614541252315	0.882840342180594	0.577649961204387	0.655245284530835	0.48679989669337	-0.745343984721137	0.666557989693142	-0.0127589504371	-0.332840602632234	-0.355463167538275	0.873420328228665	-0.836918943305861	-29.1304641886276	48.6013020788592
17677	1648551154633	4.72574482926945	-0.255444593885561	8.60406199269732	0.0565223325777393	-0.133551233459841	0.00600743757443212	0.0203326155110882	-0.0199482716355054	-0.00444949599948664	0.58837890625	-0.4013671875	0.378662109375	0	0	0	0.0971488315967708	-0.232169615014144	0.396634412329122	0.882802649146398	0.577556825641033	0.655189806231754	0.486985041829264	-0.745409833555339	0.666486494951429	-0.0126464258334139	-0.33285476291388	-0.35569940941384	0.873318748767132	-0.829635440592577	-29.1426090053571	48.6034784206294
17678	1648551154634	4.70199937282727	-0.259777812366119	8.58054003369311	0.0505276459057313	-0.142983867004649	-0.0260151965570436	0.0155502479019689	-0.0141361939265897	-0.00650029009159606	0.588623046875	-0.3994140625	0.379150390625	0	0	0	0.0970557108317915	-0.232292076707683	0.39672965430043	0.882737878133951	0.577291944994987	0.65532604120904	0.487115787012896	-0.745507131710869	0.666371540787194	-0.0129648060970602	-0.33309627258818	-0.355663815058812	0.873241160187536	-0.850594466865885	-29.1511862568613	48.6224245255757
17679	1648551154635	4.70458452313039	-0.281960668636194	8.58491661578106	0.066601687897012	-0.159378675357053	-0.0206715919033158	0.017188801671202	-0.0169780165582624	-0.00469889665119784	0.59130859375	-0.395263671875	0.377685546875	0	0	0	0.0971381377152728	-0.232352188173074	0.396746995976945	0.882705196560926	0.577208563668909	0.655280752431171	0.487275496532008	-0.745561787843975	0.666312006768957	-0.0128813874416296	-0.333118439198691	-0.355858743223718	0.873153285704786	-0.84520737659542	-29.1616646220387	48.6245654612066
17680	1648551154636	4.73259703438877	-0.297801556224625	8.61195401163247	0.083520425280892	-0.160577635354563	0.0168167404036961	0.0202681521535657	-0.0185914942633238	-0.00612653389014483	0.59423828125	-0.403076171875	0.37890625	0	0	0	0.097087849807446	-0.232428781439176	0.396803332159958	0.882665240374413	0.577047954290906	0.655356995878086	0.487363177109565	-0.745621038371264	0.666242130013041	-0.0130648893544394	-0.333264047846205	-0.355849170505336	0.873101621956932	-0.857296719153859	-29.1674177025764	48.6357803092594
17681	1648551154637	4.73203254081279	-0.277071403166389	8.58224414704542	0.0772321916042609	-0.13867714654388	-0.0096970823721918	0.0202568598196582	-0.0169132982707254	-0.00476854341112521	0.593994140625	-0.39599609375	0.37646484375	0	0	0	0.0971830345948809	-0.232482673479861	0.396824654861196	0.88263098609378	0.576963999651897	0.655312729453915	0.487522071009451	-0.74568621625193	0.666171302162445	-0.0129561980175768	-0.333263574363542	-0.35606322864184	0.873014528637173	-0.850250423635204	-29.177844201507	48.6379955173267
17682	1648551154636	4.70983242892489	-0.270769710208294	8.60656827363022	0.0490402534482059	-0.157453217499421	0.000653460611900414	0.0231253152592731	-0.0127797747566654	-0.00986995780276689	0.588134765625	-0.3974609375	0.372314453125	0	0	0	0.0971644560773315	-0.232567453655557	0.396983361289253	0.882539324242752	0.576633180719313	0.655512274544203	0.487645191522909	-0.745901435087132	0.665926558669365	-0.0131479121435262	-0.333354502037224	-0.356153725771137	0.872942895950733	-0.862900566039629	-29.1859240061138	48.66294444799
17683	1648551154636	4.71106481341449	-0.268556025803856	8.60596311034051	0.0482739600996067	-0.156938353596989	0.000665507475700266	0.0202190264964458	-0.0153956854554051	-0.00492783749556448	0.59765625	-0.3955078125	0.378662109375	0	0	0	0.0972559235761278	-0.23261528797822	0.397005189263391	0.88250682310456	0.576554014993498	0.655473147325223	0.487791370291075	-0.745966006006218	0.665856330054587	-0.0130409205721658	-0.333346944905769	-0.35635698514524	0.872862826256329	-0.855958232984583	-29.1955178390664	48.6651495847534
17684	1648551154638	4.71228037409083	-0.266478298256758	8.60536216981129	0.0452447071858922	-0.154905316899827	0.000712243751729957	0.0216471167400623	-0.0124900478774993	-0.00680045388650061	0.590087890625	-0.393798828125	0.375	0	0	0	0.0972419140596922	-0.232716057557423	0.397075646897204	0.882450099068556	0.576348334392195	0.655539378145678	0.487945407954333	-0.746058397622915	0.665749881582349	-0.0131894848047784	-0.333495824231234	-0.356434031587144	0.872774493409875	-0.865795573373733	-29.2056284292016	48.6781582301347
17685	1648551154639	4.71036432121873	-0.250867889336923	8.55203080618401	0.0502120330845343	-0.128509796867774	-0.0469994084695617	0.0185800718535637	-0.0125552651435807	-0.00672997448531566	0.59033203125	-0.396728515625	0.371337890625	0	0	0	0.0973220992336455	-0.232754448936568	0.397089244660266	0.882425015101074	0.576290996550748	0.655498662278665	0.488067813982265	-0.746107268584573	0.665697081551792	-0.0130896668672406	-0.333485578488506	-0.356607486410912	0.872707551001983	-0.859310123863449	-29.2136635207895	48.679220193084
17686	1648551154639	4.68940869747496	-0.268671012311431	8.58146027105819	0.038949132114614	-0.165000367363817	-0.0313042425467547	0.0202598126544319	-0.0169127775476191	-0.0047672745047238	0.591796875	-0.390869140625	0.379150390625	0	0	0	0.097289954243151	-0.232892750972358	0.397090341559729	0.882391575202229	0.57616045436901	0.655462093801636	0.488271005088845	-0.746094594144285	0.665707850886686	-0.0132632521088635	-0.333739400445872	-0.35665459601273	0.872591262695786	-0.870819919506104	-29.227002973874	48.6840717123897
17687	1648551154640	4.71708867102215	-0.255335103295661	8.62724580059983	0.0292081774394251	-0.156408873471872	0.0219541757762851	0.0202717388415136	-0.0185919906641476	-0.00612443086509354	0.593994140625	-0.3984375	0.386962890625	0	0	0	0.0973883086379352	-0.232955496407824	0.397105929794238	0.882357146826771	0.576077234431276	0.655404226836335	0.488446844001554	-0.746152793968609	0.665644795725792	-0.0131534777153075	-0.333752944590533	-0.356878558291521	0.872494508068054	-0.863709358471757	-29.2385481638586	48.6856673191989
17688	1648551154641	4.74159732814457	-0.291528895693057	8.55888318433831	0.0932812776826976	-0.139939110175949	-0.0252499685358085	0.0202047005048844	-0.0172368749768432	-0.00780247504387841	0.59228515625	-0.396240234375	0.37744140625	0	0	0	0.0973898644031001	-0.232941784055105	0.397120085349524	0.882354224427332	0.576067526106424	0.655428832300304	0.488425276941198	-0.746173507352076	0.665621704247066	-0.0131470057859067	-0.333723391885447	-0.356876438875828	0.872506679105542	-0.863272409757246	-29.2371320488261	48.687212718198
17689	1648551154641	4.71941943435374	-0.28520595363808	8.58322790674735	0.067555593313476	-0.160967049861347	-0.0149535006364854	0.0231820281034151	-0.0124576046065421	-0.00683877703904869	0.5927734375	-0.389892578125	0.3876953125	0	0	0	0.0974895777380622	-0.232970748471953	0.39713921863761	0.882326953917186	0.576010142752653	0.655388834335445	0.48854661115854	-0.74623771391085	0.665552446504726	-0.0130082776985467	-0.333678872245721	-0.357079006355735	0.872440825177744	-0.854228923002917	-29.2450992314303	48.6883090835751
17690	1648551154642	4.74362072901454	-0.257976895849711	8.57644014040531	0.0643574356513237	-0.124582652813026	-0.00941485390529806	0.0231542379872415	-0.0126200569829083	-0.00835625729705311	0.59521484375	-0.3994140625	0.377197265625	0	0	0	0.097505183085169	-0.232931305551509	0.397112570463006	0.882347637014948	0.576089226548668	0.655358657165796	0.488493841857196	-0.746206695542065	0.665588691303584	-0.0129329631939095	-0.333611706303526	-0.357066834761544	0.872471492331195	-0.849254041110257	-29.2416341585418	48.6831004110094
17691	1648551154643	4.71923988186019	-0.261976595353653	8.55332108013645	0.0612263703984749	-0.136633543090966	-0.0414673504513718	0.0215865288993687	-0.00761376331785185	-0.00425124926207419	0.596435546875	-0.395751953125	0.370361328125	0	0	0	0.0975852138725318	-0.232942729531581	0.397143812000526	0.88232171195178	0.576028954696135	0.655353684027938	0.488571583478498	-0.746280748353501	0.665507837246286	-0.0128204212375733	-0.333550128149602	-0.357226633098345	0.872429621583658	-0.841905344026753	-29.2467390687031	48.6858574260607
17692	1648551154645	4.72083185869673	-0.254714980042459	8.57684542573315	0.0460398949540803	-0.139511467395405	-0.0202501236333763	0.0199680709025623	-0.00813484113960316	-0.00876729741270377	0.5966796875	-0.393798828125	0.382080078125	0	0	0	0.0975758002728672	-0.23306858421732	0.397269270976587	0.882233033041597	0.57571232277733	0.655484440488858	0.488769342000233	-0.746451854982734	0.665312179077682	-0.0130127846267348	-0.333713873842797	-0.357351161531506	0.872315996504087	-0.854647105167456	-29.2597260470113	48.7071457569698
17693	1648551154646	4.72281695673188	-0.276289817912407	8.58165062351542	0.0620394136094261	-0.155836924551571	-0.0148340802069171	0.0230359797689809	-0.00806904255293959	-0.00883966505206431	0.593017578125	-0.396484375	0.373046875	0	0	0	0.0976679834704287	-0.23307799124983	0.397281824317293	0.882214694429246	0.575683604124135	0.65544721169133	0.488853086958348	-0.746504241278167	0.665256234143887	-0.0128670387581154	-0.333646228356256	-0.357523559529655	0.872271229999529	-0.845119642093808	-29.2652261500783	48.7069493830852
17694	1648551154647	4.72211581032874	-0.250127133616606	8.57627362677589	0.0431336028784369	-0.137157661380179	-0.0202036394177156	0.023013335104153	-0.00470874884436453	-0.00612809040292129	0.594482421875	-0.391845703125	0.379150390625	0	0	0	0.0976716402347496	-0.233104253830523	0.397350738836152	0.882176313378643	0.57554959438496	0.655531470174863	0.488897899375413	-0.746602169444162	0.665145282080436	-0.0129210799629431	-0.333658305732947	-0.357575509978689	0.872245315079938	-0.848693813777755	-29.2681694089295	48.7172146186801
17695	1648551154648	4.72265298227	-0.247769620551258	8.57604627755357	0.0423157024299784	-0.136621282012352	-0.0201925728545511	0.0261897129270242	-0.00751376195586079	-0.00436005843230224	0.593017578125	-0.400390625	0.380615234375	0	0	0	0.0977711975031155	-0.23310746765689	0.397387058787146	0.882148075421525	0.575488868062187	0.655526065693536	0.488976625139543	-0.746690850732467	0.665048636894617	-0.0127704344889202	-0.333564590700102	-0.357765129325045	0.872203402922797	-0.838840707736042	-29.2733402859551	48.7199777919933
17696	1648551154648	4.72319752539417	-0.245310867175454	8.5758170704581	0.0407499965022176	-0.134062413617242	-0.0201505662635792	0.0245192576372601	-0.00483955826314683	-0.00768210317677078	0.593017578125	-0.389892578125	0.378662109375	0	0	0	0.0977627385023476	-0.233090511487915	0.397464391188455	0.882118653102866	0.575381742382985	0.655646373379079	0.488941390769059	-0.746796640266965	0.664929009395425	-0.0128136860580225	-0.333512561410052	-0.357767026903377	0.872222520829647	-0.84166288304804	-29.2710259846006	48.7304788238476
17697	1648551154649	4.69925996798053	-0.243999915795251	8.57680698869158	0.0263104034048229	-0.150607432756772	-0.0310298823333408	0.0230142527630563	-0.00470911873238318	-0.00612854543182924	0.592041015625	-0.398681640625	0.3779296875	0	0	0	0.0978444569913971	-0.233086774780896	0.397490891620577	0.882098638893053	0.575343093001837	0.655639851121169	0.488995614455683	-0.74686484676242	0.664854906629474	-0.0126828151945634	-0.333426492657116	-0.357916664535929	0.872194035316597	-0.833095093664049	-29.2745875841225	48.7321043448233
17698	1648551154650	4.72645729920601	-0.288369928881526	8.58588099304069	0.0719991485064942	-0.165072194393741	-0.00924535767250489	0.0229628468057443	-0.0015112849305429	-0.00493581228565295	0.59619140625	-0.392578125	0.384765625	0	0	0	0.0978220213997142	-0.233072889135695	0.397513963196481	0.882094399451125	0.575319354827534	0.655690358981023	0.488955819169962	-0.746889003575924	0.664827002386201	-0.0127229413086165	-0.333413341511996	-0.357875970187321	0.872215760958428	-0.835709667449758	-29.271973679822	48.7354644482648
17699	1648551154651	4.70109074204246	-0.263464513525382	8.58179371210672	0.0407494661916139	-0.164762419718215	-0.0255507281152934	0.0215095687131103	-0.0045785827387345	-0.00457465128797101	0.588623046875	-0.39599609375	0.3779296875	0	0	0	0.0978947933306354	-0.233072384615296	0.397545817797323	0.882072103470203	0.575269172563194	0.655695005614548	0.489008628462316	-0.74696129730652	0.66474786438122	-0.0126133709518517	-0.333337965771407	-0.358014436039589	0.872187745936983	-0.828540126500977	-29.2754424076156	48.7381434340247
17700	1648551154652	4.70283713098468	-0.285097893680342	8.58677693444092	0.056869664378168	-0.179030700829727	-0.0200672128657366	0.0246179201912805	-0.00602925729708676	-0.00448512794303172	0.59375	-0.397705078125	0.381103515625	0	0	0	0.0978872919542853	-0.233027050838024	0.39757569682916	0.882071446620055	0.575263917737082	0.655759566168892	0.488928232287491	-0.747001114003403	0.664703286729329	-0.0126046137942709	-0.333257799049714	-0.357978954673615	0.872232943303179	-0.82792207377281	-29.2701617086727	48.741199464958
17701	1648551154652	4.70208686583295	-0.258948801068826	8.5813854221825	0.0392414072037587	-0.161626041154436	-0.0254922684578425	0.0246182774465422	-0.00602932845820402	-0.0044852082091108	0.593505859375	-0.3896484375	0.371826171875	0	0	0	0.0979763707279684	-0.233026448824744	0.397611142209692	0.882045738336629	0.575208107477667	0.655760255523486	0.488992965560584	-0.747084598481386	0.664612020739361	-0.0124685444479611	-0.333166978861753	-0.358147105481138	0.87219860985421	-0.819017946493955	-29.2744135926356	48.7439851000672
17702	1648551154653	4.70406862845213	-0.280514800765995	8.58625330376846	0.0539581504602991	-0.176914842698966	-0.0200122835432399	0.0199827652108666	-0.00982113301876977	-0.0101183308720529	0.58740234375	-0.39794921875	0.37548828125	0	0	0	0.097980052390249	-0.233088980303787	0.39760321286301	0.882032381330502	0.575162424763905	0.655721676328929	0.489098423972193	-0.747073958335948	0.664623188909232	-0.0125106970381796	-0.333269689464797	-0.358197012768814	0.87213887318909	-0.821842713421463	-29.2813408099905	48.7445699186025
17703	1648551154654	4.70434317567092	-0.249226177186015	8.60461138462238	0.0249948472369577	-0.16396900874608	-0.00428359481415086	0.023015962521424	-0.00470968872130989	-0.0061295123527635	0.58984375	-0.3994140625	0.37646484375	0	0	0	0.09806118815642	-0.233085314520136	0.397630179845914	0.882012176564534	0.57512295246151	0.655716075019969	0.489152346935351	-0.747142566554598	0.664548486906114	-0.0123811870594697	-0.333183995405185	-0.358345835068863	0.872110479064801	-0.813362673224786	-29.2848830141346	48.7462766280747
17704	1648551154655	4.70612613661417	-0.270812454299185	8.60959800134536	0.0388058604379791	-0.177313615558518	0.0012412039117482	0.0214940043095615	-0.00642489106942363	-0.00744675271081374	0.587646484375	-0.393798828125	0.376708984375	0	0	0	0.0979657043947678	-0.233128732485873	0.397704746790843	0.881977692026277	0.574963856939124	0.655856188379689	0.489151534166819	-0.747210670350241	0.664467310284938	-0.0126256753262771	-0.333305831524789	-0.35823993876558	0.872107429703934	-0.829424624280217	-29.2848296223874	48.7602029987267
17705	1648551154655	4.7300700599498	-0.272696551942614	8.58440342433196	0.0628998137368346	-0.155190241287038	-0.00902134150534195	0.0245505852140096	-0.00467620691146595	-0.00616666517354714	0.59521484375	-0.39794921875	0.384765625	0	0	0	0.0980526910886223	-0.233122186829713	0.397734150708494	0.881956496170987	0.574923182735851	0.655851920390577	0.489205061781735	-0.747284951475049	0.664386430260945	-0.0124848942347302	-0.333209446522473	-0.35839772572536	0.872079431556023	-0.820203822345533	-29.2883459757056	48.7620274209434
17706	1648551154656	4.70477132756094	-0.247608237395402	8.58024871519171	0.0313311535127606	-0.152458189250185	-0.0253166464490437	0.0229763409520206	-0.00319282425851684	-0.00629351178018696	0.5986328125	-0.3916015625	0.38037109375	0	0	0	0.0980128179814715	-0.233077251186639	0.397788080478402	0.881948482350256	0.574879276017177	0.655968071357541	0.489100917363109	-0.747346304142252	0.664316261081278	-0.0125461925661698	-0.333147594454594	-0.358315216844692	0.872136964981222	-0.824175939121357	-29.2815045983489	48.7692257730343
17707	1648551154657	4.73078838699836	-0.267992607732994	8.58415572799379	0.0608945161534833	-0.151611599815825	-0.00895268486475942	0.0245225270215066	-0.00484164955376638	-0.00768375404286757	0.591552734375	-0.39892578125	0.38330078125	0	0	0	0.0981014011353185	-0.233070492867924	0.397811133112606	0.881930021499016	0.574848895451935	0.655954078529811	0.48915538866274	-0.747412246184382	0.664244834933904	-0.0123989321010948	-0.333052070480439	-0.358473215350515	0.87210852089918	-0.81453007760279	-29.2850828291308	48.770120847748
17708	1648551154658	4.75310341652853	-0.245735159816961	8.55393698151455	0.0680317223907419	-0.110900261043325	-0.02466979462951	0.0289912015142624	0.00149188999420756	-0.0069332702274133	0.595947265625	-0.3935546875	0.37109375	0	0	0	0.0981251019245163	-0.232994689358238	0.397906406765842	0.881904433914388	0.574767932371108	0.65610559353718	0.489047312687705	-0.747556104101773	0.664083911653999	-0.012346234345056	-0.332868885806439	-0.358494084207185	0.872169878206323	-0.811011586278438	-29.2779834186196	48.7806800509359
17709	1648551154658	4.70562355150281	-0.269112479247113	8.5616078614217	0.0568067719482088	-0.161380016848048	-0.0409335411433709	0.0244589339153075	3.99947485359309E-05	-0.00514147436148911	0.596923828125	-0.400390625	0.378173828125	0	0	0	0.0982006110341325	-0.232967584911854	0.397943139264641	0.88188661532255	0.574734724585082	0.656126337974868	0.489058508740825	-0.747636574732829	0.663995795809452	-0.0122120951984548	-0.33274547101031	-0.358619313148445	0.872165488745722	-0.802205316698412	-29.2787188540575	48.783218736276
17710	1648551154659	4.704281159271	-0.242927534452259	8.55647847270697	0.0364227355412433	-0.143087697537561	-0.0463780448510675	0.0243897051837508	0.00139077592410301	-0.00682291945837478	0.5888671875	-0.3974609375	0.38134765625	0	0	0	0.0982018432076552	-0.233032251536947	0.398082481290388	0.881806501350454	0.574452615666619	0.656295046895653	0.489163575682014	-0.747831833406685	0.663773472160615	-0.0123420662548104	-0.332793842036442	-0.358722161395244	0.872104735468481	-0.810798376009059	-29.2856206469303	48.8044616250184
17711	1648551154661	4.73204242654013	-0.281752925010523	8.58972264281436	0.0714188856599846	-0.163485230677289	-0.00334912104309026	0.0259529656974786	0.00159051394311698	-0.00534290857043526	0.59716796875	-0.393798828125	0.38623046875	0	0	0	0.0982807280709652	-0.23299614523946	0.398120826233591	0.881789942396984	0.574425208045271	0.65631981927939	0.489162524303749	-0.74791594244684	0.663681412417849	-0.012195320615091	-0.332652105653943	-0.358847150792811	0.872107389586787	-0.801156909913374	-29.2855515801279	48.8068882199449
17712	1648551154664	4.70534194873527	-0.261691924317424	8.56199266313748	0.0519378619392745	-0.15634918050803	-0.0408246610174121	0.0290216668020204	0.00165781143621131	-0.00541680444966548	0.5908203125	-0.408203125	0.376220703125	0	0	0	0.0982780864348652	-0.232882996366305	0.398209204388371	0.881780220503122	0.574389879087665	0.656491409611704	0.488973716990694	-0.748040590596097	0.663541694534164	-0.0121529599428915	-0.332432762558537	-0.358791650851533	0.872213855460306	-0.798276997237252	-29.2731492678488	48.8160572715338
17713	1648551154663	4.73057415202071	-0.252579714925272	8.58474112287212	0.053310830211929	-0.14306386535076	-0.00878005293319717	0.0274713954731782	-0.000225890743230813	-0.00824896061181521	0.58544921875	-0.3994140625	0.3740234375	0	0	0	0.098370445149795	-0.232849927707408	0.398235986176124	0.881766559811618	0.574378020961969	0.656491248964066	0.488987861883515	-0.748113453130767	0.663462709670722	-0.011978903169453	-0.332289256944263	-0.358937979196942	0.872208333375372	-0.786850366270933	-29.2740783607308	48.816636517305
17714	1648551154664	4.70721362834904	-0.245737959690224	8.60975569532572	0.0239142434958464	-0.16025377913953	0.00158218520090081	0.0260360477027866	-0.00144290559428588	-0.00501311971112954	0.595703125	-0.394775390625	0.38037109375	0	0	0	0.0982424315338404	-0.232901257673919	0.398459735417882	0.88166618857192	0.573973686849237	0.656855380728169	0.488973634885508	-0.74837852417287	0.66315652779406	-0.0123694866895254	-0.332391021782375	-0.358837607355441	0.872210857640451	-0.81250063384408	-29.273143874878	48.8523733365636
17715	1648551154665	4.73105873429964	-0.276542876307027	8.56628860014239	0.0761420222465095	-0.150473263509899	-0.0243140185071393	0.0274886527044141	0.00162421532699159	-0.00538086332200191	0.595947265625	-0.398681640625	0.38232421875	0	0	0	0.0983265160171389	-0.232862071792684	0.398501226016958	0.881648413275571	0.5739440567668	0.656882914748627	0.488971426581776	-0.748468979676257	0.663057338221825	-0.0122128085456161	-0.332238477850552	-0.358970475863318	0.8722143035367	-0.80220727654089	-29.2729988254657	48.8550288826578
17716	1648551154665	4.6801289807794	-0.19407120429078	8.60060182096276	-0.0257728785844656	-0.140897787866341	-0.0202869605880931	0.0259261339930587	0.00142310506149012	-0.00686091801454226	0.59326171875	-0.396484375	0.378662109375	0	0	0	0.0983392106556248	-0.232816701300492	0.398643280028931	0.881594758679384	0.573759837766665	0.657093631245853	0.488904498181504	-0.7486736737792	0.662825869870807	-0.0122309615305552	-0.332095436216647	-0.359012292277222	0.872251566486371	-0.803365195419565	-29.2686028226225	48.8732467558226
17717	1648551154666	4.70857152832645	-0.291104283001102	8.59689330337224	0.0655483662750062	-0.185963296367606	-0.00844936909050275	0.0227758221027312	0.00438857396817609	-0.00711868404095941	0.5849609375	-0.3984375	0.375732421875	0	0	0	0.0983988303828815	-0.232773897310291	0.398673135785674	0.881585908299966	0.573752087067591	0.657119878574823	0.488878315910404	-0.748738595530814	0.662754801964196	-0.0121073546219987	-0.33196243484486	-0.359095443656986	0.872267965820518	-0.795232432088789	-29.2668831655712	48.8747640768378
17718	1648551154667	4.73150681208046	-0.263875391814653	8.59058544857101	0.0597350436733762	-0.148973536289377	-0.00303989568293161	0.0260665364788243	-0.00127502971864837	-0.00349509369412918	0.586669921875	-0.40185546875	0.3857421875	0	0	0	0.0983342111998579	-0.232778190320473	0.398747581751683	0.881558315181708	0.57362936031662	0.657258373244201	0.488836156378732	-0.748818612162977	0.662661497909772	-0.0122647978495056	-0.331994040701121	-0.359014164049782	0.872289394037655	-0.805552440603211	-29.2641141794825	48.8868183168621
17719	1648551154668	4.70721070023756	-0.262647093458355	8.59179357488593	0.0452789201329295	-0.165493738388305	-0.0138969191871681	0.0229284957288607	5.85690102556205E-06	-0.0051043015239067	0.589111328125	-0.403076171875	0.379638671875	0	0	0	0.0984002530260902	-0.232755625292006	0.398784892921031	0.881540026474857	0.573590856145779	0.657283265282798	0.488847868896997	-0.748896114970715	0.662575998764727	-0.0121513309021761	-0.33188573143135	-0.359126377533185	0.872284418198658	-0.798105447264201	-29.2648834357266	48.8897986197792
17720	1648551154668	4.70722072603789	-0.260303266969325	8.59185941782248	0.0432800983726636	-0.160579927589262	-0.0138061289124973	0.0259974498249605	7.37415302481614E-05	-0.00517823312444108	0.593505859375	-0.397216796875	0.377685546875	0	0	0	0.098287913950697	-0.232679886080425	0.398976502233967	0.881485851985141	0.573355642557499	0.657645042745259	0.488637191482662	-0.749123525229782	0.662314473272739	-0.0123888030397869	-0.331778919002973	-0.358946425314476	0.872399113169642	-0.813593694686344	-29.251047422034	48.9170575590855
17721	1648551154669	4.70638399282596	-0.263242751134853	8.56808809703245	0.0537554319887144	-0.155523597299551	-0.0349369569612428	0.0245047355111864	-0.00147690198182297	-0.00497486988232776	0.5849609375	-0.400390625	0.388671875	0	0	0	0.098362715478907	-0.23266047261398	0.399016627419661	0.881464469918836	0.573309671051357	0.657667728212713	0.488660598315962	-0.749208191696381	0.662221014492509	-0.0122643165138057	-0.331667162339029	-0.359077271951374	0.87238776137331	-0.805430014926924	-29.2525845483416	48.9203121362194
17722	1648551154671	4.70750993567299	-0.284560128396515	8.57356901295107	0.0693873842314603	-0.168451939226463	-0.0293076488633162	0.0273674044177701	0.00617381042156709	-0.00588234797297075	0.58935546875	-0.39599609375	0.387939453125	0	0	0	0.0982919594775298	-0.232545475888314	0.399129002424019	0.881451831792273	0.57323728213577	0.657911279630754	0.488417614858657	-0.749340681601542	0.66206946025215	-0.0123520321552019	-0.331492927928383	-0.358910543082884	0.872522584691891	-0.811064436095293	-29.2366289534404	48.9344032237301
17723	1648551154670	4.7068639717132	-0.252956950862926	8.592274277758	0.0402762289567706	-0.155389639493223	-0.0137096405469332	0.022901380790902	-0.000163088452137929	-0.00662080667406464	0.590087890625	-0.400634765625	0.375732421875	0	0	0	0.0983584005414107	-0.2325222687962	0.399161380773994	0.881435880626266	0.573207173224933	0.657929289450935	0.488428691464854	-0.749411363247152	0.661991634283068	-0.0122345729503672	-0.33138519158153	-0.359021066543205	0.872518039113606	-0.803356979725159	-29.2373562486033	48.9366706133595
17724	1648551154670	4.68252241363101	-0.251730158068349	8.59350501943878	0.0251726130726583	-0.169136183966937	-0.0245071643958514	0.0244646655761882	3.96712694215004E-05	-0.005141078664498	0.59326171875	-0.393798828125	0.377685546875	0	0	0	0.0982984592858845	-0.232466565666768	0.399265328583949	0.881410180415379	0.573092986475699	0.65813084012052	0.488291128461928	-0.749535261082617	0.661849220585544	-0.0123491539839982	-0.331302461877629	-0.358914204918899	0.872593417498239	-0.810809659557665	-29.2283241636068	48.9510156970322
17725	1648551154671	4.70717156287732	-0.248240826867022	8.59224332786889	0.0378030617785296	-0.151285908784942	-0.0136355710083045	0.0245735481434763	-0.00636409986880257	-0.00750552526320149	0.599609375	-0.39990234375	0.37744140625	0	0	0	0.0983851441459615	-0.232466728514037	0.399293295492821	0.881387796443678	0.573048168616928	0.658121930510316	0.488355732050071	-0.749607020886291	0.661770455171723	-0.0122138814384043	-0.331217618315762	-0.359075743044815	0.872559167090719	-0.801960696433903	-29.2325657942479	48.9528507188276
17726	1648551154672	4.7066612978687	-0.2512873963371	8.56829473662601	0.0463236900338832	-0.145534704470036	-0.0347451457380661	0.0246053385296552	-0.00265491892418613	-0.00177374215974199	0.59130859375	-0.390380859375	0.383056640625	0	0	0	0.0984135338770938	-0.232518760251215	0.399468002568014	0.881291732291516	0.572720682111118	0.658329710178309	0.488459837631223	-0.74986168173448	0.661480182548286	-0.0123055419313405	-0.331207606417054	-0.359229676937236	0.87249960496212	-0.808033459005862	-29.2394013482041	48.9780271803103
