// Start Time : 22/03/2022 10:08:01																																
// Update Rate : 100Hz																																
// Filter Profile : 46.1 human																																
// Firmware Version : 4.4.0																																
PacketCounter	Time_Of_Arrival	Acc_X	Acc_Y	Acc_Z	FreeAcc_X	FreeAcc_Y	FreeAcc_Z	Gyr_X	Gyr_Y	Gyr_Z	Mag_X	Mag_Y	Mag_Z	VelInc_X	VelInc_Y	VelInc_Z	OriInc_q0	OriInc_q1	OriInc_q2	OriInc_q3	Mat[1][1]	Mat[2][1]	Mat[3][1]	Mat[1][2]	Mat[2][2]	Mat[3][2]	Mat[1][3]	Mat[2][3]	Mat[3][3]	Euler_X	Euler_Y	Euler_Z
7129	1647943716016	9.73571986849994	-0.200874594324742	-0.0471820058684896	6.93889390390723E-16	6.93889390390723E-16	-0.0747811437955583	-0.00761830152560749	0.0274796778393661	-0.000211068007433033	0.565185546875	0.422607421875	0.149658203125	0	0	0	-0.586484441786687	-0.398154348700276	-0.575272809864184	0.408130259089158	0.0210686176840509	-0.00254981998878845	0.999774780521547	0.936595143758481	-0.349805612453752	-0.0206293524834182	0.349779430551474	0.936818836229225	-0.00498177169356584	-103.576399197979	-88.7839574938176	-6.90063549498061
7130	1647943716017	9.71137384306022	-0.176359803388624	-0.0462120193731293	0	1.38777878078145E-15	-0.0996023787488536	5.04016895087227E-05	0.0213718788485446	-0.00151722850770003	0.55810546875	0.429443359375	0.1533203125	0	0	0	-0.586641935868026	-0.397848608755773	-0.576507029144147	0.406457093602141	0.0187122597169695	-0.00186138696849458	0.999823177654348	0.935440099060046	-0.353018231143191	-0.0181645135102567	0.35298962082024	0.935614591441949	-0.00486455281577891	-104.99230705367	-88.9225115993956	-5.68076345062174
7131	1647943716017	9.68846141941076	-0.127423493707032	-0.0701930945135682	0.0489830700184123	-0.041801448280581	-0.123347776112441	-0.00152097102432797	0.0152657374848942	-3.87185787992768E-05	0.558349609375	0.44287109375	0.141845703125	0	0	0	-0.586619638715302	-0.397908416456227	-0.57595657673864	0.407210404211796	0.0198858276496101	-0.00222923783770762	0.999799772133077	0.935912803851027	-0.351697157629927	-0.0193993016044277	0.351669983715414	0.936111179194915	-0.00490741682634671	-104.196221752662	-88.8534126728174	-6.39625787409938
7132	1647943716018	9.6898958003367	-0.127531126207984	-0.0932420642635532	0.0404570467258575	-0.0646262005057581	-0.121803735818938	-0.010762297960739	0.0122143546681848	0.00274325983962912	0.56884765625	0.444580078125	0.147705078125	0	0	0	-0.586611832456721	-0.397844506707266	-0.576008227302987	0.40721103691316	0.0198685411242467	-0.00235322479634231	0.999799831669646	0.9358744052459	-0.351797839797922	-0.0194262070190944	0.351773135243764	0.936073043221828	-0.00478738699075942	-103.844087919272	-88.8535831566496	-6.75462979491635
7133	1647943716019	9.69134504820281	-0.103357225008431	-0.116642189604839	0.0545356531998286	-0.0957658181519952	-0.120715855551664	-0.00771318670866991	0.00763381757595738	0.00283055362690105	0.55712890625	0.42822265625	0.14697265625	0	0	0	-0.586604773217878	-0.39781745880019	-0.576038400911536	0.40720494862789	0.0198420602980809	-0.00240813449855137	0.999800226811019	0.935854615304943	-0.351850798573435	-0.019420467442218	0.351827275314984	0.936052998730026	-0.00472778097647769	-103.682123979545	-88.854715292796	-6.91986755053656
7134	1647943716020	9.66985520779445	-0.0790751596341817	-0.166134406529492	0.0593695251780626	-0.151269545360663	-0.142447136547661	-0.00614372734552866	0.0061074845466504	0.00134930873748582	0.55810546875	0.43408203125	0.15087890625	0	0	0	-0.586602374587067	-0.397783370796758	-0.576065786936368	0.407202963112705	0.019833198077905	-0.00247005101543074	0.999800251601281	0.935832730537934	-0.351908273499603	-0.0194336691451347	0.351885982539681	0.936031231258076	-0.00466791190723265	-103.506413361059	-88.8547863577215	-7.09913407350543
7135	1647943716021	9.71719311663309	-0.0547624717434237	-0.138213181703119	0.0926655430037868	-0.134381844873507	-0.0957280407239285	-0.00762372157420189	0.00763529879072705	-0.00021989197737765	0.565185546875	0.4248046875	0.147216796875	0	0	0	-0.586595875583928	-0.397748899124286	-0.576103429505991	0.407192743678934	0.0198013035137082	-0.00253454471806824	0.999800722375329	0.935805999695485	-0.351979765481281	-0.0194261582840662	0.351958860256555	0.936004177755001	-0.00459781601331394	-103.315828128187	-88.8561367385865	-7.29413330200524
7136	1647943716022	9.76450219403624	-0.0791183826945156	-0.10996680066901	0.0802773538955904	-0.100417214154337	-0.0480917588257625	-0.0136778911108866	0.0137443813225454	-0.00192102579805526	0.556640625	0.4296875	0.13671875	0	0	0	-0.586580309126278	-0.397687149129749	-0.576174851727841	0.407174425275916	0.0197349433069057	-0.00265642647728626	0.999801718047656	0.935758229965594	-0.35210783763656	-0.019406332125521	0.352089572501563	0.935955668861126	-0.00446305527525559	-102.951639749367	-88.8589980154496	-7.66623249899717
7137	1647943716023	9.81325006932814	-0.103422569753074	-0.105494844127964	0.0592637114410143	-0.0891214071919388	0.00109107409756959	-0.0213470487560331	0.0198523066405439	-0.000616634602873054	0.55517578125	0.42724609375	0.1494140625	0	0	0	-0.58656565189435	-0.397593688930388	-0.576276598429457	0.407142820940093	0.0196490812505999	-0.0028241571795955	0.999802949456657	0.935683362525725	-0.352307963759338	-0.0193841111300125	0.352293285060273	0.935879865585307	-0.00428001091903552	-102.451129422824	-88.8625466860474	-8.17909211171056
7138	1647943716024	9.76451944525727	-0.127574650692499	-0.106194884259697	0.034465079852899	-0.083125022321949	-0.0471717844139636	-0.0197298813133066	0.0259602418120415	-0.00361760661993887	0.5615234375	0.429443359375	0.15576171875	0	0	0	-0.586523815314791	-0.397494596475696	-0.576399314386223	0.407126135511215	0.019523752295431	-0.00305435617087579	0.999804727936754	0.935614545338631	-0.352492711112655	-0.0193471228671696	0.352482972137795	0.935809574390448	-0.00402428031759217	-101.750207147225	-88.8676915321623	-8.89145850840532
7139	1647943716024	9.76308709032708	-0.151656185061567	-0.0793565610057048	0.0199825732124473	-0.0514796157578483	-0.0482561645687483	-0.0197298856673035	0.0259604015133369	-0.00361760497692157	0.555419921875	0.431884765625	0.145751953125	0	0	0	-0.586482744069692	-0.397406091438442	-0.576521443436665	0.407098777514512	0.0193828474906507	-0.0032587196342802	0.999806824326329	0.935545979701592	-0.352677967667622	-0.0192865493550283	0.35267268832069	0.935739083221483	-0.00378722120778868	-101.109584763493	-88.8737862133917	-9.54353890289758
7140	1647943716025	9.7616312310716	-0.200162003428341	-0.052501186935064	-0.0172047219057295	-0.0115178575967767	-0.0488850166661905	-0.0197294896605892	0.0274871238662906	-0.00361620483024681	0.564208984375	0.43505859375	0.14453125	0	0	0	-0.58643647474421	-0.39730386774089	-0.57664860256958	0.407085110170176	0.0192520516653614	-0.00350316061261619	0.999808524854833	0.935477079013445	-0.352862699511731	-0.0192496736015663	0.352862569773484	0.935668554114659	-0.00351620446457368	-100.351698910933	-88.8787543686689	-10.312876877272
7141	1647943716025	9.69002854565766	-0.150887169788846	-0.0785853575701458	0.0169211810969638	-0.0550485110895435	-0.121336650123546	-0.0136290837296446	0.0259588533174856	-0.00343507542868751	0.564208984375	0.4287109375	0.142578125	0	0	0	-0.58638421620689	-0.397233593415306	-0.576757332512449	0.407074934918523	0.019112903310976	-0.00370388854081072	0.999810471107751	0.935429925844333	-0.352990939246889	-0.0191898578542442	0.352995114359805	0.93561940874443	-0.0032819535084101	-99.7051376415689	-88.8844675659544	-10.9674027137544
7142	1647943716026	9.66567269461923	-0.175014806541348	-0.0775429231532999	-0.00690562419197929	-0.0477674207781949	-0.145239832530788	-0.0151998005627587	0.0274843767526352	-0.0019540995356118	0.56005859375	0.4296875	0.14697265625	0	0	0	-0.586332005997034	-0.397139543949091	-0.576872074058982	0.407079318494923	0.0189975856055928	-0.00395413060453209	0.999811710569706	0.935376632462202	-0.353133222171235	-0.0191698420085667	0.353142530976984	0.935564691643568	-0.00301007724919389	-98.9238040018453	-88.8881212872897	-11.7575944650488
7143	1647943716027	9.66421896675975	-0.174882365500764	-0.0506859649456705	0.00146583568291364	-0.0245687451507631	-0.146784666673001	-0.00909973142354402	0.0244296059125992	-0.00177333046772338	0.560791015625	0.427734375	0.147705078125	0	0	0	-0.586279814553415	-0.397083167122752	-0.576962368755189	0.40708151821887	0.0188787668563324	-0.00413774289001595	0.999813218179155	0.935345125222054	-0.35321919182477	-0.0191232646270519	0.353232344053208	0.935531443410873	-0.00279812513004329	-98.3244728939248	-88.8925817081076	-12.3622925353539
7144	1647943716027	9.66424384870622	-0.150210615894177	-0.0485793190453698	0.0243223079518528	-0.0331372408679357	-0.147241566164977	-0.0136302749070966	0.0183264801011642	-0.00344465117687608	0.56982421875	0.442138671875	0.146240234375	0	0	0	-0.586247846338181	-0.397016639752386	-0.577050160117525	0.407068007993637	0.0187818009361254	-0.00429701835238511	0.999814372564665	0.935297618413415	-0.353346849255634	-0.0190884549220136	0.353363281827342	0.935482517075758	-0.00261749915286191	-97.8079728034262	-88.8960092597348	-12.8866998421952
7145	1647943716028	9.68714028662697	-0.149892155009951	-0.0212601736766645	0.0336412636927273	-0.00860069263900337	-0.124426385517822	-0.00138364052681957	0.0122188564564326	-0.00460637359180053	0.555908203125	0.431396484375	0.1416015625	0	0	0	-0.586209903542557	-0.397017596214531	-0.577094770847225	0.4070584758305	0.0186773075136487	-0.00435134209841115	0.999816095092484	0.935293929224883	-0.353360851101172	-0.0190098622860744	0.353378584720581	0.935476977125038	-0.00253004543067659	-97.5810121850794	-88.9011435910557	-13.1145393260235
7146	1647943716029	9.71300018522416	-0.173729513450497	-0.0431718927876694	0.0032285700692386	-0.0215673974340386	-0.0980621667390942	-0.0043879980269918	0.00916838907507227	-0.00622844174671915	0.563232421875	0.4326171875	0.143310546875	0	0	0	-0.586180014259916	-0.397004529996058	-0.577143030029661	0.407045841316474	0.0185866521015832	-0.00441509832804321	0.999817504982988	0.935279582545405	-0.353402172459147	-0.0189474793798083	0.353421333308203	0.935461068889512	-0.00243921191029273	-97.3356502672533	-88.9053639658979	-13.3624607993662
7147	1647943716030	9.71449448513951	-0.19762354322687	-0.0670169038036558	-0.0283673757395224	-0.0353770469757215	-0.0960576389075687	-0.00295679139387625	0.00305777754241675	-0.00313949095460208	0.5625	0.42529296875	0.145263671875	0	0	0	-0.586173986006603	-0.3970167023215	-0.577161584550685	0.407016340612799	0.0185244867934073	-0.00438666635022811	0.999818783854041	0.935270117994191	-0.353430873103854	-0.0188792034837224	0.353449642489809	0.935450359503581	-0.00244440758621584	-97.3773975705628	-88.9092062678455	-13.3224457194118
7148	1647943716031	9.78761414271306	-0.172806007932875	-0.0624762874962564	-0.00260399142623068	-0.0400740023480464	-0.0234308492414694	0.0108621732705576	-0.00304732634506598	-0.00577856069508817	0.5546875	0.431396484375	0.142333984375	0	0	0	-0.586149202579696	-0.397071186179604	-0.577142849418054	0.407025449802243	0.018481208943063	-0.00433773747596505	0.999819798238459	0.935309574062161	-0.353329512638408	-0.0188216940354465	0.353347485605404	0.93548887728946	-0.00247282915778269	-97.4847572199776	-88.9122635844634	-13.2088419609917
7149	1647943716032	9.76325587787754	-0.147825539026585	-0.0644081102365157	0.0191147723322918	-0.049405356646097	-0.0482437117118337	0.0108617543302072	-0.00762706426004404	-0.00578434126188266	0.5595703125	0.4326171875	0.140380859375	0	0	0	-0.586143644546533	-0.397154098454902	-0.577105047425876	0.407006159994856	0.0184367726321016	-0.00419191710301253	0.999821240645503	0.935349319962809	-0.35322921561343	-0.0187288782961534	0.353244582492108	0.935527417592944	-0.00259149992363716	-97.8779482195721	-88.9166258000787	-12.8094121996716
7150	1647943716032	9.76177591038995	-0.122901108705562	-0.0405650812314919	0.0504970403063966	-0.035149424543638	-0.050247418130569	0.00476125965097179	-0.00457303841950612	-0.00596668418739691	0.555419921875	0.4287109375	0.14794921875	0	0	0	-0.586135302132156	-0.397194630157964	-0.577094332012759	0.406993814850881	0.0183971154648533	-0.0041280583235706	0.999822236838654	0.935367236535203	-0.353184920893611	-0.01866934572695	0.353199205773557	0.935544424807209	-0.00263633326375051	-98.0376994295418	-88.9196488302517	-12.6469040420254
7151	1647943716033	9.78763652932406	-0.146754165449037	-0.0635734338899379	0.019825788758138	-0.0474905590144722	-0.0238795305986379	0.00318986303230301	0.00305825930335265	-0.00447894891335951	0.55419921875	0.42919921875	0.1494140625	0	0	0	-0.586116453204531	-0.39723444799415	-0.577101150069137	0.40697243051416	0.0183181118313235	-0.00407722389432602	0.999823896005817	0.93537980689029	-0.353156468256359	-0.0185775614809678	0.353170020869296	0.93555538861898	-0.00265540678055209	-98.1345435809232	-88.9247025720923	-12.5482768326022
7152	1647943716033	9.73742083348623	-0.121889639680447	-0.0418154465449862	0.0492722633042007	-0.035821525681852	-0.0746044328868667	0.00933704437158139	0.00305955468689234	-0.00581813339502929	0.559814453125	0.435302734375	0.1455078125	0	0	0	-0.586077067881636	-0.397272215767234	-0.577103410227979	0.406989079688747	0.0182528809652575	-0.00408530089244252	0.999825056023846	0.935413842363248	-0.353069351186998	-0.0185196319514593	0.353083242099782	0.935588233983845	-0.00262308583468729	-98.0616426810235	-88.9282500834046	-12.6158398720468
7153	1647943716034	9.71455051840162	-0.145614286658484	-0.0675637669050351	0.0165778762494191	-0.0506633113370666	-0.0969568942735268	0.0109087915207322	8.0377531813085E-06	-0.00730020653900283	0.562255859375	0.427490234375	0.148193359375	0	0	0	-0.586044943045895	-0.397353271450377	-0.577092549220422	0.406971610843179	0.0181491346039154	-0.00398681805119178	0.999827342192118	0.935454319396136	-0.352968971270782	-0.0183880842710289	0.352981338368251	0.935626533720518	-0.00267659520396518	-98.2818879420759	-88.9352761303389	-12.3893754835365
7154	1647943716035	9.71157829764131	-0.0962632316071005	-0.0181888289547081	0.0793425033936061	-0.022152087916566	-0.100964321713123	0.0123868487777283	0.0106925417186639	-0.00571711697461178	0.5615234375	0.43505859375	0.147705078125	0	0	0	-0.585977519560522	-0.397384005495824	-0.577110910244506	0.407012648479813	0.0180578989057069	-0.00406669238348878	0.999828672473524	0.935499067797358	-0.352853312307087	-0.018331234115314	0.352867406312037	0.935669814628523	-0.00256740250841281	-97.9727670126509	-88.9393858829117	-12.6914517211842
7155	1647943716036	9.73745672253947	-0.144494016859281	-0.0398106779666042	0.0256049623066119	-0.0257473730472468	-0.0741449638004781	0.0154366686823048	0.016799036891065	-0.00561777805410294	0.555419921875	0.430419921875	0.14306640625	0	0	0	-0.585889245781408	-0.397444253755296	-0.577138555577974	0.407041698723804	0.0178983056445328	-0.00412228797723213	0.99983131447104	0.935555544268611	-0.352710241313873	-0.0182019026635505	0.35272577768476	0.935723512803939	-0.00245628633082129	-97.6854474085174	-88.9475956148624	-12.9700254482715
7156	1647943716037	9.71309862785018	-0.11946340830968	-0.0394593325275699	0.0474958299898113	-0.0356133698761141	-0.0989553819643127	0.0124327241019852	0.0198535688729979	-0.00723356663061447	0.566650390625	0.43212890625	0.1494140625	0	0	0	-0.585792277970102	-0.397460897134011	-0.577186728171817	0.407096699989499	0.0177606321434819	-0.00428257596062054	0.999833095816	0.93560067330531	-0.352594224214175	-0.0181298968958903	0.352613017423514	0.935766516067948	-0.00225551535994661	-97.091651340606	-88.9531672938955	-13.5567976228296
7157	1647943716039	9.71161817786924	-0.143373226471463	-0.0137059703763193	0.0326117332679381	-0.00337031815438385	-0.100056595629498	0.015390869150712	0.00916507322549281	-0.00409873953979371	0.5576171875	0.435791015625	0.145751953125	0	0	0	-0.585727700866195	-0.397535579194271	-0.577190567496599	0.407111253228932	0.0176330241352601	-0.00426634894297445	0.999835423820612	0.93565675219886	-0.352451781538088	-0.0180051035906144	0.352470592425136	0.935820249811535	-0.002222952574646	-97.0382550813742	-88.9604938223204	-13.6014471958663
7158	1647943716040	9.76035481228318	-0.118256642861856	-0.0104944259233403	0.0573977430570846	-0.0093404539637805	-0.0517837677133155	0.0186315663931991	-0.00609563779349003	-0.0101175018289713	0.559814453125	0.432373046875	0.14111328125	0	0	0	-0.585687267282227	-0.397631373532915	-0.577156261074129	0.407124509245926	0.0175598821705173	-0.00417365399569336	0.999837102307412	0.93572418419638	-0.352277849507183	-0.0179044088596722	0.352295191065926	0.935886156195784	-0.00228056854839126	-97.2589435141646	-88.9658084328019	-13.3700460985568
7159	1647943716041	9.76185045037338	-0.0931224325218075	-0.035478504750752	0.0710336635477244	-0.0398962679874971	-0.0506682481487779	0.0184442863401118	-0.00762648972273836	-0.00401793394739508	0.56005859375	0.435791015625	0.1474609375	0	0	0	-0.585660482740261	-0.397751408394243	-0.577109040218597	0.407112726127311	0.0174779456367324	-0.00400230557063597	0.9998392385611	0.9357914329738	-0.352106090691172	-0.0177678043388557	0.35212059779167	0.935951538514842	-0.00240876784631827	-97.7204769948924	-88.9726122315914	-12.8978870511492
7160	1647943716042	9.78921962777801	-0.0925815390447897	-0.0829250886311358	0.0549441331684578	-0.0842417628038751	-0.0231953798539592	0.0108627678412712	0.00305913847519162	-0.00577087564482767	0.56005859375	0.432373046875	0.15576171875	0	0	0	-0.585618068162349	-0.397793473190162	-0.577108110082844	0.407133958551377	0.0174131639278308	-0.00401052814583641	0.999840335946702	0.935830709334692	-0.352004584963187	-0.0177103255481637	0.352019410243455	0.935989683612425	-0.00237633814178717	-97.6421952009121	-88.9761248938357	-12.9699525180474
7161	1647943716042	9.7389663216337	-0.0432429279973801	-0.0608989743484892	0.106395407340682	-0.080245951143959	-0.0743464271760494	0.00781080799115825	0.00916484425627889	-0.00586126180026035	0.558349609375	0.43408203125	0.148681640625	0	0	0	-0.58555738353102	-0.397859733527782	-0.577138578184531	0.40711330683318	0.017237388016681	-0.00398218097765363	0.99984349509762	0.935860999285162	-0.351932775673111	-0.0175360036495947	0.351947528008567	0.936016807349997	-0.00233963394098363	-97.5994590802384	-88.9863050860414	-13.0082563194972
7162	1647943716043	9.714620476548	-0.0671676260606945	-0.0616799370079446	0.0825770921841004	-0.0729814353514713	-0.0982639823826581	0.00166415174770683	0.00610923011704487	-0.00452541759331504	0.559326171875	0.442138671875	0.153076171875	0	0	0	-0.585527332875876	-0.397865337086151	-0.577162420847585	0.407117250877362	0.0171734270133575	-0.00402349683475228	0.999844430337959	0.935867615506015	-0.351917435166764	-0.0174907138999954	0.351933061322322	0.936022398395929	-0.00227816799882874	-97.4210056671813	-88.9893385169401	-13.1857873002278
7163	1647943716043	9.71614836959425	-0.0911120300392062	-0.0853304340884327	0.0499976624958794	-0.0861221183923628	-0.0962474296613482	-0.0013871387939947	0.00916156485632168	-0.00461785737215334	0.564208984375	0.427978515625	0.146484375	0	0	0	-0.585481552028755	-0.397915405796855	-0.577214042671143	0.407060967186442	0.016974557545522	-0.00397835424243503	0.999848006995891	0.935866871690811	-0.351929397645526	-0.017288653635027	0.351944687227678	0.936018093719549	-0.00225063587294932	-97.4170502927454	-89.0010242851914	-13.190426150022
7164	1647943716044	9.74053380992052	-0.0904179898878567	-0.0824905213197288	0.0509516000095972	-0.084816827832921	-0.0718871530634235	-0.00429943175873899	0.0183227040773546	-0.00928277062737361	0.5634765625	0.434814453125	0.14404296875	0	0	0	-0.585418842279814	-0.397892883141462	-0.577295282822525	0.407057967714672	0.0168228199524723	-0.00411730719390335	0.999850009006509	0.935853271194111	-0.351970128930752	-0.0171954393881538	0.35198813548773	0.936002177413034	-0.002067934701725	-96.8574950514273	-89.0076253777799	-13.7525364603979
7165	1647943716045	9.69033349346407	-0.113983686903097	-0.0590243191634324	0.0335929834632494	-0.0545792929871752	-0.121715718927005	-0.00735271152208962	0.0259547563612174	-0.00937311749265348	0.564697265625	0.437255859375	0.15185546875	0	0	0	-0.585337662562938	-0.397913244701625	-0.577408381230715	0.406994387873968	0.0165292219510998	-0.00417672423161952	0.999854659336238	0.935831158457555	-0.352041235860238	-0.0169414023619109	0.352060829519109	0.935975172335618	-0.00191025904723907	-96.4333184163783	-89.0231307027277	-14.1810646577901
7166	1647943716045	9.66755820087583	-0.161819272721252	-0.0823852792371481	-0.021602379942718	-0.0615757034129728	-0.143644210077962	-0.00578084662768652	0.0274830226367336	-0.0108500040156624	0.560546875	0.43359375	0.142822265625	0	0	0	-0.585248475740608	-0.397872358498032	-0.577522424042999	0.407000808001663	0.0163308721414231	-0.00439580374857168	0.999856979534826	0.935812569149748	-0.352095857258414	-0.0168327871373609	0.35211949397392	0.935953622895316	-0.00163638402698296	-95.552509262261	-89.030959564067	-15.0653165090964
7167	1647943716046	9.66606740717827	-0.160905837068286	-0.0558714839218411	-0.0142523522271114	-0.0372286211302135	-0.14520154357759	0.0140035775451017	0.0168048373463051	-0.00871239653168609	0.5615234375	0.437255859375	0.14794921875	0	0	0	-0.585149945617211	-0.397976034892384	-0.577564548527778	0.406981337507525	0.0160685358704789	-0.00436467456506678	0.999861366275806	0.935867295261994	-0.351962533143843	-0.0165765171845064	0.351986090370029	0.936003912854487	-0.00157076640897857	-95.4131007487984	-89.0459369139882	-15.1965132970593
7168	1647943716047	9.6888713515495	-0.111258090085837	-0.0290161794406611	0.0409397100795657	-0.0302287748706886	-0.123267437454311	0.0231625442799418	0.00154326756069068	-0.00843403152056622	0.56005859375	0.42919921875	0.149658203125	0	0	0	-0.585081568118411	-0.398064461469556	-0.577540133413741	0.407027809196732	0.0159841576227813	-0.00434943179552877	0.999862785160117	0.935950149110805	-0.351746094110921	-0.0164925333764584	0.351769562475995	0.936085342114044	-0.00155151367389422	-95.3742096723043	-89.0508318911189	-15.2221370638829
7169	1647943716047	9.71321622420295	-0.0861509997853683	-0.0275198487721072	0.0637110543061526	-0.036061683023892	-0.0993259878671857	0.0215445738679435	-0.00303872205674101	-0.00543338635155609	0.556884765625	0.439208984375	0.14990234375	0	0	0	-0.585034776699799	-0.39821251526254	-0.577501656628337	0.40700483944497	0.015837258559617	-0.00415559817907002	0.999865947137461	0.936028277961811	-0.351547706713313	-0.0162871962123434	0.351568263779831	0.936160745229357	-0.0016777945198031	-95.8814700982963	-89.0618321889653	-14.7026102582463
7170	1647943716048	9.71471551138002	-0.0614234617378317	-0.0519283778694966	0.0780416390405898	-0.0674539789946402	-0.0981865344839896	0.0213986480303138	0.00153967705239525	-0.000856607878848372	0.5576171875	0.433349609375	0.14697265625	0	0	0	-0.584985088651946	-0.398273629230876	-0.577465307443961	0.407068029956657	0.0158238699158372	-0.00416706153234558	0.999866111406459	0.936103598745769	-0.351347470492947	-0.0162790476818765	0.351368264867656	0.936235862684396	-0.00165887537171505	-95.8184976533592	-89.0624071955944	-14.7533327806468
7171	1647943716049	9.68882584122671	-0.061167846271502	-0.0287042472294373	0.0843226389135631	-0.0445439869361047	-0.124095250887839	0.0215390481160545	0.00612069587388611	-0.00543111519854977	0.561279296875	0.4365234375	0.153076171875	0	0	0	-0.584903710422354	-0.398408161524293	-0.57746190330293	0.407058148915796	0.0156173741291816	-0.00406032297955056	0.999869797224924	0.93618197073198	-0.351149200464157	-0.0160485728265294	0.351168642252828	0.936310713807486	-0.00168282727000774	-95.9860668115861	-89.0754030363776	-14.5735485203868
7172	1647943716049	9.74064921858203	-0.0850483540496556	-0.0741502601750028	0.0463005719110923	-0.0789787746988207	-0.0718148507495879	0.0123453451834977	-0.00151834473708846	-0.00419331052441038	0.556396484375	0.43359375	0.14892578125	0	0	0	-0.584874529843053	-0.398459192063873	-0.57744151398966	0.40707905193218	0.0155831403622699	-0.00403142288238528	0.999870448291174	0.936225953362388	-0.351033835475606	-0.01600657995866	0.351052887735079	0.936354096472499	-0.00169588679865423	-96.0478884253981	-89.0777176618682	-14.5046481279776
7173	1647943716050	9.71625236612723	-0.0603445501261458	-0.0758150162582116	0.0668440061755777	-0.0874446178828168	-0.0965752415691057	0.0138227107720042	-0.00151741778954031	-0.00262041443935785	0.559814453125	0.433349609375	0.1484375	0	0	0	-0.584834672023301	-0.398580751646758	-0.577426961151908	0.40703795320704	0.0154229779031568	-0.00386169045940227	0.999873601561415	0.936277063115933	-0.350906978131457	-0.0157972713356884	0.350923628209334	0.936402360123812	-0.00179641836779304	-96.4876351015417	-89.0890111543584	-14.0570313264338
7174	1647943716051	9.71629059612691	-0.0844316683764461	-0.0754332055846834	0.0439818749950718	-0.0788782202073686	-0.0961568307185008	0.00928790743815572	0.00916591764677003	-0.00428927655270103	0.561279296875	0.440673828125	0.14306640625	0	0	0	-0.584780605284155	-0.398601409310563	-0.577444239032919	0.40707089184419	0.0153501346066544	-0.0039327359393434	0.999874445595841	0.936310229554336	-0.350820411017618	-0.0157541500988394	0.350838320882233	0.936434500005986	-0.0017028796417391	-96.1691982982685	-89.0920579087729	-14.3702005558455
7175	1647943716051	9.71630475185796	-0.0837938367782145	-0.0743136359598897	0.0424510359412513	-0.0770042094690428	-0.0961349896022589	0.00637795184802348	0.0137435022974138	-0.0089607270568884	0.554931640625	0.433837890625	0.146240234375	0	0	0	-0.584702231752549	-0.39870827024319	-0.577495911634724	0.407005512823169	0.0150603745697248	-0.00383680847756535	0.999879224715928	0.936339270195132	-0.350756455542464	-0.0154492713658054	0.350773368727254	0.936458855367385	-0.00168996915345648	-96.2426659884285	-89.109505922982	-14.2927377569302
7176	1647943716052	9.64165336902391	-0.0586271040307132	-0.0532167643431595	0.0710137292047703	-0.0667387725766855	-0.171201396108668	0.00942820320419998	0.0137458226152129	-0.0088648721399165	0.55712890625	0.43359375	0.145263671875	0	0	0	-0.584625514454123	-0.39873354594546	-0.577535525229689	0.407034745795341	0.0149285528708531	-0.00393444254232739	0.99988082213385	0.936373660256254	-0.350668550106163	-0.0153602195539937	0.350687192077908	0.936491371091225	-0.00155086562597823	-95.7654086474734	-89.1154146426994	-14.7646522412632
7177	1647943716053	9.64166330296924	-0.0578536341869471	-0.0522534329195441	0.0697031700461181	-0.0650493103948005	-0.171180285858695	0.0109112530787102	0.00611408166655889	-0.0072904225281834	0.55517578125	0.438232421875	0.1474609375	0	0	0	-0.584570761950225	-0.398847600570423	-0.577554465694594	0.406974759596197	0.0147028613508975	-0.00379088812459233	0.999884720873023	0.936409471194477	-0.350584273141668	-0.0150986649412742	0.350601095442351	0.93652351630536	-0.00160476841570018	-96.0669309673089	-89.1300042283917	-14.4578760245947
7178	1647943716053	9.69040018659235	-0.0570734770098362	-0.0488765003642056	0.0715668427051992	-0.0623805360129521	-0.122460899878822	0.0109162442403897	7.56615219770489E-06	-0.00728905405072526	0.5615234375	0.434326171875	0.152587890625	0	0	0	-0.584533797229214	-0.398900632230171	-0.57754771147394	0.406985462239599	0.014633853155168	-0.00376524209001605	0.999885830129538	0.936448847188561	-0.350482238263978	-0.0150252208199129	0.35049879734608	0.936561809820086	-0.0016029489936682	-96.0895038317822	-89.1342001296908	-14.4290405473736
7179	1647943716054	9.690362142767	-0.031950323961682	-0.0488114818702349	0.0927793723199337	-0.0692780704780585	-0.122841422242988	0.00633957886109325	0.00153024096083045	-0.00743371786214403	0.561279296875	0.438720703125	0.147216796875	0	0	0	-0.584487093262896	-0.399022664272195	-0.577569466967407	0.406902030018524	0.0143888484482088	-0.00358118279856662	0.999890062041872	0.936475571544452	-0.350423302727848	-0.0147313545133843	0.350437533578848	0.936584584559809	-0.00168849758757894	-96.5386678467492	-89.1503981637197	-13.976154288865
7180	1647943716056	9.71481697400767	-0.0801532195448932	-0.0473903312545636	0.0479860656262616	-0.0508018333409056	-0.0976754885700544	0.000148355057395805	-0.00458106886966167	-0.0045739422268405	0.555419921875	0.4326171875	0.149658203125	0	0	0	-0.584490608130342	-0.399045964319865	-0.577565411425465	0.406879887549614	0.0143610277699254	-0.00352226259212651	0.999890671297429	0.936476736021232	-0.350422150935286	-0.0146846526996092	0.350435562939054	0.936585238939906	-0.00173390526509432	-96.7340774226275	-89.1527556444607	-13.7806426684834
7181	1647943716057	9.71631050428945	-0.0553668733033268	-0.0720702536023724	0.0606621280028776	-0.0804229100176718	-0.0964740213557782	-0.00752809853328861	-0.00153451369352523	-0.00329004940140355	0.56005859375	0.438232421875	0.140869140625	0	0	0	-0.584491810081357	-0.399123958169999	-0.577596234310466	0.406757888765419	0.0141653122501655	-0.00331428013872542	0.999894174138453	0.9364530191692	-0.350496171883623	-0.0144283188145843	0.350506899814747	0.936558299862901	-0.00186122007493733	-97.3504322658739	-89.1664390389707	-13.1686967343713
7182	1647943716057	9.74225734525961	-0.0792887370910942	-0.0953336527475465	0.030191713372181	-0.093333103293769	-0.0701347852857363	0.00172440245125868	-0.00763303398989602	-0.00605035966014203	0.56640625	0.42822265625	0.14501953125	0	0	0	-0.58449793627411	-0.399162338238767	-0.577583180500359	0.406729959341769	0.0141341946697016	-0.00322164116498613	0.999894917263431	0.936459892920616	-0.350480335811207	-0.0143667380004201	0.350489790852955	0.936564549424047	-0.00193681955386643	-97.6779112774076	-89.169370941129	-12.8402019634579
7183	1647943716058	9.7437899777105	-0.0787796305299003	-0.120294347148484	0.0202738729545579	-0.113750697401582	-0.0685214250353407	-0.00137676401148263	-0.0045823997843418	-0.00462206858677986	0.556884765625	0.4326171875	0.149658203125	0	0	0	-0.58451303642163	-0.399282866546282	-0.577573018319167	0.406604366977825	0.0139652019845413	-0.00291534156207324	0.999898231780169	0.936459504426473	-0.350492162474292	-0.0141010855404745	0.350497602991599	0.936561127117537	-0.0021645945284991	-98.7270959011648	-89.1825759668432	-11.7915825524545
7184	1647943716058	9.74225557721961	-0.0782370098062536	-0.0963773952248847	0.028798862666452	-0.0909257225309316	-0.0701078033687317	-0.00437906122827178	-0.00458576525235343	-0.00624309707362417	0.565673828125	0.437744140625	0.1552734375	0	0	0	-0.58452264067029	-0.399298065702655	-0.57758101512518	0.406564273192956	0.013922451386171	-0.00285009169072703	0.9998990160635	0.936445130806946	-0.350533092978404	-0.0140380808857677	0.350537704584487	0.936546009390008	-0.00221132546010133	-98.9518638509266	-89.1857318774684	-11.5692849876533
7185	1647943716059	9.72095810893476	-0.0776221171705418	-0.14686817978676	0.00924831919349427	-0.136138151642599	-0.0912675666311386	-0.0028106667214533	-4.57880739286354E-06	-0.00772146822379656	0.558349609375	0.423828125	0.14501953125	0	0	0	-0.58450101139842	-0.399401353060538	-0.577610865044229	0.406451492100217	0.0136884955125378	-0.00264060626548479	0.999902821422739	0.936442585536612	-0.350551487485837	-0.0137454943516822	0.350553717829533	0.936539738516214	-0.00232574630472859	-99.6035253775069	-89.201221410388	-10.9186352064931
7186	1647943716059	9.742267081297	-0.0768786808427533	-0.096307630965651	0.0272208964458426	-0.089145899439768	-0.0700868185527703	0.000185234367942689	0.00610547563113031	-0.00610196962462691	0.553955078125	0.431640625	0.143798828125	0	0	0	-0.584470707847555	-0.399407267033538	-0.577640943113	0.406446512530864	0.0136095517606485	-0.00267659748153776	0.999903803336499	0.936443989811734	-0.350550134984597	-0.0136841809312919	0.350553040275439	0.936540142593046	-0.002264346582044	-99.395700971605	-89.2052672386357	-11.126386981502
7187	1647943716059	9.71791188689314	-0.0763417680009289	-0.0972468044812746	0.0256911757959298	-0.0885147058235044	-0.0944261233761807	0.00171035847544259	0.00610716216008718	-0.0060540072683743	0.560791015625	0.435791015625	0.150146484375	0	0	0	-0.58447379932791	-0.399470709021805	-0.577657534771482	0.406356128358549	0.0134698503107017	-0.00250903264938979	0.999906129538054	0.936429684738143	-0.350595699158134	-0.013494490469898	0.350596646695074	0.936523550417705	-0.00237293893437007	-99.9732161031612	-89.2149352003324	-10.5515747095497
7188	1647943716060	9.7422896100408	-0.0757765636477178	-0.0948919843869005	0.0266128567377386	-0.0871580943820088	-0.0700671528258549	0.00318236793283579	0.0106890745009296	-0.00448201371220548	0.562744140625	0.4326171875	0.148681640625	0	0	0	-0.584427621603747	-0.399471132341608	-0.577691464448577	0.406373893644215	0.0133907726579446	-0.00259353191846945	0.99990697607318	0.936441387013517	-0.350566145980308	-0.0134501293939756	0.35056841828069	0.936534383183395	-0.00226566093539876	-99.5616539410498	-89.2184831769117	-10.9613601981673
7189	1647943716060	9.71634359875716	-0.0509104567821138	-0.0708857496613255	0.055772649666596	-0.0720980779050598	-0.0963793853118417	0.00780234905920953	0.0137473584086395	-0.00586367308589299	0.564453125	0.4365234375	0.14697265625	0	0	0	-0.584364922662817	-0.399577273735286	-0.577720864053921	0.406317908431745	0.0131532111021358	-0.0024787809512592	0.999910420329091	0.936474551607818	-0.350487519203858	-0.0131876105971495	0.350488811845171	0.936564121951787	-0.00228872104888778	-99.8456628778142	-89.2330878758459	-10.6724739326461
7190	1647943716061	9.71475487049846	-0.0259807328899012	-0.0452721954493309	0.0871663074332332	-0.0578527595515528	-0.0983555926327693	0.000130350021792668	0.0122120772156363	-0.00457906906571972	0.554443359375	0.43212890625	0.146484375	0	0	0	-0.584320425339565	-0.399565861120705	-0.577765543110578	0.406329595712643	0.0130681996420182	-0.00257749125519402	0.999911285413335	0.936475466940072	-0.35048676454974	-0.0131425908720303	0.350489546174334	0.936564137907429	-0.00216647368427925	-99.3606684959747	-89.2368000070156	-11.1574584174717
7191	1647943716062	9.71475966019133	-0.02546469977683	-0.0445304405025825	0.0858236186433816	-0.0556347067137516	-0.0983306813871003	0.00171464222762465	0.0030537310161982	-0.00605310484849237	0.556640625	0.42919921875	0.152099609375	0	0	0	-0.584303063183824	-0.39967561494816	-0.577778517746074	0.406228159537175	0.0128627744939197	-0.00235643558003157	0.99991449446624	0.936483179956386	-0.350476170429699	-0.0128727471701993	0.350476536577121	0.936568684706194	-0.00230133366037943	-100.136010336487	-89.2507308768043	-10.3813601417906
7192	1647943716062	9.71482040009126	-0.0493629270710576	-0.0446632249810091	0.0629745391981401	-0.0470663309333118	-0.0979570089525836	0.000152382703380873	-0.00610764697946136	-0.00457343123344269	0.5546875	0.428466796875	0.14990234375	0	0	0	-0.584311503318556	-0.399701506376591	-0.577769516487878	0.406203346499332	0.0128421832352942	-0.00228344606616071	0.999914928483326	0.936484198344549	-0.350475094186054	-0.0128278839347468	0.350474570519343	0.936569268249465	-0.00236245422021275	-100.434982607775	-89.2526349286531	-10.0822901547245
7193	1647943716063	9.71482002554303	-0.0487544712985656	-0.0454076194731068	0.0621301075287791	-0.0457309768978335	-0.0979451939336773	-0.00889797789237146	-0.00917315987264178	-0.00791229768997711	0.55908203125	0.43408203125	0.14599609375	0	0	0	-0.584357700225246	-0.399753434751956	-0.577789147378323	0.406057841647352	0.0127137851516894	-0.00203363264581868	0.999917108567195	0.936429623801003	-0.350628441281416	-0.0126196605531705	0.350625040941216	0.936512445460725	-0.00255346081705027	-101.438784107821	-89.2622733820537	-9.08775917957533
7194	1647943716063	9.7422690100154	-0.047853162013302	-0.093197013733245	0.045986084173808	-0.0900061008156781	-0.0703793616074648	-0.0119078394355839	-0.00307080959230875	-0.00953545465862932	0.554443359375	0.4306640625	0.15380859375	0	0	0	-0.584371981942615	-0.399752322286252	-0.577823415401159	0.405989615829455	0.0126363628817769	-0.00197249915079978	0.999918212445508	0.936388726593121	-0.350741025330799	-0.0125254085447851	0.350737045437795	0.936470417256733	-0.00258506490558308	-101.661296838528	-89.2672021244425	-8.87210521916106
7195	1647943716064	9.73925795021968	-0.0713231123557845	-0.0443148519446575	0.0389200802991454	-0.0341580253002127	-0.0732051081901819	-0.00886978039112242	0.00609314749716879	-0.00944103429371202	0.554931640625	0.435546875	0.15185546875	0	0	0	-0.584357191084145	-0.399806233834882	-0.577890187069361	0.405862760430117	0.0123958141514129	-0.00182891753552988	0.999921496344674	0.936347508662261	-0.350860790165625	-0.0122494467765273	0.350855649539097	0.936425843825875	-0.00263670276996891	-102.147612345147	-89.2820645291302	-8.39304697942355
7196	1647943716065	9.69362437268288	-0.070557704957036	-0.0953929783119342	0.0200509091049282	-0.0825598690189437	-0.11870915964176	-0.001248405801519	0.00915702196759072	-0.00920044651215042	0.5576171875	0.434326171875	0.1455078125	0	0	0	-0.584315133910083	-0.399809902383267	-0.577938369988908	0.40585108935974	0.0122785649016914	-0.00188388078626989	0.999922840941809	0.936343787384894	-0.350873870443589	-0.0121589006759586	0.350869703265568	0.936420833831199	-0.00254426752015174	-101.818695347301	-89.2882395014698	-8.72277968510558
7197	1647943716066	9.74075195754547	-0.0451771350797611	-0.0672067543840929	0.051727458574306	-0.0637673434762516	-0.071944867659683	-0.00281746524843453	0.00610168289244704	-0.00772313305031052	0.560791015625	0.437744140625	0.148193359375	0	0	0	-0.584283371556811	-0.399891939473206	-0.577990067769917	0.405742356706679	0.0120278366073692	-0.0017296831924431	0.99992616694564	0.936330525807632	-0.350919153436936	-0.0118698859264453	0.350913775146187	0.936404162713493	-0.00260124306687498	-102.360761725433	-89.3037491797393	-8.18341136441781
7198	1647943716066	9.69062687162018	-0.0933884627226285	-0.0454781026657094	0.0127490701108198	-0.0265779066027108	-0.121548633723645	-0.00586322746967493	0.00304393273890347	-0.0078193602985457	0.565185546875	0.435546875	0.14453125	0	0	0	-0.584270963706722	-0.399890706862221	-0.578026965144778	0.405708874810461	0.0119445002615026	-0.00173228192648278	0.999927161403685	0.93631039662949	-0.350975462930527	-0.0117926071854162	0.35097032649076	0.936383053894094	-0.00257027293109552	-102.29568068565	-89.3084540371507	-8.25193470906394
7199	1647943716067	9.69056119671508	-0.0682356178763648	-0.0451884738713553	0.0341514844611182	-0.0327145578454722	-0.121895970664097	0.00633765805379067	0.0030623229843033	-0.00743249094916321	0.557861328125	0.441650390625	0.1494140625	0	0	0	-0.584231768198388	-0.400042879744733	-0.578021136056296	0.405623596041348	0.0117145212754595	-0.00148250561323865	0.999930283654012	0.936353541567002	-0.350870385400052	-0.0114899018338849	0.350862957842831	0.936422861119017	-0.00272212921334863	-103.328481767761	-89.3234382177028	-7.21260037544665
7200	1647943716068	9.739294856448	-0.0674372344645352	-0.0422384787026945	0.0359592473090319	-0.0299518801715116	-0.0731798830241512	0.00477824653000087	-0.00609980906089836	-0.00595440457472533	0.560302734375	0.43603515625	0.14404296875	0	0	0	-0.584228074242856	-0.400085650865455	-0.578005948781469	0.405608373201643	0.0116811902895995	-0.0014055664975991	0.99993078469274	0.936370643846896	-0.350826639120564	-0.0114318251000705	0.350818424737309	0.936439369989425	-0.00278194152390149	-103.677114591857	-89.3258737930802	-6.86126137517368
7201	1647943716068	9.7423091524631	-0.0425278049453094	-0.0915685463361423	0.039957235172894	-0.082035901457024	-0.0702823959321517	0.00472991064848527	-0.00609968495988071	-0.00442929024234239	0.562255859375	0.434326171875	0.14111328125	0	0	0	-0.584209502915559	-0.400237737373718	-0.577989311486981	0.40550877437107	0.0114762187775445	-0.0011140954030327	0.999933525387565	0.936404853799625	-0.350744774980078	-0.0111378904949561	0.350733868029697	0.936470427517927	-0.00298197942975637	-104.988435477882	-89.3393553185286	-5.5448197720871
7202	1647943716069	9.76682610206491	-0.0909957344475124	-0.0905231403912556	-0.0048582321548073	-0.0635052751203652	-0.0452255508499082	0.00310579305990696	-0.00457518626717229	-0.00142764454853049	0.5615234375	0.435546875	0.1435546875	0	0	0	-0.584213706694487	-0.400259759352924	-0.577972709518066	0.405504644862882	0.0114793441901687	-0.00106676132269157	0.999933541130231	0.936415711931552	-0.350716216074735	-0.0111243080658344	0.350704774852991	0.936481178562869	-0.00302706009394615	-105.2223130117	-89.3394335517039	-5.30917836305799
7203	1647943716070	9.79265832990651	-0.0663624677618461	-0.113353703290879	0.00942917492939097	-0.0908933278433027	-0.0195744921089673	-0.00148417019208922	0.00457730392764598	-0.00157433699370281	0.5595703125	0.438720703125	0.14453125	0	0	0	-0.584219868100471	-0.400358018028465	-0.577958841373624	0.405418525470957	0.0113540701567544	-0.000836225534083579	0.99993519080875	0.936424659476307	-0.350698553210548	-0.010926202483516	0.35068496149045	0.936488027421005	-0.00319879376602517	-106.318106919163	-89.34768363089	-4.21222028597899
7204	1647943716071	9.76513535348639	-0.0416558277220831	-0.0652065577972686	0.0484716589537392	-0.0552230073818841	-0.0475219111891043	0.00779423131973256	0.0152781403044981	-0.00586213020229624	0.558837890625	0.436279296875	0.145751953125	0	0	0	-0.584148630528919	-0.400366668717035	-0.57799915369024	0.405455159499764	0.0112470178275808	-0.000958195619446878	0.999936291196165	0.936452760581372	-0.350625288430889	-0.0108689609568892	0.350613365103946	0.936515343693797	-0.00304618393677486	-105.65629861208	-89.3532451986487	-4.86958528982859
7205	1647943716073	9.73768242667975	-0.0413644334243305	-0.0162366964460813	0.0632448603222931	-0.00881535544021081	-0.0751129357937987	1.34944975243192E-05	0.0213728575483033	-0.00153030154588988	0.562255859375	0.4384765625	0.1455078125	0	0	0	-0.584079997075679	-0.400432546478299	-0.5780543058178	0.405410350462937	0.0110139904928137	-0.000929116264304697	0.999938912512356	0.936467678568511	-0.350592446916848	-0.0106406372629509	0.350580916494222	0.936527667988419	-0.00299133452604078	-105.70192765589	-89.3666905430849	-4.82193086193616
7206	1647943716073	9.71651543087849	-0.0655641490502006	-0.0644309091135758	0.022448343610741	-0.0472709101678008	-0.0958780463245166	-0.00598978195411327	0.0213624178359118	-0.00477479312311845	0.56494140625	0.43994140625	0.14697265625	0	0	0	-0.584021249415966	-0.40038626360273	-0.578137567487951	0.405421969320823	0.0108955859547199	-0.00111117046211751	0.999940023954891	0.936447514135145	-0.350647733420541	-0.0105934091371128	0.35063847403959	0.936506771116601	-0.0027799597022809	-104.704204260507	-89.3724783511711	-5.82309432470719
7207	1647943716075	9.7119304218024	-0.089438876439822	0.0111191794127689	0.0237343112681429	0.032065187724651	-0.100420722161619	0.00472193114339155	0.0290135466116825	-0.00596041407251936	0.560302734375	0.43505859375	0.1435546875	0	0	0	-0.583901812074668	-0.400485995775925	-0.578200861786863	0.405405234885064	0.0105894612325896	-0.00112231507871718	0.999943300252404	0.93650030965508	-0.350515125430304	-0.0103110067654705	0.350506823509533	0.93655639833031	-0.00266071791343131	-104.469319559368	-89.3898589500098	-6.04986014447411
7208	1647943716075	9.73612867220704	-0.0400127081886138	0.0152612971435101	0.0703500211267256	0.0163568364073115	-0.0767324376821925	-0.00141962514174618	0.0244234568938752	-0.00463004537246243	0.5654296875	0.431640625	0.149169921875	0	0	0	-0.583825300365793	-0.400446583081857	-0.57828331202527	0.405436756823972	0.0104618902622981	-0.00133292780945937	0.999944384531257	0.936496314402343	-0.350527140628249	-0.0102653199566188	0.350521328827459	0.936551625371735	-0.00241889449828686	-103.259161632591	-89.3957210804541	-7.26081769507271
7209	1647943716075	9.68748495002771	-0.0641346592212223	0.0144235343662156	0.0452304010038248	0.0238853973932918	-0.125114434551905	-0.00904242839649659	0.0228836909859929	-0.004875390461086	0.5556640625	0.435302734375	0.146484375	0	0	0	-0.583787429096239	-0.400456205955231	-0.57835238350863	0.405383257215974	0.0102866952036575	-0.00134614821022355	0.999946184445335	0.936471343971177	-0.350598483761819	-0.0101056966474845	0.350593219875405	0.936524901467606	-0.00234587051770979	-103.068808028293	-89.4055798974278	-7.45553353340179
7210	1647943716076	9.71184651146762	-0.0637304396335717	0.0180675440031712	0.0461404331784123	0.0253198507798112	-0.10075756794437	-0.00608557772711523	0.019835996792471	-0.00172603219960966	0.55517578125	0.441162109375	0.146728515625	0	0	0	-0.583739827242043	-0.400403958944351	-0.578424421732321	0.40540063159392	0.0102037160106402	-0.00152377615685051	0.9999467797267	0.936450727441674	-0.350653995129882	-0.0100901324774637	0.350650708331716	0.936503846124337	-0.00215103249376075	-102.034270005275	-89.4088766611572	-8.49352192415921
7211	1647943716077	9.66320641990492	-0.0880092546138512	0.0165354911705477	0.0199068833168475	0.0324153396941869	-0.149140902981477	-0.00140073292866218	0.0137372517399263	-0.00462684704116168	0.55908203125	0.440673828125	0.146484375	0	0	0	-0.583671076123874	-0.400464258054246	-0.578494573642814	0.405339957545861	0.00994481257376195	-0.00149512294643817	0.999949431376531	0.936452740737119	-0.350655793675565	-0.00983761798904209	0.350652769943161	0.936503218878149	-0.0020870941650763	-101.977953325315	-89.4237910146865	-8.54992824595472
7212	1647943716077	9.71184544829731	-0.0631240238069864	0.0205844936862614	0.0445404515799346	0.0267095361425787	-0.100753820838644	4.14460887663195E-05	0.00457999722049613	-0.00152575963195199	0.560791015625	0.4375	0.144775390625	0	0	0	-0.583655274200499	-0.400460624120391	-0.578509512501538	0.405344980692101	0.0099160649486793	-0.00152994359528663	0.999949664197418	0.936453765105245	-0.350653470313654	-0.0098229108313907	0.350650848389311	0.936504032575187	-0.00204438114590516	-101.756780323386	-89.4251190059872	-8.77096889381339
7213	1647943716078	9.69074469445641	-0.0874092157325694	-0.0294223952641052	0.00233844836578772	-0.0100706945454283	-0.121509317645616	0.00162156003775489	0.00152931101464909	-0.0030007736986249	0.552490234375	0.43212890625	0.13720703125	0	0	0	-0.583620173824519	-0.400573640446548	-0.578508556502323	0.405285209868354	0.00973721726599469	-0.00135620813149623	0.999951672481935	0.936487638799235	-0.350569314482727	-0.00959469224852405	0.350565384737495	0.936535806278978	-0.00214349743112391	-102.593343346897	-89.4367040545848	-7.92919558003095
7214	1647943716079	9.71837287780131	-0.11159682377971	-0.0761059903838181	-0.0366869233750492	-0.0456830193879751	-0.0935523978096633	0.0015113571791728	0.00763617595158405	4.84120488346916E-05	0.5556640625	0.434326171875	0.150146484375	0	0	0	-0.583595649808615	-0.400564019795149	-0.578526032431314	0.405305086779446	0.00971219168966758	-0.00142424871288216	0.999951821263498	0.936493926402087	-0.350552505352514	-0.00959514476592382	0.350549282048311	0.936541997193228	-0.00207083285997667	-102.178829054431	-89.437571814109	-8.34270150791994
7215	1647943716080	9.71670285146562	-0.0870520800695172	-0.0509300026452617	-0.00585950956131162	-0.0301846856887292	-0.0955097515410763	0.00923330287820535	0.00917649750697947	-0.00275361605579295	0.560546875	0.44091796875	0.14404296875	0	0	0	-0.583566494487899	-0.400611605101122	-0.57854293766663	0.405275903114747	0.00959682226873737	-0.00137200302694113	0.999953008200904	0.936506043187069	-0.350523568425657	-0.00946884640508688	0.350520087978481	0.936552905919275	-0.00207902326118325	-102.383620220686	-89.4445430985485	-8.13611940993465
7216	1647943716080	9.74098295419043	-0.0623686467165111	-0.0483735395527978	0.0178874603263846	-0.0372827262874298	-0.0714724117317402	0.0137559913428458	0.0107117019898355	-0.00107963956915958	0.562255859375	0.436279296875	0.14794921875	0	0	0	-0.583506043603462	-0.400634924262141	-0.57854680556451	0.405334366061902	0.00955050246513889	-0.00146400617010994	0.999953321204843	0.936555604512407	-0.350391418301329	-0.00945799329571378	0.350388909012631	0.936602215813478	-0.00197529092059312	-101.796593692716	-89.4463961031169	-8.7150877119403
7217	1647943716081	9.76216115686824	-0.0620844686308734	0.00314555908151435	0.0347835780743379	0.0114264167415272	-0.0503969436376224	0.0122752127970833	0.0137620961834132	-0.00265539239120343	0.56005859375	0.424560546875	0.1484375	0	0	0	-0.583422207723794	-0.40074629532823	-0.578546939394349	0.405344758486927	0.00937169139626171	-0.00141336212925175	0.999955085895294	0.936630515559361	-0.350196067095749	-0.00927318249987963	0.350193444717886	0.936675353042965	-0.00195813136921275	-101.923456518292	-89.4569614896391	-8.57625226409149
7218	1647943716082	9.73948899668217	-0.086341583183458	-0.021445365260808	0.00253886376981455	-0.00420418099485661	-0.0727932962166253	0.0122752132872965	0.0137621530083831	-0.00265539558421294	0.558837890625	0.434814453125	0.149658203125	0	0	0	-0.583352827996936	-0.400764123360002	-0.578565539221636	0.405400434534355	0.0093000685053331	-0.00152767257056952	0.999955586484877	0.93667521145765	-0.350077210213692	-0.00924635764867376	0.350075787461179	0.936719602178537	-0.00182480900906706	-101.164104820359	-89.459996206049	-9.32836489716394
7219	1647943716082	9.71495165477822	-0.0374895650253899	-0.0218141821119693	0.0477515772790369	-0.022321676390482	-0.0977818866931983	0.00760278551923458	0.0122278251392557	0.000245237253390185	0.556884765625	0.43701171875	0.1455078125	0	0	0	-0.583341458142848	-0.400738980139767	-0.578583529232834	0.405415974905769	0.00929873899403671	-0.00159868911788114	0.999955487832446	0.936669333155518	-0.35009231417549	-0.00926994505100504	0.350091550568018	0.936713838772736	-0.00175797398336747	-100.7381868602	-89.4593967991841	-9.75522795287632
7220	1647943716083	9.69228716995106	-0.0618889266039667	-0.0468627882989234	0.0155201345057641	-0.0379582857511815	-0.120176066924268	0.00771428388644187	0.0061200715821372	-0.00280217951203327	0.555908203125	0.430908203125	0.150146484375	0	0	0	-0.58330356126678	-0.400758805090573	-0.578589086643858	0.405442973021478	0.00925409791800563	-0.00164168245663293	0.999955832299825	0.936697835330035	-0.350016751539763	-0.00924331810436113	0.350016466697998	0.936742002111715	-0.00170132888826385	-100.429156191131	-89.4614926668038	-10.0596476125859
7221	1647943716084	9.69220123391619	-0.0372014334480353	-0.0462161344947591	0.0377820350334859	-0.0458227161724292	-0.120486508603506	0.00466135056627124	0.0076410427261965	-0.00290326215080758	0.5595703125	0.4306640625	0.147216796875	0	0	0	-0.583271532321383	-0.400786512408052	-0.578619782066144	0.405417857101762	0.00913863854703767	-0.00163085779191346	0.999956911865891	0.936700310695864	-0.350013065229611	-0.00913138055519852	0.350012875802846	0.936743398413586	-0.00167101788948804	-100.370228904034	-89.4681146437876	-10.118340783178
7222	1647943716084	9.66793645333041	-0.0614402804900785	-0.0470536630971353	0.0140806198772415	-0.0386441289220593	-0.144528667684513	0.0107615479160346	0.0076526557768398	-0.00270233567243317	0.55224609375	0.4306640625	0.154052734375	0	0	0	-0.583223219236188	-0.400811731441082	-0.578623517264208	0.40545709730103	0.00908956241599868	-0.00168860684272093	0.999957263317796	0.936739440117512	-0.34990899637485	-0.00910579948574275	0.349909418540592	0.936782174714526	-0.00159873503403962	-99.9581125947693	-89.4702882840121	-10.5241066638609
7223	1647943716085	9.66775745797947	-0.0124355373149427	-0.0462900583509718	0.0596597907729555	-0.0557487173676527	-0.145155908545711	0.0137584765184201	0.00918590733565006	-0.00107755769957849	0.565185546875	0.435302734375	0.14208984375	0	0	0	-0.583188203101752	-0.400803469813604	-0.57865327703344	0.405473159810592	0.00903392712767243	-0.00176903463192046	0.999957628440887	0.936744456062092	-0.349896190517179	-0.0090818444438267	0.349897430967402	0.936786809459888	-0.00150380330334898	-99.4019263078888	-89.472555963871	-11.0795308162721
7224	1647943716086	9.66614921864643	-0.0123750288266879	-0.0213355562602908	0.0682258177347987	-0.0329005079388212	-0.146803447251374	0.0076194615541713	0.00306811503183469	0.00024988263398609	0.554443359375	0.449462890625	0.152587890625	0	0	0	-0.583165536701401	-0.40081962667762	-0.578644204259443	0.405502735565048	0.00902902349394086	-0.00179523006831012	0.999957626044098	0.936772000915947	-0.349822316638553	-0.00908653297847928	0.349823805700354	0.936814348700231	-0.00147683265243898	-99.2315513500892	-89.4725410462815	-11.2453950907405
7225	1647943716087	9.68899035767783	-0.0367598827109569	0.00511458094272222	0.0529188737019539	0.00142284173807947	-0.123770542353034	0.00298818243422561	0.00611354264762222	0.00162175135063738	0.553955078125	0.43115234375	0.138427734375	0	0	0	-0.58309450551603	-0.400933473451182	-0.578651097006081	0.405482497078538	0.00883051560005843	-0.00170157260883946	0.999959562504852	0.936829994396205	-0.349672588858648	-0.00886804378085954	0.349673538595424	0.9368704207368	-0.00149370499322532	-99.5609743299165	-89.4847343199299	-10.906777593635
7226	1647943716090	9.73771038259158	-0.0367249589761872	0.00900870444962945	0.0546734265892943	0.00433817024517724	-0.0750580136700023	-6.47706108359864E-05	0.00763440178969955	0.00151985335843837	0.55712890625	0.4365234375	0.145751953125	0	0	0	-0.583076404538224	-0.400915170526351	-0.578668229808596	0.40550217301858	0.00882021170402608	-0.00177409697773412	0.99995952740369	0.936830801599069	-0.349670027438074	-0.00888375408843123	0.349671636025491	0.93687124221601	-0.00142213497479127	-99.0948946475392	-89.4845107326001	-11.3727211472894
7227	1647943716092	9.71173303210531	-0.0369279789586216	0.03249486123695	0.0619980597678317	0.0272845772313103	-0.101065982107825	-0.00768997495493355	0.00761982504725029	0.00126741480999109	0.5556640625	0.42626953125	0.146240234375	0	0	0	-0.583093734809632	-0.400930473791367	-0.578678829995799	0.405446992004968	0.00877113380024563	-0.00168708719349486	0.999960109678711	0.93680727664151	-0.349734983719106	-0.00880724670451682	0.349735891271364	0.936847156637516	-0.00148709677763231	-99.5839505737406	-89.4882323365802	-10.887610193072
7228	1647943716092	9.76539384739671	-0.0612862511101805	-0.0368061812203338	0.0153084022277044	-0.0296579320317826	-0.0470888780872016	-0.00458080917026659	0.00304471590100134	-0.000153597863863141	0.565185546875	0.427001953125	0.15478515625	0	0	0	-0.583094894523386	-0.400913965254156	-0.578694362601676	0.405439479007645	0.00876165431445963	-0.00170930919012063	0.999960155044073	0.936792854321419	-0.349773642652397	-0.00880607733343119	0.349774758245936	0.936832683656888	-0.00146332711009872	-99.4347666614734	-89.4885234257888	-11.0391643569572
7229	1647943716093	9.69249747140239	-0.110375724712453	-0.0410834432057066	-0.0318551794536283	-0.0170364618226837	-0.11954169886935	-0.00458935085178185	0.00762486897337669	-0.00015643392941594	0.563720703125	0.433837890625	0.146240234375	0	0	0	-0.583144435278579	-0.400808496117503	-0.578727023972703	0.405425885665127	0.0088551623274496	-0.00180334425835715	0.99995916619112	0.936720320751547	-0.349964801345347	-0.00892628200490231	0.349966608108936	0.93676111456913	-0.00140976591269293	-98.9748370916435	-89.4822154900218	-11.510817422737
7230	1647943716094	9.6954654349002	-0.0372579626192908	-0.0893746430641923	0.0197049716884286	-0.0883384733362753	-0.117160867671391	0.00604381765855931	0.0030657667876801	0.00172573020742748	0.561279296875	0.437255859375	0.14306640625	0	0	0	-0.583128471716668	-0.40081586868551	-0.578717286144015	0.405455456988027	0.00886588425597395	-0.00183387354804487	0.999959015662227	0.936742453333525	-0.34990502361702	-0.00894709842695535	0.349907090838481	0.936783385503491	-0.00138435023347333	-98.7954108977864	-89.4812619864845	-11.6865969293577
7231	1647943716095	9.69384513371727	-0.0374085549442219	-0.0650104976628566	0.0282041397331883	-0.0639715242783716	-0.11880416669719	0.00758019415817446	-0.00303820047010163	0.00178020670606055	0.5615234375	0.4306640625	0.142822265625	0	0	0	-0.583137990700081	-0.400913906321266	-0.578638705102377	0.405456992143361	0.00889057735133636	-0.00164995826527131	0.999959116800324	0.936802477368884	-0.349745334480565	-0.00890614420500979	0.349745730538462	0.936843358650101	-0.00156375295900701	-99.9585622913214	-89.4819024377304	-10.513626500832
7232	1647943716096	9.71829134587211	-0.0621124935841914	-0.0636535997854576	0.00627856326086227	-0.0539078495660553	-0.0941406128611302	-0.00172191595762881	-0.00305301187897886	0.00605156570060298	0.55517578125	0.440185546875	0.150146484375	0	0	0	-0.583164549896697	-0.40089886610628	-0.578617174994788	0.405464390174442	0.0089645279114991	-0.00163730639351028	0.999958477371485	0.936797333621371	-0.349757454910333	-0.00897097846037531	0.349757620301852	0.936838855920494	-0.00160158620303691	-100.122355330776	-89.4778665076826	-10.3505745300755
7233	1647943716097	9.71828510644532	-0.0626284605676212	-0.0640991527051295	0.00570154224936014	-0.0528768798753777	-0.0941345932082562	-0.00014072023602264	-0.00610441402993744	0.00457912973859976	0.55908203125	0.435791015625	0.147705078125	0	0	0	-0.583190593181703	-0.400948322425179	-0.57858080298159	0.405429931295147	0.00896939433122701	-0.00148937042233749	0.999958665016248	0.936806530383731	-0.349734027108896	-0.00892383956550463	0.34973286176127	0.93684784893703	-0.00174165046238162	-101.043497515032	-89.4790476375488	-9.4279568080861
7234	1647943716098	9.77023203034722	-0.0628863567802799	-0.110178607712144	-0.00955675237774116	-0.0955582516094157	-0.042103694715939	0.00600999601839758	-0.0060940152812083	0.00325631589404241	0.557861328125	0.4404296875	0.147705078125	0	0	0	-0.583204716266334	-0.400970185505566	-0.578540375735075	0.405445684284166	0.00902788795990023	-0.00143799051378535	0.999958213838092	0.936828803589918	-0.349673414861953	-0.00896078696680652	0.349671688878679	0.936870554090619	-0.00180966147932621	-101.417509356176	-89.4762121937111	-9.05022568438079
7235	1647943716099	9.79280036413471	-0.0143282740133129	-0.0843409250537251	0.04439386032122	-0.0874078343922523	-0.0200040378497093	-0.000159690267072105	0.00458273301061619	0.00457199730486722	0.555908203125	0.43408203125	0.153564453125	0	0	0	-0.583175702041047	-0.401018754742545	-0.578547068020245	0.405429832374048	0.00893449685983289	-0.00139169395866984	0.999959118141231	0.93684926927311	-0.349621218731779	-0.00885720469138035	0.349619252084752	0.936890103801098	-0.00181988221265839	-101.610919408886	-89.4819109342622	-8.85360643099116
7236	1647943716100	9.74093485773591	-0.0392316463788453	-0.038149595544095	0.0369188005684919	-0.0360506659702463	-0.0717354733620343	-0.00164222265465334	0.00915927797065449	0.00299327377625356	0.563232421875	0.43505859375	0.1533203125	0	0	0	-0.583160476735936	-0.40098867593573	-0.578567091146532	0.405452908716495	0.00893640562710274	-0.00148192513722178	0.999958971434506	0.93684491483479	-0.349632041169287	-0.00889051944449842	0.349630871352435	0.936885926719836	-0.00173611971114851	-101.049533421086	-89.4809821653168	-9.41568021819752
7237	1647943716101	9.73931743907707	-0.0394850620781804	-0.0126764983760552	0.0448192258943028	-0.0135123455250498	-0.0733941410319776	-0.00775034396820965	0.0137285746974065	0.00278771268743866	0.562744140625	0.443115234375	0.160400390625	0	0	0	-0.583134739304766	-0.400909537622727	-0.578659304131364	0.405436589618277	0.00884990477067299	-0.00165075222296474	0.999959476280238	0.936787867048657	-0.349785428883665	-0.00886825186254608	0.349785893563444	0.936828388104123	-0.00154916308181247	-99.9088111018428	-89.484185259889	-10.5658281235295
7238	1647943716102	9.6680305160962	-0.0887070819970365	-0.0408120607545387	-0.0119641340791158	-0.0234950761950639	-0.144199712427053	-0.0137384841640703	0.00760936277619928	-0.000461353680342005	0.556396484375	0.437255859375	0.140625	0	0	0	-0.583141499602151	-0.400856834839613	-0.578706688516111	0.405411344279904	0.00882473325816746	-0.0017160014818885	0.999959588894389	0.936741024658464	-0.349910879783056	-0.00886729560004906	0.349911955789929	0.936781421436378	-0.00148042119175651	-99.4782811800699	-89.484902479872	-11.0040483841746
7239	1647943716103	9.66966080630334	-0.0887538083091287	-0.0640785954700608	-0.0220951526476294	-0.0455880585238579	-0.142539650112349	-0.0122774332136588	0.0152464087020648	0.00111011463559901	0.55908203125	0.4345703125	0.147705078125	0	0	0	-0.583077865627317	-0.40086214096984	-0.578793758840483	0.405373323345128	0.0086146573287626	-0.00178741597018767	0.999961295662616	0.936722782240152	-0.349964025314405	-0.00869541361910459	0.349966022509867	0.936761435014213	-0.00134050689486331	-98.763868878588	-89.4958975021541	-11.7217212019601
7240	1647943716104	9.66632636249694	-0.0643484953596378	-0.0139887797095098	0.0178648625845381	-0.00848273540249786	-0.146156934474183	-0.00154870956714335	0.0137378727892844	-5.78753288811651E-05	0.557373046875	0.438720703125	0.14501953125	0	0	0	-0.583042584052941	-0.400831330567776	-0.578834206517194	0.405396782155145	0.00857041160175226	-0.00191157995956431	0.99996144621032	0.936718518934023	-0.34997538690704	-0.00869740451610507	0.349978519813753	0.936756945221825	-0.00120882076772882	-97.9126427384256	-89.4968788638	-12.5736753965315
7241	1647943716108	9.69223569034175	-0.0397742388547395	-0.0356368417102806	0.032398711925331	-0.0371639407872583	-0.120429949454701	-0.00911493218074071	0.00914374375293552	-0.00183561534141625	0.566650390625	0.44189453125	0.14404296875	0	0	0	-0.583025193775689	-0.400860897618888	-0.578864380355711	0.405349470627999	0.00845313983115664	-0.00186073526248715	0.999962540344026	0.936708745307882	-0.35000469484356	-0.0085697171015407	0.350007529762903	0.936746097537507	-0.00121567163399944	-98.0739187637851	-89.5040694317532	-12.414171182932
7242	1647943716109	9.73949211559754	-0.0883078599536033	-0.00745556095480107	-0.00303762400499837	0.0057418124969677	-0.0727942240811412	-0.0091527761932471	0.00151062197203779	-0.000307117075581476	0.560302734375	0.435791015625	0.14306640625	0	0	0	-0.583040177122274	-0.400834050996257	-0.578884700614931	0.405325448025558	0.00844913391178387	-0.00186868908478333	0.999962559367723	0.936678113442769	-0.350086689489621	-0.00856864280349651	0.350089594151893	0.93671544123245	-0.00120756915368497	-98.0218010267656	-89.5041953764453	-12.4713062079437
7243	1647943716110	9.71504771744826	-0.0640412108913571	-0.00926158745125012	0.0188021729213776	-0.00214026281099705	-0.0974425844754254	0.00148188131943536	-0.00457706462678771	0.00157798225275689	0.5625	0.4404296875	0.15283203125	0	0	0	-0.583053022050797	-0.400969747378834	-0.578784157952886	0.405316337774776	0.00846432037944594	-0.00160810460669514	0.999962883951244	0.93675459644739	-0.349883856039596	-0.00849195604980962	0.349884525686979	0.936791706454769	-0.00145512967122513	-99.7234215200048	-89.5063492038198	-10.7572074962745
7244	1647943716110	9.76539685034917	-0.0639481943808248	-0.0310280255154605	0.0120424467333187	-0.0219695407873186	-0.0470639815974216	-0.00760929690601325	-0.00917373777347755	-0.000251420448985553	0.559814453125	0.44384765625	0.1484375	0	0	0	-0.583096202351627	-0.400969674474858	-0.578769212813496	0.405275631211504	0.00849903690154535	-0.00151432720863487	0.999962735898119	0.936729904986465	-0.349949965795288	-0.00849155721437883	0.349949784220242	0.936767168645968	-0.00155572209072569	-100.381915827725	-89.5053656096726	-10.1027322596456
7245	1647943716112	9.74103391259208	-0.0641551363165254	-0.0334836280826352	0.00946723675415758	-0.0226128466379996	-0.0714154891467764	-0.00771389285663983	-0.00764618614260959	0.00279805937690937	0.5634765625	0.429443359375	0.152587890625	0	0	0	-0.583078214982444	-0.40105397051672	-0.578764818514875	0.40522437339714	0.00837399516443466	-0.00136755537297711	0.999964002350729	0.936750888335021	-0.349897839875339	-0.00832315169400744	0.349896626746438	0.936786865537127	-0.00164898410867859	-101.206330566217	-89.5138436041521	-9.27508419872594
7246	1647943716112	9.74273803513787	-0.0890689739424717	-0.0586527060825732	-0.0218827071181303	-0.0368050622869785	-0.0694597514841906	-0.00938906525849714	-0.00917450040156791	0.00732275088774711	0.557861328125	0.431884765625	0.141845703125	0	0	0	-0.583139747606454	-0.401027010346574	-0.57873852640135	0.405200061442201	0.00847811006256416	-0.00130019371984835	0.999963214896457	0.936719352107336	-0.34998049435945	-0.00839696108881843	0.349978537966801	0.93675608514928	-0.00174925653205965	-101.767567214884	-89.5085549636912	-8.71888874344739
7247	1647943716114	9.71836823117559	-0.089650969601851	-0.0611760415885967	-0.0216111328997945	-0.0377268744486764	-0.0938103460218649	-0.0016113663620876	-0.00916237484037642	0.00300189703960895	0.562255859375	0.438720703125	0.147216796875	0	0	0	-0.583233655180429	-0.401005716303065	-0.578676318947002	0.405174822573036	0.0086562667644281	-0.0011700903777726	0.999961849239365	0.936690209048503	-0.35005555729035	-0.00851816193878019	0.350052169423895	0.936728209086633	-0.00193416208571429	-102.792856412397	-89.4995155234761	-7.6981616975424
7248	1647943716114	9.74263994103774	-0.0655116687100731	-0.060237431276966	0.00216130208704357	-0.044755727209126	-0.069743988900484	-0.00624485564161096	-0.0045896120808453	0.00437329034719528	0.56201171875	0.4365234375	0.15576171875	0	0	0	-0.583270221186734	-0.400986658614161	-0.578662509077892	0.405160769667928	0.00871880040225892	-0.00113554098632396	0.999961345786033	0.936669849237568	-0.350108900671085	-0.00856453151993897	0.350105092863296	0.93670831544166	-0.00198890261954232	-103.073810806529	-89.4962240248407	-7.42046274505899
7249	1647943716116	9.74433689480805	-0.0903572763367972	-0.0849619921081387	-0.0298180859742274	-0.0587651181926552	-0.0677839751598395	-0.00472232725399771	-0.00306035527313199	0.00442364839663615	0.558349609375	0.437255859375	0.154296875	0	0	0	-0.583278626729241	-0.400994927383992	-0.57866079284578	0.405142936056218	0.00870951007080178	-0.00109712404846296	0.99996146963428	0.936664206328169	-0.35012453915211	-0.00854234552953292	0.350120420738279	0.93670251595816	-0.00202177637368306	-103.315571397839	-89.4970317275802	-7.17964791178644
7250	1647943716116	9.74409496613357	-0.0174775934115075	-0.0852955931760385	0.0388232068544117	-0.0843804319458352	-0.0686460955578578	-9.65036921929095E-05	-0.00305306909037496	0.00305077564183272	0.553955078125	0.433837890625	0.15234375	0	0	0	-0.583295567344564	-0.400994069517309	-0.578642121643233	0.405146063029556	0.00875410254433157	-0.00107302841184248	0.99996110639298	0.936665281535459	-0.350120847647198	-0.00857568708078371	0.350116432140428	0.936703923688182	-0.00205992534373783	-103.506854037231	-89.494666431419	-6.98813427103016
7251	1647943716117	9.74254885878831	-0.0420136719369162	-0.0612992111593463	0.0232752168804596	-0.0534687689475316	-0.0700295958839945	-0.010667898768631	-0.00459740522611488	-0.000353841386977163	0.5595703125	0.431640625	0.1474609375	0	0	0	-0.583305761508714	-0.400952785454815	-0.578719030946882	0.405062384882461	0.0086422941118548	-0.00107848200690047	0.999962073095298	0.936590761401943	-0.350322656378716	-0.00847243083707255	0.350318507088925	0.936628460652526	-0.00201749514646993	-103.394095834459	-89.5009860310029	-7.11323513290168
7252	1647943716118	9.71664365419401	-0.0665180398242049	-0.0391565895189642	0.00812292691957164	-0.0235084911517865	-0.095768966069178	-0.0213889117543753	-0.00766792171745428	0.00081708573074105	0.554931640625	0.431884765625	0.15185546875	0	0	0	-0.583374266812689	-0.400905692491232	-0.578735027012548	0.404987480124594	0.00868078847382325	-0.00100475166308944	0.999961816463792	0.936517009335513	-0.350519533340914	-0.00848221502521318	0.350514671785275	0.936554882118802	-0.00210181890223432	-103.917075408951	-89.4993005834865	-6.60228066808186
7253	1647943716119	9.73784389657923	-0.090871528151207	0.0104273265304704	0.00334609253765834	0.0322117670110859	-0.0744677466057837	-0.0137131181810337	-0.007655573031497	-0.000454930282784089	0.551513671875	0.429931640625	0.1435546875	0	0	0	-0.583452180016692	-0.400848334650254	-0.578756670134357	0.404901078063368	0.00872265876621703	-0.00092672993203019	0.999961527457772	0.936430068763036	-0.35075145918248	-0.00849353859219493	0.350745836098598	0.936468128156529	-0.00219166751622568	-104.468944352639	-89.497409280292	-6.06458104066009
7254	1647943716119	9.71509813037553	-0.0911245835943311	-0.016380311556694	-0.00598844977577895	0.00797131563460632	-0.0971531922141615	-0.0123372735511001	-0.00918029195925943	0.00417074510032754	0.549560546875	0.4306640625	0.14501953125	0	0	0	-0.583513567274466	-0.400820241106649	-0.578743411013083	0.404859377234587	0.00879839705629898	-0.000851296474850105	0.999960930988582	0.936387491370658	-0.350864037968861	-0.00853773182704759	0.350857598198763	0.936426025991641	-0.00228989774832883	-105.013895527712	-89.4935282161469	-5.52649946793574
7255	1647943716120	9.71348204443347	-0.0912314865231838	0.00751902989647975	0.00236556842745216	0.0317357192876233	-0.0988261114902062	-0.0182500249899336	-2.85658859094305E-05	-0.00213078249448094	0.555908203125	0.431884765625	0.151611328125	0	0	0	-0.583578250956425	-0.400780761496163	-0.578787209370975	0.404742600295243	0.00876029496622976	-0.00074580865504148	0.999961349753857	0.936293551898701	-0.351116417441603	-0.00846440050382963	0.351109159528799	0.936331514567583	-0.00237758754960871	-105.689660147819	-89.4962498817672	-4.86614840153971
7256	1647943716121	9.66968090119892	-0.115779729142643	-0.068891769775231	-0.0477409229012815	-0.0310298762539088	-0.142235578419145	-0.0138238993831792	-0.00154918425142364	0.00259555267043712	0.55615234375	0.434326171875	0.146240234375	0	0	0	-0.583617354916957	-0.400738012726852	-0.578802141244687	0.404707189812626	0.00879425289259816	-0.000735458076689954	0.999961059350552	0.936246094085983	-0.351242271339401	-0.00849223957975537	0.351234839423429	0.936284318957525	-0.00240034360906438	-105.7830203643	-89.4943609173528	-4.78048755457828
7257	1647943716123	9.71832029275459	-0.091330972429949	-0.0661074487229988	-0.0234606674194204	-0.0363937614096879	-0.0938095512111676	-0.00151298222877041	-0.00763594024037377	-5.21656213999972E-05	0.561279296875	0.4306640625	0.15185546875	0	0	0	-0.583653563405073	-0.400742465855434	-0.578800342434915	0.404653132425652	0.00879127931466311	-0.000637206822136194	0.999961152933191	0.936216279639176	-0.351322636956427	-0.00845473243583805	0.351314376515666	0.936254238297188	-0.0024920120306669	-106.422754217768	-89.494968865742	-4.145645484576
7258	1647943716124	9.74098538494817	-0.0668566318030162	-0.0413866433882548	0.00881942333882893	-0.0206332752335968	-0.0714104869711836	0.00155399271445162	-0.0183181113300107	4.61895480669353E-05	0.561279296875	0.427734375	0.14404296875	0	0	0	-0.58370490927337	-0.400785481708806	-0.578740830006263	0.404621586454886	0.00886009867020515	-0.000461159088858798	0.999960642217407	0.936222972044548	-0.351304738852343	-0.0084573681461651	0.351294812468996	0.936261057500621	-0.00268084691678566	-107.587760712874	-89.4916599048709	-2.97949817830915
7259	1647943716125	9.79283293725284	-0.0422512886943103	-0.0887472196538655	0.0180676377383563	-0.0716720683498428	-0.0196401069949292	-0.0045437912177237	-0.0198542923178172	-0.000155228639819577	0.564697265625	0.43310546875	0.143310546875	0	0	0	-0.583843566620372	-0.400760358812244	-0.578650564252809	0.404575517067693	0.00910931858917513	-0.000252987970183416	0.999958477293896	0.936178416966185	-0.351419571588181	-0.00861721019043954	0.351407159747106	0.936218041217892	-0.00296435095863035	-108.983399305157	-89.4778660198552	-1.590834462534
7260	1647943716125	9.79289189088988	-0.0667174581917594	-0.0907066625497139	-0.00472745396423221	-0.0630624299801034	-0.0193523340375776	-0.00611896176897135	-0.019857138686501	0.00131970798823865	0.560791015625	0.43505859375	0.1513671875	0	0	0	-0.583918122467447	-0.400779826347254	-0.578598767967228	0.404522709812395	0.00919799299974289	-6.74755773957814E-05	0.999957695291067	0.936157890471468	-0.351473816078204	-0.00863485491691396	0.351459529722539	0.936197709919476	-0.00316968590568706	-110.157195944135	-89.4729722088335	-0.420308697338865
7261	1647943716126	9.77011037663782	-0.0667485516510943	-0.118389005917973	-0.0133479074470222	-0.0865244220381464	-0.042023962408221	-0.006026241743012	-0.0152758362215263	-0.00172915239593767	0.553955078125	0.430419921875	0.1455078125	0	0	0	-0.58400000391235	-0.400822681435321	-0.578518616018457	0.404476679670738	0.00931477793417723	0.000166317183059039	0.999956602683653	0.936155472922483	-0.35147958729907	-0.00866199915479288	0.351462893388931	0.936195530885867	-0.00342965304524889	-111.600714590417	-89.4662097488284	1.02291866121623
7262	1647943716127	9.76850183394699	-0.0668784996235605	-0.0952278468607478	-0.00474184442155936	-0.0636667090679659	-0.0437010715950805	-0.012335549666291	-0.00918104907835663	0.00417358585569161	0.555419921875	0.431396484375	0.1435546875	0	0	0	-0.584062348305213	-0.400794093694191	-0.578504185360983	0.404435625621529	0.00939400395935491	0.000242074837492556	0.999955846069908	0.936112883362062	-0.351591838375948	-0.00870912113749373	0.351574205955412	0.9361533638177	-0.00352946449589508	-112.060778321857	-89.4615766186831	1.47613283145667
7263	1647943716128	9.71825399647367	-0.0917784242968662	-0.0746779843600089	-0.0205159808972736	-0.0341874588142041	-0.0937948776674062	-0.016870503616959	-0.00308055513049418	0.00250142733669116	0.558349609375	0.437255859375	0.145751953125	0	0	0	-0.584143589508291	-0.400764877895512	-0.578497242080998	0.404357169327371	0.00945690710014907	0.000369454102346789	0.999955214202999	0.936047483188599	-0.351765584517902	-0.00872254349764079	0.351746607836364	0.936088049839568	-0.00367244103647085	-112.832488842134	-89.4577377088119	2.23724323252062
7264	1647943716129	9.71984175731635	-0.0919089604184662	-0.0992799415890663	-0.0289642952430181	-0.0569510824887626	-0.0921140664555846	-0.0152980487063893	-0.00155066290744949	0.00102680528731076	0.5625	0.43115234375	0.145263671875	0	0	0	-0.584183679400227	-0.40072179550348	-0.57851699592307	0.404313686089189	0.00948025607322844	0.000385587652375341	0.99995498702039	0.935994943999978	-0.35190497169888	-0.00873817487175765	0.351885762075229	0.936035652214046	-0.00369705733823977	-112.932863469209	-89.4563640852642	2.32909055238003
7265	1647943716130	9.69555561165783	-0.116413366105978	-0.100839190138284	-0.0522394434416701	-0.0486380565468708	-0.116171255268547	-0.0122052451958872	0.00303499405816643	-0.000396347922229576	0.5576171875	0.43310546875	0.146484375	0	0	0	-0.584219518248747	-0.400735520898293	-0.578493800030012	0.404281486237512	0.00951193123441973	0.000486359418084503	0.999954642280693	0.935983692439362	-0.351935044351924	-0.00873224167021353	0.351914834372991	0.936024298836054	-0.00380280642484931	-113.532657534774	-89.4542862753993	2.927070690491
7266	1647943716131	9.69381725024453	-0.067644022042443	-0.0759144720742018	0.00209631315161111	-0.0428960224308557	-0.118431996297275	-0.0122620924993576	0.00761403741220804	0.00113142495471616	0.55908203125	0.4345703125	0.14990234375	0	0	0	-0.584227416591759	-0.400682654533171	-0.578533507119577	0.40426565176712	0.00950478299234936	0.000417133612458431	0.999954741525744	0.935942034911712	-0.352045386315116	-0.00874947195926218	0.352025803579217	0.93598283743549	-0.00373652788245737	-113.125270013264	-89.454883631867	2.51291050777296
7267	1647943716132	9.6695379116801	-0.0921047421915079	-0.0766590913701505	-0.0217232151858832	-0.0352881111251334	-0.142495735785358	-0.00149170147973392	0.0106857112210265	-0.00156792708137295	0.5615234375	0.428955078125	0.15380859375	0	0	0	-0.584207460605657	-0.400674225257835	-0.578566312636363	0.404255896764765	0.00944237419279048	0.00037605623064485	0.999955349078805	0.935931430441432	-0.352074670289898	-0.00870540361589772	0.35205567611027	0.935971839919328	-0.00367638362655442	-112.894845725265	-89.4585548624833	2.28068209695765
7268	1647943716133	9.66787189987033	-0.0675778469064685	-0.0516752836396924	0.00975190040228835	-0.0209817069613427	-0.144468868428603	4.7541850983433E-05	0.00152785280290775	-0.00152405746594518	0.552490234375	0.442626953125	0.149169921875	0	0	0	-0.584202761645399	-0.400677005501329	-0.578568960883755	0.404256141635806	0.00943178952875895	0.000373114689161125	0.99995545007351	0.93593333787758	-0.352069818424437	-0.00869655126566538	0.352050888928885	0.935973666157341	-0.00366985890324539	-112.879265358006	-89.4591675537029	2.26539785260392
7269	1647943716134	9.69223294398382	-0.0672140196997608	-0.0505952181829295	0.00944991840002851	-0.0196132860307445	-0.120113765206623	0.0032188759244037	-0.0122054499784398	-0.00448339881456271	0.56005859375	0.43505859375	0.149169921875	0	0	0	-0.584201916643107	-0.40072065252436	-0.578590606933092	0.404183112957194	0.00931173641849536	0.000490441210395653	0.999956524571089	0.935916651762434	-0.352117939681367	-0.00854268741935277	0.352098441516954	0.935955509638128	-0.00373784153805634	-113.631718381869	-89.4657295661272	3.01493402104623
7270	1647943716135	9.69063577898078	-0.066877584337121	-0.0279349641825887	0.0180539239751845	0.00325079178529683	-0.121797937145445	-0.00443940162297238	-0.0229050642383843	-0.00321434456886849	0.561767578125	0.441162109375	0.148681640625	0	0	0	-0.584273178105024	-0.400764611725887	-0.578534965358745	0.404116162993526	0.00937003969110967	0.000721366013483438	0.999955840018579	0.935902687446956	-0.352155705591179	-0.00851578822797638	0.352134011401557	0.935941151275364	-0.00397484132949205	-115.021350987748	-89.4615397240157	4.40231451009592
7271	1647943716136	9.71823853872511	-0.0909065133217877	-0.0776997721969514	-0.0217254162685296	-0.03156905236903	-0.0937886480998813	-0.00142674601327344	-0.0305348156245276	-0.00159505348404834	0.56005859375	0.43212890625	0.142822265625	0	0	0	-0.584338441597841	-0.400889608985825	-0.578440781690987	0.404032633774698	0.00938756696782411	0.00109251371647995	0.9999553390028	0.935928323753699	-0.352090304504546	-0.0084018015620464	0.352065400716993	0.935965396736266	-0.004327785843601	-117.253091998121	-89.4584937737461	6.63815206880146
7272	1647943716137	9.74258001516229	-0.0906683559713079	-0.0789444927530854	-0.020800156648164	-0.0300372257285936	-0.0694341653334778	-0.00448179428728986	-0.0274860695847527	-0.00169184464505071	0.566162109375	0.43994140625	0.139404296875	0	0	0	-0.58442588919462	-0.400938483409586	-0.578368859656234	0.40396061038206	0.00947558940233784	0.00136118421256259	0.999954179141733	0.935914134503396	-0.35212831556195	-0.00838941096046997	0.352100761206559	0.935950744728078	-0.00461057487940209	-118.791908037377	-89.4515072411945	8.17470980053207
7273	1647943716139	9.74413636179156	-0.0904607897854028	-0.105394831304136	-0.0282748737717812	-0.0503952955118424	-0.0677324969470252	-0.00450146221546006	-0.0152726207859607	-0.00168334683417189	0.558349609375	0.431396484375	0.1318359375	0	0	0	-0.584499618431195	-0.401099025727229	-0.578194660178804	0.403943934915692	0.00962101300277135	0.00176800262164456	0.999952153993145	0.936000907341114	-0.35189773801099	-0.00838352189482638	0.351866079020716	0.936036781408444	-0.00504046477109033	-121.015747691476	-89.4395173014906	10.4127680805138
7274	1647943716141	9.7214094898559	-0.114671451292747	-0.13263099137123	-0.060433069617934	-0.0660648069543974	-0.0901091967259297	-0.00293469779731919	-0.0106889395416986	-0.0031560522082183	0.557373046875	0.429443359375	0.14208984375	0	0	0	-0.584532898545628	-0.401123632315503	-0.578170413844248	0.403906046836433	0.00963760830637639	0.00188686643783526	0.999951776957859	0.935992971452293	-0.351919473853965	-0.00835711159768759	0.351886734472956	0.936028377591938	-0.0051577557682736	-121.681626044721	-89.4373132642135	11.0773449349154
7275	1647943716142	9.71967379046489	-0.0657321568321648	-0.109013072326439	-0.00431480963215096	-0.0575649279467003	-0.0923514216270948	0.00153506959984443	-0.00610423569647347	4.45320655173169E-05	0.558837890625	0.42626953125	0.14697265625	0	0	0	-0.584615661277733	-0.401253108749799	-0.577987678901031	0.403919192841861	0.00985237151444196	0.00223706955453001	0.999948961845228	0.93607833649151	-0.351690456745203	-0.0084362660957864	0.351653634599203	0.936113678008264	-0.00555905738515777	-123.38278927206	-89.4211221133547	12.7926209316826
7276	1647943716142	9.71810401487113	-0.0655532484963777	-0.0851677784741382	0.00430382196556188	-0.0346458688050985	-0.0940517822135902	0.000154370494631319	-0.00457618580216463	-0.00457860970765882	0.568115234375	0.427734375	0.14453125	0	0	0	-0.584622875124567	-0.401279508296363	-0.577976314691482	0.403898786527228	0.00983627175416407	0.00230649544684564	0.999948962615959	0.936082224028322	-0.351681052926525	-0.00839683694505988	0.351643736779385	0.936117042410427	-0.00561829979497036	-123.786368305972	-89.4211264842452	13.1967906719987
7277	1647943716143	9.69200790040524	-0.0166185964228336	-0.0633344570123266	0.0607508648838821	-0.0302430608384134	-0.120695871933748	-0.00149726996721815	-0.0167957070166266	-6.11150548160748E-05	0.554443359375	0.432373046875	0.142333984375	0	0	0	-0.584794817378332	-0.401215114799561	-0.577857047575903	0.403884495605709	0.01021532844647	0.00248203519247625	0.999944741756281	0.936032043962068	-0.351807491731394	-0.00868915633755768	0.35176648467545	0.936069083061164	-0.00591709355236425	-124.253863510832	-89.3976649037992	13.6566142654999
7278	1647943716144	9.71652214272397	-0.0654265384791603	-0.0635517672416683	0.0160328476157988	-0.011540852058553	-0.0957572140156131	-0.00611883121229754	-0.0183309492105039	0.00131645298756096	0.55810546875	0.440185546875	0.142333984375	0	0	0	-0.584867267767331	-0.401232979955018	-0.577805247647933	0.403835945256614	0.0103063831738528	0.00265901673260149	0.999943352443472	0.936013130165143	-0.351857250230225	-0.00871180916209197	0.35181415353042	0.936049894551803	-0.00611525021841475	-125.066917328765	-89.3901398290862	14.4666713228534
7279	1647943716145	9.74087495734809	-0.0652384222774518	-0.0638592685695206	0.0160889569918528	-0.00816434314697204	-0.0714013504299622	-0.0120707400803661	-0.0198633134774948	-0.00345468469338965	0.5615234375	0.432861328125	0.147705078125	0	0	0	-0.584916165698804	-0.401380966762969	-0.577723152694708	0.403735504340553	0.0102585567218235	0.00305373528212605	0.999942716716719	0.936043128971775	-0.351781924110606	-0.00852869121079397	0.351735728521734	0.936077001410603	-0.00646720275073359	-127.17259953662	-89.3867272686879	16.5770522732571
7280	1647943716145	9.74241145213054	-0.0649335482573476	-0.0903131582334343	0.00770763339311316	-0.0308697170930176	-0.0696929059447893	-0.00601373502373242	-0.0229080976630383	-0.0017380486829838	0.5615234375	0.43310546875	0.142333984375	0	0	0	-0.584995275241546	-0.401418352392193	-0.577663574805461	0.403668959236129	0.0103362014114239	0.00328597102867462	0.999941180937549	0.936025387150043	-0.351829355423915	-0.0085193469588295	0.351780666823797	0.936058388700401	-0.00671233138439203	-128.234317429171	-89.3785605666592	17.6359266536879
7281	1647943716147	9.74084912787256	-0.0647920472901827	-0.0681123721041635	0.0171944682440766	-0.00723669001294821	-0.0714025057387051	-0.0136418547763887	-0.0213937126341181	-0.00197843765991205	0.552978515625	0.44189453125	0.1455078125	0	0	0	-0.585117980431187	-0.401444540689094	-0.577577060730326	0.403588860903233	0.01049403933808	0.00357750175827587	0.999938536420885	0.935992173854236	-0.351916624211507	-0.00856388271756109	0.351864356850753	0.936024514147331	-0.00704154054589584	-129.428304624114	-89.3647439968064	18.8246530218559
7282	1647943716147	9.74399933467592	-0.0890360377406843	-0.118465684400052	-0.0225504563883885	-0.0442082911478535	-0.0676875374681014	-0.0198566786970653	-0.0107202180649511	0.000888968627653529	0.56005859375	0.432373046875	0.141357421875	0	0	0	-0.585195421045992	-0.401409596336144	-0.577575142913324	0.403514075894153	0.0105545805158156	0.00368671537545534	0.999937502526971	0.935925515583869	-0.352093453049083	-0.0085807691404709	0.352039813244474	0.935957589022982	-0.00716668968788214	-129.868755582439	-89.3594233247672	19.2543102575572
7283	1647943716149	9.74253829252462	-0.11350596669869	-0.0945424013061447	-0.0380881539062563	-0.0112944633096947	-0.0691101967924332	-0.0152563301574741	0.0030286597061696	-0.000477815427584585	0.56201171875	0.44287109375	0.1435546875	0	0	0	-0.585177258873781	-0.401484674558702	-0.577582950297496	0.403454541822373	0.0104159832402675	0.00382247352280568	0.999938446100212	0.935936331829569	-0.352068977554784	-0.00840344006589755	0.352015184409068	0.935966251389278	-0.00724473641707918	-130.765136590093	-89.3642774093137	20.1522044418216
7284	1647943716149	9.74270897250283	-0.162282254800767	-0.0940742038876744	-0.0836949021800327	0.00592414704335548	-0.0685340578338653	-0.0106912542976516	0.00914261164150495	-0.000326751022825878	0.5576171875	0.436279296875	0.140625	0	0	0	-0.585176069247444	-0.401440603688195	-0.577623130235739	0.40344259704106	0.0103939222542492	0.00375131745857149	0.999938945134901	0.935902420551744	-0.352159025206445	-0.00840714999473674	0.352105986296116	0.935932662419136	-0.00717118061886296	-130.463711636562	-89.3668596704821	19.8452492675246
7285	1647943716150	9.71672451264162	-0.138132934943943	-0.0705360623327616	-0.0541103539211935	0.0208580536488138	-0.0948980924053302	-0.0016291976564453	0.00457361974474502	0.0030073300762593	0.56640625	0.431884765625	0.14892578125	0	0	0	-0.58512315046878	-0.40160053674709	-0.577548396940184	0.403467169496804	0.010309716152546	0.00392790866107584	0.999939138791159	0.936015176504566	-0.351862504045373	-0.00826847023618349	0.351808611472176	0.936043455070581	-0.00730418466012256	-131.456670891098	-89.3678645880531	20.8563883323556
7286	1647943716151	9.69065328141828	-0.0895874954151118	-0.0474534977805621	-0.000618216606514642	0.0252389145119325	-0.121536687822637	-0.00152256612116367	-0.00152907060606054	-4.9994506005224E-05	0.560302734375	0.437744140625	0.14453125	0	0	0	-0.585134626177668	-0.401604860593935	-0.577537979773	0.403461134578002	0.0103268357340952	0.00395756278732934	0.999938845210299	0.936014077111737	-0.351865297664715	-0.00827404060815662	0.351811034381221	0.936042280025911	-0.00733798960950593	-131.568822685821	-89.3663417668327	20.9683773097133
7287	1647943716152	9.69364480661728	-0.0653474582853861	-0.097014844865522	0.00603804872997375	-0.0285096679930909	-0.118380666855494	0.00288546524206322	-0.0167958908986395	0.00617726942596785	0.56689453125	0.437255859375	0.155029296875	0	0	0	-0.585214045800026	-0.401637386781567	-0.577429581988183	0.403468719955577	0.0105249747684529	0.00413813150747017	0.999936048341968	0.936037228744493	-0.351800803113364	-0.00839650719770868	0.35174355901772	0.936065740638134	-0.00757613972472226	-132.059828050981	-89.352013662493	21.4633915539744
7288	1647943716153	9.69362434109488	-0.0657241475037508	-0.0987893562811338	0.00616568090706006	-0.0283647593742012	-0.118380322116758	0.00150957781300539	-0.01984573880856	0.00155029317637729	0.56298828125	0.427490234375	0.14892578125	0	0	0	-0.585275742569742	-0.401682505430836	-0.577356026167289	0.403439572970426	0.0106223677582464	0.0043335159889466	0.999934190805766	0.936046590584281	-0.351775351584494	-0.00841916107163648	0.351715716962937	0.936074421537508	-0.00779306001951285	-132.788388800052	-89.3426702344817	22.1935633492228
7289	1647943716154	9.71804670090138	-0.0902045010411718	-0.0994622909549029	-0.0146301599217325	-0.0195652106026407	-0.0937437995142236	-0.00305832913281053	-0.0244326741105622	0.00140124207312313	0.556396484375	0.42724609375	0.147216796875	0	0	0	-0.585409424559089	-0.401591181646023	-0.577321725922414	0.40338561357529	0.0108482952042326	0.00442396782768961	0.999931369144814	0.935957082393922	-0.352009139169276	-0.00859685163084328	0.351946948285987	0.935986108043258	-0.00795934307690505	-132.794872934939	-89.3287260106802	22.1857846369043
7290	1647943716155	9.69654494300468	-0.0415387417749551	-0.151907619235399	0.0133741540228717	-0.0836747470048554	-0.115233857288576	-0.00158341992068624	-0.0229055245650864	0.00297589024477499	0.569091796875	0.43310546875	0.14111328125	0	0	0	-0.585489357408425	-0.401628043123427	-0.577242869645867	0.40334575339443	0.010971168839702	0.00464096947332632	0.999929044911007	0.935954810068827	-0.352014236391052	-0.00863544365100183	0.351949182359209	0.935983140222286	-0.00820574532336732	-133.538430972315	-89.3174539262715	22.9290932397415
7291	1647943716157	9.74676382032323	-0.0414653985244192	-0.17530959554806	0.00868563784228849	-0.10291831109911	-0.064806060224214	-0.00149320652170309	-0.0198483412741182	-7.08138271841554E-05	0.56005859375	0.4375	0.146484375	0	0	0	-0.585628012651693	-0.401629855353869	-0.577118660567005	0.403320395853477	0.0112550218275522	0.00488393475632126	0.999924732999918	0.935938841293572	-0.35205223515405	-0.00881527544004085	0.351982684008329	0.935967612102221	-0.00853341982788208	-134.06922589072	-89.2970205046239	23.4576532158853
7292	1647943716157	9.74681509064393	-0.0659262462694283	-0.17685934292185	-0.0140205572340329	-0.0942494947607827	-0.0645105953209732	-0.0091810663335155	-0.0107022644326436	0.00122803041204588	0.557373046875	0.436279296875	0.1435546875	0	0	0	-0.58568514174133	-0.401624912924581	-0.577093625943384	0.403278180611448	0.0113207524276816	0.00499295308034148	0.99992345256225	0.935910023131987	-0.352128276722087	-0.00883772220751866	0.352057195872425	0.935938431282887	-0.00865931187647628	-134.415797860664	-89.2910661233525	23.7996031389824
7293	1647943716158	9.74680578889714	-0.0658817159894929	-0.177387518685279	-0.0149608643024738	-0.0932765797139051	-0.0645026350918751	-0.0091035323543819	-1.19321657833325E-05	-0.00180917058319516	0.5634765625	0.436279296875	0.154052734375	0	0	0	-0.585668315016191	-0.40168696933316	-0.577100732512616	0.403230638701276	0.0112046464026858	0.00510126705455227	0.999924213614927	0.935920054918697	-0.352105261361004	-0.00869112897627816	0.352034240806167	0.935946505948037	-0.00871959309192683	-135.093670568908	-89.2945991653904	24.4788911604029
7294	1647943716159	9.720925155971	-0.0659732331125775	-0.154543226139432	-0.00718557497730361	-0.071837196214871	-0.0905780358155574	-0.0122484837284415	-2.07618667757063E-05	0.00114644341353218	0.557861328125	0.43310546875	0.15185546875	0	0	0	-0.585700357038728	-0.40165237562007	-0.577113415472528	0.403200405016034	0.0112309496807751	0.00511115389483618	0.999923868039528	0.935880605329677	-0.35220960510732	-0.00871129369859541	0.35213826593687	0.935907191005609	-0.00873907815307839	-135.091226172497	-89.2929927092714	24.4700649624878
7295	1647943716160	9.7194130260809	-0.0659115413583123	-0.130112410872978	0.000615601360727528	-0.0503765639412346	-0.0923105712033916	-0.0136340874731092	0.0015100981538096	-0.00347429755446423	0.5576171875	0.43896484375	0.14013671875	0	0	0	-0.585715535234893	-0.401523199700092	-0.577250038292594	0.403111430225318	0.0111230267875965	0.00496457457563704	0.999925812885319	0.935748928710627	-0.352560589848597	-0.00865868942296427	0.352491447686318	0.935775819031937	-0.00856713622579314	-134.69548267154	-89.3020817490518	24.052786255641
7296	1647943716160	9.69655952193055	-0.0656265108872945	-0.156152971357185	-0.00861906824734196	-0.0745956826832462	-0.114939255957861	-0.0151966617829616	-0.00460093617801347	-0.00200505280647029	0.5595703125	0.438720703125	0.140869140625	0	0	0	-0.585760121790377	-0.401497630531858	-0.577262543355741	0.403054200369984	0.0111352174315302	0.00502641628619566	0.999925368251087	0.935698787549362	-0.352693928482832	-0.00864706828944234	0.35262414255324	0.935725241697939	-0.00863053520514856	-134.945173202779	-89.2999933903329	24.2943272873437
7297	1647943716161	9.69201519979679	-0.0655762908123442	-0.0836545442101267	0.0159056240184462	-0.00361782600240418	-0.120103040279483	-0.0120940785163684	-0.00764701607715856	-0.00344007671251023	0.556640625	0.430419921875	0.14013671875	0	0	0	-0.585751056859419	-0.401688644113912	-0.577177356567933	0.402999046702662	0.0110250645103609	0.00537524668582318	0.999924774508367	0.935782944586781	-0.352476003093344	-0.00842305549279548	0.352404211911601	0.935805414584895	-0.00891613484399817	-136.628896938517	-89.2972143743055	25.9914494872514
7298	1647943716161	9.66756124205883	-0.0409626285314315	-0.0859862311749644	0.0380377941047533	-0.0135386156385982	-0.14474126792209	-0.0151865844533465	-0.0107074232596489	-0.00201413698119727	0.557861328125	0.44091796875	0.14599609375	0	0	0	-0.585812976549571	-0.401676789119713	-0.577171515599825	0.402929218559302	0.0110575973253569	0.00549641537953655	0.999923756573152	0.935733486400838	-0.352607603827336	-0.00840952741104273	0.352534497559491	0.935755132041027	-0.00904217282278258	-137.076132734066	-89.2924753200184	26.4306568374545
7299	1647943716162	9.69350878356529	-0.0650100357420834	-0.10996731199745	0.00689248827952463	-0.0249076296137025	-0.118371312772105	-0.0136614374426267	-0.0107049947849847	-0.00196696404001303	0.558837890625	0.43505859375	0.145263671875	0	0	0	-0.585848639258929	-0.401761738887442	-0.577133898090877	0.402846547358954	0.0110079376811365	0.00575033964756932	0.999922876476954	0.935735932486466	-0.35260432889422	-0.00827356626504461	0.352529558990013	0.935754840136558	-0.00926224591079872	-138.226954179591	-89.2884034209855	27.5817202398451
7300	1647943716163	9.69500097647435	-0.0650079204835561	-0.135382558122025	-0.00147396774726229	-0.0475885480313049	-0.116640154160176	-0.0153749356557093	-0.0107182045626394	0.00408654625471421	0.563720703125	0.43310546875	0.14990234375	0	0	0	-0.585923029120348	-0.401732163992611	-0.577115971050714	0.402793530631317	0.0110968487440117	0.00585109371677017	0.999921309229016	0.935685411969721	-0.352737280190744	-0.00831991530536152	0.352660842418044	0.935704107004962	-0.00938905527950035	-138.454912601534	-89.2812094175203	27.8015719632981
7301	1647943716163	9.66919639312031	-0.0898936536689931	-0.113505633374673	-0.0164713232522254	-0.0177564745394154	-0.142437280450979	-0.0138078154221649	-0.00765977619111234	0.00261377069858805	0.563720703125	0.430419921875	0.139892578125	0	0	0	-0.585996220665736	-0.401679189286991	-0.577118907124811	0.402735676714	0.0111751918656198	0.00591222647379774	0.999920077138613	0.935617720895217	-0.352915607190924	-0.00836985949114732	0.352837916660903	0.9356364784355	-0.00947548348156124	-138.545279053355	-89.2756040145646	27.881043497899
7302	1647943716164	9.71783950673727	-0.0655877205354431	-0.111310641642523	0.00827207567236764	-0.0231060809290445	-0.0940200627460896	-0.00465187814632505	-0.0106990098262697	0.00288991879307523	0.567138671875	0.429443359375	0.144775390625	0	0	0	-0.58604659474505	-0.401683693344734	-0.577082033655026	0.402710722133449	0.0112530738670256	0.00601647629168156	0.99991858185633	0.935604966305503	-0.352948569559379	-0.00840560946437385	0.352869260991975	0.935623380030138	-0.00960080142266923	-138.797489255655	-89.2688589383296	28.1312685274332
7303	1647943716164	9.69353542523587	-0.0902823279925674	-0.114088498782386	-0.0125265301226805	-0.0150851085313972	-0.118080020683971	-0.00154974466136387	-0.0137446061400628	0.00145285531520914	0.56298828125	0.43115234375	0.140869140625	0	0	0	-0.586192213194805	-0.401685232533711	-0.576921321720154	0.402727515447834	0.0116215250180178	0.00624532992273436	0.999912964217592	0.935613691943688	-0.352919044531106	-0.00866991665198974	0.352834181456045	0.935633017727254	-0.00994467369176905	-138.917590484353	-89.2440558698813	28.2532871928519
7304	1647943716165	9.71631420481794	-0.0660927018342534	-0.0893973981562435	0.0198730854595227	0.000875443701973261	-0.0957574950950501	-0.00769962251886869	-0.0122301090606505	0.00279377823371519	0.561767578125	0.43115234375	0.152099609375	0	0	0	-0.586253782391082	-0.401683995509602	-0.576885220045989	0.402690840814741	0.0117068212878665	0.00636473475910143	0.999911216302118	0.935590312014765	-0.352980108950719	-0.00870693684675661	0.352893352727773	0.935609177400791	-0.0100870592328167	-139.199932034938	-89.2365027831116	28.5319283069828
7305	1647943716166	9.74074891745673	-0.0906875535736169	-0.0890474841451843	-0.00081584725789667	0.0108575256620766	-0.071115387374661	-0.0138051741007032	-0.00918593701510729	0.00261286765520884	0.560546875	0.439697265625	0.141845703125	0	0	0	-0.586371499554649	-0.401594897402462	-0.576863808061525	0.402638982016265	0.0118993706581236	0.00643189152691775	0.999908513689791	0.935503317286591	-0.353206777082424	-0.00886092370074537	0.353117470997577	0.935523170955393	-0.0102199942193241	-139.074108056938	-89.2249691366397	28.3922714766323
7306	1647943716166	9.71644909007773	-0.115361437021147	-0.0913866580455541	-0.0244028274421422	0.0180029499647773	-0.0951710605453222	-0.00308724465992487	-0.00611395414666183	0.00141994524116345	0.562744140625	0.4375	0.151123046875	0	0	0	-0.58640370782742	-0.401598131234541	-0.576838979395997	0.402624420874546	0.0119514656766177	0.00649834639063979	0.999907462699608	0.935496186459349	-0.353225033408723	-0.00888599422805758	0.353134602649182	0.935515818822747	-0.0103007351296419	-139.217094835533	-89.2205300228363	28.5341632105008
7307	1647943716167	9.71487545751937	-0.0912695228031795	-0.06758977778881	0.00588418347626327	0.03300267658667	-0.0972059118914839	0.00296929585769744	-0.00763480803164741	0.00312832276373768	0.56103515625	0.437255859375	0.139892578125	0	0	0	-0.586380487429688	-0.401697524717493	-0.576794170839463	0.402623281844428	0.0118951662429114	0.00663365666204579	0.999907245507974	0.935556704710526	-0.353067183105323	-0.00878729112156995	0.352976142665813	0.935574453912335	-0.0104059548048789	-139.820636236286	-89.2196158090475	29.1473882868183
7308	1647943716167	9.71924975764697	-0.0667029166873939	-0.141414517701642	0.00344525688238169	-0.0438604955368432	-0.0922795763485542	-0.00151084967665045	-0.00916169109676062	-6.45219150820612E-05	0.556396484375	0.43408203125	0.149169921875	0	0	0	-0.586415022001102	-0.401716135069415	-0.576760471006543	0.40260269234153	0.0119430118184045	0.0067341154430503	0.999906003661297	0.935555389296664	-0.353070437888486	-0.00879655882719571	0.352978013517376	0.935572507921451	-0.010516862407323	-140.090071460818	-89.2144089972551	29.4166531346363
7309	1647943716168	9.71783037472781	-0.0912094911155793	-0.117959699079139	-0.0116511533886397	-0.0116446868944103	-0.0937270543477044	-0.00151323770897957	-0.00763509907990069	-6.15072719820018E-05	0.558349609375	0.431884765625	0.1494140625	0	0	0	-0.586418428282802	-0.401794366370533	-0.576726983236497	0.402567635224393	0.0118945479196632	0.00689600601655643	0.999905477948195	0.935582477263014	-0.353001172445484	-0.00869485425503091	0.352907846283119	0.93559746544822	-0.0106505717535406	-140.772679618815	-89.2122151558534	30.1035251166303
7310	1647943716169	9.7207041622449	-0.0663726402336465	-0.167712326855056	-0.00560203456468015	-0.065678459611055	-0.0905334379622715	0.00321331592145971	-0.0152518728865246	-0.00451304290251817	0.560546875	0.426025390625	0.142578125	0	0	0	-0.586451866536603	-0.401852291654793	-0.576674953997875	0.402535639861957	0.0119214662466802	0.00706960982613131	0.999903945016438	0.935598496225728	-0.352959588665432	-0.00865925108116355	0.352864467611414	0.935611858297038	-0.0108221121449482	-141.335151628118	-89.2058527110359	30.668582099561
7311	1647943716169	9.74644677348075	-0.0414273310228854	-0.192137529742729	0.0108893402086214	-0.0958214300380934	-0.0647359275503234	0.00317190871230205	-0.0183081210580324	-0.0029938743300735	0.5634765625	0.43603515625	0.1416015625	0	0	0	-0.586562641548844	-0.401813150867994	-0.576629938825203	0.402477791908101	0.0120882108799559	0.00721567731144651	0.999900899668892	0.935538655417331	-0.353115637620628	-0.00876188836437697	0.353017420784944	0.93555185878107	-0.0110190813424442	-141.509825139445	-89.1933618286605	30.8337608572824
7312	1647943716170	9.747965934856	-0.0653661637461366	-0.218312789478707	-0.020313216841593	-0.10997444601344	-0.0626993706608019	-0.00288516394461709	-0.0167874157140612	-0.00470054591948096	0.557861328125	0.43017578125	0.13720703125	0	0	0	-0.586612682471801	-0.401856543303171	-0.576585963760611	0.402424534244513	0.0121198899973493	0.00740361383526189	0.999899142298178	0.935532965508411	-0.353131625685029	-0.00872498642334479	0.353031413210625	0.93554435567921	-0.0112062412646693	-142.096289409524	-89.1862409819338	31.4192880724772
7313	1647943716171	9.74492423913788	-0.0406873443785369	-0.17059521014639	0.0205700736521905	-0.0709150326509672	-0.0664647862233014	-0.00442770723241592	-0.00610370887583718	-0.0047255264279369	0.559814453125	0.4375	0.142822265625	0	0	0	-0.586655832529347	-0.401971455345857	-0.576471024913741	0.402411531496468	0.0122002130440691	0.00768062158015936	0.999896076026815	0.935594973575669	-0.352967816811601	-0.00870435036035189	0.352864280172452	0.935603937757529	-0.0114922335071354	-142.859291562848	-89.173963453095	32.1923907924173
7314	1647943716173	9.74647658865659	-0.0646061340583701	-0.195064111430946	-0.0106207182213771	-0.0850607617789198	-0.0644217888398923	-0.00449376099762965	0.00610564719158503	-0.00317605813735161	0.56103515625	0.4267578125	0.135986328125	0	0	0	-0.586646463623832	-0.401960276043939	-0.576493573183181	0.402404054749478	0.0121661931223382	0.00765044614501753	0.99989672187616	0.935583851688726	-0.352997826407718	-0.00868279970480884	0.352894942162958	0.93559286296188	-0.0114522735993345	-142.83159366104	-89.1765342546805	32.162842106243
7315	1647943716173	9.74510993801697	-0.0887848210953598	-0.169685265143806	-0.0237871704542687	-0.0519318466338362	-0.0658632349647501	-0.01366266309935	0.0167775582917024	-0.00343050834069893	0.558837890625	0.439208984375	0.14306640625	0	0	0	-0.586656371623172	-0.401976828556784	-0.576467807104228	0.402409987835548	0.0121989933517441	0.00769172894663067	0.999896005526082	0.935597341924221	-0.352961661987247	-0.00869936500737217	0.352858042767251	0.935606168466739	-0.0115021381252722	-142.898839389989	-89.1736833092761	32.2323173050892
7316	1647943716174	9.69500817012306	-0.113333422507032	-0.146600301375673	-0.0397795451153584	-0.0235005663934737	-0.116018627879619	-0.00923057080722885	0.0198279138320078	0.00128972821210239	0.562744140625	0.432861328125	0.139404296875	0	0	0	-0.586626288769388	-0.401911757566565	-0.576530366957331	0.402429214186116	0.0121593502115998	0.00751868044996734	0.999897804601412	0.935569330566256	-0.3530353333986	-0.00872244667212962	0.352933673522718	0.9355797789694	-0.0113269270911799	-142.401465335802	-89.1808621388325	31.7303910339275
7317	1647943716174	9.71784116142892	-0.0889427676617824	-0.118799914764974	-0.00755186018069221	-0.00594328100223043	-0.093717845809115	0.00306593025201603	0.0183270318786336	-0.00139371966807916	0.560302734375	0.435302734375	0.146240234375	0	0	0	-0.586550293601894	-0.402011395015767	-0.576496350990731	0.402489190721168	0.0120775911436989	0.00753270402767914	0.999898689949236	0.935666903083542	-0.352778579260192	-0.00864410141161459	0.3526777257869	0.935676510544746	-0.0113088172939831	-142.606850393906	-89.1844181294824	31.9514841012377
7318	1647943716175	9.69208871089034	-0.113330358392255	-0.0946075313612426	-0.0226660159570393	0.0240309608879358	-0.119530672623853	0.00159999199019341	0.0106951725957319	-0.00298139898720805	0.560791015625	0.43310546875	0.146484375	0	0	0	-0.586516161491703	-0.402009092661881	-0.576518546917833	0.402509436890566	0.012030108953844	0.00746134847188817	0.999899797358485	0.935677971179346	-0.352749685262422	-0.00862518388011574	0.352649983309601	0.935687975676851	-0.0112250365475796	-142.461755250467	-89.1888879713136	31.8081349719612
7319	1647943716176	9.69201400599493	-0.0887702653039386	-0.0938385956159306	0.000136240667390589	0.0155983591833393	-0.119825142724315	-0.00153035493697085	0.00305077344749066	-4.00760850080154E-05	0.560302734375	0.4326171875	0.152587890625	0	0	0	-0.586517339944959	-0.401991570309812	-0.57653898499723	0.402495945472877	0.012011152356432	0.00744084525995031	0.999900178038232	0.935659260733681	-0.352799582555493	-0.00861407870704362	0.352700269382335	0.935669326402489	-0.0111996253125184	-142.434679019404	-89.1904302105599	31.777995498522
7320	1647943716176	9.71786899360304	-0.0883603153177469	-0.116942498426172	-0.00727601720867874	-0.00551167343319919	-0.093717381037079	0.000152465946220215	-0.00762279529775134	-0.00459159860134015	0.561279296875	0.433837890625	0.150146484375	0	0	0	-0.586535627662834	-0.402026530278931	-0.576513796119603	0.402470457695735	0.0120130236712989	0.00754622376420361	0.999899365820968	0.935665309332852	-0.352784399268139	-0.00857884281683513	0.352684159232209	0.93567420726443	-0.0112987471319016	-142.791549137618	-89.1871432314802	32.1358149745717
7321	1647943716177	9.67052343888292	-0.063702858599964	-0.145065539826781	0.00506247799238729	-0.0413532707799619	-0.140955881170058	0.00311517585535675	-0.0106778324141135	-0.00145478377849407	0.556396484375	0.425048828125	0.146484375	0	0	0	-0.58657571343052	-0.401942615810723	-0.576573420195085	0.402410433678418	0.0120104494395508	0.00750123311830198	0.999899735276475	0.935577873390914	-0.353015952923962	-0.00858951701331051	0.352916125907552	0.935587231893901	-0.0112578679825785	-142.657128413499	-89.1886367378704	31.9872057367984
7322	1647943716178	9.64605569226012	-0.0391509547053445	-0.147476997697628	0.0272209679637127	-0.0512651599048258	-0.165599537748038	0.000111186047493995	-0.010679341838015	-0.00307270497944739	0.564208984375	0.43798828125	0.142578125	0	0	0	-0.586605798568026	-0.401978298880261	-0.576537037817192	0.402383061697034	0.0120369825086206	0.00762812512610339	0.999898456224005	0.935583078960584	-0.353002637777306	-0.00856971906763349	0.352901421667186	0.93559122988051	-0.0113858313685987	-143.032496225096	-89.183477870022	32.3634176861301
7323	1647943716178	9.67180489935106	-0.0143251063036689	-0.171221145242946	0.0433447265740265	-0.0807701916778064	-0.139790730394795	-0.00146293480494056	-0.0091585608237825	-0.0015906292050819	0.560302734375	0.439697265625	0.136962890625	0	0	0	-0.586674605606611	-0.401972435825655	-0.576495214701851	0.402348524787384	0.0121428565245132	0.00775004214093727	0.999896238557901	0.935558038870042	-0.35306765087561	-0.00862495280100689	0.352964172319326	0.935565695583155	-0.0115378640545649	-143.220613209658	-89.174609653728	32.547598491873
7324	1647943716179	9.69624498937197	-0.0386404949622833	-0.17066010312348	0.0215393006818198	-0.0705475766167758	-0.115144172857628	-0.00613357131241444	-0.00764611472952596	0.00132426261375508	0.56103515625	0.433349609375	0.145751953125	0	0	0	-0.586717526163344	-0.401970928491395	-0.576471281143969	0.402321735874117	0.0122004693279936	0.00783292448527229	0.999894891397183	0.935540630530943	-0.353113186982006	-0.00864903492747771	0.353008324510829	0.935547819447739	-0.0116361657189369	-143.376980768451	-89.1692687154346	32.7012051103749
7325	1647943716179	9.69770936592244	-0.0387266467189768	-0.195624781923761	0.0128741532330825	-0.0916638567821974	-0.113369461906757	-0.00465986694526517	-0.00459390652730214	0.00290210928742233	0.552734375	0.43798828125	0.1552734375	0	0	0	-0.586724435144026	-0.402087923457715	-0.576381062793576	0.402324010552856	0.0122203445248212	0.00804573795826491	0.999892958911304	0.935613501117582	-0.352921384684257	-0.00859492635496778	0.352814455069793	0.935618384991047	-0.0118405219712254	-144.024446517561	-89.1616666118827	33.3604594170678
7326	1647943716180	9.74357892278978	-0.0634019858690047	-0.144118104610598	0.00890885899414006	-0.0342277031947689	-0.0679005939505384	-0.00615213057992891	0.00303995945799116	0.00134723775084196	0.5693359375	0.423828125	0.14599609375	0	0	0	-0.586736595808747	-0.40206546350777	-0.576388132419258	0.402318593902002	0.0122401677210431	0.0080297167481963	0.99989284523048	0.935596368655065	-0.352966224109995	-0.00861856119019122	0.352859197490468	0.9356016076763	-0.0118329396139109	-143.932151647393	-89.1612215545553	33.2654203616732
7327	1647943716180	9.6963207028099	-0.0634786168677071	-0.171150316953475	-0.000918303726925137	-0.061643876448049	-0.1148444924918	-0.0122067209943829	0.0030337705111589	-0.000362553055086703	0.565673828125	0.43017578125	0.143798828125	0	0	0	-0.5868030677526	-0.401870064361729	-0.576508937949618	0.402243776223126	0.0122757916682055	0.00784290875631877	0.999893891231044	0.935431437665272	-0.353400791719319	-0.00871239574639066	0.353294962271474	0.935439131742092	-0.0116747779079261	-143.267567611318	-89.1653255713523	32.5741958691213
7328	1647943716180	9.72077564637019	-0.0877654686411558	-0.169718706129405	-0.022721242037081	-0.0514245837751094	-0.0901966502068543	-0.00914846119694467	-0.0015410860846847	-0.000280484707896918	0.55712890625	0.4345703125	0.145751953125	0	0	0	-0.586831219085931	-0.401851953377779	-0.576512423916847	0.402215803943735	0.0122968652719695	0.0078737272469569	0.999893390079024	0.935403359524021	-0.353474909248716	-0.00872029373277305	0.353368564102209	0.935410868522946	-0.0117117442548325	-143.329483396213	-89.1633567734285	32.6315822273351
7329	1647943716181	9.72371927759822	-0.0874199669926234	-0.218909881154861	-0.0389312254021987	-0.0967013869590909	-0.0866700100556681	-0.00604140665471354	-0.00763887076319751	-0.0017273247523379	0.567626953125	0.441650390625	0.14697265625	0	0	0	-0.586896335367679	-0.401844218548856	-0.576478904363667	0.40217656368132	0.0123865936850498	0.00798918892652084	0.99989136667799	0.935374408093528	-0.35355047128869	-0.00876247312282707	0.353442058873253	0.935381332458502	-0.0118521688983027	-143.523968521628	-89.1554544223716	32.8214803447399
7330	1647943716182	9.72231399303759	-0.111774972300635	-0.195475994455303	-0.0531368356461389	-0.0652035164274561	-0.0881298502755019	-0.00451357605182711	-0.00916299623709203	-0.00168476291980857	0.564208984375	0.431884765625	0.135498046875	0	0	0	-0.586934470057792	-0.401858760424936	-0.576453399317581	0.402142938447164	0.0124220301698797	0.00809618941732571	0.999890066398991	0.935362844935038	-0.353581187453629	-0.00875740794493091	0.353471415366916	0.935368801914946	-0.0119650709445736	-143.799065124254	-89.1504150001285	33.0947230065932
7331	1647943716182	9.76948783675783	-0.0872242204794847	-0.168498276630761	-0.01900387424069	-0.0459874518567424	-0.0414839389087547	-0.00610074703893211	-9.75387937930805E-06	-0.000184147070530402	0.56201171875	0.438720703125	0.14013671875	0	0	0	-0.586949830985174	-0.401968311221246	-0.57633558877892	0.402179887348026	0.0125175317615901	0.00828930032588354	0.99988729309793	0.935451629004941	-0.353345629973338	-0.00878154717279023	0.353233012600182	0.93545612044545	-0.0121772546391692	-144.202989607982	-89.1397652829854	33.5131329923801
7332	1647943716183	9.74365443055066	-0.0872379710616683	-0.145163436268938	-0.0112327652976618	-0.0245531163833773	-0.067598576069118	-0.0106002274630359	0.00914991152651988	-0.00335087232590267	0.554443359375	0.432373046875	0.14990234375	0	0	0	-0.58694432478195	-0.40193384524381	-0.576378764843263	0.402160494195465	0.0124734069705589	0.00823204098100505	0.999888317573435	0.935419116633559	-0.353432241911968	-0.00875937289840384	0.353320662224897	0.935423905979726	-0.012108912692428	-144.118689228433	-89.1436839325303	33.4235069182189
7333	1647943716184	9.69510598399779	-0.135952186418437	-0.147325858429923	-0.0597660455326986	-0.0100140281452707	-0.11569836690669	-0.0121768838507122	0.0121967680868587	-0.00186439003063752	0.561767578125	0.43212890625	0.14013671875	0	0	0	-0.586904451669951	-0.4019309672893	-0.576451528953463	0.402117267611199	0.0123102646022041	0.00818792046606964	0.999890701698873	0.935392375398328	-0.353506401245582	-0.0086213876534163	0.353397172360075	0.935396270164062	-0.0120106757122356	-144.328822505911	-89.1528734530101	33.6290515850216
7334	1647943716185	9.6920836617924	-0.11153716995011	-0.0972200872947995	-0.0197557882231412	0.0272820988834327	-0.119532909703771	-0.00450749062611079	0.013739668861604	-0.00315476982342899	0.565185546875	0.422119140625	0.1484375	0	0	0	-0.586873583944206	-0.401904520347584	-0.576495771809311	0.402125326333281	0.0122507632203312	0.00808719178237577	0.999892252260009	0.935381393256679	-0.353535956891061	-0.00860094961703034	0.353428306661637	0.935385976222755	-0.0118956940146782	-144.131923074544	-89.1589039089117	33.4303102066749
7335	1647943716186	9.6949724926263	-0.0865056633016857	-0.144872001820203	-0.0109937258409779	-0.0269537143709822	-0.116290332564452	0.00622868521870186	0.0061282334388936	-0.00437497127394927	0.561767578125	0.4375	0.147705078125	0	0	0	-0.586951603488614	-0.40181279493221	-0.576458319130087	0.402156809337633	0.012484568268961	0.00803605190042378	0.99988977263746	0.935342605250386	-0.353632757064281	-0.00883651144600861	0.353522766393564	0.935349824932346	-0.0119314140181796	-143.476022429732	-89.1492806178214	32.768524899007
7336	1647943716187	9.69497702701963	-0.0860051207422844	-0.14486661939077	-0.0107902385210971	-0.0267984402221026	-0.116289673604211	0.0017215703174556	-0.00608799190971385	-0.00606947675929026	0.558349609375	0.43603515625	0.145751953125	0	0	0	-0.586960144031032	-0.401852033304744	-0.576437214946614	0.40213538749096	0.0124701611068687	0.00813064910189976	0.99988918767389	0.935353860288964	-0.353604146912677	-0.00878995612569611	0.353493495165756	0.935359823720979	-0.0120145347041749	-143.810416981112	-89.1470262296196	33.1046859028857
7337	1647943716190	9.69626942687312	-0.0365433738262676	-0.169731168186606	0.0254331605068362	-0.0663549177085457	-0.115124008942466	0.00320606871308916	-0.00914248928426291	-0.00450554200796673	0.5556640625	0.431396484375	0.141845703125	0	0	0	-0.586939254015178	-0.401933677507871	-0.576432246632645	0.402091402573031	0.0123503678540815	0.00826440460640709	0.999889577918667	0.93537820675378	-0.353543645723703	-0.00863139029789683	0.353433273396763	0.935381521190629	-0.0120967380377895	-144.490988491836	-89.1485295293356	33.7889590680709
7338	1647943716191	9.72062022078881	-0.0361826808653532	-0.169360929083391	0.0265288785198742	-0.0646450108885872	-0.0907756733675793	0.0061725055171961	-0.0137247898408618	-0.00137396310726215	0.5615234375	0.431396484375	0.144287109375	0	0	0	-0.586969997137916	-0.401987447687879	-0.576370692874035	0.40208101019223	0.0124058325945787	0.00841372116569061	0.999887645995179	0.93540456290964	-0.353473906288361	-0.00863141130243134	0.353361569791425	0.935406546304543	-0.0122553712774016	-144.843109279927	-89.1411131071093	34.1453908599306
7339	1647943716191	9.74791688204676	-0.0357222598699607	-0.21780950885244	0.0110201572833275	-0.108046556688768	-0.0628768505387747	0.00311643519868727	-0.0106768670349315	-0.00145882424097419	0.5693359375	0.43896484375	0.140625	0	0	0	-0.587023965791086	-0.402028888591657	-0.576306908332129	0.402052215182713	0.012486240292839	0.00859024684724841	0.999885144135292	0.935412123327381	-0.353453578008861	-0.00864451993437315	0.353338723232413	0.935412623312214	-0.0124487273506733	-145.223502650974	-89.1316028789242	34.5270794257899
7340	1647943716192	9.77089104224319	-0.0601102082573968	-0.192753327786999	-0.00227765861029409	-0.0749855512805861	-0.0399983351280184	0.00153090802261674	-0.00305049907936867	3.8694428948247E-05	0.559326171875	0.431640625	0.143310546875	0	0	0	-0.587036212719781	-0.402043733911176	-0.576282994079593	0.402053767191698	0.0125174935148392	0.00863496432944927	0.99988436818821	0.935421959282294	-0.353427208619449	-0.00865830814532631	0.353311577008992	0.935422175062413	-0.0125013580432478	-145.293936575226	-89.128674387142	34.599143909602
7341	1647943716192	9.7952678033268	-0.0600268409730851	-0.19090698492483	-0.000451176704065366	-0.0720532666806654	-0.015640456348569	-0.00154521120157754	0.0106833382370331	-2.03665192632584E-05	0.559326171875	0.4404296875	0.1455078125	0	0	0	-0.587021205965282	-0.402101858824777	-0.576219227452596	0.402108941445796	0.0125709940871856	0.00867882899304973	0.999883317210048	0.93549044335976	-0.353244988678	-0.00869530657533674	0.353128305988375	0.9354905963724	-0.0125596022465508	-145.30423794386	-89.1247235257495	34.6206268883302
7342	1647943716193	9.77101870899765	-0.084740674286619	-0.190934640667764	-0.0240309095257527	-0.0649343989625781	-0.0396812076060389	-0.00322870792819929	0.0213552011438995	0.00453480427870364	0.5595703125	0.434814453125	0.1376953125	0	0	0	-0.586981943861619	-0.402040990373454	-0.576267016934395	0.402158631429815	0.0125587345061321	0.00848009434596542	0.999885176501527	0.935483113819878	-0.353262954452061	-0.00875378601908117	0.353148158632424	0.935485634850523	-0.0123695207200653	-144.71333943021	-89.1317252464824	34.0285903542018
7343	1647943716193	9.76818690258231	-0.109596421488535	-0.140013548983779	-0.0308740156235838	-0.00904711417563514	-0.0429353205768983	-0.012249505795166	0.0259310324458201	-0.000307244347463281	0.559326171875	0.442138671875	0.1357421875	0	0	0	-0.5868862445664	-0.402102794822475	-0.57630664517045	0.402179722346966	0.01236798625667	0.0084195052833051	0.999888066158777	0.935534891448759	-0.353129626657743	-0.0085984683823318	0.353017704652208	0.935536519173542	-0.012244243330595	-144.921712139895	-89.1427206055193	34.2450720379512
7344	1647943716193	9.69353364755264	-0.0855370657675525	-0.117834934054317	-0.00204275632844329	0.000750054303249453	-0.118060435639185	-3.39689905556205E-05	0.0183189785680176	4.55265023041553E-05	0.55810546875	0.441650390625	0.142578125	0	0	0	-0.586840059543603	-0.402071135286783	-0.576347991345558	0.402219516627424	0.0123235900822748	0.00826607696852533	0.999889894487905	0.935539718921313	-0.353116525226398	-0.00861126777334115	0.353006463748348	0.935542832575604	-0.0120849066318835	-144.527700844698	-89.1497509688292	33.8518259175304
7345	1647943716194	9.69214958162952	-0.11007483926678	-0.092184293413565	-0.0184185912976581	0.0349294246315739	-0.119554817205852	-0.00307015656692071	0.0106809071560088	-6.66601890077584E-05	0.57275390625	0.425048828125	0.143310546875	0	0	0	-0.586711331188845	-0.402320556146349	-0.576280108270562	0.402255168727979	0.0120788138275243	0.00846875374861639	0.999891185312915	0.935715362496428	-0.352657898667434	-0.00831666373299139	0.352549092531378	0.935713998354954	-0.0121840320865895	-145.683057104761	-89.1547497123977	35.0352429577809
7346	1647943716194	9.66919406986893	-0.0856037990805785	-0.116967209341256	-0.0047082559712577	0.00221775856880171	-0.142408351007131	-0.00459249339363543	0.00915174540601879	-0.000117167573264786	0.562255859375	0.4296875	0.142578125	0	0	0	-0.586699978105	-0.402296067011826	-0.576303819750606	0.402262249657198	0.0120635636153545	0.00840364537730121	0.999891918747857	0.935704729452962	-0.352685913935093	-0.00832498595356995	0.352577834970177	0.935704026311815	-0.0121179796831817	-145.511147048995	-89.1576031666515	34.8616031139917
7347	1647943716195	9.64633523893956	-0.0855446316836107	-0.141802738892444	-0.0101826714317773	-0.0219508187911846	-0.164961007854771	-0.00307299612120874	0.0122075337852922	-6.27059745776788E-05	0.55029296875	0.435302734375	0.142822265625	0	0	0	-0.586816046275909	-0.402154108362614	-0.576245640875094	0.40231823514804	0.0124260689990471	0.0083127092286876	0.999888239592061	0.935649226223163	-0.352824221588875	-0.00869448838061593	0.352712515056139	0.935652695996481	-0.0121619980796381	-144.439410270616	-89.1433850211593	33.7814684657378
7348	1647943716196	9.67240565654316	-0.134019419822431	-0.163590107189803	-0.0632937669441558	-0.0260212190465236	-0.138212145210241	0.00464082184734935	0.0152817855009984	-0.00287100925102279	0.55615234375	0.43212890625	0.140625	0	0	0	-0.586763777794195	-0.40215126263079	-0.576273496635345	0.402357413388667	0.0123664380802685	0.00819976119061516	0.999889911503074	0.935671415233177	-0.352765747711285	-0.00867928322174122	0.352655744210628	0.935675740391999	-0.0120347379337081	-144.201389053832	-89.1498166692409	33.5469938428859
