// Start Time : 12/04/2022 12:07:34																																
// Update Rate : 100Hz																																
// Filter Profile : 46.1 human																																
// Firmware Version : 4.4.0																																
PacketCounter	Time_Of_Arrival	Acc_X	Acc_Y	Acc_Z	FreeAcc_X	FreeAcc_Y	FreeAcc_Z	Gyr_X	Gyr_Y	Gyr_Z	Mag_X	Mag_Y	Mag_Z	VelInc_X	VelInc_Y	VelInc_Z	OriInc_q0	OriInc_q1	OriInc_q2	OriInc_q3	Mat[1][1]	Mat[2][1]	Mat[3][1]	Mat[1][2]	Mat[2][2]	Mat[3][2]	Mat[1][3]	Mat[2][3]	Mat[3][3]	Euler_X	Euler_Y	Euler_Z
20149	1649765289174	9.61041870428673	0.422137752968518	-0.740279653463397	0	6.93889390390723E-16	-0.164559984778831	-0.000757604899255814	0.0061541142763662	-0.00245904228953278	0.55224609375	0.439453125	0.123046875	0	0	0	-0.602829386833755	-0.418301376716988	-0.574658996030827	0.362474449978412	-0.0104180069649719	0.0877303178531934	0.996089783332936	0.920927131898876	-0.38727246269904	0.0437407975182163	0.389595537530125	0.917781799211772	-0.0767586227873778	150.32340546241	-84.931497576034	96.7721803939957
20150	1649765289175	9.63694946585994	0.394049198312793	-0.700880705956357	-3.46944695195361E-16	-1.38777878078145E-15	-0.142252859413503	-0.00434958252497001	0.00823679411896259	0.00541188798795735	0.5625	0.440673828125	0.123779296875	0	0	0	-0.601402133738034	-0.417821448600518	-0.574678317263413	0.365356732922766	-0.0096598624866856	0.0826322364659091	0.996533291241883	0.922482606373561	-0.383879389594736	0.0407732164859975	0.385917773618914	0.91967849150723	-0.0725185787505903	150.653341477693	-85.2277646517521	96.6677195545055
20151	1649765289175	9.66367605276857	0.438414383813616	-0.71669127375369	0.0291059905197998	-0.00467468612581762	-0.112603894342133	-0.00415833492646766	0.0120700351319781	-0.000230516805772621	0.5625	0.4375	0.130126953125	0	0	0	-0.602126657912778	-0.417990560898615	-0.574728329970367	0.363888342159958	-0.0100575245417318	0.0850926405753849	0.996322281553514	0.921640397316497	-0.385738330879478	0.0422482913808824	0.387914712577884	0.918675776653669	-0.0745452423391007	150.45773448079	-85.0845864743686	96.7408008821855
20152	1649765289175	9.65633456210878	0.41606386679041	-0.680430461426378	0.0220789890431812	0.0355579974654463	-0.123562533151517	-0.00329153134332029	0.0126303930936129	-0.00146820298890859	0.5615234375	0.4482421875	0.122314453125	0	0	0	-0.602093281665158	-0.417962541272472	-0.574775904667784	0.363900609617612	-0.0101200529872233	0.0849822719714621	0.996331068459729	0.921627480379944	-0.385767320825976	0.0422653710650233	0.387943774194214	0.9186738200435	-0.0744180114665237	150.405788080015	-85.0904656064768	96.7910459406905
20153	1649765289176	9.65641339589466	0.41614886867592	-0.679258676676151	0.0220774207769416	0.0355203710210861	-0.123562391566216	-0.00913097082360531	0.0111039267910526	0.000582111751359636	0.560302734375	0.436279296875	0.130615234375	0	0	0	-0.602079062033393	-0.417912369810668	-0.574828754145789	0.363898279231191	-0.0101576908671359	0.0848741862829957	0.996339898738903	0.921590964228042	-0.38585458706362	0.0422650244905985	0.388029529764779	0.918647163030923	-0.0742998915595578	150.366889735118	-85.096380842083	96.8246639110451
20154	1649765289176	9.64999011768646	0.384621519238638	-0.66614999590049	-0.00212759224481364	0.0585521920031355	-0.132265578279052	-0.00742327646053656	0.00262759885307962	-0.000143597361277813	0.556884765625	0.439453125	0.12841796875	0	0	0	-0.602084716001682	-0.417886685310205	-0.574852436483382	0.363881009763827	-0.0101692109808623	0.0848506023862204	0.996341789961016	0.921562142597297	-0.385922657947414	0.0422719696049533	0.388097673890872	0.91862074729319	-0.0742705740047543	150.353123474962	-85.0976486614609	96.8342118842651
20155	1649765289177	9.610586714391	0.349687785470368	-0.680015134907897	-0.0395124769850052	0.0560008551079467	-0.171972565907653	-0.00315386642777427	-0.00272825149212508	-0.00361007738350593	0.5625	0.441162109375	0.120361328125	0	0	0	-0.602090149519154	-0.417892892229823	-0.574858055640609	0.363856013198759	-0.0101925070222146	0.0848872673701272	0.996338428767573	0.921549508492456	-0.385948664565798	0.0423099482059646	0.388127061924206	0.9186064337671	-0.074294035048407	150.338781089388	-85.0953956425794	96.8467889158988
20156	1649765289177	9.62540564124149	0.394823842431256	-0.750583922965831	-0.0254587292914993	-0.0244646900883293	-0.150055777257194	-0.00243724345605637	-0.00744281169601699	-0.000179143083380028	0.56201171875	0.43603515625	0.130615234375	0	0	0	-0.602115601572809	-0.417899966412013	-0.574841067435053	0.363832609321349	-0.0101652694740668	0.0849563283269217	0.996332820684799	0.921540030366782	-0.385970900934514	0.0423135446800519	0.388150279824852	0.918590706413367	-0.0743671591690941	150.360920502189	-85.0916388230852	96.8231665031206
20157	1649765289178	9.63067661151915	0.36293765852522	-0.685526691632498	-0.0293911878234687	0.0486302054365714	-0.150991143553911	2.77940205451591E-05	-0.00623888987843116	-9.85180952588432E-05	0.56396484375	0.441650390625	0.13818359375	0	0	0	-0.602133247876009	-0.417910272048701	-0.574822500645154	0.363820902465101	-0.0101398054635353	0.0850104569749295	0.996328463183741	0.921540220742795	-0.385970710891319	0.0423111319556777	0.388150493878963	0.918585778541647	-0.0744268873630621	150.382091754257	-85.0887217395257	96.8019418909819
20158	1649765289179	9.62434911460963	0.404143187578635	-0.729084873706744	-0.00825969267475891	-0.00729828935557911	-0.152311031892831	0.00099107761354419	-0.00376174608065232	-0.00415726813776747	0.568359375	0.44482421875	0.120849609375	0	0	0	-0.602133569617045	-0.417932479490726	-0.574816666648853	0.363804077313148	-0.0101635153411276	0.0850610574004961	0.996323902889929	0.921543645538117	-0.385958071834127	0.0423518140626948	0.388141742568651	0.9185864049179	-0.0744647861460621	150.370964811794	-85.0856707482291	96.8136798016456
20159	1649765289179	9.65825102719669	0.398712252806117	-0.725215956156138	-0.0122215801810308	0.00100343291940808	-0.11905171191871	-0.00508199526709339	0.00815306125563795	0.00285706545501664	0.559326171875	0.439453125	0.1318359375	0	0	0	-0.60212551955625	-0.417891935413593	-0.574846566091383	0.363816731979636	-0.0101644884615474	0.0849691993283876	0.996331731071438	0.921524395588718	-0.386007431695879	0.0423208106065817	0.388187418020164	0.918574165672562	-0.0743776219692055	150.360156546396	-85.0909092306728	96.821623466718
20160	1649765289180	9.62444753091923	0.403887740421518	-0.727926407329775	-0.00821755685093441	-0.00735586281499015	-0.152311039625848	0.00144582686994423	0.0112046163994272	0.00433668026538037	0.556640625	0.436279296875	0.132080078125	0	0	0	-0.602099745017002	-0.417862652000948	-0.574869388191154	0.363856960403293	-0.0101680188330754	0.0848495360115304	0.996341892942196	0.921530448876066	-0.385997832857622	0.0422765280444687	0.3881729552497	0.918589260370405	-0.0742665977736091	150.349148580821	-85.0977177063883	96.8335033475931
20161	1649765289181	9.64376377992807	0.425717254195838	-0.708501006663178	0.0191173921141501	0.0024570296235378	-0.133585283015195	0.00154138439526844	0.0131221484544699	0.00151608881281555	0.56201171875	0.4404296875	0.129638671875	0	0	0	-0.602063088282085	-0.41783605021821	-0.574902277495235	0.363896199756297	-0.0101991870623258	0.0847178175564157	0.996352782889547	0.921536833603441	-0.385985181881941	0.0422528541013431	0.388156979707195	0.918606733458907	-0.0741338542674336	150.31886820762	-85.105024481356	96.8648065483099
20162	1649765289183	9.63739197567441	0.393962369962371	-0.69481880308701	-0.00508772267184439	0.0254889992636148	-0.142287789344801	-0.00096587189825235	0.0133595806036516	0.0024087520733677	0.563720703125	0.444580078125	0.127197265625	0	0	0	-0.602031474325687	-0.417801714186936	-0.574940127928656	0.363928125927466	-0.0102288461603239	0.0845857973803748	0.996363695438445	0.921533330490668	-0.385996093562761	0.0422295696055048	0.388164516025108	0.918614314408291	-0.074000336912606	150.288012145932	-85.1123573517331	96.8952199631698
20163	1649765289184	9.63552689417451	0.411957112413936	-0.648667706867469	0.0293111061714977	0.059815912609458	-0.146797859125339	0.000742824059880447	0.00488247305344555	0.00168214244201308	0.554443359375	0.438720703125	0.12939453125	0	0	0	-0.60201945479691	-0.417786869959661	-0.574950505020971	0.3639486558726	-0.0102279038691205	0.0845267203575353	0.996368718661944	0.921536574340155	-0.385991014355675	0.0422052009838949	0.388156839609787	0.918621886513857	-0.0739465853293171	150.284326736734	-85.1157364822471	96.8993631878621
20164	1649765289185	9.63004125319005	0.371123854725394	-0.658677315270698	-0.0120721423409267	0.0656469674730445	-0.153244935152168	0.00323633513339543	-0.000153306273018165	0.00166428520408698	0.548095703125	0.445068359375	0.12744140625	0	0	0	-0.602017482706409	-0.417791442839083	-0.574940254372797	0.363962861715339	-0.0102119716156394	0.0845217048347909	0.996369307559974	0.921549306022264	-0.385962691164836	0.0421862252243828	0.388127031016401	0.91863424845834	-0.0739494783874491	150.296382949477	-85.1161327876415	96.8891240831746
20165	1649765289186	9.63649669587117	0.402442851881152	-0.67153214471995	0.0121570330263975	0.0424151060212687	-0.144541865765804	0.00157077093767846	-0.00895370764896546	0.00306751229199283	0.553955078125	0.443115234375	0.125	0	0	0	-0.602043720201127	-0.41779662993172	-0.574908005661249	0.363964448828029	-0.0101464779113933	0.0845715239285372	0.99636574927403	0.921555825557807	-0.385951712014014	0.0421442329853135	0.388113268732805	0.91863427615883	-0.0740213300318303	150.344866842509	-85.1137386885096	96.8413675775771
20166	1649765289186	9.63093629624148	0.36128529565766	-0.682745698302125	-0.0292262364696361	0.0482462923117842	-0.150988718453	0.000606105071702728	-0.0114303614995194	0.00712634404198266	0.563720703125	0.4462890625	0.126708984375	0	0	0	-0.602090359506952	-0.417797720665353	-0.574859361792686	0.363962879638748	-0.0100364424677191	0.0846490222624584	0.996360282655126	0.921558897083893	-0.385952173703812	0.0420727800224902	0.388108836575657	0.918626944218007	-0.0741354728087516	150.424563845991	-85.1100628958456	96.7617282021309
20167	1649765289187	9.67868544350891	0.409272535495317	-0.727575685682891	-0.00195451254407126	-0.0069588851566299	-0.0980710562447875	0.00981928315833646	-0.00958070179152237	0.00294716604696575	0.557373046875	0.441162109375	0.1279296875	0	0	0	-0.602101872624167	-0.417824892476846	-0.574809709961487	0.36399105970226	-0.0099676868785939	0.0846951094665401	0.996357056305992	0.921597491290662	-0.385865735367075	0.0420202131882394	0.388018954775471	0.918659007848983	-0.074208611581634	150.479533072645	-85.1078947690867	96.7122098052605
20168	1649765289187	9.65658261917	0.414162414260371	-0.678065968557646	0.0223007718022387	0.0347809789211936	-0.12356022066103	-0.000936430542686211	0.00712018880967354	0.00230924906426754	0.560791015625	0.43505859375	0.128173828125	0	0	0	-0.602087937075445	-0.41780229045278	-0.574828898240858	0.364009752435079	-0.00997403232077493	0.0846207884458517	0.996363307655429	0.921594088210588	-0.385876292449128	0.041997898768996	0.388026874397328	0.918661422444917	-0.0741372757587073	150.46895430255	-85.1120965863711	96.7222887593682
20169	1649765289188	9.62375672375549	0.410367211092446	-0.703126216013946	0.00914269714553904	0.00890151817345419	-0.154565489181136	0.00315326868361096	0.0185650056619127	0.00195935713415783	0.556396484375	0.442626953125	0.131103515625	0	0	0	-0.60202737050316	-0.417761787654574	-0.574881063359724	0.364074026718606	-0.0100262964679029	0.0844095337934671	0.996380702334157	0.921606588280062	-0.38585038368911	0.0419616234880419	0.387995837371902	0.91869173938364	-0.0739237321185867	150.419282651574	-85.1238073517503	96.7739433140221
20170	1649765289189	9.63661926587169	0.400742179741841	-0.670789984669656	0.0122165102190701	0.0417970575732986	-0.144539249052993	0.00483248010002641	0.0163278669540652	0.00133234774771088	0.55908203125	0.44677734375	0.128173828125	0	0	0	-0.601974422759754	-0.417741940256591	-0.574917690768149	0.36412650897118	-0.010077359615044	0.0842543833266461	0.996393318782014	0.921625470067359	-0.38580711363024	0.0419447731597499	0.387949661356095	0.918724153357551	-0.0737630686125616	150.375624679088	-85.1323188140696	96.8205383059878
20171	1649765289190	9.63574488200818	0.40965261759209	-0.646886660306642	0.0293778599613818	0.0586232161180873	-0.146790754545265	0.0023532557375644	0.0103258348192156	0.00212614952998075	0.554443359375	0.438720703125	0.130126953125	0	0	0	-0.601937340874113	-0.41771265358238	-0.57494862468717	0.36417256303695	-0.0100995639850023	0.084112659359902	0.996405067902968	0.921634716427486	-0.385788966736532	0.0419085029556912	0.387927117230725	0.918744759810778	-0.0736248466028613	150.350739018414	-85.140258522556	96.8468325590029
20172	1649765289191	9.63676167954766	0.400337659813686	-0.668983006498977	0.0121996124785398	0.0414219407860947	-0.144537613299304	-0.000909703389042797	0.000881269156418031	0.00221078887769218	0.556884765625	0.4423828125	0.135009765625	0	0	0	-0.601941076021943	-0.417701782545963	-0.574949156977958	0.364178017933272	-0.0100826245034786	0.0840960320827244	0.996406642928009	0.921631409685278	-0.385799184224238	0.0418871595293993	0.387935413908876	0.918741991442567	-0.0736156762890584	150.360218023957	-85.1413238617582	96.836796162417
20173	1649765289192	9.65790842129093	0.404201918094302	-0.69615863839573	0.00504871231267051	0.0163763790560323	-0.121303692757865	-0.00324934890558689	-0.00464570427134578	-0.000790168293742971	0.55859375	0.444580078125	0.126220703125	0	0	0	-0.601947059084109	-0.417689608634545	-0.574956619544477	0.364170309801199	-0.0100794470385832	0.0840898025315898	0.996407200825845	0.921618323578638	-0.385830752596039	0.0418843168175865	0.387966584117109	0.918729304779908	-0.073609742202574	150.359904166999	-85.1417012770098	96.8351635166261
20174	1649765289193	9.60285434368879	0.405647932547532	-0.673115385722986	0.0161296008969129	0.0325647130769935	-0.177796315611573	0.00811030274816588	-0.00110356546795633	0.00367537798496347	0.564208984375	0.438232421875	0.128173828125	0	0	0	-0.601943132434852	-0.41770385935803	-0.574929683932635	0.364202978742686	-0.0100413111789462	0.084085732152486	0.996407929373401	0.921650145975912	-0.385759352304723	0.0418417319433566	0.387891970131359	0.918759659409261	-0.0736240976161499	150.389749956636	-85.1421941800327	96.8098723219063
20175	1649765289194	9.61032032274765	0.427639173382327	-0.708320938046909	0.0230784524878319	-0.00822362180414454	-0.166846276149926	0.000631920338220457	-0.00183240926669406	0.00537777797274766	0.56298828125	0.43994140625	0.1259765625	0	0	0	-0.601945628493805	-0.417677960480353	-0.574927352172291	0.364232235517848	-0.00999267789373814	0.0840246953745726	0.996413567227846	0.921652994342854	-0.385759999877288	0.0417729639063956	0.38788645813867	0.918764971612373	-0.0735868366676589	150.417767071161	-85.1460101910351	96.7820746631602
20176	1649765289195	9.6240214292264	0.408759635342453	-0.700434171078931	0.00897450396125359	0.00746909883045932	-0.154564117445686	0.000770731978299351	-0.00135687270262382	0.00158349915449427	0.5595703125	0.430419921875	0.128662109375	0	0	0	-0.601951449238198	-0.417677878507393	-0.574918751291592	0.364236285917415	-0.00997276156224003	0.0840310672150674	0.996413229423174	0.921656149913978	-0.3857542356533	0.0417565683609298	0.387879472713581	0.918766809053437	-0.0736007148688071	150.432060169271	-85.1457814619076	96.7681744105053
20177	1649765289196	9.6432405474754	0.430709455186624	-0.682253896187441	0.0361527709390316	0.0167934570348152	-0.135834556141733	0.00323566390401217	-0.000153199398775368	0.00166479696648056	0.558349609375	0.441162109375	0.131591796875	0	0	0	-0.601936232326959	-0.417668709651066	-0.574922939835448	0.364265335217894	-0.00996707554124088	0.0839708640892179	0.996418361627919	0.921668853703684	-0.385727229074018	0.0417256379629863	0.387849431503636	0.91878365175649	-0.0735487576191231	150.432916479506	-85.1492576618378	96.7691560013397
20178	1649765289197	9.65790570890728	0.402872957437255	-0.696966142027639	0.00487225645712536	0.0152836750324688	-0.121301817603639	0.00240931366187536	-0.00215397036678558	0.00192939028031145	0.554931640625	0.433349609375	0.13134765625	0	0	0	-0.601942131593764	-0.417673709408822	-0.574907840503419	0.364273685034654	-0.00994070520726048	0.0839832106734499	0.996417584502081	0.921678401135433	-0.385706709719897	0.0417044237160079	0.387827419428302	0.918791137529107	-0.0735713146379376	150.452958461348	-85.1487311309876	96.7504287003299
20179	1649765289197	9.6569109463237	0.41185787897586	-0.674785819184497	0.021834489550485	0.0319403921834174	-0.123549378238886	0.0016661026461666	-0.00703695390457416	0.00024785412828099	0.553466796875	0.44482421875	0.12646484375	0	0	0	-0.601943270038255	-0.417678290367327	-0.574901310695828	0.364276856761032	-0.00993334256790929	0.0839907870392457	0.996417019323715	0.921683756671541	-0.385694434768258	0.0416995884467528	0.387814880314388	0.918795597878724	-0.0735817091770422	150.459280652794	-85.1483482380161	96.7448721780499
20180	1649765289198	9.64509435630021	0.411995085015204	-0.728913540939186	0.00158483454436517	-0.0181552349941355	-0.131335812060703	0.00320718418766849	-0.00975023442654424	0.00341511538181048	0.55712890625	0.44189453125	0.1220703125	0	0	0	-0.601972636422484	-0.417694910145933	-0.574859022793963	0.36427600929668	-0.00986386809889828	0.0840671110984506	0.996411272988061	0.921696514024747	-0.385667902178132	0.0416629963414387	0.387786333102078	0.918799755148573	-0.0736801859265092	150.513696003767	-85.1444569619201	96.6921021955604
20181	1649765289200	9.62388378944353	0.407993972164932	-0.702767893837877	0.00841746428758803	0.00595543543525437	-0.154562563922333	0.00257484120320357	-0.00791813743817276	-0.00196272417168247	0.56298828125	0.43896484375	0.12353515625	0	0	0	-0.601969991062993	-0.417716011765645	-0.574849492250079	0.364271223999441	-0.00987721045113993	0.0841027514240821	0.996408133204764	0.921707264053655	-0.385639617761105	0.0416869836255207	0.387760441644619	0.918808365447315	-0.0737090732515518	150.509188769831	-85.1423320922418	96.6982580824095
20182	1649765289200	9.63947350187306	0.371020986203508	-0.740548726871258	-0.0400440763482413	-0.0127564129895459	-0.137784153752335	0.0039091979660087	-0.00342578702021813	0.00606952347856304	0.56103515625	0.439208984375	0.123779296875	0	0	0	-0.60198539742334	-0.41771530025451	-0.574819903360028	0.364293271861445	-0.00980798673109423	0.0841109754148335	0.996408122814667	0.92172306871925	-0.385608680019536	0.0416236769682835	0.387724629069462	0.918820597128926	-0.0737449815553033	150.558433258578	-85.1423250622123	96.6510914090469
20183	1649765289201	9.64596325139387	0.402173635970433	-0.753161842995964	-0.0159202116030344	-0.0362670930656089	-0.129091197032391	0.00984532754666995	1.59698508926894E-05	0.00119892376442567	0.5625	0.447509765625	0.126953125	0	0	0	-0.601958042297533	-0.417728288817727	-0.574809309700082	0.364340293567498	-0.00980533159294161	0.0840574206151181	0.996412668281514	0.921762191180952	-0.385518454409126	0.0415930789830293	0.387631678764317	0.918863358367027	-0.0737008159305304	150.561776125592	-85.1454015340209	96.653505450939
20184	1649765289202	9.65872756856807	0.392607969599575	-0.722193367585017	-0.0128450520644422	-0.00337201287135547	-0.119053052588828	0.00407658516999224	0.00664605372198487	0.000523735475121994	0.55322265625	0.438232421875	0.133056640625	0	0	0	-0.601932686612778	-0.417726440547119	-0.574819653715186	0.364367983442167	-0.00982602685882483	0.0839946411211871	0.996417758502473	0.921778153389694	-0.385481187020246	0.0415847374278978	0.387593195411961	0.918884734183992	-0.0736366766900853	150.545340320746	-85.1488490175902	96.6723605927479
20185	1649765289203	9.6248942521734	0.397997725654045	-0.725259126359253	-0.00902840792820925	-0.0121091228458534	-0.152316552148049	0.00320854702516578	0.00608676177602784	0.00176170549680947	0.569091796875	0.43896484375	0.13134765625	0	0	0	-0.601900570312594	-0.417710205947686	-0.57484314704901	0.364402584506897	-0.00985291972413627	0.0838913654291324	0.996426193342661	0.921788679312081	-0.385457880503671	0.0415674518067474	0.387567478853681	0.918903945559085	-0.0735322253909688	150.520710108644	-85.1545671178519	96.6986184390858
20186	1649765289203	9.6376770647064	0.388376473485114	-0.694008651833795	-0.0059559056535978	0.0207849467275631	-0.142277030375356	0.00320837279273727	0.00608689979432468	0.00176179141374418	0.5625	0.435546875	0.125	0	0	0	-0.601880910615353	-0.417703169286696	-0.574851465432935	0.364429999443364	-0.00986028988508697	0.0838288893389074	0.996431378467974	0.921801366249875	-0.385429675747118	0.0415476381198284	0.387537115465406	0.918921477801927	-0.0734731363906327	150.512680016344	-85.1580855328455	96.7085340756904
20187	1649765289204	9.63770956023781	0.388063261741395	-0.693732527685065	-0.00589968747188464	0.0202922239214004	-0.142275949440997	0.0039641812761715	-6.78652669378532E-05	0.00422161389384159	0.561767578125	0.445556640625	0.126953125	0	0	0	-0.601876328223236	-0.417684524196873	-0.574845048191332	0.36446905813917	-0.00981438236732457	0.0837623889780443	0.996437424072099	0.921815322139087	-0.385403887811157	0.0414771639538798	0.387505083538732	0.918938357809019	-0.0734309524581032	150.540249957641	-85.1621910570916	96.6828367206849
20188	1649765289205	9.6239927317779	0.40624335233173	-0.702290012084425	0.00821059728537167	0.00460442501922717	-0.154561647270384	0.0123210823121649	-0.00981794638822627	0.00206063865065533	0.560546875	0.437255859375	0.133056640625	0	0	0	-0.601886536922651	-0.417731602071947	-0.574785821507077	0.364491652436783	-0.00975686395032149	0.0838447869117739	0.996431058986809	0.921863322425168	-0.385292287868615	0.0414471672880024	0.387392331329734	0.918977640977563	-0.073534189396676	150.592441855311	-85.1578686721978	96.6375512124087
20189	1649765289206	9.65780886795487	0.400227702136816	-0.699826378802854	0.00409164413393941	0.0125078752838743	-0.1212974765788	0.00391927887277999	-0.0144617399980421	0.00685098103969013	0.569580078125	0.439453125	0.12060546875	0	0	0	-0.601924929641142	-0.417735878133192	-0.574735720298867	0.36450235528641	-0.0096488241343331	0.0839062306754669	0.996426938940663	0.921876325540141	-0.385269538221902	0.0413693525075141	0.387364093071923	0.918981570746725	-0.073633769606404	150.671598468351	-85.1550728933945	96.559931950074
20190	1649765289207	9.62480836583483	0.396145848121927	-0.727409675260078	-0.00907596026704285	-0.013034022512582	-0.152317800329605	0.00488384901357441	-0.011986596476784	0.00279134813941002	0.558349609375	0.439697265625	0.119384765625	0	0	0	-0.601956415629058	-0.417763290360171	-0.574684231716188	0.364500124454348	-0.00957626591156363	0.0840056377282158	0.996419263142311	0.921895533658224	-0.385226985000416	0.0413375742939537	0.38732017782735	0.918990327945493	-0.0737553861790791	150.730740857245	-85.1498685418766	96.5033883757657
20191	1649765289208	9.62473226756559	0.395783545067842	-0.728612812072113	-0.00891636733944927	-0.0132631900072289	-0.152317963626571	0.0106241015431155	-0.0123762512491323	0.00356409319064834	0.552734375	0.442138671875	0.123779296875	0	0	0	-0.601977479595527	-0.417800566125922	-0.57461516180598	0.364531503202897	-0.00947979446490693	0.0840824061475142	0.996413710500487	0.921943720932753	-0.385118940234991	0.0412695687516563	0.387207836864872	0.919028590876651	-0.0738683979906478	150.808324539178	-85.1461072048593	96.4325969591679
20192	1649765289209	9.62466097288038	0.395351844554044	-0.729787997756908	-0.00890714617788769	-0.0132580079853721	-0.152317948006726	0.00647955387401656	-0.0113409791826286	0.00411080952938152	0.552978515625	0.439453125	0.126708984375	0	0	0	-0.60200711841074	-0.41782759289235	-0.574559516857096	0.36453928950049	-0.00939707158654995	0.0841713342775774	0.99640698589057	0.921969406480901	-0.385062418056525	0.0412231453642067	0.38714869050386	0.919044134242962	-0.0739849359988363	150.874193253481	-85.1415558708479	96.3702471487686
20193	1649765289211	9.62459702122258	0.394875068508827	-0.730888708480516	-0.00908466016435634	-0.0133618155246325	-0.152318256335294	0.00397332064978263	-0.0111026675581687	0.0050034632249022	0.565185546875	0.44384765625	0.127197265625	0	0	0	-0.602032132813008	-0.417848553143593	-0.574514190093753	0.3645453923414	-0.00932793596655096	0.0842435096168759	0.996401535876995	0.921989512950591	-0.385018487116921	0.0411837660653805	0.387102476896926	0.919055926299171	-0.074080204607147	150.928792878865	-85.1378703241677	96.3183873630208
20194	1649765289214	9.63197253627594	0.41684186468144	-0.767020875148411	-0.0020538123470545	-0.0535940137592915	-0.141384633559772	0.0048404447444945	-0.010543334391718	0.00376540557078515	0.558349609375	0.44384765625	0.121337890625	0	0	0	-0.602061587890433	-0.4178706686639	-0.574465083997465	0.36454878401254	-0.00925205692365855	0.084326660959374	0.996395209590112	0.922008852275123	-0.384976576690728	0.0411425780159359	0.387058233046386	0.9190658570804	-0.0741881026855281	150.988515782526	-85.1335956937663	96.2612695327707
20195	1649765289215	9.64562205165423	0.397967391001606	-0.759737229453587	-0.0161860248245807	-0.0379645273637964	-0.12909814370833	0.00321866615197073	-0.00494924000607735	0.00254189207134397	0.559326171875	0.43896484375	0.12646484375	0	0	0	-0.602071859592223	-0.417882393883824	-0.574439514685045	0.364558671186817	-0.00921290229933086	0.0843566476514068	0.996393034112664	0.922024272254528	-0.384942560288854	0.0411152848922645	0.387022433206052	0.919077353259931	-0.0742324384618244	151.019149765054	-85.1321266032391	96.2327820937711
20196	1649765289217	9.64466527989875	0.406762425924043	-0.73747945116716	0.000994804906358573	-0.020751139748186	-0.131340949525509	0.00564296013199116	-0.0023044495498759	0.00359401906714393	0.561767578125	0.44580078125	0.129638671875	0	0	0	-0.602075806143535	-0.417892499681973	-0.574413755969148	0.364581156012733	-0.00917060867406427	0.0843650648930257	0.99639271161633	0.922046789616417	-0.384892878779943	0.0410754138451007	0.386969789123913	0.919097387489532	-0.0742588352676701	151.051333594671	-85.1319088604988	96.2037787579848
20197	1649765289218	9.6319214932229	0.415674721073715	-0.768294153339983	-0.00215360261978971	-0.0537264454900169	-0.141385390050093	0.000591666202688017	-0.000387001475032147	0.00635165630179914	0.560302734375	0.449462890625	0.12646484375	0	0	0	-0.602086211754685	-0.417873187548226	-0.574405016249051	0.364599876647134	-0.00911824712757503	0.0843353728297344	0.996395705761015	0.922047365109331	-0.384897858154359	0.0410157930939663	0.386969655224103	0.91909802724076	-0.0742516145136438	151.084211719276	-85.1339308177987	96.1707858687929
20198	1649765289219	9.6583894905584	0.387135716829403	-0.729630659637875	-0.0131874678558104	-0.00513919582927208	-0.11905428818374	0.00309688123899796	-0.000624977629707715	0.0054590831610691	0.56494140625	0.447509765625	0.12548828125	0	0	0	-0.602093799609196	-0.41786729649201	-0.574386341782336	0.364623517300413	-0.00906549420727254	0.0843210800946086	0.996397396758169	0.922060153014579	-0.384873226307867	0.0409594176484905	0.386940423111243	0.919109653481592	-0.0742600420107611	151.120303789704	-85.1350731250467	96.1363903590987
20199	1649765289220	9.64471333263356	0.405127300034103	-0.737751030805588	0.000742827702373931	-0.0206689116756441	-0.131340751013104	0.00309674401392219	-0.000624868854330102	0.00545915096280555	0.558837890625	0.44580078125	0.130859375	0	0	0	-0.60209776795739	-0.417870877409873	-0.574369129469429	0.364639974147051	-0.00903193414953346	0.0843223561245677	0.996397593545428	0.922074134206955	-0.384843238133482	0.0409264350931106	0.386907889803262	0.91912209326103	-0.0742755847331364	151.144887864119	-85.1352060767222	96.1137542582638
20200	1649765289220	9.63195503935931	0.414191726065773	-0.768674411354625	-0.00233339857148053	-0.0535463209424859	-0.141384432799818	-0.00252247715493887	-0.00455854743712573	0.0017710118703232	0.56591796875	0.44921875	0.1201171875	0	0	0	-0.602119031117257	-0.417867419332196	-0.574357123814855	0.364627736945772	-0.00899857163244289	0.0843587748169546	0.996394812722326	0.922064927838126	-0.384866866620912	0.0409116588306198	0.386930606904452	0.919108857583684	-0.0743210155458659	151.168435265411	-85.1333276576719	96.0887311764817
20201	1649765289221	9.61081853343197	0.410006559866896	-0.741905413816301	0.00460260096778672	-0.0287152160596236	-0.164603814501273	-0.00100588447099868	-0.00103114445476181	0.00503374006562184	0.56591796875	0.434814453125	0.12890625	0	0	0	-0.602133349139352	-0.41786524918871	-0.574343771747654	0.364627611721003	-0.00896426924972837	0.0843780083675361	0.996393493345248	0.922064399564256	-0.384870676582189	0.0408877165341323	0.386932662013723	0.919105496671136	-0.0743518732506321	151.192645983865	-85.1324366841893	96.0643220688851
20202	1649765289221	9.64563672185799	0.394950646204106	-0.761123955125173	-0.016593493658941	-0.0375619517849736	-0.129097263431255	-0.000925427442565542	-0.00391385921880456	0.00308918888056527	0.563232421875	0.4404296875	0.12158203125	0	0	0	-0.60215247164465	-0.417861516826375	-0.574327979374788	0.36462518530002	-0.00892175027432968	0.0844037985193325	0.996391690635541	0.922061582129404	-0.384880454000975	0.0408592081301599	0.386940358625284	0.919099034339342	-0.0743916927043999	151.222462405015	-85.1312195798084	96.0339401800008
20203	1649765289222	9.64468009815696	0.403627201358744	-0.739006703239243	0.000983191401889537	-0.0201884827142347	-0.13133975868203	0.000614009989055298	-0.0066245380773978	0.00625799963243559	0.556396484375	0.44482421875	0.124755859375	0	0	0	-0.602199574526831	-0.417852645086813	-0.574279732656168	0.36463355316539	-0.00879608869137261	0.0844580513138013	0.996388210684976	0.922064689030958	-0.384883077799873	0.0407642694714463	0.386935831974731	0.919092951769065	-0.0744903211326847	151.310647428783	-85.1288709397542	95.9457725045476
20204	1649765289224	9.63096147342713	0.421576745686358	-0.747745769275932	0.0150887650561293	-0.0358610333685595	-0.143625575380565	-0.0018514695367342	-0.00782718621079797	0.00617874705396474	0.549072265625	0.448486328125	0.12939453125	0	0	0	-0.602238333801145	-0.417843855286016	-0.574248224169566	0.36462923489243	-0.00870902072436236	0.0845077931584223	0.996384757939179	0.922058555627565	-0.384904067322961	0.0407047780027121	0.386952416909406	0.919079589509927	-0.0745689961997208	151.371316306308	-85.1265417762992	95.8838927837733
20205	1649765289225	9.65205707409156	0.424906072584067	-0.775449444570986	0.00738423921051688	-0.0599659654789884	-0.120400620399376	0.00148127169141344	-0.00606576856748822	0.00501951485113905	0.5595703125	0.443603515625	0.135498046875	0	0	0	-0.602249886673858	-0.417873807008665	-0.574225370490791	0.364611820025249	-0.00870658939840158	0.084590190951244	0.996377787235284	0.922067620708524	-0.384879404227922	0.0407326287155851	0.386930869978049	0.919082337876206	-0.0746468891651793	151.379991272982	-85.1218428391202	95.8765719903852
20206	1649765289226	9.64646867755446	0.383632145742392	-0.786109090032025	-0.0340152230792336	-0.0541158041703737	-0.126851648848154	-0.00356943768491546	-0.00414693620071904	0.00777806535087737	0.565185546875	0.43701171875	0.126953125	0	0	0	-0.602284077987156	-0.417849005584399	-0.574206026100106	0.364614231106817	-0.0086207037550925	0.0846002287257172	0.99637768178855	0.922054983539282	-0.384917342013027	0.0406601420066669	0.386962906228934	0.919065526019328	-0.0746878041294188	151.436067455582	-85.1217717923615	95.8183169603527
20207	1649765289227	9.64553266160345	0.392274029345672	-0.763822107055289	-0.0167869070854611	-0.0368167008602351	-0.129094734692684	-0.0025636681755249	-0.00311619056641953	0.00274397686082531	0.565185546875	0.448486328125	0.124267578125	0	0	0	-0.602313092156312	-0.417831371438369	-0.574199116355812	0.364597392798193	-0.00857536036372547	0.0846276091212029	0.996375747882827	0.922033612202623	-0.384971372413385	0.0406332424344787	0.387014833259936	0.919040374628115	-0.0747282318819315	151.465001666965	-85.1204689693252	95.7860620345754
20208	1649765289228	9.62440884323788	0.387911542730841	-0.737069488706937	-0.00972319728212052	-0.0122568801284764	-0.152317412812248	-0.00110436817764777	-0.00294412288463099	0.00785740204938509	0.567626953125	0.439453125	0.12939453125	0	0	0	-0.602339493373034	-0.417810793755285	-0.574178371567023	0.364610028618711	-0.00849332350755838	0.0846254986940925	0.996376629807511	0.922030268651281	-0.384987335304484	0.0405578025292254	0.387024607934228	0.919033882196913	-0.0747574493106089	151.519051911678	-85.1210630564796	95.7312214264175
20209	1649765289229	9.66574121992701	0.404082126204824	-0.768679061695688	-0.00651154480915857	-0.0437062644779017	-0.108113670827258	0.00059144761721605	-0.000386205071277966	0.00635222875372416	0.56982421875	0.439453125	0.12548828125	0	0	0	-0.602367168538	-0.417803367880374	-0.574148759844592	0.364619447676953	-0.00841290528653171	0.0846504560335972	0.996375192042608	0.922033670829368	-0.384986008327141	0.0404930024727091	0.387018259106156	0.919032139636933	-0.0748117198893415	151.574845731124	-85.1200945781217	95.6756491827151
20210	1649765289230	9.631881540199	0.409141865149396	-0.772291358341854	-0.00251657983193609	-0.0520394257169092	-0.141376253024731	-0.00428099052293423	0.000564085331477457	0.00434329416772063	0.559326171875	0.43994140625	0.122802734375	0	0	0	-0.602382035232035	-0.417777808521793	-0.574151525539047	0.364619818520092	-0.00837654314417208	0.084629643054112	0.996377266421453	0.922017743234436	-0.385028181298208	0.0404546754661571	0.387056991521702	0.91901638893043	-0.0748048273271216	151.595344078628	-85.1214919408587	95.6526579240963
20211	1649765289231	9.63097379177554	0.417949653400013	-0.749620857820448	0.0151101971759104	-0.0342253049761876	-0.143619680550563	-0.00587874013971376	-7.99110731287819E-05	0.00302544762682145	0.559326171875	0.441162109375	0.122314453125	0	0	0	-0.602422713157601	-0.417764036224724	-0.57412906396352	0.364603761118059	-0.00830194410080148	0.0846818561477566	0.996373454565866	0.922000320500918	-0.385074614831586	0.0404097761502327	0.387100099096284	0.91899212415106	-0.0748798305818747	151.645963229491	-85.1189244696869	95.5992062035069
20212	1649765289233	9.63099829663094	0.417644800189859	-0.749475926515303	0.0151048040180585	-0.0342128509875889	-0.143619628048997	-0.0100615389073579	0.00239809146080778	0.00454587024114361	0.55712890625	0.43701171875	0.12109375	0	0	0	-0.602443526061554	-0.417717867294482	-0.574148730111707	0.3645913012684	-0.00826996189187251	0.0846435844775472	0.996376972504433	0.921962115009653	-0.385169932764729	0.0403730278891843	0.387191769304609	0.918955704319205	-0.0748528375010583	151.659113860687	-85.1212939254118	95.5802783214397
20213	1649765289234	9.64564523318139	0.389573129068368	-0.763782871670339	-0.016024958180944	-0.034882605676527	-0.129086283584554	-0.00595870517368342	0.00280302111554507	0.0049706345644938	0.56201171875	0.4306640625	0.130615234375	0	0	0	-0.602471128087903	-0.417711863004948	-0.574131989521926	0.364578932376818	-0.00822148377493986	0.0846858190740174	0.996373784908205	0.921951530207145	-0.38519800314383	0.0403469245755937	0.387218004686302	0.918940047240171	-0.0749093213491496	151.692641476188	-85.1191469180882	95.5450221254797
20214	1649765289235	9.59161354883245	0.381735349564359	-0.762612298215022	-0.0221201311454826	-0.0358706649911458	-0.183327371438398	-0.0117395623597569	0.00463765065752286	0.00517337731483552	0.562255859375	0.444091796875	0.125244140625	0	0	0	-0.602489963604142	-0.417655196967427	-0.574160453215663	0.364567900624239	-0.00819217918143117	0.0846251867393807	0.99637917780812	0.921907070940563	-0.385308764561069	0.0403051920007183	0.387324464435248	0.918899196714062	-0.0748600395952405	151.701653297116	-85.122779860808	95.5293143242877
20215	1649765289237	9.64572937798666	0.388730714140979	-0.763149168547125	-0.0156806384637215	-0.0345037190477591	-0.129084362480581	-0.00264458474453574	-0.000233151060408561	0.00468900120744847	0.552734375	0.445556640625	0.1328125	0	0	0	-0.602528169637785	-0.417629432580515	-0.574143109501479	0.364561588277469	-0.0081093062911004	0.0846459474023601	0.996378092262086	0.921888042996056	-0.385361010790173	0.0402408690720961	0.387371495250204	0.918875375092364	-0.0749090763291633	151.755478157784	-85.1220483625874	95.4723863152033
20216	1649765289238	9.64572711041465	0.388117976675532	-0.763489670321116	-0.0156778200618412	-0.0344903944526305	-0.129084310449352	0.00384559639820214	-0.00677869911829425	0.00792076975689791	0.560546875	0.436279296875	0.122802734375	0	0	0	-0.602557262629161	-0.417629639355508	-0.574099644238548	0.364581716587397	-0.00800983436607838	0.0846790769883098	0.996376081845523	0.921904012143125	-0.385331312523949	0.0401593324518555	0.387335558589495	0.918884777058026	-0.074979540830719	151.826325611294	-85.1206939266997	95.4035575865765
20217	1649765289239	9.64478175649851	0.396534282670953	-0.741515645866296	0.00122456706936058	-0.0167689660330983	-0.131333259397206	0.000610131329116246	-0.00662437608653224	0.00625757611428124	0.557373046875	0.446533203125	0.12060546875	0	0	0	-0.602591479625779	-0.417642550290641	-0.574066312392226	0.364562858565619	-0.00795486167375842	0.084769172964775	0.996368861160675	0.92190219637251	-0.385337244682387	0.0401440927675462	0.387341013190308	0.918873982206186	-0.0750835822617116	151.868423032447	-85.1158323753903	95.3610187571058
20218	1649765289240	9.66681827209335	0.390741307447685	-0.791545629620222	-0.023036916393933	-0.0585017101334788	-0.105852368448051	-0.00761644714796769	-0.00119440149199093	0.00550385496465405	0.564208984375	0.443603515625	0.128173828125	0	0	0	-0.602620143136581	-0.417607021833569	-0.574068328076847	0.364553004514292	-0.00790013997129818	0.0847601389505515	0.996370065103081	0.921873474138195	-0.385410964429799	0.0400959621117495	0.387410487040308	0.918843897156843	-0.0750933231973127	151.900082132351	-85.1166426317729	95.3249170646825
20219	1649765289241	9.65943531238074	0.367914156685344	-0.755893333782745	-0.0302432644802205	-0.0173022792331778	-0.116801020355124	-0.00842443785702073	0.0126367603984217	0.00411034983374559	0.54833984375	0.44580078125	0.12939453125	0	0	0	-0.602612225749508	-0.417591767883143	-0.574094033470331	0.364543085940773	-0.00793368774000519	0.0847277882345454	0.996372550053306	0.921855830560386	-0.385450907778018	0.0401176439353532	0.387451783142969	0.918830125536807	-0.0750487584530889	151.873072089529	-85.1183154339851	95.3494283002313
20220	1649765289241	9.60732303985101	0.341896596155651	-0.799008413423699	-0.0707006542702939	-0.0527062489858961	-0.166538545656119	-0.00599879269705594	0.015280162193367	0.00516293806240061	0.55908203125	0.441162109375	0.13427734375	0	0	0	-0.602589763277496	-0.417532357336815	-0.574142881213713	0.364571336944567	-0.00794663494324388	0.0845693731339944	0.996385905219861	0.92183352433915	-0.385508941710427	0.0400725500282516	0.387504586292264	0.918820372536999	-0.0748953844601337	151.851125620103	-85.1273155890773	95.3680856254005
20221	1649765289243	9.60557090606815	0.359825790512091	-0.752670763361481	-0.0371471283135314	-0.0180297609279838	-0.171044592690551	-0.00503171952329332	0.00671805674041307	0.00188276319164388	0.563232421875	0.443115234375	0.1259765625	0	0	0	-0.602571184710228	-0.417513177212803	-0.57419630583875	0.364539869659981	-0.00803730157039201	0.0845279266710996	0.996388694935944	0.921797712629901	-0.38558686056391	0.0401466057189271	0.387587898126024	0.918791490259436	-0.0748185715788347	151.782611373656	-85.1291976960453	95.4316146315001
20222	1649765289243	9.626719470144	0.363229247146976	-0.779697524495767	-0.0442605241256713	-0.0425573281845053	-0.147811715271427	-0.00276613604725024	-0.0069433141453017	0.00838877282352456	0.5615234375	0.4482421875	0.128173828125	0	0	0	-0.602612724576514	-0.41749387617465	-0.574166465225109	0.364540310179876	-0.00793653286486068	0.084560601775143	0.99638673017735	0.92178788708732	-0.385618451221251	0.0400687072017313	0.387613341701727	0.918775225343582	-0.0748864649297272	151.85057271339	-85.1278720785152	95.3618541702045
20223	1649765289244	9.63848766547737	0.362354282315295	-0.727371911480754	-0.0240553836938721	0.00836705591609268	-0.140036939784148	0.002404499296036	-0.013188499495852	0.00271017998233222	0.5556640625	0.444580078125	0.12255859375	0	0	0	-0.602660831753677	-0.417549732013121	-0.57409583806719	0.364508040898507	-0.00786761998059732	0.0847566391433894	0.996370620139393	0.921806836030821	-0.385572218832207	0.040077688452012	0.387569680964196	0.918776564887202	-0.0750957136685262	151.911690336829	-85.1170162178301	95.3033406318508
20224	1649765289245	9.64680818820895	0.375192762649196	-0.786016066722499	-0.0342443719890721	-0.0490525410074167	-0.126825490744681	0.00471202294366115	-0.00622187923659518	0.00668156028023278	0.564208984375	0.436279296875	0.119140625	0	0	0	-0.60268292102471	-0.417555999537933	-0.574055765160408	0.364527450874554	-0.00778606852804781	0.0847895695182977	0.996368458973777	0.921825908453358	-0.385533449617555	0.0400119198505999	0.387525962538021	0.918789795397669	-0.075159432089997	151.97092203773	-85.1155617324355	95.2466506254625
20225	1649765289246	9.59925284226013	0.398708527797235	-0.798059527866776	-0.0155825378327595	-0.0719056794453957	-0.172349745606215	0.00473274566587232	-0.00142533148780423	0.0058045271023279	0.558837890625	0.441162109375	0.1201171875	0	0	0	-0.602717632821296	-0.417597819149916	-0.573977262334282	0.364545770584121	-0.00767567247104689	0.0849051712679164	0.996359471247242	0.921869104849576	-0.385436885180927	0.0399469781819184	0.387425396142224	0.918819633787824	-0.0753129669449448	152.057938731599	-85.1095175344309	95.1656618930927
20226	1649765289247	9.6129472383936	0.379547727313683	-0.790031576134389	-0.0297247733386833	-0.0561844658518627	-0.160075244506046	0.00141861791166578	0.00161235239041448	0.00608699708654824	0.55712890625	0.44189453125	0.12939453125	0	0	0	-0.6027221641973	-0.417582649932566	-0.573968195960462	0.364569929213192	-0.00762951899762127	0.0848695478533412	0.996362860752565	0.921875726141058	-0.385426994377569	0.039889567019104	0.387410552246274	0.918827073965632	-0.0752985534787625	152.087500095536	-85.1117960829765	95.1369112965286
20227	1649765289248	9.62664187572559	0.3604088086826	-0.781961058921385	-0.0437648560985881	-0.0395941529302016	-0.147796864569131	0.00309514677747877	-0.000627046373495434	0.00545945452484769	0.560302734375	0.441162109375	0.124755859375	0	0	0	-0.6027435835824	-0.417608946974525	-0.573924158690705	0.364573723584464	-0.00757234504400933	0.0849468912930931	0.996356705828878	0.921897561648898	-0.385377534957175	0.0398627818415717	0.38735971062612	0.918840672374689	-0.075394120285851	152.133457036433	-85.1076593039952	95.0940022467178
20228	1649765289250	9.65962537221651	0.363524028943064	-0.755588468767127	-0.0306375797928901	-0.0139947467034197	-0.116796920179928	0.00402469565962414	0.00328553683190082	0.00237028666250649	0.556396484375	0.445556640625	0.127685546875	0	0	0	-0.602730672206004	-0.417609726549241	-0.573921458428701	0.36459842653067	-0.00756744830691641	0.0849106610149963	0.996359831271875	0.921914103796162	-0.385340207325657	0.0398410572141382	0.387320434456849	0.918859676046466	-0.0753642938528666	152.136995127512	-85.1097595057889	95.09288619641
20229	1649765289251	9.68079837433417	0.367058710762284	-0.782196937019797	-0.0378525019055388	-0.0377179597568056	-0.0935533564459145	0.00645146322306969	0.00592801591293536	0.00342250916528114	0.562255859375	0.43994140625	0.12353515625	0	0	0	-0.602715290486739	-0.417640605463235	-0.573902689053347	0.364618028598594	-0.00757594366872133	0.0849262235015361	0.996358440341274	0.92194729186179	-0.385260035778354	0.03984841101943	0.387241263434361	0.918891855113445	-0.0753787934364238	152.137180092212	-85.108824732012	95.0976440736479
20230	1649765289252	9.66061558216913	0.35381537861146	-0.777587810997739	-0.0479997493786568	-0.0303570503676083	-0.114538258999017	0.00737750715141914	-0.0011934998263638	0.00111567965192413	0.560791015625	0.4384765625	0.1279296875	0	0	0	-0.602706229799832	-0.417663271925515	-0.573881967835529	0.364639656151337	-0.00756624344461265	0.0849362650501787	0.996357658092446	0.92197675874218	-0.385190624892616	0.0398376559815216	0.387171290644597	0.918920025559441	-0.0753948163101104	152.14860032116	-85.1082991006131	95.0905526476799
20231	1649765289254	9.64131434668304	0.331687757594605	-0.795953823545665	-0.0745672658088057	-0.0395572707665375	-0.133256772645389	0.00664857289085013	-0.00127923120015755	-0.00144140381068049	0.559814453125	0.4345703125	0.129150390625	0	0	0	-0.602730029246541	-0.417693499561714	-0.573831385564551	0.364645297802426	-0.00750063727008804	0.0850229974587144	0.996350756683448	0.922002663368973	-0.385131894428936	0.0398059371714692	0.387110874532172	0.918936621207749	-0.0755026954632949	152.201257809097	-85.1036641440679	95.0415203209175
20232	1649765289254	9.64784908181195	0.363032000008391	-0.808580588975601	-0.0504014152303864	-0.0625495510438063	-0.124543373690892	0.00974281956497738	-0.00190513872826438	0.00401857828609119	0.55859375	0.453857421875	0.133056640625	0	0	0	-0.602724928411236	-0.41771535223044	-0.573798130321321	0.364681026134382	-0.00746081969849011	0.0850283296195941	0.996350600607802	0.922041493457871	-0.385043267377147	0.0397638854931152	0.387019147473875	0.918973266972241	-0.0755269096346602	152.233808248047	-85.1035593749466	95.0145810712449
20233	1649765289255	9.63512350705799	0.37215197998733	-0.839126888847793	-0.0538092276190742	-0.0951673598027502	-0.134553050555374	0.00735905907348516	0.00504476257073273	0.00121042548630133	0.562255859375	0.44091796875	0.120849609375	0	0	0	-0.602701148467036	-0.417728452610204	-0.57380684322713	0.364691612437299	-0.00750270690879834	0.0850057505029387	0.996352212709177	0.922055922039172	-0.385005935395536	0.0397907821323194	0.386983960935766	0.91899099674134	-0.0754914689671984	152.206743479069	-85.1046416403056	95.0439221328885
20234	1649765289256	9.64890352698869	0.353475372228802	-0.829808836028725	-0.0679751377982615	-0.0794440530596109	-0.122283114882846	0.00984949062206872	0.0220768764103282	-0.000372165432923008	0.562744140625	0.43994140625	0.123779296875	0	0	0	-0.602617413076722	-0.417719978666165	-0.573854389013127	0.36476487370665	-0.00759768073298245	0.0848068183997754	0.996368445305444	0.922094513337297	-0.38491321266582	0.0397935571233805	0.38689014425381	0.919048215420815	-0.075275454240284	152.137313608821	-85.1155525348898	95.1193525252617
20235	1649765289257	9.63453180250283	0.381092487237172	-0.812725304943147	-0.035663411840557	-0.0766528788741734	-0.136799355999814	0.00815186521578121	0.0305570266198438	0.000350086903521429	0.562744140625	0.44287109375	0.1298828125	0	0	0	-0.602559985595032	-0.417721010889071	-0.573859272444574	0.364850868507821	-0.0076106150176069	0.0846578247027831	0.996381017109242	0.92215004051346	-0.384786001621803	0.0397370826424135	0.386757522641872	0.919115218932044	-0.075138758356945	152.127904891602	-85.1240195288824	95.1369981037004
20236	1649765289258	9.63294688837226	0.399222632938482	-0.764152934125979	-0.00136203741949066	-0.042214127691672	-0.141328144502758	0.00645160403040811	0.0390392272647296	0.00107299281471524	0.56103515625	0.44677734375	0.13525390625	0	0	0	-0.602437068870196	-0.417667729058325	-0.573961772781711	0.364953599159707	-0.00775689702292665	0.0842982153975943	0.996410378021705	0.92217587442468	-0.384725077127276	0.0397274673052517	0.386693014130917	0.91917377351086	-0.0747535076913027	152.011759381609	-85.143851192846	95.2573997565832
20237	1649765289259	9.62669701658106	0.367553605423896	-0.747867638635328	-0.0257341941196488	-0.0189478341848397	-0.150044113837506	0.000666462501558723	0.0408803946803326	0.00127494680306086	0.562744140625	0.4482421875	0.128173828125	0	0	0	-0.602329812090859	-0.417587784056681	-0.574089852284929	0.36502065910944	-0.00791743177980025	0.0839418304664261	0.996439202044941	0.922160455542769	-0.384760722059882	0.0397401685088397	0.386726529355261	0.919191468551522	-0.0743615198535576	151.879130400537	-85.1633991266446	95.3882233134679
20238	1649765289259	9.62694336165578	0.367448980720936	-0.744740906954459	-0.0257951827539028	-0.0189259980999022	-0.150044233664454	0.00155309964817749	0.0241630245704811	0.000726701727455219	0.55419921875	0.447509765625	0.127685546875	0	0	0	-0.602257379490588	-0.417548261751346	-0.574159170485993	0.365076354896335	-0.00801060788946972	0.083719169683773	0.996457189641733	0.922166918049092	-0.384745408408069	0.0397384695823578	0.386709200067804	0.919218184837728	-0.074121004084883	151.802920430545	-85.1756380325439	95.4656652769588
20239	1649765289260	9.6271121912833	0.367176659431321	-0.74268987472066	-0.0264652109173834	-0.0178871709105841	-0.150044066702621	0.00389496967514011	0.0186547383432489	0.00450997210140886	0.56201171875	0.437744140625	0.12744140625	0	0	0	-0.602193539845076	-0.417572937663121	-0.57418763546909	0.365108670911365	-0.00811719798838717	0.0836376820700057	0.996463170034284	0.922201219829442	-0.384657000313455	0.0397982694968467	0.386625168919338	0.919262601353831	-0.0740084353995029	151.73071814983	-85.179714006848	95.5433048865129
20240	1649765289260	9.61968992015066	0.34447495707709	-0.706400878795278	-0.0335809372634764	0.0223634607995266	-0.161030948837219	0.00157410616558775	0.00688516881737292	0.00141504642728945	0.556884765625	0.4462890625	0.124755859375	0	0	0	-0.602171504833964	-0.417563592043295	-0.574204078678025	0.365129841830848	-0.00813935474115784	0.0835717043165029	0.996468524912871	0.922207882021843	-0.384641690408961	0.0397918626872759	0.386608811644515	0.919275007947552	-0.0739397492682007	151.71237074202	-85.183366578169	95.5627019549246
20241	1649765289261	9.61548984839988	0.366929533309444	-0.79483731991595	-0.0464406335021669	-0.0670549849447761	-0.157771748020185	0.00402119005265103	-0.0077505811468677	0.00315710046033974	0.55908203125	0.44775390625	0.126220703125	0	0	0	-0.602215388522883	-0.417607999726538	-0.574131565867279	0.365120705336494	-0.00804699272162823	0.0837252830403489	0.996456382832662	0.922234572181976	-0.384580858197962	0.0397612547594675	0.386547073175397	0.919286484447331	-0.0741196312187346	151.788799401378	-85.1750884097043	95.4899409826734
20242	1649765289262	9.64271123856906	0.329392497323178	-0.779821996469382	-0.0747429955424872	-0.0356206811960954	-0.133242840715576	0.00480917918351601	-0.0153465987994495	0.00464764518627119	0.56005859375	0.434814453125	0.12646484375	0	0	0	-0.60225796193129	-0.417639027687093	-0.574068344561011	0.365114400723838	-0.00795364334888132	0.08385162007775	0.996446509034888	0.922254098473429	-0.384538233873303	0.0397205807933933	0.38650241578345	0.919292800200207	-0.0742740203141047	151.86282765437	-85.1683671314377	95.4185096813489
20243	1649765289263	9.63461165264166	0.388237401513164	-0.778716010508956	-0.0187770437550694	-0.0563031885765633	-0.139045547685555	0.00321222456289636	-0.00495187991031745	0.00254481698396768	0.5576171875	0.4365234375	0.130615234375	0	0	0	-0.6022990354072	-0.41766901324059	-0.574007245308042	0.365108408092805	-0.00786344457498983	0.0839735444522567	0.996436957399484	0.922273030724879	-0.38449689143714	0.0396811954548091	0.386459083263627	0.919298963508227	-0.0744230653476214	151.934170190991	-85.1618740194443	95.3496868407911
20244	1649765289263	9.68407272246633	0.345508919855357	-0.811879247389241	-0.0713261299274077	-0.0665868604236223	-0.0889911779783805	0.00232149217327097	0.0117699545985731	0.00309407217884681	0.5615234375	0.444580078125	0.129638671875	0	0	0	-0.602265060199779	-0.417648189598165	-0.57403365726201	0.365146747648577	-0.00788929988844628	0.0838567781212533	0.99644658648138	0.922282870081417	-0.384475684814083	0.0396579795391362	0.386435074109034	0.919318491356432	-0.074306426024136	151.910775425983	-85.1684198144129	95.3746040518916
20245	1649765289264	9.61554957732408	0.365463019990789	-0.79479072287904	-0.0458143405692262	-0.0659255106711505	-0.157760977518437	0.00470239490759609	0.0268968578904226	0.00433825271830016	0.5576171875	0.440185546875	0.126220703125	0	0	0	-0.602214811029634	-0.417581708848285	-0.57409314759201	0.365212124250809	-0.00791485135350889	0.0836162238671811	0.996466598654589	0.922279335666824	-0.384491241471117	0.0395892944362601	0.38644298690753	0.919333896001987	-0.0740743243762222	151.87756101034	-85.1820523561508	95.4073287098042
20246	1649765289266	9.62943991399196	0.346490297409027	-0.783907685437899	-0.0600099752636033	-0.0501975329089806	-0.14549759108742	-0.00188852770889628	0.0315352469664978	0.00392317455783099	0.55615234375	0.43505859375	0.11767578125	0	0	0	-0.602133387590898	-0.417509807112169	-0.574186761344931	0.365281408792849	-0.00800975187724157	0.0833136908291851	0.996491180490467	0.922272687206305	-0.384510106710942	0.0395609437501376	0.386456898383412	0.919353472151794	-0.0737581109730615	151.792644771309	-85.1988506596666	95.4915205360428
20247	1649765289267	9.66160672790968	0.358839918232514	-0.732131065462793	-0.0286936601665039	-0.00602214693448608	-0.116782742954847	0.00146492365208964	0.0270550933180152	0.00267412324708663	0.559814453125	0.4462890625	0.12890625	0	0	0	-0.602104169893487	-0.417493437172888	-0.574191240005201	0.365341235580837	-0.00799270036228455	0.0831976046835358	0.996501016214154	0.922300553016307	-0.38445002300367	0.0394951860141467	0.38639074347962	0.919389111523189	-0.0736604029711154	151.80071018682	-85.2055884714079	95.4875006821373
20248	1649765289268	9.64160390373216	0.345600110468887	-0.724950923580534	-0.0388773128684888	0.00132450265453582	-0.137771075885649	-0.00599653568641798	0.0311370739069339	0.00349533653474798	0.564208984375	0.441650390625	0.12255859375	0	0	0	-0.602030745090573	-0.417412171951352	-0.574292342023728	0.365396177546297	-0.00808923080048796	0.0829014686403326	0.996524917321354	0.922278374918656	-0.384505424282819	0.039473761595417	0.386441668952067	0.919392693681196	-0.0733478786549127	151.712114173111	-85.2220010635893	95.5730759172811
20249	1649765289268	9.66108046003139	0.367330549835788	-0.703786732126173	-0.0110860836359769	0.0124191633083019	-0.119058250384526	-0.0010895949907527	0.0287438016082215	0.00454063417037015	0.561767578125	0.449462890625	0.12890625	0	0	0	-0.601982090577972	-0.417391633087918	-0.574317088934989	0.365460898878135	-0.00811178802911883	0.0827436966255277	0.996537846528527	0.922305454878548	-0.384445112038772	0.0394284634594188	0.386376560878433	0.919432127184078	-0.0731964254968506	151.690140478073	-85.2309028752874	95.5991067685951
20250	1649765289269	9.62841445026292	0.363376560232002	-0.727522496970001	-0.0243360257842917	-0.0131398100735709	-0.150030847683258	0.00222361198557148	0.0257052593800008	0.00426506658605328	0.556396484375	0.438720703125	0.1279296875	0	0	0	-0.601910829428457	-0.417341964050167	-0.574383016371744	0.365531378903636	-0.00818032890710768	0.0824952634870877	0.996557882775089	0.922315327459861	-0.384424992159112	0.0393936814232556	0.386351548400653	0.919462863255316	-0.0729419230810071	151.6278868724	-85.2447307579586	95.6630050499126
20251	1649765289269	9.62858274313635	0.362901135576863	-0.725529564821396	-0.0244873869235173	-0.0123885735950041	-0.150030237712009	-0.0019167991720468	0.0157028568921721	0.00558699362758411	0.56787109375	0.4443359375	0.12109375	0	0	0	-0.601883876711687	-0.417325718484341	-0.574407194468216	0.365556313841235	-0.00820876073063714	0.0824068892783173	0.99656496067579	0.922319595893065	-0.384415652204674	0.0393848876056518	0.386340755394667	0.91947469293044	-0.0728499127079221	151.602990154012	-85.2496251230286	95.6886130825353
20252	1649765289270	9.61506989473392	0.380916454320915	-0.732392686268313	-0.0104692640455676	-0.0280509560606178	-0.162290017380391	-0.00440073432228113	0.00970104614903906	0.00637962983111741	0.55126953125	0.434326171875	0.130615234375	0	0	0	-0.6018747819357	-0.417280197981398	-0.574435175524597	0.365579283278586	-0.0081970690147391	0.0822976568156977	0.996574083418896	0.922304055848861	-0.384458048020242	0.0393349447337499	0.386378100601353	0.919466750347782	-0.0727520335150818	151.601177992786	-85.2559409269539	95.6880541536685
20253	1649765289271	9.62778064566615	0.370821361694795	-0.700944897305255	-0.00654038418166723	0.00572217473461117	-0.152308652708291	-0.000318739194654076	0.00530364897251969	0.0076890875459376	0.573486328125	0.43798828125	0.124267578125	0	0	0	-0.601915591117919	-0.417259922798708	-0.57438927787706	0.365607351478402	-0.00805777142822811	0.0823086209579556	0.996574313955367	0.922312391366852	-0.384450842741928	0.0392097213224167	0.386361132945294	0.919468781651134	-0.0728164440096356	151.698715462513	-85.2561006392892	95.5912714481893
20254	1649765289272	9.64903796203152	0.374148452675833	-0.72779309838652	-0.0136895623655656	-0.0187386190585836	-0.129038003344432	-0.00256917612138034	-0.00311542476798358	0.00273836189540982	0.56103515625	0.44482421875	0.129150390625	0	0	0	-0.601932559091981	-0.417254128873374	-0.574381183643683	0.365598744690382	-0.00802950437159233	0.0823316117410781	0.996572642995814	0.922303770596703	-0.384473099637877	0.0391942648604101	0.386382300063876	0.919457416829599	-0.0728476275137981	151.718381437455	-85.254943144107	95.5702345236357
20255	1649765289273	9.66265420020634	0.355150716355679	-0.720005408134844	-0.0261396569345037	-0.00217529622179649	-0.116773894954704	-0.00932555317369488	-0.00374627527965589	0.00699053682407731	0.564453125	0.444091796875	0.125732421875	0	0	0	-0.602032133527658	-0.417219491992425	-0.574298487111192	0.365604230560201	-0.00778171359324126	0.0824271688427007	0.99656670964373	0.922290994811399	-0.384522884196134	0.0390060561873088	0.386417864265297	0.91942803599089	-0.0730295885965603	151.892743232575	-85.2508353089552	95.39314629358
20256	1649765289273	9.66467340349945	0.336217254971437	-0.765150473337062	-0.0605470735751087	-0.0365355016732863	-0.112202403563213	-0.00692758222487002	0.00514314312274078	0.00814579502273964	0.55224609375	0.44287109375	0.1279296875	0	0	0	-0.602045158744486	-0.417169578713925	-0.574313834082831	0.365615630695752	-0.00773367484654969	0.0823536211494112	0.99657316407625	0.922266079811369	-0.384589506373188	0.0389382795844488	0.386478289561959	0.919406761271205	-0.072977661144053	151.917208225491	-85.2553040729996	95.3648063527094
20257	1649765289273	9.62990715095066	0.350356361106933	-0.745473133483986	-0.0395881271533487	-0.0267836265571315	-0.147734863180258	-0.0010655164968	0.0114608751060446	0.0052285394755227	0.56689453125	0.44189453125	0.131591796875	0	0	0	-0.602023232437877	-0.417182108223775	-0.574315198912423	0.365635294359285	-0.007757718247698	0.08232682899754	0.996575190858572	0.922286456234961	-0.384539840193531	0.0389461673273792	0.386429179091264	0.919429934541585	-0.0729457676339665	151.901983532518	-85.2567081941758	95.3831283722501
20258	1649765289273	9.66390701719196	0.344214699193956	-0.740094153709529	-0.0436628652856544	-0.0183188028066071	-0.114487553471355	-0.00194159647123764	0.0219497173441212	0.00568811273485423	0.5546875	0.44189453125	0.126708984375	0	0	0	-0.601973472414257	-0.417123716370597	-0.574375296038118	0.365689435247764	-0.00779835091538772	0.0821088686830028	0.99659285538609	0.922280779196789	-0.384558084378707	0.0389004378271537	0.386441910314041	0.919441794472373	-0.0727285124985921	151.858925292991	-85.2689634890033	95.4254351755154
20259	1649765289274	9.64488421049846	0.321687600689347	-0.755796289937688	-0.0706397412768282	-0.0277999690687682	-0.133186404946143	-0.00190559364536549	0.0315540364920261	0.00393821893375096	0.559326171875	0.4345703125	0.12841796875	0	0	0	-0.601912378544314	-0.417054248100671	-0.574449395072175	0.365752833478461	-0.00785270671520738	0.0818472410372986	0.996613949396569	0.922273216787842	-0.384581237887323	0.0388508051507366	0.386458857568372	0.919455436984108	-0.0724655146073788	151.80298639	-85.283639713944	95.4803799644674
20260	1649765289275	9.63716178011789	0.380536790577147	-0.750449311192669	-0.0152226919115619	-0.0492553066563539	-0.139000848447569	-0.00276179326641056	0.0358014987803976	0.00430180429831261	0.5654296875	0.443359375	0.130126953125	0	0	0	-0.601821341854697	-0.416972258271626	-0.574555561173664	0.365829352901717	-0.0079599140874459	0.0815070296779373	0.996640980434178	0.922264186278915	-0.384606040774743	0.0388196355839137	0.386478214748272	0.919475283796501	-0.0721095833598545	151.704542835049	-85.3025135188476	95.5777744645403
20261	1649765289275	9.62978907283806	0.357859780142463	-0.711895822967124	-0.021151391943359	-0.00880096902301716	-0.15001842572827	-0.00102356519468332	0.0369197579518655	0.00183064953469546	0.56005859375	0.437255859375	0.12158203125	0	0	0	-0.60176914731285	-0.416867338124161	-0.57463394590398	0.365911661419069	-0.00796509875980367	0.081185281504067	0.996667199856026	0.92224632891815	-0.384660556885625	0.0387035498815878	0.386520718718599	0.919480943817514	-0.0718089685047173	151.67625017459	-85.3208932029101	95.6033638842297
20262	1649765289276	9.66287581567265	0.360948550616128	-0.682107381771458	-0.00804490493913259	0.0168643725248843	-0.119061963684331	0.00126767958006242	0.0328518183329078	0.00659002785047386	0.56689453125	0.436767578125	0.133056640625	0	0	0	-0.601684226024547	-0.416794947470569	-0.5747185124067	0.366000950016905	-0.00803879347992997	0.0808628476932329	0.996692820111758	0.922252933825852	-0.384650552699456	0.0386455477074878	0.386503433165859	0.91951354104817	-0.0714838721675052	151.603496681372	-85.3389227275449	95.6772741808361
20263	1649765289277	9.62925807108174	0.365818094819982	-0.683051291661669	-0.0022025973419798	0.00894963777804333	-0.152309140657211	-0.00459831916183538	0.0265352477026957	0.00950233338600187	0.5625	0.43603515625	0.130859375	0	0	0	-0.601706591451729	-0.416676132141515	-0.574726357370955	0.366087138329445	-0.00785876990660006	0.0806336954354453	0.996712820674029	0.9222334054052	-0.384722416106689	0.0383954229011678	0.386553729370553	0.919503599615279	-0.0713396425857428	151.710596274662	-85.3530460644159	95.5666145993849
20264	1649765289277	9.61583731400262	0.383739055481225	-0.689042253357327	0.0118518863456939	-0.00671318122043574	-0.164569599810706	-0.00520489241231718	0.0173138631525641	0.00489547997678601	0.5615234375	0.428466796875	0.126953125	0	0	0	-0.601675229521395	-0.41661821974492	-0.57478014645085	0.366120144765198	-0.00788591555497375	0.0804605451221456	0.996726598929971	0.922214906829133	-0.384770597147369	0.038356918450141	0.386597307230655	0.919498606986169	-0.0711676456860998	151.676856368173	-85.3628005064864	95.5976654821458
20265	1649765289278	9.62955513502848	0.364623712156408	-0.679492401648559	3.17995107315672E-05	0.00881495369371918	-0.152308765773782	-0.00609594726044521	0.0119538589458676	0.00700593213396305	0.564208984375	0.4453125	0.126953125	0	0	0	-0.601761870339648	-0.416464665983188	-0.574774709890461	0.366160984081015	-0.00761757028430426	0.0803049658680975	0.996741232757975	0.922145259461581	-0.38496663144867	0.0380632778882348	0.386768785032475	0.919430152392224	-0.0711203332143182	151.844513571325	-85.3731831290872	95.4187504562105
20266	1649765289279	9.65199421907053	0.358752057461151	-0.727876155394532	-0.0242120056212991	-0.0328492523869434	-0.126726711489834	-0.00768871746760097	0.0113103797401483	0.0056823844210157	0.565185546875	0.4326171875	0.126220703125	0	0	0	-0.601754740115638	-0.416407186191912	-0.574813658460589	0.366176932756897	-0.00761137333022355	0.080182991494658	0.99675109975911	0.922117000942134	-0.38503901840897	0.0380156661935684	0.386836274888372	0.919410486223441	-0.0710074239278091	151.83647498511	-85.3801968555847	95.4225557474833
20267	1649765289280	9.61721055097678	0.372993283218876	-0.707956732153207	-0.00138343712060511	-0.0231852663152045	-0.162271521208773	-0.0101987451498284	0.0115541535736457	0.00656907107355825	0.56982421875	0.4365234375	0.1376953125	0	0	0	-0.601809292201189	-0.416348099305898	-0.57477535001344	0.366214599711149	-0.00742488555741355	0.0801420604471711	0.996755798188173	0.922106559363201	-0.385082254325538	0.0378305509201399	0.386864788076944	0.919395947103773	-0.0710403279506607	151.963708340221	-85.3835403607374	95.2931465465709
20268	1649765289280	9.65325951164384	0.348499176064979	-0.748141688299327	-0.0396994312890178	-0.0491308605872348	-0.124416267480806	-0.0102447980931629	0.0129994170491213	0.0075439772531963	0.56298828125	0.435791015625	0.121337890625	0	0	0	-0.601806404114019	-0.416274515903995	-0.574820536260874	0.366232071873846	-0.00740624299668907	0.079997907180065	0.996767516731702	0.922068770981884	-0.385179193879769	0.0377646684360888	0.386955203020493	0.919367893418592	-0.070910841247503	151.961774552624	-85.3918900812884	95.2893919325
20269	1649765289282	9.65235261771145	0.357084042883319	-0.723933185189875	-0.0202789220247915	-0.0318504649986513	-0.126714342678156	-0.00438150116124036	0.0193196769423032	0.0046383833521748	0.56591796875	0.44091796875	0.133056640625	0	0	0	-0.601851596748179	-0.416151155792532	-0.574819443736346	0.36629971079274	-0.00719835472964447	0.0798100832073372	0.996784096134978	0.922034867202005	-0.385285474811391	0.0375074201077877	0.387039904083503	0.919339683423815	-0.0708142579515862	152.091658680527	-85.4037291265191	95.1537648613492
20270	1649765289283	9.6524981247421	0.356443289626036	-0.722306977489193	-0.0202566022386975	-0.0318139662053241	-0.126714176023802	-0.00455452080309871	0.0140452895755243	0.00930748990271734	0.567138671875	0.445068359375	0.130615234375	0	0	0	-0.601839689272424	-0.416085859073134	-0.574852136621329	0.366342145156325	-0.00716484219746888	0.0796488385153401	0.996797234927667	0.922019098025558	-0.385331981123269	0.0374172045956724	0.387078090199411	0.919334175828776	-0.0706769074083109	152.102717368388	-85.4131329519979	95.1402290242478
20271	1649765289285	9.673957258311	0.35971438854605	-0.747558187072834	-0.0266170385731785	-0.056066722161225	-0.10342196924516	-0.00761202731389266	0.0194791280481582	0.00296518005018525	0.56396484375	0.4404296875	0.127197265625	0	0	0	-0.601827297717963	-0.416015489885638	-0.574893665293299	0.366377250252173	-0.00714322843830162	0.0794830356182714	0.996810624610504	0.92199487672848	-0.385397645345738	0.0373376786690766	0.387136179624061	0.91932100052749	-0.0705299682065854	152.103817983097	-85.4227361811457	95.1354388150739
20272	1649765289285	9.6719997207347	0.377586509642114	-0.700395118128021	0.00774855930348265	-0.0216308301524401	-0.10804026732478	-0.00689517962467523	0.0195666592328153	0.00552643550691424	0.564208984375	0.443115234375	0.122314453125	0	0	0	-0.601796007997757	-0.415944445853489	-0.574954821013307	0.366413341071464	-0.00716565648562106	0.079285180261676	0.996826220340338	0.921969647992201	-0.385462962896962	0.0372863569664895	0.387195843919156	0.919310700702199	-0.0703364345568063	152.071293211013	-85.4339470202327	95.1642622864186
20273	1649765289286	9.64415013581237	0.341670250992488	-0.659124308322384	-0.00834954010116053	0.0275673292318729	-0.140046296239264	-0.00945285971356138	0.0212566141685619	0.00738758898451239	0.557373046875	0.43994140625	0.129150390625	0	0	0	-0.60179264893526	-0.415944001522862	-0.574918626042982	0.366476150265583	-0.00708167794800174	0.0792361553939299	0.996830718585573	0.922012014546771	-0.385371637767334	0.0371826012528451	0.387096492968932	0.919353214212531	-0.070327609430736	152.134340739533	-85.4371856474375	95.1072021107859
20274	1649765289287	9.65206974481965	0.363599122298992	-0.692061501758451	-0.00125255523070623	-0.0125912558508003	-0.129018463657088	-0.0142742858579219	0.0207727646758762	0.00438791789825031	0.558837890625	0.4365234375	0.13427734375	0	0	0	-0.601769364926796	-0.415853672710786	-0.574999913820862	0.366489363330714	-0.00711835600209748	0.0790332963964436	0.996846561446916	0.921958705722137	-0.385502538916796	0.037147509093683	0.387222770444855	0.919315794789481	-0.070121291342897	152.087112440222	-85.4486104349725	95.1466186003952
20275	1649765289288	9.64447082063645	0.34067818097028	-0.654932261630773	-0.0084155148070154	0.0275573167361147	-0.140046324883679	-0.0136052712066654	0.0223053780407237	0.00792503386160142	0.5625	0.44384765625	0.1240234375	0	0	0	-0.601759397971622	-0.4157250230601	-0.575100735970162	0.366493486492037	-0.00713630262348497	0.0787915315770862	0.99686557154744	0.921874226816451	-0.385710459121181	0.0370857338622142	0.387423519054326	0.91924933303009	-0.0698833356909782	152.045972882644	-85.4623571042575	95.1752698836885
20276	1649765289289	9.65132947496154	0.371639619287226	-0.665299636840549	0.0158410450379664	0.00459567648930029	-0.131332709947426	-0.0093667731753562	0.0183714814667071	0.00544093928592559	0.555419921875	0.4365234375	0.132080078125	0	0	0	-0.601736035577139	-0.4156498024882	-0.575163023967654	0.366519414274078	-0.00715452489619078	0.0786060993618776	0.996880080007932	0.921839757988804	-0.385797521303414	0.0370369160066654	0.387505191403487	0.91922867323602	-0.0697020296411431	152.015581339754	-85.4728765537665	95.2005851593699
20277	1649765289290	9.6312025535586	0.35838156695426	-0.659160592286833	0.00573921980832372	0.0128555056758475	-0.152315002500842	-0.0158710982516103	0.0201353841804004	0.00306476946559236	0.5654296875	0.43408203125	0.12890625	0	0	0	-0.601715551451879	-0.415611837599908	-0.57521362254973	0.366516689962416	-0.00720782223991023	0.0785094261862802	0.996887314242918	0.92181099801915	-0.385864632851644	0.0370535969266809	0.387572614137657	0.919208765794891	-0.0695896088244227	151.966539642456	-85.4781309050111	95.2455271618469
20278	1649765289291	9.63241661647947	0.348710851112592	-0.68018150367913	-0.0114005033740677	-0.00429745387633684	-0.149998948787013	-0.0145209572408696	0.012139107244107	0.0109017874618576	0.568359375	0.43359375	0.131591796875	0	0	0	-0.601730821129193	-0.415517290654446	-0.575257642947757	0.366529731809802	-0.00715194920524137	0.0783610618153939	0.996899389915416	0.921757180180116	-0.386002673733245	0.0369545214714784	0.387701625491777	0.91916346743218	-0.0694691998592498	151.989010790082	-85.4869152768141	95.2148902445764
20279	1649765289292	9.63142907466013	0.357312636180957	-0.656425223471254	0.00857006982151586	0.0127864936514156	-0.152317007488286	-0.0141135744564581	0.010194956028463	0.00135889386547223	0.5673828125	0.438720703125	0.129150390625	0	0	0	-0.601832604111039	-0.415366778566681	-0.57524757646842	0.366549016721191	-0.00687866993930608	0.0782496729605028	0.996910062433638	0.921675407063493	-0.38622451520773	0.0366751668966455	0.387900925384574	0.919079763967267	-0.0694640882158742	152.16715332231	-85.4946931612936	95.0237684949897
20280	1649765289293	9.64505186564556	0.338465905486999	-0.647479918265593	-0.00546009660750795	0.0285464441668354	-0.140047073672704	-0.0159273047767109	0.00571841104315052	0.00567332866184035	0.5625	0.438232421875	0.130126953125	0	0	0	-0.601858993829791	-0.415294672614196	-0.575284018689464	0.366530195597797	-0.00684273452246387	0.0781797398158345	0.996915796477608	0.921615595393977	-0.386371901226617	0.0366257869421871	0.388043646141591	0.919023765865093	-0.0694078271110832	152.179856302497	-85.4988775387791	95.0021045034252
20281	1649765289294	9.62481834816088	0.325163834130767	-0.642837131611562	-0.0142089555744636	0.0363305597310549	-0.161025457566978	-0.0141970268344078	0.00202704131828739	0.00407209574400269	0.560791015625	0.44091796875	0.127197265625	0	0	0	-0.60193252006538	-0.415235389636228	-0.575251858994574	0.366527094775647	-0.00667026016612837	0.0781965837249871	0.996915644336599	0.921578154291273	-0.386474919977947	0.0364807039560581	0.388135560290997	0.918979015278249	-0.0694863750372202	152.300296388609	-85.4987664648374	94.8755945357729
20282	1649765289294	9.62591273694969	0.315578686461286	-0.665595174773842	-0.0313023236848292	0.01917298782051	-0.158700860759977	-0.0126891316425302	-0.00550001657433984	0.00811017300411512	0.553955078125	0.4365234375	0.1337890625	0	0	0	-0.601990713353694	-0.41518565373314	-0.575242838927327	0.366502019411797	-0.0065669016059704	0.0782204914919846	0.996914454962937	0.921531139968147	-0.386594285402519	0.0364035240481446	0.388248932866925	0.918926772493254	-0.0695438920598084	152.369690791815	-85.4978982302808	94.7989405354559
20283	1649765289295	9.66753379881814	0.331836874447688	-0.697134213910118	-0.028600416912797	-0.0122220186083918	-0.114421837232193	-0.00591658807248292	-0.00487459932202375	0.00387150957083156	0.561279296875	0.439453125	0.135498046875	0	0	0	-0.602017198311985	-0.415186870180626	-0.575237457806861	0.366465582152136	-0.00655654006896789	0.0782898130223121	0.996909081591323	0.921508732425937	-0.386645679855026	0.0364249133449817	0.388302289260659	0.91889924552498	-0.0696096884675916	152.378124312123	-85.493977787027	94.7871810314346
20284	1649765289296	9.65505427852743	0.340940948349496	-0.728198364774965	-0.0316126035801353	-0.0450937053601601	-0.124366873482149	-0.00601028975291001	-0.001985004087758	0.00582417782877506	0.567138671875	0.444580078125	0.12841796875	0	0	0	-0.602048062614968	-0.415157042286693	-0.575229515368873	0.366461137352681	-0.00648873022348606	0.0782904610975105	0.996909474366267	0.921487510861144	-0.38670173009989	0.0363667329393794	0.388353786780841	0.918875604006816	-0.0696344789173427	152.424103873677	-85.4942642425938	94.7378579861783
20285	1649765289297	9.67537645249286	0.353328973632494	-0.732076249153166	-0.021286675230491	-0.0520562769472731	-0.103386489511234	-0.00689558103276794	0.00851697886355721	0.00630135590409141	0.564208984375	0.442138671875	0.1259765625	0	0	0	-0.602052710107793	-0.415120454482943	-0.575238376886904	0.366481039452598	-0.00644836394720982	0.0782208726961938	0.996915198839425	0.921476705874345	-0.386733311983235	0.0363046268875287	0.388380096211648	0.91886823890976	-0.0695849149565274	152.447541889709	-85.498441235403	94.7126868133072
20286	1649765289297	9.64739416320697	0.317286390073904	-0.691758152956231	-0.0384334877877861	-0.0045183898034519	-0.135398672974986	-0.0103119656674325	0.0144576855000247	0.00853093507631948	0.5732421875	0.436279296875	0.133056640625	0	0	0	-0.602049719178006	-0.415040012894485	-0.575283958842581	0.366505511599262	-0.00641969121009456	0.0780599631206232	0.996927996257691	0.92143892972242	-0.386830995327818	0.0362226427209765	0.38847018721746	0.918840804063085	-0.0694441533315405	152.453083487828	-85.5077931821697	94.70145377158
20287	1649765289298	9.66779709647668	0.329811450685965	-0.694438967529929	-0.0262364641762713	-0.0111877352692469	-0.114413905708245	-0.00752989137245307	0.0166046905526368	0.00103124741451316	0.5576171875	0.454833984375	0.133056640625	0	0	0	-0.602076749115282	-0.414984873103534	-0.575257356593266	0.366565296987243	-0.00626694243885545	0.0779667191329735	0.996936264833469	0.921444254187801	-0.386834876279796	0.0360453175583468	0.388460051815827	0.918847086952576	-0.0694177134599653	152.55929377844	-85.5138459407454	94.5955381559882
20288	1649765289300	9.68148880166698	0.311071991010683	-0.68435766959485	-0.0402394633145188	0.00457937076829424	-0.102141754723673	-0.0125858138750276	0.0233499710680797	0.0029115672641702	0.555419921875	0.439208984375	0.126708984375	0	0	0	-0.602041303273028	-0.414898276563497	-0.575343951201574	0.366585634025277	-0.00632248415919945	0.0777461440283684	0.996953139963347	0.921397452563716	-0.386948786061851	0.0360190418300383	0.38857014888325	0.918817813309026	-0.0691886214840929	152.498875954429	-85.5262242232729	94.6491856005121
20289	1649765289301	9.64674565053838	0.325549183625887	-0.663200566115877	-0.0216072218801086	0.0148214457185991	-0.137728354552303	-0.0126830420491914	0.0262417792643186	0.00486645261517366	0.56298828125	0.436279296875	0.13037109375	0	0	0	-0.601905195635293	-0.414960145559615	-0.575443896519255	0.366582235007536	-0.00665520088823857	0.0776383157728713	0.996959377419707	0.921428354602767	-0.386851085148045	0.0362770623647755	0.388491307026522	0.918868069879312	-0.0689635738712336	152.254183525663	-85.5308081964121	94.8994500417483
20290	1649765289302	9.64692630635762	0.325415457953021	-0.660633416425612	-0.0215569017880154	0.0148881411118025	-0.137728344705744	-0.0141162761326428	0.0260768630776594	-0.000255247897953789	0.566162109375	0.436767578125	0.134033203125	0	0	0	-0.601857150309833	-0.414875152578461	-0.575548136888431	0.366593672228779	-0.00675410020549039	0.0774065440377361	0.996976734468036	0.921375764223183	-0.386975374509634	0.0362871964372133	0.388614311667183	0.918835287994134	-0.0687068432121494	152.159436222944	-85.5435888422016	94.9867077673668
20291	1649765289304	9.62681824472367	0.31239095938911	-0.653900390864436	-0.030142052724532	0.0220005117209841	-0.158703197977553	-0.0101762371360165	0.0260002537921574	0.00398573809477919	0.563720703125	0.44775390625	0.124755859375	0	0	0	-0.601867684721994	-0.414729725081894	-0.575607907351361	0.366647081285901	-0.0066504157438334	0.077134920449933	0.996998483458032	0.92131475723178	-0.387138345836053	0.036097358494345	0.388760710562911	0.918789478188832	-0.068490909558233	152.209035040042	-85.5596552606606	94.9277393500085
20292	1649765289304	9.6337408706843	0.343680858978107	-0.663789539552304	-0.00583746974966836	-0.000931696542248034	-0.149993075916225	-0.0059790534102542	0.023507437053735	0.00247664404068384	0.55859375	0.4345703125	0.13134765625	0	0	0	-0.60181820567449	-0.41466403458658	-0.575682245599447	0.366685884430661	-0.00671261895608299	0.0769156237479554	0.997015008698572	0.921293837262604	-0.387190401159368	0.0360729631718097	0.388809215642707	0.918785927228705	-0.0682628285217648	152.146134401584	-85.5719016845955	94.9877087266767
20293	1649765289306	9.66094226705711	0.30629716676717	-0.645685447217606	-0.0338267087244727	0.0319216998115407	-0.12546021861713	-0.00174916696440962	0.0147588031796097	0.000853849304633005	0.565673828125	0.433837890625	0.13037109375	0	0	0	-0.60177489622064	-0.414725104459255	-0.575657200560966	0.366727213950928	-0.00675624965285687	0.076923990687097	0.997014068480179	0.921360636097152	-0.387028476558101	0.0361045230375299	0.388650140024779	0.918853447503946	-0.0682598759802037	152.124407086874	-85.5712040065896	95.0194194991298
20294	1649765289306	9.65312396411922	0.365262677678322	-0.642402462388374	0.0217330469317427	0.0105062094818677	-0.131348753522158	0.00637549631951885	0.0073746331924229	0.00444875298501692	0.556640625	0.432861328125	0.121826171875	0	0	0	-0.601753281783232	-0.414719425991135	-0.575653256292681	0.366775291000262	-0.00673774754956691	0.0768467700348545	0.99702014858937	0.921388332402841	-0.386967367234513	0.0360527059664417	0.388584795983928	0.918885646112072	-0.0681984288626125	152.137089047046	-85.5757176209327	95.0107481724517
20295	1649765289308	9.64642129141277	0.333326330256741	-0.62949560395717	-0.000245956989430168	0.0345787151177647	-0.140065219505862	-0.00429722430660323	0.00538568214445656	0.00346431428016408	0.561279296875	0.4365234375	0.13232421875	0	0	0	-0.601828679421498	-0.414694964254312	-0.57556564809466	0.366816728055394	-0.00649545728902196	0.0768964297695051	0.997017927684006	0.921404861030166	-0.386947149281701	0.035846697654665	0.388549727968746	0.918890005795834	-0.0683393455042188	152.321207276933	-85.5740683827522	94.828324374563
20296	1649765289309	9.66903316198598	0.327786310551139	-0.67799377866277	-0.024313695006976	-0.00702749849732301	-0.11440498783775	-0.0126335208558572	0.0137419814427635	0.00464278382092073	0.56005859375	0.437255859375	0.127685546875	0	0	0	-0.601824732789777	-0.414622439123243	-0.575618782906629	0.366821810615315	-0.00649750051883202	0.0767610289279946	0.997028348104969	0.921359125607969	-0.38705998446479	0.0358040512377497	0.388658132741265	0.918853803857846	-0.0682095520439861	152.304454341843	-85.5818118801232	94.8383150722017
20297	1649765289310	9.63760607078814	0.315090362556396	-0.725414740100604	-0.0538870116753577	-0.049404401836925	-0.142960674363039	-0.00598379622934429	0.0235123259635426	0.00247971502752607	0.555908203125	0.438720703125	0.12353515625	0	0	0	-0.601801523461526	-0.414561541858834	-0.575657065318175	0.366868637962254	-0.00648465767821466	0.0765864879451552	0.997041854226303	0.921348581891665	-0.387092260982694	0.035726350688589	0.388683341373173	0.918854771632347	-0.0680526912579729	152.301393285917	-85.5918685865349	94.8397496504763
20298	1649765289311	9.62877414587161	0.301478264989736	-0.665220579850591	-0.043730708468763	0.00809206070562021	-0.156356768797293	-0.00103886926796313	0.0307228821478882	0.00180810105347384	0.555908203125	0.4384765625	0.1298828125	0	0	0	-0.601721741698001	-0.414499839011262	-0.575742114203441	0.366935753177738	-0.00657819721562003	0.0763063975040292	0.997062716694065	0.921347862749561	-0.387096072999048	0.0357035863119066	0.38868347421547	0.918876468285413	-0.067758341944876	152.2141181467	-85.6074480164064	94.9271542943431
20299	1649765289312	9.63457628679324	0.341953031456244	-0.652459953818648	-0.00261920911920135	0.00395282888114856	-0.149992431220339	-0.00261365196436592	0.0190162267077276	0.00122788574649074	0.56640625	0.445068359375	0.1279296875	0	0	0	-0.601654582706405	-0.41456978924857	-0.575739026134772	0.366971697459302	-0.00668707274443919	0.0762957716775761	0.997062805585603	0.921415482534547	-0.38692732621247	0.0357876064538635	0.388521288482032	0.918948420453614	-0.0677126940984453	152.142590763058	-85.6075145157808	95.008986017125
20300	1649765289313	9.6358138774342	0.33272325629756	-0.673778597513185	-0.0196818769161902	-0.0131553671806187	-0.147645667990577	-0.00511189877005656	0.00819527707328688	0.00285737687802159	0.55712890625	0.43798828125	0.12890625	0	0	0	-0.601649151693605	-0.414535585355355	-0.575762354660873	0.366982639501959	-0.00668408114108077	0.0762203892731027	0.99706859108005	0.921399543830344	-0.386967981556536	0.0357583819445781	0.388559137955258	0.918937556915113	-0.067642906519084	152.137519587707	-85.6118447821285	95.0116830388703
20301	1649765289314	9.6617655855014	0.304339206040518	-0.634189570640622	-0.0305208022206523	0.0369582938036871	-0.125467144941513	0.00570836280765306	0.00584691906562578	0.000914086596378518	0.56640625	0.42724609375	0.135009765625	0	0	0	-0.601611666314933	-0.414646292133985	-0.575687046285731	0.367037164483541	-0.00669424568330312	0.0763150112868312	0.997061285040705	0.921509175681311	-0.386704344614839	0.0357853180949858	0.388298887726817	0.919040678592791	-0.0677362892533853	152.152349871888	-85.6063771410936	95.013073855988
20302	1649765289317	9.62010392553728	0.369013573148544	-0.6354457988566	0.0290085384584568	0.00715818363697176	-0.164606249561723	0.00144050720888678	0.00497766293595777	0.00426262524327897	0.561767578125	0.43505859375	0.141845703125	0	0	0	-0.60160638110418	-0.414633433114849	-0.575684040690295	0.367065067328153	-0.006665997124222	0.0762652360506003	0.99706528284385	0.921519240673505	-0.386684704981545	0.0357383267915865	0.388275486672628	0.919053073931795	-0.0677022432837472	152.171543572526	-85.6093681463083	94.9952682852367
20303	1649765289316	9.6359471629147	0.331997328784242	-0.672228710086705	-0.0173271643521973	-0.0138327990911687	-0.147642105512586	-0.00420235544330873	0.0024967179673765	0.00150826145415076	0.56005859375	0.4375	0.133056640625	0	0	0	-0.601720286447879	-0.414370617200599	-0.575763462745857	0.367050573415675	-0.00641314686461203	0.0760017946497349	0.997087056759495	0.921339031260382	-0.387141736312037	0.0354353704860335	0.388707166159146	0.918882475192187	-0.0675406230442472	152.316128532065	-85.6256943996752	94.8232789161946
20304	1649765289316	9.62016370562387	0.368613899801462	-0.634772374667574	0.0311780480493148	0.00496752460859007	-0.16461163986226	-0.00173713183056534	0.00369571402936918	0.00160431595512922	0.556396484375	0.435546875	0.1279296875	0	0	0	-0.601719551940956	-0.414357054317605	-0.575768469748623	0.367059234446623	-0.00640219843886775	0.0759712146862616	0.997089457568499	0.921335749583994	-0.387151499889393	0.0354140180139645	0.388715124986988	0.918880890362014	-0.0675163753015762	152.32187220811	-85.627498269177	94.8170124876134
20305	1649765289318	9.65516908460791	0.353742780740675	-0.652824241037245	0.0103464102484727	-0.00329236451147852	-0.129016283659762	-0.00172125995424626	0.00850747887150348	0.000742289524448456	0.557373046875	0.437744140625	0.138671875	0	0	0	-0.601711049756235	-0.414352723363408	-0.575772762923348	0.367071326472377	-0.00640490776611796	0.0759418806228238	0.997091674784208	0.92134056795458	-0.387140923846274	0.0354042783373106	0.388703659614416	0.918887771085742	-0.0674887335148463	152.318703713881	-85.6291648541645	94.8208940657866
20306	1649765289319	9.67668257486854	0.35757612631913	-0.678640185094798	0.00346500772333679	-0.0276704508962749	-0.105688800059294	-0.00253275416158642	0.0113159660082644	0.000135738932148255	0.55517578125	0.442138671875	0.134033203125	0	0	0	-0.601686811831066	-0.414327510070124	-0.575804884207194	0.367089131125941	-0.00643710055553781	0.0758473678926099	0.997098661377199	0.921334226459378	-0.387156568416586	0.0353982299895584	0.388718158684333	0.918888985849573	-0.0673886102646831	152.287725113316	-85.634420526365	94.8510186470709
20307	1649765289321	9.66882937558657	0.335131110910135	-0.642535408972855	-0.00544619073654818	0.0119199469842068	-0.116747272051057	-0.00580980599877539	0.0129257920224201	-0.000567022087203447	0.561279296875	0.44140625	0.133544921875	0	0	0	-0.601615226971974	-0.41427310427709	-0.575946529731593	0.367045649256628	-0.00667322007448112	0.075668679431223	0.997110685474273	0.92126335120096	-0.387310572868809	0.0355578103658443	0.3888821233585	0.918838816712252	-0.0671261725038326	152.08911349904	-85.6434804836023	95.0398753711917
20308	1649765289321	9.66212427894461	0.303593016471993	-0.629061819649984	-0.0296085663064629	0.0349928770523769	-0.125457014785542	-0.00504892348284922	0.0115635217038215	0.00101789185617779	0.56689453125	0.446533203125	0.13720703125	0	0	0	-0.601596053421796	-0.414237505099438	-0.575983962703398	0.367058513843234	-0.00670047184503186	0.0755676617993332	0.99711816359308	0.921246931189118	-0.38735067356838	0.0355464127691675	0.388920551593365	0.918830225981005	-0.0670210442473737	152.059554456328	-85.6491246185831	95.0670797230701
20309	1649765289323	9.64983657482815	0.313434598959995	-0.658655379089471	-0.0334081456715825	0.00210442760630453	-0.135379193570689	-0.000615415187335411	0.0129086524446192	-0.00612471676646043	0.563232421875	0.44287109375	0.12939453125	0	0	0	-0.601516456665623	-0.414259521187215	-0.576049181097695	0.367061769219907	-0.00688721987517205	0.0754765755062656	0.99712379008438	0.921259101791859	-0.387309413365782	0.0356803262864917	0.388888459031697	0.918855105480783	-0.0668659970676537	151.915198707253	-85.6533760538402	95.2137875798195
20310	1649765289323	9.64872370089845	0.322998204567479	-0.63507597351433	-0.0161779618059675	0.01940365607533	-0.137725857437481	-0.00397310302859679	0.00633938397373799	-0.00412726983111773	0.55908203125	0.438720703125	0.1328125	0	0	0	-0.601499359677049	-0.414252196365393	-0.576078525524059	0.367051999782829	-0.00694269952705262	0.0754433120660899	0.997125922633534	0.921246411368289	-0.387335894523748	0.035720503279453	0.388917534272147	0.918846674629661	-0.0668127237709027	151.869425271992	-85.6549885151699	95.2578569497093
20311	1649765289324	9.63874392631917	0.31488547452989	-0.710226453937267	-0.0535820646115695	-0.0470789584144988	-0.142947378289309	0.00261013121865152	0.0127457096953951	-0.00444238945264805	0.561279296875	0.439208984375	0.135986328125	0	0	0	-0.601437404606957	-0.414315765108404	-0.576078068243251	0.367082489927548	-0.00704698785647689	0.0754336535423188	0.997125921774882	0.921306340275858	-0.387185784742458	0.0358021711753796	0.388773671085961	0.918910731250117	-0.0667690097554302	151.799371988218	-85.6549878658069	95.3370634789722
20312	1649765289325	9.6364946653382	0.333413040821533	-0.663624800341039	-0.019204324972163	-0.0125564567543389	-0.147643910664605	0.00343594930793089	0.0147503102883572	-0.00469662861051425	0.562255859375	0.43701171875	0.134033203125	0	0	0	-0.601381220445138	-0.414316529546267	-0.576118218404708	0.367110663782516	-0.00714077646615491	0.0753260772267506	0.9971333869654	0.921322643529762	-0.387143147763796	0.035843683667726	0.388733322254206	0.918937519763542	-0.066635117918692	151.723756172717	-85.6606371496006	95.4153533577579
20313	1649765289326	9.63661719337221	0.333697552115175	-0.661700005149102	-0.0188464009824387	-0.0130111712405186	-0.147643807545734	-0.0033717624538723	0.0251996941851312	-0.00121286217982685	0.55419921875	0.437255859375	0.136474609375	0	0	0	-0.60133251743645	-0.414217033181007	-0.576218119927228	0.367145926252487	-0.00720614461948982	0.0750520719272881	0.997153577930273	0.921276613383883	-0.387256236517856	0.0358051520028981	0.388841192663081	0.918912288402679	-0.0663530942074685	151.648017071102	-85.6759535708002	95.48445711012
20314	1649765289327	9.67621097617135	0.368826867498647	-0.644679535030794	0.0187004177867852	-0.0102357034262354	-0.108036482657528	-0.00330955892392452	0.0285691710354363	-0.00305052501549249	0.562255859375	0.437744140625	0.134033203125	0	0	0	-0.601252318178988	-0.414167656001964	-0.576310973087015	0.367187234126855	-0.00733836995732701	0.0748104621623216	0.99717076926544	0.921266590981431	-0.387277375632219	0.0358343782543155	0.388862464976785	0.918923081152324	-0.0660783947875355	151.528979719783	-85.6890373485753	95.6023819575246
20315	1649765289327	9.63579190817034	0.343177298234531	-0.63359307662076	-0.00195224333584126	0.00383689738821663	-0.149992226718542	-0.00177610260349034	0.030658733874522	-0.000740137159700713	0.553955078125	0.4375	0.134765625	0	0	0	-0.601168167989471	-0.414070270129465	-0.576447456721144	0.367220607851493	-0.00749171793072689	0.0744849605221005	0.997193995578828	0.921218502328443	-0.387389673128184	0.0358568280998108	0.388973450418132	0.918902188380058	-0.0657147096178098	151.381181076166	-85.7067773621641	95.7435094598253
20316	1649765289329	9.62678678536608	0.329873028613227	-0.573365843245273	0.00817760224071946	0.0613238821825554	-0.16339928260877	-0.000863504446008589	0.0249591679482603	-0.00208930245741401	0.559814453125	0.4375	0.136962890625	0	0	0	-0.601095667443531	-0.414031432928819	-0.576523014280699	0.367264462114458	-0.00760162689678812	0.0742721715650868	0.997209035157388	0.921217830510713	-0.387389574829374	0.0358751454722008	0.388972909105064	0.918919453404118	-0.0654760577449505	151.281117778797	-85.718303565692	95.8437747068271
20317	1649765289330	9.6483965731791	0.333812499256024	-0.598187103947481	0.000514585640182426	0.0363344947025918	-0.140071666170966	-0.00176805037219041	0.0147728567224384	0.00086320213994411	0.55517578125	0.435546875	0.13134765625	0	0	0	-0.601051370068975	-0.413960070091215	-0.576622444435695	0.367261306812041	-0.00771276611383881	0.0740803096031339	0.997222453100599	0.921164759525561	-0.387512385777576	0.0359115117641364	0.389096387861784	0.918883158294935	-0.0652513781834319	151.17353213953	-85.7286131661372	95.9438539484705
20318	1649765289330	9.64966022172456	0.32474066158189	-0.619773739226362	-0.0165850682458852	0.0192015177853159	-0.13772614345706	0.00494133019550268	0.00721427437810015	-0.000661215402426396	0.552734375	0.440185546875	0.138916015625	0	0	0	-0.601022039194026	-0.413966068659506	-0.576630540631328	0.367289833800052	-0.00774137278036835	0.0740243906207116	0.997226383897211	0.92118653235077	-0.387460543971446	0.0359123861768276	0.389044269669967	0.918909525719797	-0.065190795196705	151.150455688409	-85.7316380785697	95.970215074317
20319	1649765289333	9.628158675228	0.320870062572206	-0.593044928516819	-0.0109225667744309	0.0434993745739485	-0.161050825980872	0.00829672619006527	-0.00691765777484139	-0.000192924362595898	0.5673828125	0.43701171875	0.132080078125	0	0	0	-0.600996188018596	-0.414003614530526	-0.576651319055358	0.367257192406755	-0.00785147322524954	0.0740704994496871	0.997222099373789	0.921187877185377	-0.387446323562335	0.0360311155076846	0.389038878898872	0.918911806143171	-0.065190821714447	151.070471290864	-85.7283410634175	96.0507582445399
20320	1649765289334	9.63610205459334	0.343473934005469	-0.628696045903839	-0.00379578732777244	0.0033774201575	-0.149992603525055	0.00512255956978556	-0.00820001586256692	-0.00285511342776214	0.560302734375	0.441650390625	0.131591796875	0	0	0	-0.601005972541808	-0.414045171005347	-0.576617318813109	0.367247716100468	-0.00784187197613229	0.0741644545564366	0.997215191783728	0.921210028148795	-0.387391422772286	0.0360550911877988	0.388986618127162	0.918927374302676	-0.0652831653275431	151.088668338595	-85.723030894952	96.0358142724644
20321	1649765289336	9.63726667684399	0.334539209036614	-0.651740670740519	-0.0197779930588325	-0.0131579699795936	-0.147645867742375	0	9.88131291682493E-322	5.55111512312578E-15	0.5654296875	0.43994140625	0.12939453125	0	0	0	-0.601033920675107	-0.414072430192048	-0.576547897959814	0.36728023376011	-0.0077269121740568	0.0742338588504315	0.997210925044661	0.921252445796753	-0.387298504887942	0.0359694206940571	0.388888449226454	0.918960936227291	-0.0653955024944783	151.187932033758	-85.7197541501666	95.942448627313
20322	1649765289337	9.65881184523369	0.338385674727181	-0.677816867585008	-0.0267259266660824	-0.0375537995861722	-0.124320000871323	-0.00423273847591826	0.0135731741054158	0.000762959741141259	0.5595703125	0.435791015625	0.127685546875	0	0	0	-0.601005884202938	-0.414036277807782	-0.576591568154977	0.367298313833737	-0.00776775161667714	0.0741142569637714	0.997219503895472	0.921238699980066	-0.387331818627942	0.035962757644691	0.388920197076292	0.918956549132265	-0.0652682243749556	151.14525863698	-85.7263450326281	95.9832001069731
20323	1649765289338	9.65773678120475	0.347499706827113	-0.653348062826234	-0.00793233879417022	-0.0189262110756892	-0.126662486212959	0.00077120551248365	0.0241571601350572	-0.00173620195223049	0.566650390625	0.44384765625	0.12890625	0	0	0	-0.600967737482839	-0.414068309126546	-0.576548875085925	0.36739162826471	-0.00772233997152444	0.0740449298142419	0.997225006622963	0.92132184978226	-0.387141653716176	0.0358802044545242	0.388724085411694	0.919042266888041	-0.0652295722363205	151.186549479726	-85.7305779649634	95.954002277553
20324	1649765289339	9.62835966278814	0.321297055597102	-0.589540559189424	-0.00797431939933909	0.0458282208284179	-0.16105871674648	-0.00252011395907723	0.0209535814716751	-0.00158152891416688	0.56201171875	0.436767578125	0.132080078125	0	0	0	-0.600910853019223	-0.414031006894123	-0.576614585622367	0.367423586207382	-0.00781211004443227	0.0738678532406034	0.997237439727509	0.921315048876018	-0.38715646725749	0.0358949937356129	0.388738410311141	0.919050276164652	-0.0650310558921039	151.102753694931	-85.7401574980623	96.0370412711615
20325	1649765289340	9.69060047644046	0.351143535924891	-0.622484229091026	0.00654866970889647	0.00798800551635101	-0.0957732940192706	-0.00586314243808863	0.0191960443118622	-0.00044899542377874	0.558349609375	0.43310546875	0.1220703125	0	0	0	-0.600886357449611	-0.41404494108368	-0.576590934563083	0.367485055986799	-0.00778063811463497	0.0738108091976318	0.99724190952653	0.921365016675213	-0.387043040778783	0.0358356056429633	0.388620596105783	0.919102632479259	-0.0649952556120993	151.129536128787	-85.7436066746772	96.0175118647532
20326	1649765289341	9.6501008080603	0.325417733054346	-0.612516357089856	-0.0137078618494942	0.0225995090001076	-0.137728979670886	-0.00581201774673574	0.0177505569039017	-0.00142694040460763	0.560546875	0.439697265625	0.135009765625	0	0	0	-0.600845357231796	-0.414003923652059	-0.576652906146465	0.367501066293054	-0.00785564593292676	0.0736635550245452	0.997252209567932	0.921345786583802	-0.387087434948336	0.0358505125401657	0.388664676001372	0.91909575037983	-0.0648287842126097	151.057274314187	-85.7515654727961	96.087143903278
20327	1649765289342	9.62746772563166	0.330629707643034	-0.561371001716055	0.0116789164683185	0.0656223405729669	-0.163431160503748	-0.00264088404590712	0.0190343223874559	0.0012376083427216	0.560791015625	0.44140625	0.125732421875	0	0	0	-0.600828551729008	-0.414021557897435	-0.576615388659584	0.367567537446331	-0.00779831368572415	0.0736217491056816	0.997255746718102	0.921402142958732	-0.386960510023642	0.0357722606679969	0.388532208773887	0.919152545413906	-0.064817597953193	151.106081391637	-85.7543020487772	96.0464546167547
20328	1649765289342	9.63558747891636	0.353330668940898	-0.594646012973821	0.0188800538773806	0.0255502380597288	-0.152356981741459	-0.00067507437703337	0.0143661581325354	-0.00513960060410855	0.563720703125	0.4345703125	0.1357421875	0	0	0	-0.600780508130517	-0.414013177288531	-0.576662619810462	0.367581410023993	-0.00789337611042112	0.0735211762521492	0.997262418451673	0.921403011844387	-0.386953992072457	0.0358203543154228	0.388528228546746	0.919163339489609	-0.0646882598362155	151.025030115559	-85.7594685463546	96.127913336366
20329	1649765289344	9.63004844571739	0.312992816806065	-0.604156639518572	-0.0212814317505099	0.0321643675765072	-0.158708112013205	0.00164972239144805	0.00401110855741905	-0.000505091063186681	0.565185546875	0.4375	0.129150390625	0	0	0	-0.600795419523397	-0.414048712996856	-0.57659303940217	0.367626160737128	-0.00779173964277052	0.073575769689794	0.99725919143816	0.921458511222479	-0.386829338414654	0.0357389848391511	0.388398636569428	0.919211438710504	-0.0647829457092934	151.115676158244	-85.7569688079298	96.0451425958813
20330	1649765289344	9.62459832876604	0.354143375106411	-0.647032012277348	2.97114555725796E-05	-0.0236150443994949	-0.159894850195997	0	0	0	0.559326171875	0.439697265625	0.133056640625	0	0	0	-0.600795419523397	-0.414048712996856	-0.57659303940217	0.367626160737128	-0.00779173964277052	0.073575769689794	0.99725919143816	0.921458511222479	-0.386829338414654	0.0357389848391511	0.388398636569428	0.919211438710504	-0.0647829457092934	151.115676158244	-85.7569688079298	96.0451425958813
20331	1649765289345	9.64488863232614	0.367063854973244	-0.65134936338469	0.0111376297856226	-0.0301584899101412	-0.138916897658907	0.00250588507878526	-0.0050627558850506	-1.91089150472929E-05	0.562255859375	0.43115234375	0.125244140625	0	0	0	-0.600828031463945	-0.414105032282692	-0.576501626260306	0.367652789686864	-0.00767420568525456	0.0737069604242168	0.997250415167687	0.921516685038677	-0.386696896947235	0.0356722453275251	0.388262933799285	0.91925665288667	-0.0649546023093784	151.224966647667	-85.7501778772209	95.9440925647103
20332	1649765289346	9.6571476509282	0.35733334383738	-0.620818473236986	0.0142886102832966	0.00290621806324498	-0.129021174503393	0.00234692739102601	-0.000722591182799526	0.00291710576107904	0.5556640625	0.439453125	0.12841796875	0	0	0	-0.600835153660246	-0.414109330382333	-0.576481406133687	0.367668014652474	-0.00763469825515495	0.0737153381503436	0.997250099174692	0.9215304344593	-0.386667386983608	0.0356369219844215	0.388231077771741	0.919268394303127	-0.0649788387672712	151.257923469456	-85.7499335691551	95.9130419869982
20333	1649765289347	9.69215454224598	0.342563888055749	-0.639696507272337	-0.00517048041111766	-0.00420027129973341	-0.0934087417442857	-0.000666158392337061	-0.00634561015964265	-0.00268346836356517	0.5537109375	0.43212890625	0.13037109375	0	0	0	-0.600888059700239	-0.414204201508349	-0.576347777636481	0.367684182928776	-0.00748376266736028	0.0739527945219063	0.997233662427587	0.921608641334249	-0.386486442153657	0.0355772715289805	0.388048328838532	0.919325412579141	-0.0652631616749745	151.40362704045	-85.7372448688673	95.7784597099037
20334	1649765289348	9.65831837393403	0.348499573435004	-0.644153130174561	-0.00114127127274957	-0.0125355746974226	-0.12664892646317	0.000930667942903128	-0.000887848082455664	-0.00221005461384842	0.5576171875	0.44091796875	0.134521484375	0	0	0	-0.60088805666293	-0.41422066856558	-0.576338475083357	0.367680218711208	-0.00748960025665091	0.0739839919873156	0.99723130457162	0.921617018268648	-0.386464989003123	0.0355933127486319	0.388028320520039	0.919331921127748	-0.065290437814137	151.402834157509	-85.7354277618969	95.7805145439359
20335	1649765289350	9.68534281814837	0.311328486790025	-0.627331913578344	-0.0296907892062036	0.0191176121135846	-0.102121510826265	-0.000909031806085856	0.0105204056508736	0.000492457983149488	0.56005859375	0.443359375	0.133056640625	0	0	0	-0.600855324667714	-0.414208652353711	-0.57637886128134	0.367683939548363	-0.00756279883330363	0.0739084478036847	0.997236353838475	0.921609449356976	-0.386479425827036	0.035632517008149	0.388044877468752	0.919331928497893	-0.0651918577324421	151.339899028421	-85.7393199789294	95.8425459938247
20336	1649765289351	9.65963975354603	0.339691856278176	-0.665248885369762	-0.0185266072029363	-0.029395245773229	-0.124272663425502	0.00424061402340312	0.0119509953174988	-0.00407897468502497	0.564453125	0.437744140625	0.133544921875	0	0	0	-0.600808230512345	-0.414216830789477	-0.576404804704647	0.367711012009086	-0.00763616359175939	0.0738289741804239	0.997241681628414	0.921630550439803	-0.386426057475952	0.0356655379830078	0.387993321465235	0.919360747843336	-0.0650922255213052	151.280644597366	-85.7434307467363	95.905130248765
20337	1649765289352	9.63820992236864	0.335945388158421	-0.636900273504246	-0.0114193364845737	-0.00457748459056009	-0.147624504868954	0.000642942724213453	0.0222429354111803	0.00108650603094941	0.55419921875	0.44580078125	0.13134765625	0	0	0	-0.600741366332593	-0.414204308850568	-0.576442504210041	0.367775258339288	-0.00770234026063921	0.0736567430722864	0.997253908568171	0.921661906686663	-0.386352299766187	0.0356543157006886	0.387917521797115	0.919405560492954	-0.0649107973870534	151.22081145998	-85.7528797133664	95.9697653815629
20338	1649765289353	9.65864967187239	0.348972170378441	-0.638908669493886	-0.00112595948902321	-0.011667812230251	-0.12664784049262	0.00250385332427621	0.0204683247232635	-0.0033324496409326	0.55517578125	0.4375	0.12646484375	0	0	0	-0.600674439555745	-0.414189695415257	-0.576496193989967	0.367816873173718	-0.00780193094620146	0.0734962713867701	0.997264973798716	0.921676381266526	-0.386315288041052	0.0356811776879789	0.387881139125058	0.919433954299058	-0.0647257722475825	151.133505033875	-85.7614490364179	96.0594893739153
20339	1649765289354	9.65505325959825	0.376359223804581	-0.56893693729657	0.0488480860230971	0.0418930145065249	-0.133780016286272	-6.82222673535048E-05	0.0221628643570755	-0.00147584513147973	0.5625	0.434814453125	0.1337890625	0	0	0	-0.600534915041839	-0.414331787961477	-0.576511532941603	0.36786062263534	-0.00807275626006143	0.0734896272364525	0.997263307905697	0.921793193093863	-0.386015463597971	0.0359078129251077	0.387597909917206	0.919560403971317	-0.0646260293993262	150.94237223608	-85.7601578019038	96.2687456504906
20340	1649765289354	9.66989741481358	0.348816200031498	-0.581492873265345	0.0177097878943299	0.0405361875573801	-0.119144889233	0.00243778735586913	0.0171003186752688	-0.00149367335461344	0.558837890625	0.43994140625	0.126953125	0	0	0	-0.600481219657911	-0.414318800761961	-0.576551697745503	0.367899953791918	-0.00814385767610343	0.0733546316990463	0.997272668627015	0.921808003535936	-0.38597911067015	0.0359183900442588	0.387561198005222	0.919586441904499	-0.0644755276533651	150.878448674448	-85.767418404334	96.3350554936855
20341	1649765289355	9.61712016822874	0.332638123756675	-0.602770231102582	-0.00457316019830348	0.0228884550823753	-0.170984427495743	0.000788636402217806	0.0130886874721779	-0.000989342514498039	0.5576171875	0.43798828125	0.13232421875	0	0	0	-0.600469801368483	-0.414332783907043	-0.57652041756196	0.367951858207725	-0.00809489537195507	0.0733251310329923	0.997275236746562	0.921852166779459	-0.385879548442643	0.035854660753083	0.387457165726657	0.919630577597709	-0.0644712763513312	150.920081768217	-85.7694125292836	96.2997881220321
20342	1649765289356	9.63623384066343	0.354583442467053	-0.583318348813115	0.0228451756776184	0.0330644564552528	-0.152388341446182	0.000715845772229734	0.00490059462978048	0.00170586486116305	0.564697265625	0.43994140625	0.134765625	0	0	0	-0.600461324616818	-0.414327867189591	-0.576521134997438	0.36797010341984	-0.00808840125721877	0.0732906365791842	0.997277825059256	0.921860803254107	-0.385860842918634	0.0358339130686929	0.387436752501354	0.91964117594415	-0.064442767780917	150.923404632671	-85.7714232838406	96.2977135704709
20343	1649765289357	9.66446999478416	0.308322599629827	-0.589482717670773	-0.0221155985608033	0.0473915615030268	-0.125489732714513	-0.00399378664803629	-0.00328991265674824	-0.00241463333580712	0.55712890625	0.43798828125	0.1357421875	0	0	0	-0.60048335275569	-0.414331736450875	-0.576506197937218	0.367953202150574	-0.00806036818084938	0.073344017332912	0.997274127602967	0.921853223695521	-0.385879306393482	0.0358300831629016	0.387455370884138	0.919629173101177	-0.0645020895342228	150.94839009475	-85.7685511727872	96.2715298091765
20344	1649765289357	9.63869491118825	0.336519755321929	-0.629210897728819	-0.0109317056002946	-0.00109938075876573	-0.147622919582675	0.00325947448299616	-0.0112460891825757	0.00242478614514556	0.5634765625	0.442138671875	0.128173828125	0	0	0	-0.600518277937719	-0.414361676353751	-0.576451783053415	0.367947742004983	-0.00798451403230366	0.0734552567561808	0.997266550522252	0.921871784553182	-0.385837720645489	0.0358003655264351	0.387412777771205	0.919637743126052	-0.0646356019359466	151.018809434803	-85.7626715174074	96.2036383092877
20345	1649765289359	9.67243843257097	0.330692449540468	-0.626018270193484	-0.0147866323465261	0.00808196672861597	-0.114386604248471	0.00583947322391716	-0.00812152396852099	-0.000288517711564611	0.55859375	0.437744140625	0.134033203125	0	0	0	-0.600520511341714	-0.414449999074012	-0.576376903552982	0.367961925715304	-0.00795827336354304	0.0736019400006375	0.99725594523834	0.921940961477355	-0.385670438982873	0.0358214467179574	0.387248666150422	0.919696181857303	-0.064787372549123	151.061449785001	-85.7544556894949	96.1711806849976
20346	1649765289359	9.66138813894842	0.331216948084722	-0.680250727999645	-0.0348277907521267	-0.0419278664856637	-0.121872353525491	0.00420025916443117	-0.00731603213454708	-0.000642637953282717	0.562255859375	0.443603515625	0.129150390625	0	0	0	-0.600535992042017	-0.41448493035805	-0.576337821580862	0.367958530521606	-0.00792608415698043	0.0736894018522407	0.997249742664593	0.921963073503911	-0.385617524644926	0.0358220013670755	0.387196679072999	0.919711365995539	-0.0648824704636144	151.09664755452	-85.7496579523638	96.1391718329294
20347	1649765289360	9.66136409772828	0.33119547151742	-0.680602511555072	-0.0348638538320409	-0.0411300017471451	-0.121869064037551	0.0107206630988802	0.000545299944471969	3.61509047537666E-05	0.56396484375	0.43505859375	0.129638671875	0	0	0	-0.600498791636081	-0.41458309274719	-0.576274585564025	0.368007693513047	-0.00794307751762857	0.0737663303276654	0.997243920026359	0.922060254582082	-0.385382393446765	0.0358510493747459	0.386964849100763	0.919803750444209	-0.0649558790964363	151.104409636788	-85.7451590121461	96.1458664235273
20348	1649765289360	9.66139137070554	0.331307707791386	-0.680160644701303	-0.034759971631431	-0.0409514958088032	-0.121867934890922	0.00505245638626458	0.00914246742047221	-0.00347061509754287	0.56103515625	0.43310546875	0.1337890625	0	0	0	-0.600459360943171	-0.414599050905516	-0.576288197581735	0.368032737907867	-0.00800091936751673	0.0737139159487507	0.99724733335556	0.922085608668733	-0.38531906163257	0.0358796743102281	0.38690323800052	0.919834484751521	-0.0648876343120702	151.059561644265	-85.747795790892	96.1946420748074
20349	1649765289361	9.64114629413976	0.31864179383732	-0.675073686817487	-0.0427203788311306	-0.0337942658925186	-0.14283773879634	0.00582201359168534	0.0125963125099373	-0.00274392118251369	0.56591796875	0.4423828125	0.130859375	0	0	0	-0.600494195091867	-0.414524667571509	-0.576269805718525	0.368088484814227	-0.00783517801627409	0.0736027539359127	0.997256859890421	0.922075872460396	-0.385360334643793	0.0356861024717313	0.38692983267235	0.919826096116148	-0.0648479567285995	151.175826820928	-85.7551636376522	96.0763803405666
20350	1649765289362	9.67254077700678	0.331146598820366	-0.624194397648054	-0.0122604888522608	0.00935050214430424	-0.114384221810527	0.00812150380083202	0.0181402038441518	0.000294791874924243	0.556640625	0.436767578125	0.12890625	0	0	0	-0.600431508122109	-0.41452117307235	-0.576296665027015	0.3681526246106	-0.00789129809307398	0.0734528866246906	0.997267467062325	0.922113405760816	-0.385271684134099	0.0356734680212531	0.386839235769324	0.919875210477473	-0.0646915977421337	151.125945755567	-85.7633823002083	96.1319646658986
20351	1649765289362	9.63760563794355	0.345855677172773	-0.603852265998497	0.00944145087744888	0.0192065721958859	-0.150014968866861	0.00730498447528896	0.0209528853635088	-0.000311269028169597	0.56591796875	0.43310546875	0.13232421875	0	0	0	-0.600362695555915	-0.414577119443564	-0.576268059322582	0.368246615223138	-0.00791812832307459	0.0733757492763952	0.997272932883465	0.922210798503384	-0.385040484821158	0.0356520430331669	0.38660644894726	0.919978165211988	-0.0646191083625757	151.113335862095	-85.7676235541351	96.15907194764
20352	1649765289363	9.67959484371172	0.362830826676732	-0.632768857555631	0.0128392059134228	-0.0122713018045742	-0.105664990974287	0.00834498107472859	0.0171705380284194	-0.00447685383165349	0.56494140625	0.436767578125	0.137451171875	0	0	0	-0.600292620356956	-0.41459074697753	-0.576299890081641	0.368295695274167	-0.00801410157499455	0.0732539943496903	0.997281117081719	0.922249069165866	-0.384945586726263	0.035686827859398	0.386513167432416	0.920027579788665	-0.0644734350688134	151.034940389234	-85.7739821015565	96.243418374309
20353	1649765289365	9.62429375668675	0.364931324291443	-0.608982967649833	0.025958614164937	0.0028110644722433	-0.162278892979954	0.00663416983674375	0.00978735412515999	-0.00213499951725785	0.56298828125	0.4423828125	0.132568359375	0	0	0	-0.600343953213264	-0.414464458556485	-0.576305611768254	0.368345208029329	-0.00781789112420173	0.0730836421218951	0.997295172871387	0.922201283942884	-0.385082040630621	0.0354487500182066	0.38663118404038	0.919984023360165	-0.0643872991324984	151.164797666444	-85.784924805516	96.1058156128866
20354	1649765289364	9.64464541069372	0.377950045472614	-0.61232481950178	0.0363010369102672	-0.00422775782569079	-0.141304970512502	0.00410887934855467	0.00521518932851786	-0.000400543385982728	0.5576171875	0.43701171875	0.132080078125	0	0	0	-0.600325080906745	-0.414474847574101	-0.576302613609988	0.36836896653903	-0.00782820345055624	0.0730552964289598	0.997297168798956	0.922223289185972	-0.385029810438786	0.0354436165829589	0.386578483769782	0.920008135147266	-0.0643592040745276	151.157737936535	-85.7864809737938	96.116162840214
20355	1649765289365	9.64592341635829	0.368955524919164	-0.634745495741666	0.0192124673405758	-0.0209625767042552	-0.138905266586354	0.00503373985256809	-0.000491847560938201	-0.00175030500339308	0.56103515625	0.435546875	0.122802734375	0	0	0	-0.60030683046321	-0.414534916903973	-0.576266811597016	0.368387124935767	-0.00784527096154841	0.0731177363256558	0.997292458789373	0.92227483200616	-0.384903457697952	0.0354748150124826	0.386455153894406	0.920056044427063	-0.0644149760667375	151.15740766467	-85.7828096321959	96.1242017733929
20356	1649765289366	9.64718149604667	0.360021026326661	-0.657442233402591	0.00223166692664822	-0.0380203300451472	-0.136504968017958	0.00503364002682038	-0.000491767476920994	-0.00175025629991848	0.566162109375	0.44287109375	0.125244140625	0	0	0	-0.600299866560689	-0.414562722782799	-0.576247177429981	0.368397895746041	-0.00784612123421558	0.0731473991454992	0.997290276890248	0.922300389524702	-0.384841478577603	0.0354827824273768	0.386394137978518	0.920079613057725	-0.0644443618277382	151.163012703403	-85.7811099740445	96.1223955780449
20357	1649765289367	9.63493441268907	0.369579974941083	-0.68865608544775	0.00130975003529032	-0.0683380830122211	-0.146347524511857	0.00578614385132151	-0.00667388889241258	0.000694930577632416	0.56689453125	0.441162109375	0.125244140625	0	0	0	-0.600339427497501	-0.414749320090799	-0.576018251478297	0.368481406912313	-0.00762804910378984	0.0734767073327883	0.997267760607151	0.922484770180363	-0.384408908488284	0.0353785225826053	0.385958108675219	0.920234190059453	-0.0648488534476141	151.3851684313	-85.7636099713015	95.9269795392274
20358	1649765289367	9.64712528335517	0.359871140759602	-0.658348534990028	0.00447640281002713	-0.0351838848730489	-0.136495016686416	0.00819309171949835	-0.00402400349879924	0.00177663145741924	0.5634765625	0.43212890625	0.13525390625	0	0	0	-0.600344602706142	-0.414782974346128	-0.575973729293201	0.368504688380307	-0.00758130528667633	0.0735274006293284	0.997264380777156	0.922523479143064	-0.384318757668625	0.0353485916808797	0.38586649794965	0.920267794644982	-0.064917115611632	151.430875918346	-85.7609893401062	95.8868829362537
20359	1649765289368	9.64709954066718	0.35988471874138	-0.6587182258883	0.00671556110568346	-0.0346689205042647	-0.136494452873388	0.00924295771792505	-0.00298998121741323	-0.00324838577772008	0.571044921875	0.435546875	0.135986328125	0	0	0	-0.600402362734384	-0.414803162978083	-0.575866926529793	0.368554774403313	-0.00736876217498433	0.0736205878564385	0.997259098924488	0.922574608630508	-0.384211428495802	0.0351805304604766	0.385748354311815	0.920305159855625	-0.0650893223873052	151.608947333718	-85.7568971658264	95.7157584012882
20360	1649765289368	9.64707304078931	0.360011178107043	-0.659037139395381	0.00688838002513414	-0.0344661624380814	-0.136493850018676	0.00994849727310229	-0.00290547392197291	-0.000684070492542563	0.562255859375	0.439208984375	0.1357421875	0	0	0	-0.600396467323414	-0.414847020799247	-0.5758260398041	0.368578896904151	-0.00734735756496796	0.0736707184156609	0.997255554802746	0.922620024654383	-0.384103092181816	0.0351724989602935	0.385640125562106	0.920346369485145	-0.0651479372808935	151.635983992858	-85.7541535250499	95.6954121963797
20361	1649765289369	9.641651025657	0.401097992727283	-0.70237954950067	0.0297574881418679	-0.0913369655911669	-0.137646112304381	0.00415487557550231	-0.00105032905158116	-0.000519688092533275	0.559814453125	0.42724609375	0.128662109375	0	0	0	-0.600460451634896	-0.414742046643468	-0.575824306630975	0.368595508194772	-0.00716919472210986	0.0735798874119434	0.997263557348549	0.922564899146128	-0.384252772169252	0.0349830522359192	0.385775335539394	0.920291153520826	-0.0651274384631911	151.757634538612	-85.7603511201951	95.5650003770256
20362	1649765289369	9.64702980955906	0.360130030854649	-0.65960479964054	0.00864714004980022	-0.0352735275774264	-0.136498171380413	0.00344075033389876	-0.00595264233837658	-0.00222336727596163	0.562744140625	0.429931640625	0.13232421875	0	0	0	-0.600472445764842	-0.414776647235579	-0.575790626520451	0.368589648791698	-0.00714902536160367	0.0736629660099279	0.997257568973532	0.922584825236828	-0.38420400742325	0.0349931553685424	0.385728054047292	0.920304866942762	-0.0652136504295973	151.782327008426	-85.7557125548629	95.5432222533842
20363	1649765289369	9.6334848070182	0.378924586016622	-0.668509224072818	0.0259462999170989	-0.0514123318753008	-0.148775035088686	0.00261726272217952	-0.00795915609140039	-0.00197071821010688	0.556640625	0.440185546875	0.131103515625	0	0	0	-0.600628402332341	-0.41465279125972	-0.575720936143826	0.368583760762596	-0.0067830672276008	0.0737017114866347	0.997257262557123	0.922507262661251	-0.384418148005248	0.0346848356124247	0.385920121704261	0.920212337022361	-0.0653828299755553	152.054566258451	-85.7554753423236	95.2583496581347
20364	1649765289370	9.66042577865647	0.341880881272618	-0.652593236875972	-0.0020214525337646	-0.0197936472198797	-0.124230786648987	0.000108998042230857	-0.00289560548354697	-0.00195603353720345	0.558349609375	0.4287109375	0.129638671875	0	0	0	-0.600639014607384	-0.414670623009236	-0.575702268034327	0.368575565013111	-0.00676965401347246	0.0737551313416321	0.997253404298685	0.922514286221959	-0.384400654576796	0.0346919079515793	0.385903567618813	0.920215364662919	-0.0654379029107954	152.069698524979	-85.7524895995999	95.2442297607194
20365	1649765289371	9.65498168840519	0.38325597639954	-0.695946014308783	0.0199029404590259	-0.0753430851927847	-0.125385122514524	-0.00475196206012829	-0.00192994600014144	-0.00400011901475775	0.56201171875	0.4326171875	0.130859375	0	0	0	-0.600675362920168	-0.414662923891677	-0.575690849694315	0.368542824524595	-0.00673058974431534	0.0738221409977284	0.997248710533237	0.922489068194957	-0.384461692082076	0.0346861122379876	0.385964529746573	0.920184491729728	-0.0655124641393415	152.100650293644	-85.7488601155583	95.2094283210475
20366	1649765289372	9.64812913105597	0.352134207278301	-0.683989628660876	-0.00419605152072455	-0.0522313342115409	-0.134077426136859	-0.00142063411495744	-0.00498648820336667	-0.00426742932884385	0.563232421875	0.44384765625	0.123779296875	0	0	0	-0.600690140020962	-0.414687133118036	-0.575673165790824	0.368519122293962	-0.00673002437056941	0.0739038045442869	0.997242665776917	0.92249008368597	-0.384456476260065	0.0347169031272365	0.385962112483886	0.920180115811885	-0.0655881253841173	152.106974635669	-85.7441905207793	95.2032688189403
20367	1649765289373	9.66841668434074	0.365457791820605	-0.688109855491592	0.00733684002283165	-0.0579589866153349	-0.113103728658826	-0.00316023163593903	0.00353118610773304	-0.00352714486001265	0.559326171875	0.4423828125	0.1279296875	0	0	0	-0.600698212799444	-0.414769821384146	-0.575582778428151	0.368554090447316	-0.00665907910821156	0.0740362060957502	0.997233321170316	0.922569755618654	-0.384267755367031	0.0346891654976145	0.385772864109398	0.920248299304123	-0.0657446951829645	152.182327359083	-85.7369818274444	95.1395561085369
20368	1649765289374	9.61434083958895	0.358422672825716	-0.687657972055599	0.00118671201093466	-0.0590742945241668	-0.167305106673798	0.00329265341650094	0.00802682399789564	-0.00101027569672703	0.560546875	0.435791015625	0.13525390625	0	0	0	-0.600673869478651	-0.41477421382565	-0.575587771180431	0.368581024658626	-0.00667786157428391	0.0739866029919224	0.997236876946752	0.922589524922553	-0.384220759613823	0.0346839499618372	0.385725258011416	0.920271911154248	-0.0656934918582838	152.167455915753	-85.7397234187827	95.1574114418933
20369	1649765289375	9.64689666211958	0.362134792681519	-0.660453974856494	0.0142696630647155	-0.0328830497520367	-0.136496410535829	0.00356536020418769	0.000788268473242359	-0.00590039359165261	0.558837890625	0.438720703125	0.1259765625	0	0	0	-0.600643551777396	-0.414834870246834	-0.575578865940667	0.368576075211053	-0.00675800098050267	0.0740465809666677	0.997231885405744	0.922624978498026	-0.384127414418618	0.0347746825087539	0.385639052060686	0.920306054168511	-0.0657212917289451	152.115629342082	-85.7358753161912	95.2147604551941
20370	1649765289376	9.64686450657248	0.362559951367614	-0.660690359229359	0.0144879686199355	-0.0326823307745708	-0.13649605490698	0.00431854345923295	-0.00539284516196393	-0.00345380170699665	0.56591796875	0.438720703125	0.12451171875	0	0	0	-0.600650790872106	-0.414874423737911	-0.575545952890432	0.368571154682911	-0.00674786272083816	0.0741300286017641	0.997225754384735	0.922648574321377	-0.384069032927684	0.0347934799743375	0.385582772762778	0.920323702186082	-0.0658043200942994	152.132729959873	-85.7311534985026	95.2011510843581
20371	1649765289377	9.65905336914296	0.353361015628706	-0.630335662947766	0.0188719714622268	0.00231218121226062	-0.12665940827506	0.00267980788537502	-0.0045884141132558	-0.00380908754429426	0.5654296875	0.44677734375	0.128173828125	0	0	0	-0.600663509652918	-0.415034116230432	-0.575387549273073	0.368617957617084	-0.00664829898729741	0.074395331258658	0.997206666046457	0.922788064264015	-0.383734967374068	0.0347802137183516	0.385250552981364	0.920441638291824	-0.0660999389274736	152.247723403518	-85.7164858452955	95.1066416274199
