// Start Time : 12/04/2022 12:07:34																																
// Update Rate : 100Hz																																
// Filter Profile : 46.1 human																																
// Firmware Version : 4.4.0																																
PacketCounter	Time_Of_Arrival	Acc_X	Acc_Y	Acc_Z	FreeAcc_X	FreeAcc_Y	FreeAcc_Z	Gyr_X	Gyr_Y	Gyr_Z	Mag_X	Mag_Y	Mag_Z	VelInc_X	VelInc_Y	VelInc_Z	OriInc_q0	OriInc_q1	OriInc_q2	OriInc_q3	Mat[1][1]	Mat[2][1]	Mat[3][1]	Mat[1][2]	Mat[2][2]	Mat[3][2]	Mat[1][3]	Mat[2][3]	Mat[3][3]	Euler_X	Euler_Y	Euler_Z
20150	1649765289175	9.38993279819492	0.851426363785872	2.21249271341248	2.34187669256869E-15	-1.94072188874905E-15	-0.128117738710726	0.00445002830789101	0.00475232516921098	-0.00312705855333962	0.358642578125	-0.2783203125	0.1611328125	0	0	0	-0.504767612880396	0.361928823628053	-0.593082938770373	-0.512318076348804	0.0345203087334245	0.242314323941581	0.969583475879041	-0.973074117282949	-0.213075430546951	0.0878955241820658	0.227892761093804	-0.946510765554183	0.22843436722848	21.0454097599456	-75.8322976875983	81.8921497012089
20151	1649765289175	9.41737148134686	0.870416552485105	2.20295658336849	-4.81385764583564E-15	1.38777878078145E-15	-0.101995920658986	0.011848125484572	-0.000602247016423861	-0.00377394094442943	0.36181640625	-0.280029296875	0.16796875	0	0	0	-0.508814586705116	0.357315213617057	-0.596830573706201	-0.50717533532638	0.0322382088146476	0.241781107224931	0.969795129953492	-0.969009878184983	-0.230198034708742	0.0896031293881975	0.2449092768197	-0.942629705136285	0.226867108947799	21.5519709761617	-75.8819286955656	82.4051871625864
20152	1649765289175	9.39326335795418	0.874919889215567	2.20304341840054	-0.0150208480363518	-0.00167697339462116	-0.124960428691955	0.00910552112769318	-0.00325930645458238	-0.00567950782068976	0.359375	-0.270751953125	0.161865234375	0	0	0	-0.506867014830537	0.359570986782422	-0.594989615636891	-0.509688034022151	0.0333921254971648	0.242008829534972	0.969699279355154	-0.971027520295278	-0.221853626877905	0.0888060981596038	0.236623161977004	-0.944570111039007	0.227589069482197	21.3159135019228	-75.859431437279	82.1439923100904
20153	1649765289175	9.41902931786808	0.885100602518978	2.17029521453015	-0.0308657784527621	0.0329217746024985	-0.106521226963229	0.0115731603300259	-0.00574206684460928	-0.00723125944678145	0.359130859375	-0.278564453125	0.165283203125	0	0	0	-0.506926590054543	0.359532863125508	-0.59497744011657	-0.509669891577663	0.0334759321702209	0.241970638157215	0.969705920490916	-0.970997711424256	-0.221945443903982	0.0889025553014747	0.236733619019779	-0.944558325462258	0.227523105256903	21.342614484852	-75.8609890589525	82.1232951907014
20154	1649765289176	9.41393011893199	0.854541958689853	2.15628548886008	-0.00356083238426956	0.0511755182161923	-0.117365932689237	0.0139425208483786	-0.00784675337321166	-0.00592824020966476	0.356689453125	-0.278076171875	0.165771484375	0	0	0	-0.506998447695718	0.359494077246786	-0.594965767797929	-0.509639399582917	0.0335594871462074	0.241910115106002	0.969718132774614	-0.970961871585701	-0.222063381634492	0.0889994295703501	0.236868750047948	-0.944546108322117	0.22743316491723	21.3714619154682	-75.8638537846482	82.1019322539619
20155	1649765289176	9.42098842844335	0.896216112405172	2.19132084262553	-0.0342643093761045	0.0100136086760677	-0.0988395749131143	0.016878511677955	-0.00594940793489906	-0.00973502486111731	0.36279296875	-0.27392578125	0.156494140625	0	0	0	-0.507076651731645	0.35943434674493	-0.594956214868714	-0.509614876193545	0.0336681055382761	0.241875545432261	0.969722990957371	-0.97091860569134	-0.222199256684566	0.0891322133193745	0.237030630492871	-0.944523007052064	0.227360439297341	21.4066912496569	-75.8649935626369	82.075575528078
20156	1649765289177	9.44002861690094	0.862164272792695	2.17671408841647	-0.00258914350535575	0.0352720287945873	-0.0867272205469067	0.0163164389935273	-0.0120461351570021	-0.00863341766354256	0.359130859375	-0.27978515625	0.1669921875	0	0	0	-0.507170276741994	0.359394811311661	-0.594932453948861	-0.509577329980535	0.0337814896812829	0.241779450978913	0.969743011338184	-0.9708769146292	-0.22233262874433	0.0892536768750793	0.237185217909967	-0.944516224995617	0.227227359983409	21.4446312544833	-75.8696914933958	82.0461095740373
20157	1649765289178	9.44534355994376	0.894806979314565	2.18891699481179	-0.0298183569151914	0.0170223637205578	-0.0758822884635517	0.0245456154528342	-0.00616972936361904	-0.00693091687983974	0.360107421875	-0.2744140625	0.17724609375	0	0	0	-0.50726361936682	0.359319937297377	-0.594943251948904	-0.509524611856921	0.0338634192421439	0.241736595244067	0.969750837770732	-0.970816322860571	-0.222547705145327	0.0893766535624764	0.237421431435136	-0.944476541505587	0.227145606254966	21.4785144704909	-75.871528439859	82.0256716497247
20158	1649765289178	9.45046406699553	0.93148759795314	2.14661185810441	-0.0738310479970579	0.0492237849460852	-0.0772362477530617	0.0188713655871004	-0.0128215360226508	-0.00903553152432567	0.362548828125	-0.272216796875	0.1591796875	0	0	0	-0.507367713166906	0.359274044939507	-0.594920348524728	-0.509480071425571	0.0339838790880417	0.241632022155445	0.969772685649168	-0.970768224480173	-0.222704434906	0.089508597424007	0.237600821340632	-0.944466357549209	0.227000328537179	21.5198349421727	-75.8766576065861	81.9942536364011
20159	1649765289179	9.4730042267612	0.919404134325574	2.12230463271218	-0.0659208324226548	0.0791598370956862	-0.0619603134020554	0.0211373649018516	-0.0124526276329119	-0.000871571952150331	0.35693359375	-0.275146484375	0.173828125	0	0	0	-0.507460161957292	0.359240677772876	-0.594924504026599	-0.509406668554967	0.0340219398839806	0.241516354227269	0.969800164078817	-0.970717684324353	-0.22290196293003	0.0895650169536407	0.237801776583981	-0.94444934515447	0.226860638919128	21.5442021145115	-75.8831112345291	81.9816154379888
20160	1649765289180	9.47860359072835	0.947655710480108	2.18873463714469	-0.0762392685282143	0.0103125156384703	-0.0389154322561751	0.0202811062872821	-0.00959382265040711	-0.00550830618795476	0.35205078125	-0.2802734375	0.169921875	0	0	0	-0.507556297599206	0.359191449645301	-0.594917822015924	-0.509353406111045	0.0341085750990737	0.241427073377428	0.969819350881967	-0.970666602622471	-0.223081220369568	0.0896722681310837	0.237997797590776	-0.944429847769983	0.226736214538186	21.5783808461155	-75.8876191920466	81.9585297574135
20161	1649765289181	9.47677743796437	0.943088280262716	2.11062193926685	-0.0895717627137436	0.0837122414180538	-0.0587947991367823	0.0186676418827671	-0.0099718169139231	0.000677769893098783	0.3623046875	-0.275634765625	0.170654296875	0	0	0	-0.507632281739727	0.35916303499138	-0.594927764770095	-0.509286103813128	0.0341257380028774	0.241331384801551	0.969842562850035	-0.97062238867851	-0.223259157517248	0.0897080106830576	0.238175591952202	-0.944412257064919	0.226622761662997	21.5960027935706	-75.8930747523127	81.9513881262278
20162	1649765289182	9.45468242319556	0.956554466247874	2.13237603302466	-0.0972578542030596	0.0535991635646006	-0.0740677679452482	0.0161126001432232	-0.0112989766333965	-0.00292890642293473	0.359130859375	-0.27099609375	0.166748046875	0	0	0	-0.507723663537788	0.359135989047922	-0.594911447679967	-0.509233141374031	0.0342034215797936	0.241213570547527	0.96986913515997	-0.97058093081824	-0.223405898193815	0.0897912099496065	0.238333343626599	-0.944407654583511	0.226476045708675	21.6268956656564	-75.8993226398091	81.9294191534096
20163	1649765289184	9.47898600241797	0.953352826550805	2.13087243032213	-0.0928210897144366	0.0606222353693741	-0.0511104591427003	0.0149725908202064	-0.00939108147276254	-0.00300585744287349	0.355224609375	-0.279296875	0.167724609375	0	0	0	-0.507795116162787	0.359107731296018	-0.594906837413563	-0.509187207344453	0.0342549842440406	0.241131598088632	0.969887698889755	-0.970544206602297	-0.22354005040037	0.0898542647720157	0.23847544755207	-0.944396843636309	0.226371514649299	21.6497483505919	-75.9036890976265	81.9147018255826
20164	1649765289185	9.50481765693346	0.96339129261878	2.0976047898861	-0.1082762301322	0.0949449540073513	-0.0326623668696477	0.0112791931855459	-0.00880844282161625	-0.00668753415522287	0.348388671875	-0.27001953125	0.168701171875	0	0	0	-0.507881039744761	0.359077873705424	-0.594872543918915	-0.509162632735761	0.0343794742132615	0.241036053514252	0.969907043308324	-0.970511428901646	-0.22363298808156	0.0899769582337559	0.238590901176273	-0.944399231018316	0.226239860165945	21.6880144283979	-75.9082405951005	81.8825351655479
20165	1649765289185	9.49999841457539	0.928493032984886	2.13805217657455	-0.0642404284755479	0.0627073782748011	-0.0313133679214914	0.00597287603512939	-0.00650106553219658	-0.000173973535456571	0.354248046875	-0.2724609375	0.16357421875	0	0	0	-0.507915894199857	0.359076216549882	-0.59486631503547	-0.509136310199443	0.0343966758886869	0.240975046168528	0.969921592610395	-0.970497116627866	-0.223688976689437	0.0899921570173181	0.238646632712062	-0.944401540040945	0.226171430254765	21.6972910848557	-75.9116648114552	81.8764991240232
20166	1649765289186	9.49648416418971	0.910662453457567	2.09226287511689	-0.0567386821677636	0.108104049093353	-0.0466658770659443	0.00890838682336051	-0.0067057905218616	-0.007991321260763	0.360107421875	-0.267822265625	0.164794921875	0	0	0	-0.508000928846358	0.359045099088766	-0.594822635977313	-0.509124449266166	0.0345452970986783	0.240887006236346	0.969938179821196	-0.970467981575649	-0.223757823959522	0.0901350817017744	0.238743626480059	-0.944407690800637	0.226043346223152	21.7397067845634	-75.9155696499879	81.8389290891343
20167	1649765289187	9.46566886453478	0.870537336311249	2.11087425195081	-0.0136685526284455	0.0917580745545092	-0.0759576221837861	0.00644025818907129	-0.00212093092102689	-0.002432466102574	0.356689453125	-0.27685546875	0.164794921875	0	0	0	-0.508027998170372	0.359025165372037	-0.594822617625491	-0.509111517514331	0.0345739683814799	0.240872418908836	0.96994078093426	-0.970451763135806	-0.223812786727673	0.0901732328565314	0.238805393860695	-0.944398387496611	0.226016967409173	21.750351254392	-75.9161820810068	81.8317590981105
20168	1649765289187	9.54130632274639	0.882333430410973	2.10030858072289	-0.0234846762580011	0.11683725724264	-0.00390904361667488	0.0086116475779137	0.0022482233116852	-0.0137354073056192	0.357177734375	-0.28076171875	0.16357421875	0	0	0	-0.508103533096309	0.358962436536462	-0.59478087991176	-0.509129132639498	0.0347633480943982	0.240860382493991	0.969937000930532	-0.970420711506135	-0.223866990907118	0.0903726344759235	0.238904065074653	-0.944388609909629	0.225953537621709	21.7994900480206	-75.9152920892503	81.7872212275071
20169	1649765289188	9.52388671386953	0.928530299337178	2.13699908337724	-0.058624915568253	0.0686522244355473	-0.008341319586469	0.0121937486148227	0.0119506739334113	-0.0175048554498971	0.356201171875	-0.27392578125	0.168701171875	0	0	0	-0.508130449028581	0.35885127728575	-0.594788559796255	-0.509171657396496	0.0349046598517646	0.241012432260493	0.969894155161538	-0.970385474907244	-0.223939968188982	0.0905699770153415	0.239026556703799	-0.944332514606692	0.226058415120797	21.8334362653843	-75.9052080167679	81.7594253067157
20170	1649765289189	9.47703083900067	0.947110397129682	2.16143415089707	-0.070278180470512	0.0308444913423733	-0.0465705060019825	0.0109576574566867	0.0142414026941925	-0.0147269605486536	0.3564453125	-0.269775390625	0.167724609375	0	0	0	-0.508186012436625	0.358752772770856	-0.594772995350523	-0.509203798880911	0.0350830640619783	0.241095055318522	0.969867183132299	-0.970347619498537	-0.224015878468942	0.0907875736392878	0.239154084116379	-0.944293418644198	0.22608684958597	21.8784511439058	-75.8988635716307	81.7206879283976
20171	1649765289190	9.47296332652152	0.930325784351903	2.11772282893509	-0.0633338059592942	0.0766729878996269	-0.0619232948017245	0.0124652940369222	0.0170922842865591	-0.0140560443981426	0.352294921875	-0.27880859375	0.166259765625	0	0	0	-0.508192128846865	0.358636467883573	-0.59480299325288	-0.509244581021243	0.0351785662428191	0.241287941986741	0.969815754423954	-0.970312862370234	-0.224099681208987	0.0909520862922508	0.239281043118719	-0.944224264639409	0.226241288164173	21.9008004692701	-75.8867740934124	81.7050077954442
20172	1649765289191	9.42948552586645	0.970674359417937	2.13288512018412	-0.0985965250991578	0.0434240848983023	-0.0969785436500654	0.0117155045697672	0.0117642725844383	-0.00723615784500636	0.35498046875	-0.276123046875	0.173583984375	0	0	0	-0.508251122365299	0.358560398374379	-0.594795638690118	-0.509247862565209	0.0353051778256411	0.241319365513049	0.969803334829839	-0.970274265151156	-0.224202110380744	0.0911112731016501	0.239418868939109	-0.944191917741938	0.226230474664041	21.9364462926297	-75.883856108198	81.6766396027373
20173	1649765289192	9.4499486461714	0.945213278048145	2.14287772356423	-0.0703985771135646	0.0457782368026443	-0.0771940105606248	0.0101056937662368	0.0113943592568511	-0.00104707262679839	0.357666015625	-0.271484375	0.164794921875	0	0	0	-0.508244844305575	0.358498668591308	-0.59484004431377	-0.509245721175792	0.0352880525981021	0.241429294697722	0.969776597472631	-0.970249694705503	-0.224295000164813	0.091144296721979	0.239520945363263	-0.944141752367104	0.226331765710123	21.9347538159346	-75.8775761673251	81.6843554855662
20174	1649765289193	9.4222654322579	0.926873291905273	2.15343785893909	-0.0500303899882354	0.0330503098990614	-0.103316672431101	0.00708300033748779	0.00778753775234056	0.00161454689368264	0.3623046875	-0.27734375	0.168212890625	0	0	0	-0.5082968340911	0.358466262530491	-0.594829581012671	-0.509228864689224	0.0353594163594223	0.241394251699864	0.969782721500535	-0.970223317190734	-0.22437580398949	0.0912261660022949	0.239617249909369	-0.944131512995056	0.226272534160772	21.9577850039171	-75.8790143077458	81.6665818545756
20175	1649765289194	9.40138969780399	0.952732821800128	2.14508015861726	-0.0782303574110807	0.0306983316476017	-0.123098385149191	0.00944753197390891	0.00778442145252665	0.00692455094575324	0.36083984375	-0.276123046875	0.16455078125	0	0	0	-0.508285328485646	0.358435934943326	-0.594883927615175	-0.50919821096768	0.0352735864128946	0.241452209482691	0.96977141875676	-0.970203117217604	-0.224481724977235	0.091180406297015	0.239711671478082	-0.944091513407028	0.226339410775085	21.9419481643631	-75.8763601318769	81.6884946548651
20176	1649765289195	9.40311414721392	0.961935091369804	2.16788784558614	-0.0804877204496969	0.00667324591393367	-0.115415081774314	0.0105051906636511	-4.18545465375656E-05	-0.00215987052288025	0.35791015625	-0.28466796875	0.165771484375	0	0	0	-0.508381920077252	0.358402203222213	-0.594844116922226	-0.509172034411796	0.035416674576962	0.241345577874304	0.969792746519806	-0.970166378810409	-0.224583400196831	0.0913208288504244	0.239839230710508	-0.944094597165214	0.22619136812806	21.9855357848075	-75.8813688499849	81.6516177242193
20177	1649765289196	9.42207265121943	0.926940502924981	2.15425226270776	-0.0488150894695365	0.0319393513880814	-0.103306768201056	0.00776107005771582	-0.000600862657214764	-5.32974650825592E-05	0.35498046875	-0.2724609375	0.170654296875	0	0	0	-0.50840357389994	0.358380520699848	-0.594856343119371	-0.509151391512705	0.0354186668671104	0.241339994618925	0.969794063208625	-0.970147744778622	-0.224656525807164	0.0913389222249179	0.239914299987123	-0.944078626179829	0.226178416857348	21.9906155797528	-75.8816781247982	81.6509642998641
20178	1649765289196	9.42547714212226	0.94959714510525	2.1445488024243	-0.0712474155422072	0.0355170706449467	-0.100112731314084	0.0089049624441458	-0.00461135574765764	-0.00398159380089424	0.354736328125	-0.2822265625	0.170654296875	0	0	0	-0.508515868981269	0.358354268423906	-0.594795851449851	-0.509128396767102	0.0356002268008287	0.241197252083313	0.969822926847571	-0.97011258092623	-0.224740987815457	0.0915044737943553	0.240029590218328	-0.944095002625897	0.225987658593184	22.0434761553231	-75.8884595245173	81.6038788497271
20179	1649765289197	9.42397293389925	0.937057349265308	2.1759016134298	-0.050963811134254	0.007938764572686	-0.0956286618669928	0.00748724656535058	-0.00574889335906699	-0.00350325434177227	0.350341796875	-0.273193359375	0.1669921875	0	0	0	-0.508558296406594	0.358337748980167	-0.594785730091178	-0.509109469654371	0.035647985871463	0.241150824890361	0.969832717925111	-0.970093365528469	-0.224803211128145	0.0915553298509873	0.240100152563376	-0.944092048436578	0.225925033623701	22.060079830939	-75.8907606254176	81.5911805604247
20180	1649765289198	9.44799346084101	0.937853955028397	2.12026145173034	-0.0619294083854764	0.0643784675817863	-0.0848058304826225	0.00475257782036804	-0.0105104144704986	-0.00940742317043469	0.35791015625	-0.272705078125	0.16455078125	0	0	0	-0.508689621289455	0.358321546347066	-0.594688352405279	-0.509103429697083	0.0359028658738845	0.240966856198589	0.96986904189989	-0.970064663043152	-0.22483873458823	0.0917719616426475	0.240178129181277	-0.94413056175644	0.225681077231676	22.1288453380089	-75.8993007070333	81.5255557181841
20181	1649765289199	9.47575115917257	0.953462994029259	2.16424980583386	-0.064409924035875	0.0255471348604347	-0.0465147464923667	0.00398203133126081	-0.00383900231296631	-0.00889167178116854	0.36328125	-0.27783203125	0.1611328125	0	0	0	-0.508727064023607	0.358296890163181	-0.594663124997197	-0.50911283680328	0.0359982125359234	0.240950611056245	0.969869543663394	-0.97005191098226	-0.224854915803021	0.0918670606848951	0.240215358988313	-0.944130854209753	0.225640225658629	22.1531823590194	-75.8994187114696	81.5028138579109
20182	1649765289200	9.49634306303596	0.932231120875411	2.11814223386335	-0.0514292213503239	0.0771680444495736	-0.038869637308867	0.00616866561084936	-0.00937495490647222	-0.00988723620599738	0.36083984375	-0.27880859375	0.161376953125	0	0	0	-0.508867231958797	0.35827496012665	-0.594559432512782	-0.509109295137025	0.0362762683126525	0.24076269272771	0.969905850146194	-0.970020241686897	-0.224893557102658	0.0921065616088628	0.240301400484895	-0.944169589514625	0.225386386369679	22.2279057768696	-75.9079598174357	81.4315658678972
20183	1649765289201	9.47405563809034	0.946185211420034	2.1404477699346	-0.059355467757741	0.0472449514343746	-0.0541650287866364	0.00407222584700558	-0.00212383538421119	-0.00774259786066034	0.359375	-0.267578125	0.16748046875	0	0	0	-0.508897791191547	0.35824862511716	-0.594541569597477	-0.509118142224963	0.0363564892444662	0.240759930738899	0.969903532028014	-0.970007666817024	-0.224913279718135	0.0921907963010664	0.240340034130832	-0.944165595834244	0.225361921444057	22.2484319141251	-75.907414328187	81.4128028521462
20184	1649765289202	9.46886199477143	0.915669975029726	2.12709235459622	-0.0304675296959401	0.0641594490434664	-0.065006815113847	0.0055838394045379	-0.00137339626033238	-0.0110780216333562	0.3515625	-0.27490234375	0.173828125	0	0	0	-0.509021547906425	0.358205422382496	-0.594450823441713	-0.509130786392058	0.0366341877704954	0.240637873281346	0.969923373380097	-0.969974987559796	-0.224949435447165	0.0924460653590789	0.2404297398301	-0.944188098545323	0.225171878285451	22.3209828965414	-75.9120839762809	81.3438789268529
20185	1649765289203	9.501378508311	0.966701681503367	2.13044403330842	-0.0769699108453437	0.0575554355639289	-0.0279921485383578	0.00699648626524739	0.00186612271400778	-0.00755162972622375	0.368408203125	-0.27734375	0.169921875	0	0	0	-0.509047401419169	0.358160714743474	-0.594448768344837	-0.509138789856108	0.0367031284555008	0.240672290831892	0.969912227362512	-0.969955415354284	-0.224997190156604	0.0925351643783748	0.240498175848548	-0.944167947373434	0.22518329104567	22.3393605733574	-75.9094605823383	81.3290579988126
20186	1649765289203	9.47045683304311	0.926732705651883	2.14968791622902	-0.0320797942271197	0.0397636705593414	-0.0573332444236971	0.0082267094859601	0.0016727475532203	-0.00632478279612708	0.36083984375	-0.276611328125	0.164794921875	0	0	0	-0.50917053084471	0.358111003789884	-0.594377725053055	-0.509133577211985	0.0369432578507136	0.240556174940713	0.969931916372108	-0.969914454544822	-0.225079019039858	0.0927652200615914	0.240626570778033	-0.94417803505798	0.225003758967835	22.4055204101758	-75.9140950304816	81.2690515799428
20187	1649765289204	9.49444656197552	0.923616752328149	2.14960085075665	-0.0276100609563965	0.0467591059303851	-0.0343736797888869	0.0110557568325409	0.00604976055152988	-0.00327789009436761	0.3603515625	-0.27099609375	0.1708984375	0	0	0	-0.509186627325019	0.358054373986543	-0.594404515915215	-0.509126030843126	0.0369606734574074	0.240620625627929	0.969915265958836	-0.969886621984644	-0.225175499974058	0.0928220593751774	0.24073605694368	-0.944138606738363	0.225052087644954	22.4135525413071	-75.9101757172518	81.2673027603974
20188	1649765289205	9.47012277061631	0.92777553554625	2.1507095529009	-0.0303152009507699	0.0382533807394899	-0.0573215621204177	0.0139751032779092	0.0121429454418715	0.000917982389746227	0.35986328125	-0.27392578125	0.172607421875	0	0	0	-0.509277671617654	0.357984143787121	-0.594389115188406	-0.509102333263408	0.0370978650850915	0.240583108369691	0.969919334982712	-0.969836433265469	-0.225324334125511	0.0929851448447952	0.240917083489404	-0.944112658753219	0.224967211977405	22.4566556170112	-75.9111334194201	81.2340453442655
20189	1649765289206	9.44733763274912	0.944774741696731	2.12011116322733	-0.0550716721407513	0.0588417034988935	-0.0847295241593731	0.012557501195899	0.0110047345112274	0.00139658428108979	0.366943359375	-0.275146484375	0.16552734375	0	0	0	-0.509274539425532	0.357922295349974	-0.594443071246785	-0.509085954462514	0.0370581310761917	0.240683812369621	0.96989586935112	-0.969806660827569	-0.225446242920795	0.0930001729427326	0.241043015944499	-0.944057887004882	0.225062147968637	22.4513910573712	-75.9056113283705	81.2468957259926
20190	1649765289207	9.46989413837919	0.924251260071046	2.20695607894803	-0.0115816336042352	-0.0138742576659274	-0.0452176872728742	0.014926237064536	0.00890125831866461	0.00270105101831741	0.356201171875	-0.2734375	0.159912109375	0	0	0	-0.509380745307112	0.357863034978063	-0.594418681175572	-0.509049836436624	0.0372009593315663	0.240600385904616	0.969911100527962	-0.96975454380458	-0.225604624440271	0.0931594235788066	0.241230622838773	-0.944041316751399	0.224930609013321	22.4978506856786	-75.9091953903953	81.210686192423
20191	1649765289208	9.47126395518867	0.937390585888939	2.17587174570105	-0.0318646152146664	0.0137073343736953	-0.049657271767721	0.0152018639011016	0.0119455035373843	0.00214222045468403	0.350830078125	-0.27392578125	0.162353515625	0	0	0	-0.509380274698306	0.357792770724497	-0.594481609695742	-0.509026212192579	0.0371518979016928	0.240708284329718	0.969886208963374	-0.969718603676567	-0.225753297036325	0.0931733790349911	0.241382613636259	-0.943978268146186	0.225032137931132	22.4917445506374	-75.9033385964776	81.2259705735503
20192	1649765289209	9.42460693087909	0.954259888959625	2.19992501553514	-0.0430378874509018	-0.0244158580472512	-0.0879226152122303	0.00707592485501295	0.00778506450199613	0.00160590790361524	0.352783203125	-0.2744140625	0.168701171875	0	0	0	-0.509441816026986	0.357761550378613	-0.594462641288152	-0.509008720226415	0.037241682366811	0.240655948669972	0.969895752884941	-0.969690724388014	-0.225833591608318	0.0932689012326044	0.241480757267198	-0.943972405990262	0.224951418307637	22.5197749089669	-75.9055839260483	81.2032148995223
20193	1649765289210	9.44165139052129	0.909752105130599	2.16464928959194	-0.007885430968209	0.0237596109893016	-0.0834782640983249	0.00849166738829339	0.00892055328736225	0.00112574596322214	0.363525390625	-0.270751953125	0.171142578125	0	0	0	-0.50943505641146	0.35771649452654	-0.594503211875465	-0.508999768086836	0.0372096812268004	0.240737348806107	0.969876780066833	-0.969670639079857	-0.225916291262382	0.0932774412637545	0.241566329047453	-0.943931861011195	0.225029665685394	22.5145814908682	-75.9011206720451	81.2135812913392
20194	1649765289213	9.47405928577445	0.960129258922634	2.16870499926912	-0.0527234799731749	0.0158574365954464	-0.0464241243707146	0.00603713178676838	0.00720109058120516	-0.00533394458487569	0.354736328125	-0.272216796875	0.16455078125	0	0	0	-0.509524650306886	0.357658551908039	-0.594456722370874	-0.509005104301291	0.0374031309502458	0.240691314765559	0.969880764213594	-0.969634709126402	-0.225988328084553	0.0934762345567398	0.241680650140794	-0.943926356537403	0.224929981953381	22.5667569936313	-75.9020578064336	81.1669573349987
20195	1649765289215	9.41888306700461	0.923761800232429	2.18893105017339	-0.0141879128332609	-0.00742239247724995	-0.098787179417938	0.00489711474525536	0.00910977557422199	-0.00541314002934049	0.35791015625	-0.276123046875	0.1689453125	0	0	0	-0.509519898207274	0.357606918860335	-0.594474741156342	-0.509025094706702	0.0374341474206354	0.240789441043829	0.969855210682858	-0.969620804627568	-0.226021489084101	0.0935402678293839	0.241731627720242	-0.943893389930243	0.225013529828134	22.5731213978096	-75.8960482706409	81.1632939035274
20196	1649765289216	9.41868754268778	0.924591283470403	2.18942210872959	-0.0127515976274949	-0.00854024302917295	-0.0987861062245745	0.00453622356676565	0.00224296691199015	-0.010007622304679	0.359619140625	-0.268310546875	0.173095703125	0	0	0	-0.509616736153843	0.357557611014296	-0.594406068417852	-0.509042987247331	0.0376679612675628	0.240721795986587	0.96986294992176	-0.969591166834871	-0.226055583880126	0.0937648238541989	0.241814172226813	-0.943902479037749	0.224886674075308	22.6333323824809	-75.8978680764919	81.106520399625
20197	1649765289217	9.44433357024593	0.931294055448771	2.21210637642315	-0.0117171461128331	-0.0244881871701275	-0.0681800562977308	0.0104751342803995	0.00983015735473512	-0.0124870341130935	0.357666015625	-0.26416015625	0.16796875	0	0	0	-0.509636669560431	0.357469559463151	-0.594417899905895	-0.509071055323359	0.0377657486573724	0.240842703708309	0.969829129434057	-0.969561086724447	-0.226124349378364	0.0939099447764779	0.241919505906527	-0.943855164041965	0.224971958193147	22.6570992042409	-75.8899172148891	81.0882073175632
20198	1649765289219	9.44072139603651	0.910330037210469	2.22208316512355	0.013618899515088	-0.0301785727586396	-0.0714103155334467	0.00472133965078501	0.00356924980705387	-0.0117161208983874	0.36376953125	-0.267333984375	0.16796875	0	0	0	-0.509741418709506	0.357396679578151	-0.594354759872484	-0.509091071317749	0.038020065686867	0.240801621912106	0.969829394011991	-0.96952118387304	-0.226187789062117	0.0941687745519127	0.242039560044601	-0.943850445231494	0.224862598957064	22.7231373283622	-75.8899793975056	81.0276619561728
20199	1649765289219	9.44207508038623	0.924576771223196	2.19064558545787	-0.00666305562301759	-0.00259387994878759	-0.0758243758633696	0.0102869209576494	0.0084999729006088	-0.0107808993325104	0.35595703125	-0.27197265625	0.16845703125	0	0	0	-0.50976192833656	0.357316600793655	-0.594367173164867	-0.50911225351573	0.0381050205225444	0.240906422997002	0.969800032362221	-0.969492020785956	-0.226259120234806	0.0942975723066908	0.242142992967669	-0.943806604061108	0.22493524643172	22.7444530661764	-75.8830802924647	81.0117886544452
20200	1649765289220	9.4710231436857	0.95382459322845	2.20397526482181	-0.0279266728827616	-0.0148187234964007	-0.0419879012519253	0.0128477702552676	0.00561932353966428	-0.0151871116550621	0.36328125	-0.263916015625	0.16455078125	0	0	0	-0.509875253169719	0.357213235979042	-0.594313479282602	-0.509133988837422	0.0383803847687774	0.240902006393218	0.969790270821853	-0.969438762914773	-0.226362570903754	0.0945963606705744	0.242312672023721	-0.943782925152582	0.224851860492992	22.816746350893	-75.8807873554447	80.9477442297992
20201	1649765289223	9.44840531439572	0.968348420320607	2.22725724199859	-0.035858983157814	-0.0447207380666219	-0.057306769536364	0.00877962610871271	0.00564477889544809	-0.0114508091930608	0.36328125	-0.27490234375	0.1708984375	0	0	0	-0.509901721457268	0.357143054181429	-0.594314129515672	-0.509155957210464	0.0384791086159795	0.240981442727278	0.969766622678467	-0.969412875261746	-0.226418100174113	0.0947286714268687	0.242400568227209	-0.943749324860487	0.22489814660975	22.8411660418844	-75.8752340365983	80.9277883398902
20202	1649765289221	9.49795831238855	0.975139419172105	2.19527918493776	-0.0455511615915015	-0.00404702661812346	-0.0157864133780556	0.0116982190121921	0.00963147113458153	-0.0112641889224226	0.359619140625	-0.276611328125	0.166259765625	0	0	0	-0.509993572217034	0.357040450446447	-0.594271639584938	-0.509185517692065	0.0387266702600546	0.241012355405213	0.969749085873557	-0.969365694401863	-0.226504450635323	0.0950046544080016	0.242549779483228	-0.943720709947822	0.224857346084614	22.9045822689715	-75.871117230746	80.8715519386943
20203	1649765289222	9.42524065200384	0.987582507128234	2.19726796246784	-0.0590223647539675	-0.0249662078190513	-0.084668042221768	0.00931980927348137	0.0138370045442216	-0.00856855559958762	0.356201171875	-0.270751953125	0.1650390625	0	0	0	-0.509992120422256	0.356955012883267	-0.594301291539853	-0.509212264933573	0.0387781873031369	0.24116252560453	0.969709692863553	-0.969339501267295	-0.226571976037454	0.0951108351206834	0.242646210504828	-0.943666135833287	0.224982311769434	22.9161165815808	-75.8618739116021	80.8652091269458
20204	1649765289224	9.4523736206634	1.00699951611796	2.18852731354036	-0.0770618476918102	-0.0139307656359055	-0.0584608838252514	0.00885932512743951	0.00946513806273699	-0.00630023064989455	0.346923828125	-0.26708984375	0.17138671875	0	0	0	-0.510047755391789	0.356878544160029	-0.594279271282709	-0.509235838940768	0.0389397048838201	0.241206405760893	0.969692306457813	-0.969306807346142	-0.226633130113021	0.0952981509138739	0.242750927116643	-0.943640235553299	0.224977983876032	22.9569709258692	-75.857796184623	80.8294468672344
20205	1649765289225	9.45221325008996	1.00418802593949	2.24387354393341	-0.060199231531025	-0.0644447747407482	-0.0464229714861552	0.00781412717971734	0.0109820338749783	-0.00923762418118151	0.35986328125	-0.26806640625	0.17138671875	0	0	0	-0.510052127501312	0.356803266931836	-0.594297196462281	-0.509263289679541	0.0390045419676857	0.241330959839416	0.969658709819531	-0.969284021431421	-0.226684660983083	0.0954072862663884	0.242831487875075	-0.943596011171079	0.225076511876309	22.9715166176803	-75.849919846277	80.8190974351528
20206	1649765289226	9.45012949430369	0.995543330157992	2.22253269268194	-0.0555121506430389	-0.041732847694736	-0.0540562003942604	0.00259798023472122	0.015025329249398	-0.00157729059109389	0.36572265625	-0.277587890625	0.171875	0	0	0	-0.510071535647403	0.356710857785851	-0.59431663034774	-0.509285907278113	0.0390902136595807	0.241458058568376	0.969623618291366	-0.969250278620102	-0.226770457171183	0.0955460996023778	0.24295236691768	-0.943542879633334	0.225168784919965	22.9930184410863	-75.8416976314832	80.8040368325406
20207	1649765289227	9.40152222357077	1.00357121852389	2.22446505307551	-0.0644970380429549	-0.0556720710903551	-0.0999760698610679	0.00534599345215538	0.0134698276036815	-0.00769090347540379	0.361572265625	-0.2646484375	0.168701171875	0	0	0	-0.510059446594407	0.35664022802234	-0.594340608996379	-0.509319496184657	0.0391339765079717	0.241603084395481	0.969585726737591	-0.969233953748993	-0.226802797124759	0.0956349000965661	0.243010441715512	-0.943497981358188	0.225294217391961	23.0006849441373	-75.8328245979844	80.799349367576
20208	1649765289228	9.40118213455214	1.00434231913423	2.22555408718628	-0.0626339421805165	-0.0560489009459988	-0.0999660439630982	-0.000127569120352979	0.0102549960792957	-0.00747819426578812	0.365966796875	-0.27392578125	0.17724609375	0	0	0	-0.510108524674399	0.356558649692457	-0.594290803518715	-0.50938557423339	0.0393687403651445	0.241679110914977	0.969557275063938	-0.969213537933037	-0.226784532184823	0.0958847946706761	0.243053944978041	-0.943482900379789	0.225310444768	23.0530254499383	-75.8261656699482	80.7479681851684
20209	1649765289229	9.35103647867887	0.999502112367018	2.25903474074198	-0.0513249794008004	-0.0975689367491992	-0.14149448790036	-0.00154250142971736	0.00911935023431428	-0.00699807446498987	0.3642578125	-0.27294921875	0.17236328125	0	0	0	-0.510090743227612	0.356521154851339	-0.59429305262654	-0.509426999104679	0.0394168674865912	0.241781571067623	0.96952977388506	-0.969214134485567	-0.226753597453338	0.0959519023019514	0.243043765752052	-0.943464084072118	0.225400199633941	23.0592473079334	-75.8197321101697	80.7407112463346
20210	1649765289230	9.4007540534669	1.00187086188086	2.28173282480622	-0.0437224255356423	-0.106652753448924	-0.0879282313071847	-0.00560101646330909	0.00703971892311084	-0.00726603075226937	0.358642578125	-0.275146484375	0.164306640625	0	0	0	-0.510136064179449	0.356446585641804	-0.594231548444607	-0.509505539166089	0.0396693968348502	0.241856014380512	0.96950090627226	-0.969201047538564	-0.226699874286747	0.0962106878081878	0.243054867066904	-0.943457913903078	0.225414055215602	23.1136428419094	-75.8129819643492	80.6852451997369
20211	1649765289231	9.40220100979122	1.01541086887383	2.25023747627668	-0.0639911898986519	-0.0790609896457801	-0.0923135922538325	-0.00737642397397834	0.00114475803702262	-0.00737206309958142	0.357666015625	-0.2734375	0.164794921875	0	0	0	-0.510127863685226	0.356445474768608	-0.594202159599843	-0.50954880015148	0.0397408340877297	0.241884457815083	0.969490884523168	-0.969215532070988	-0.226613287562338	0.0962687399550925	0.242985428572093	-0.943471423503485	0.225432372417858	23.1244419627193	-75.8106393031826	80.6698438007983
20212	1649765289232	9.37621903046943	1.01034747995975	2.22838057526844	-0.0638398546437703	-0.0629506856135264	-0.122902690893154	-0.00843065740480809	0.00476846948885889	-0.00630575514845151	0.35400390625	-0.276611328125	0.16357421875	0	0	0	-0.510129786442386	0.356416195278175	-0.594143497893558	-0.509635752904448	0.0399219993084765	0.241956502600805	0.969465463449009	-0.969230572928258	-0.226477790209893	0.0964360256481257	0.242895719337283	-0.943485485522078	0.225470193455351	23.1569163626626	-75.8046986295072	80.6308047695213
20213	1649765289234	9.3453586645917	0.969849651271541	2.24766986817015	-0.0208394538793527	-0.0792239130278847	-0.152374425368915	-0.00660486079873394	-0.00341523233690186	-0.00387365274695174	0.35888671875	-0.280517578125	0.174072265625	0	0	0	-0.510130822785071	0.356433639356289	-0.594112644080916	-0.509658484205885	0.0399704537568272	0.241933527833458	0.96946920061265	-0.969244670685862	-0.226406580424382	0.0964615399399833	0.242831487195397	-0.943508467609377	0.225443208759715	23.1648771500756	-75.8055718179509	80.6187601565197
20214	1649765289235	9.37294590352483	0.988410115059262	2.23739286293129	-0.039006902359817	-0.067185143419502	-0.126152334264672	-0.00989115376625077	-0.0100550136939246	-0.000643422590109065	0.362060546875	-0.265380859375	0.169189453125	0	0	0	-0.510155752828508	0.356449915921302	-0.594044314453354	-0.5097017929744	0.0401096198106809	0.241880953961266	0.969476571408216	-0.969260854771227	-0.226295079356756	0.0965605119449394	0.242743926405568	-0.943548695706643	0.225369130591349	23.1929504844044	-75.8072941588789	80.5846714969007
20215	1649765289236	9.39732516841746	0.984479717289371	2.23609711551128	-0.0344705063102944	-0.0602091357557565	-0.103195229389804	-0.0101645814939289	-0.0130989307821234	-8.314790667739E-05	0.350341796875	-0.26806640625	0.17529296875	0	0	0	-0.51016944140294	0.356512556091947	-0.593992278813554	-0.509704925537588	0.0401439401173335	0.241757957296004	0.969505829872064	-0.969285203674256	-0.226199372463015	0.0965403430462757	0.242641006447819	-0.943603165521079	0.225251876814796	23.1994123478873	-75.8141330326006	80.5720514727808
20216	1649765289238	9.4442700583152	0.96372179118181	2.26626447971356	-0.00371987128758686	-0.0731351822861134	-0.0528928663745649	-0.00893576601415724	-0.0132908082917098	0.00114478836765478	0.358154296875	-0.2783203125	0.1689453125	0	0	0	-0.510221724013704	0.35649789819144	-0.593940633498419	-0.509723027544435	0.0402875449291636	0.241704491331951	0.969513203929448	-0.969276380221945	-0.22618336755204	0.0966663487810553	0.242652452011972	-0.943620698751771	0.225166081859138	23.2343956085499	-75.8158571544337	80.5368790707028
20217	1649765289239	9.44455187045173	0.963488621111868	2.26518893651549	-0.00369671484558615	-0.073124961861687	-0.0528927809945685	-0.00610751667671165	-0.0110202903476487	0.000184044149031586	0.355712890625	-0.26708984375	0.16357421875	0	0	0	-0.510239177457417	0.356543411181007	-0.593901950078377	-0.509718796420233	0.0403145392730249	0.241601140673443	0.969537841834188	-0.969290808068877	-0.226127089038641	0.0966533444640956	0.2425903281592	-0.943660653216082	0.225065555461981	23.2408768091628	-75.8216192104368	80.5266758465028
20218	1649765289239	9.41718758725056	0.94872785183566	2.21950766828717	-0.000290086198344957	-0.0336620433444545	-0.0911346266071522	-0.00459725015688798	-0.0102754768070871	-0.00315340111409477	0.360107421875	-0.2705078125	0.17041015625	0	0	0	-0.510277323824121	0.356534585140321	-0.59383845590148	-0.509760758280058	0.0404779557827314	0.241568055240101	0.969539277070902	-0.969294111064686	-0.22605411783312	0.0967908160209988	0.242549915174118	-0.94368660608181	0.225000284779425	23.2764497152509	-75.8219549393192	80.4876967099851
20219	1649765289240	9.49981820250504	1.00079501760871	2.24410662548031	-0.0410684455197572	-0.0492802157431729	-0.0004482738796181	-0.00282158362902641	-0.00437932117157534	-0.00304538534667963	0.345703125	-0.269287109375	0.172119140625	0	0	0	-0.510289146009237	0.356545336944932	-0.593814301384455	-0.509769541694362	0.0405199963482328	0.241534457530214	0.96954589149845	-0.969299319543033	-0.226020874127091	0.0968162878457928	0.242522079467732	-0.943703168525152	0.224960820335978	23.2855721632538	-75.8235022790736	80.4766977480917
20220	1649765289241	9.45340070949826	1.01753212819524	2.26687550827811	-0.0527057691762201	-0.0852454520902704	-0.0386996152430505	-0.000457448802140255	-0.00437040604904918	0.00226857044454489	0.357421875	-0.271484375	0.173828125	0	0	0	-0.510310877242612	0.356495719217812	-0.593820795466618	-0.509774924470245	0.0405753301015363	0.241582615901158	0.969531578795402	-0.969277188730267	-0.226080657121461	0.0968982346726637	0.242601265442499	-0.943676520938124	0.224987221494502	23.3007366202284	-75.8201542588968	80.4657975593427
20221	1649765289242	9.47411720769345	0.994928617946095	2.22138615704703	-0.041282987006276	-0.0323962532674804	-0.0310421804503047	0.00122269406679301	0.00191660694009357	0.00523397069194202	0.362060546875	-0.26708984375	0.169189453125	0	0	0	-0.510299414852431	0.356499289353624	-0.593841332619598	-0.50975997838611	0.0405214567258813	0.241590332256966	0.969531909173072	-0.969275847266814	-0.226106042252307	0.0968524112358474	0.242615629030803	-0.943668463506632	0.225005527783255	23.2891992706696	-75.8202315319419	80.478523089624
20222	1649765289243	9.47583320356842	1.00333845486078	2.24437637665245	-0.0432329715834291	-0.0544679024734391	-0.0233823681854073	-0.00900982783381386	0.00711023442099336	0.0108394300311938	0.358154296875	-0.265869140625	0.171142578125	0	0	0	-0.510266685243407	0.356459279084576	-0.593859097316993	-0.509800024341954	0.040536309776701	0.241720175010306	0.969498924487632	-0.96927735406127	-0.226081435070895	0.0968947657010888	0.242607127870703	-0.943641108530819	0.225129384570421	23.2868461300148	-75.8125186768493	80.4801196877381
20223	1649765289244	9.40177068266337	1.00375778446469	2.22333050446475	-0.0533562550666098	-0.0524622279055222	-0.099890611498763	-0.00974986864146739	0.00180135957280163	0.0176721809516758	0.3544921875	-0.2685546875	0.166748046875	0	0	0	-0.510205554538958	0.356527087672077	-0.59389151683393	-0.509776023471442	0.0403626039775236	0.241699110702265	0.969511423391126	-0.96930751259783	-0.226033683299422	0.0967042917119179	0.242515579337824	-0.94365794327173	0.225157455747324	23.243343444408	-75.8154408295461	80.5193610236302
20224	1649765289245	9.41754465923405	0.94428566108364	2.2198870166051	0.00332482597945817	-0.0309794251292968	-0.0911262720779113	-0.0105307889168833	0.00846736664174581	0.01817970506893	0.361083984375	-0.2783203125	0.1630859375	0	0	0	-0.510141665112558	0.356515599015227	-0.593932789528867	-0.509799912414135	0.0402809383625464	0.241826845522941	0.969482966734876	-0.969320690803856	-0.226001353922709	0.0966477439190296	0.242476482125934	-0.943632960853703	0.225304218350001	23.217664396438	-75.8087887269344	80.5431034997649
20225	1649765289246	9.36598284579266	0.92776808151719	2.2305709030936	0.0180344681378631	-0.049573534500778	-0.140301314602022	-0.00559655545677871	0.00348909651900288	0.0150822099659084	0.355712890625	-0.2724609375	0.1640625	0	0	0	-0.510090847825933	0.356559879103872	-0.593970298944253	-0.509776091583087	0.0401286731710137	0.241827852958866	0.969489029913613	-0.969339577090091	-0.225986778127408	0.0964922815483071	0.242426223573973	-0.943636193479722	0.225344759155307	23.1805350937525	-75.8102058154301	80.5782477356076
20226	1649765289247	9.39032248278944	0.918981074022151	2.28486445424568	0.0402578730415025	-0.0926324583413564	-0.105314567391403	-0.00312114854964734	-0.00110516960123658	0.00952856628404929	0.353515625	-0.270263671875	0.171630859375	0	0	0	-0.510067948434779	0.356581166808946	-0.593952402797939	-0.50980496532229	0.0401408293754513	0.24183851981355	0.969485865885337	-0.969361016632426	-0.225897537619819	0.096485863890276	0.242338468366872	-0.943654827164941	0.225361118913412	23.1776511678434	-75.8094663002164	80.5758530302099
20227	1649765289248	9.4162001336904	0.927349245347542	2.25236190991818	0.0245110604287536	-0.058056879083525	-0.0867445138586102	-0.00206904788329373	-0.00472967561884575	0.00845971788383897	0.35595703125	-0.27490234375	0.167236328125	0	0	0	-0.510062282430142	0.356619543816841	-0.593958143721915	-0.509777100816073	0.0400724489485708	0.241776164068481	0.969504247192139	-0.969368877982135	-0.225899616902857	0.0964019786249189	0.242318338626942	-0.943670307666546	0.225317938020047	23.1635958729143	-75.8137630143602	80.5892368264178
20228	1649765289249	9.41810942174719	0.935976376631667	2.27444294201977	0.0216503560958745	-0.0800133341180094	-0.0790828574380935	0.00199936796742804	-0.00475481256994369	0.00472394971787452	0.354248046875	-0.267333984375	0.166259765625	0	0	0	-0.510070442881906	0.356585383250407	-0.593972328825189	-0.509776304216269	0.0400874740842839	0.241818708470972	0.969493015268791	-0.969353365909969	-0.225949968223526	0.0964399494960539	0.242377900025055	-0.94364735155312	0.225350015500833	23.1688065432405	-75.8111373496992	80.5873980733581
20229	1649765289251	9.45974716290804	0.887357259113551	2.23731840698974	0.0613535024652917	-0.0248251170988655	-0.0517738660131215	0.00533286583450327	-0.0121955267551266	0.00381458351192377	0.360595703125	-0.272705078125	0.1669921875	0	0	0	-0.5101139388109	0.356608927260372	-0.59396060479011	-0.509729970068861	0.0400817459111468	0.241696673603654	0.969523682853412	-0.969341411603328	-0.226010861223608	0.0964174173053325	0.242426651578538	-0.943664033741825	0.225227684858071	23.1752178826339	-75.8183075755501	80.5840522263055
20230	1649765289252	9.46338122386245	0.90929318692248	2.22683798369268	0.038427970535653	-0.0193651104642804	-0.0485000490415306	0.00286504642689286	-0.00970765244433528	0.00536254164231815	0.355224609375	-0.276123046875	0.171875	0	0	0	-0.51014166914898	0.356596738337467	-0.593944080809578	-0.509729999584327	0.0401383901566916	0.241672521511245	0.969527360099769	-0.969331942745475	-0.226028187461685	0.0964719816634347	0.242455138961651	-0.943666069549596	0.225188487209945	23.1905572188902	-75.8191675715104	80.570058844618
20231	1649765289253	9.49106500685072	0.92789761599668	2.21614634261903	0.0192472975447583	-0.00771034877384202	-0.0222745237587407	0.00854137660345976	-0.0093750937049031	-0.00456629731811911	0.355712890625	-0.278564453125	0.169677734375	0	0	0	-0.510200021722314	0.356582172724346	-0.59392376419043	-0.509705458338054	0.0402074328501102	0.241595904349588	0.969543594349996	-0.969308833428593	-0.226098999671158	0.0965382192968227	0.242536075215428	-0.943668724367406	0.22509018385947	23.2138566271622	-75.8229648791077	80.5511887692163
20232	1649765289254	9.51015176513689	0.893507496337407	2.20206581737639	0.0510290240494582	0.0185057723320329	-0.0102647247693728	0.00937236135911594	-0.00234875517165392	-0.0102498679150772	0.355224609375	-0.264404296875	0.172119140625	0	0	0	-0.510232186867542	0.356494883888473	-0.593933072455309	-0.509723472766859	0.040309806410281	0.241692928139009	0.969515161302162	-0.969273584993033	-0.226186758143675	0.0966864410101452	0.24265992034516	-0.943622847820063	0.22514902649142	23.2402860205951	-75.8163148404929	80.5312999527908
20233	1649765289255	9.51688692229682	0.935533531142908	2.23764803645676	0.0204316047945836	-0.0226741154303991	0.00833583848667096	0.0163515606996155	0.00371822186535921	-0.00979392569722308	0.358642578125	-0.272705078125	0.165283203125	0	0	0	-0.510280493409991	0.356410560475528	-0.593947159140042	-0.509717669476201	0.0403965690619867	0.241752010185777	0.969496819375472	-0.969229436809712	-0.226318819610541	0.0968198879963128	0.242821778326301	-0.943576047524113	0.225170660853552	23.2669540101533	-75.8120265749464	80.513566582833
20234	1649765289256	9.51492887416516	0.927641728700674	2.21545436742629	0.0245600013640611	0.00111274733646303	0.00067210799423556	0.0218249844810164	0.00693150468074764	-0.010007529252344	0.361083984375	-0.273193359375	0.168212890625	0	0	0	-0.510336272171387	0.356252255252864	-0.593981694796819	-0.50973224949944	0.0405401537470945	0.241926355103753	0.969447334639884	-0.969160146697337	-0.226514728894977	0.0970550753295892	0.243074280802719	-0.943484348730729	0.225282439866922	23.3071069396546	-75.8004635788482	80.4871991177522
20235	1649765289257	9.4903632937135	0.936639589291434	2.16196167821116	0.00316436589583757	0.0446406923641121	-0.0343253114035829	0.0235115720136894	0.0111076495039917	-0.0110500783792937	0.361572265625	-0.269287109375	0.171630859375	0	0	0	-0.510383242302946	0.356124353976023	-0.594024129109553	-0.509725146051409	0.0406215570815948	0.242058267046207	0.969410998728018	-0.969097876827505	-0.226711439976061	0.0972174269995028	0.243308845356451	-0.943403263900739	0.225368780962986	23.3339387093935	-75.7919789100609	80.4735469281138
20236	1649765289257	9.47442155629313	0.991922127744906	2.22143269324132	-0.0345328755063401	-0.0257681332328365	-0.0309963147528407	0.0263302320443154	0.015481592906557	-0.00800913789006523	0.35791015625	-0.267822265625	0.174560546875	0	0	0	-0.510429699288761	0.355938071606134	-0.594083395053883	-0.509739669818372	0.0407460178051168	0.242293021568006	0.969347127572198	-0.969018472989369	-0.226947116389527	0.0974587367444797	0.243604107187002	-0.943286328779297	0.225539222530582	23.3698660724246	-75.7770766008317	80.4539834889924
20237	1649765289258	9.45142371301913	1.00997612611661	2.19125653517892	-0.0593583209906578	-0.00516605520992908	-0.0583285064047665	0.0293321245213836	0.0211804461609921	-0.00667856703117334	0.358642578125	-0.263916015625	0.171142578125	0	0	0	-0.510453957117507	0.355778130744707	-0.594172882837208	-0.509722733108699	0.0407610139694476	0.242510142168702	0.969292200879331	-0.968943560946723	-0.227209314072	0.0975925371061415	0.243899396145347	-0.943167407486204	0.225717358693761	23.3820197941357	-75.764273417523	80.4589273018412
20238	1649765289259	9.44597717067859	0.975601415264669	2.23437995412613	-0.0142674174150848	-0.0363407402027184	-0.0572164811914124	0.0263937742185908	0.0214050785822972	0.00114000233591019	0.354248046875	-0.26318359375	0.170654296875	0	0	0	-0.510476446244947	0.355564440037243	-0.594293194647315	-0.509709059764509	0.0407790555537805	0.242818707413686	0.969214188896391	-0.968847794458831	-0.227541206749964	0.0977698849494465	0.244276523228082	-0.943007992840313	0.225975453620263	23.3960648685498	-75.7461085071614	80.4666888782146
20239	1649765289260	9.45551510029494	1.04291643975233	2.20789030960004	-0.0854567599340033	-0.0223629934110739	-0.0473703256353382	0.0213768491246623	0.022556012952129	-0.000920083334901795	0.3623046875	-0.2744140625	0.164794921875	0	0	0	-0.510466321246015	0.35543855274755	-0.594386753831232	-0.509697907553344	0.0407356441813949	0.243036548510309	0.96916141244961	-0.968794190310506	-0.22774295651294	0.0978312965229198	0.24449626605275	-0.942903166739269	0.226175140188575	23.3907334799184	-75.733832478272	80.4850315096133
20240	1649765289260	9.40010432542664	1.00632386318935	2.22920863174062	-0.0462683726528359	-0.0451311645900569	-0.0998174304332408	0.022417047553333	0.0210356152115031	0.00201539213321849	0.356201171875	-0.265380859375	0.168701171875	0	0	0	-0.510464141034507	0.35529216493337	-0.594468466801037	-0.509706857158196	0.0407494390323661	0.24328148820761	0.969099376077623	-0.968737127363623	-0.227932794605747	0.0979541689285904	0.244719965033146	-0.942794123146037	0.226387676509723	23.3973296215754	-75.7194157637438	80.4912762050953
20241	1649765289261	9.39970241326439	1.00642795073578	2.23085575991376	-0.0462276058573286	-0.0451033614751208	-0.0998171071731981	0.0168463563556402	0.0182139803064635	0.00508481934863317	0.352294921875	-0.267333984375	0.16796875	0	0	0	-0.510444882919334	0.355206047524337	-0.594557956577133	-0.509681784620982	0.0406590001459243	0.243444502056077	0.969062237488285	-0.968696939419275	-0.228106284455418	0.0979477541941297	0.244894028646808	-0.942710081313769	0.226549370607212	23.3810574015004	-75.7107918935827	80.5182335602359
20242	1649765289262	9.37686783318125	1.02312926591003	2.20065513197179	-0.0704736390707217	-0.0238293186703589	-0.127141826385429	0.0155286359009365	0.0166854606838223	0.00270843069253355	0.361328125	-0.277099609375	0.17138671875	0	0	0	-0.510432268108825	0.355083912714792	-0.594634323002801	-0.509690432038346	0.0406508736763103	0.24366627612032	0.969006838134288	-0.968651423864189	-0.228262156839437	0.0980347224247083	0.245075346608413	-0.942615050610092	0.22674862920887	23.3812318723192	-75.6979371941746	80.528566054082
20243	1649765289262	9.42317962726317	1.00274482128361	2.2332611159348	-0.0410242968337177	-0.0373719422293339	-0.0768675745686789	0.00997099560477147	0.0117582305489058	0.00177720332245205	0.35595703125	-0.276611328125	0.1748046875	0	0	0	-0.510420663431777	0.355026016267472	-0.594686646431425	-0.50968133835884	0.0406086406587879	0.24377614219703	0.968980975457919	-0.968626601232167	-0.22836292220398	0.0980453117078073	0.245180434964267	-0.942562235747854	0.226854548230227	23.373740220226	-75.6919399684264	80.5424153215806
20244	1649765289263	9.42450538948748	1.01594870208212	2.20253821765609	-0.0611743096014752	-0.00901048637452434	-0.0812535258310518	0.0079718115093794	0.0165039035466145	-0.00295584090715225	0.360107421875	-0.26953125	0.17138671875	0	0	0	-0.510390146536799	0.354911225743166	-0.594759020518021	-0.509707394170492	0.0405994587078558	0.24401975598605	0.968920039343359	-0.968592526044487	-0.228472788338821	0.0981259572154231	0.245316535201743	-0.942472569190845	0.227079840319257	23.3701844423208	-75.6778193801674	80.553784682705
20245	1649765289264	9.42245204221736	1.00007999482644	2.29057005336377	-0.0239358690108218	-0.0870406349809714	-0.0647991646097541	0.0032440866725088	0.0185898943672952	-0.00958266834797322	0.3544921875	-0.27587890625	0.168701171875	0	0	0	-0.510360909767195	0.354827011702961	-0.594788245976987	-0.509761195066049	0.0406494684271311	0.244220261155539	0.968867423726131	-0.968579607166333	-0.228482631541561	0.0982305027237225	0.245359257616467	-0.942418246387963	0.227259067095095	23.3759410445103	-75.6656378388057	80.5499837083073
20246	1649765289265	9.39951468429581	1.01777396117194	2.26036984439827	-0.0483789610248985	-0.0658508630021713	-0.0921248846528293	0.0028843109110324	0.0138312656827456	-0.010164332730901	0.356689453125	-0.275390625	0.166015625	0	0	0	-0.510341914299472	0.354726828650884	-0.594803761947073	-0.509831827486326	0.0407547236177926	0.24443584032429	0.968808635628211	-0.968563715472581	-0.228480769434481	0.0983913973301387	0.245404526390177	-0.94236280591054	0.227440015088874	23.3934886589058	-75.6520392250209	80.5341617742533
20247	1649765289267	9.39914267864695	1.01872790988559	2.26148673176	-0.0483461338674634	-0.065818157950395	-0.0921244998267454	-0.00522555049820841	0.00968022722300087	-0.010697272756252	0.359130859375	-0.267333984375	0.17236328125	0	0	0	-0.510319456670235	0.354687752088981	-0.594792448991149	-0.509894688425927	0.0408370822823542	0.244554899045601	0.96877512048125	-0.968571142780144	-0.228408010466184	0.0984871673287746	0.245361517121636	-0.942349554097457	0.227541301323724	23.4045074614789	-75.6442922874842	80.5199137059524
20248	1649765289267	9.37306962394644	1.01033235147891	2.29455147254725	-0.0319411650380221	-0.0998154773875333	-0.110667539345817	-0.00162860207769306	0.00739114200373645	-0.00815566351667261	0.361083984375	-0.26953125	0.161376953125	0	0	0	-0.510309025548667	0.354623216390051	-0.59477663972784	-0.509968451646574	0.0409662464624684	0.244699788089236	0.968733080037974	-0.968569500061	-0.228349105444743	0.0986397972127453	0.245346469716526	-0.942326217268558	0.22765414568149	23.4265033944534	-75.6345805331504	80.4960037315201
20249	1649765289268	9.34202907812342	0.973770866612658	2.25978312478117	-0.00586378962646435	-0.0655978063044364	-0.152251590842745	-0.0072816370026243	0.00285914459964642	-0.00623038509469499	0.360107421875	-0.2646484375	0.175537109375	0	0	0	-0.51029371367441	0.35461911243563	-0.594755580208375	-0.510011186829019	0.0410221698127311	0.244744191021108	0.968719496317319	-0.968583806319912	-0.228267748809243	0.0986876131456831	0.245280638695122	-0.942334397024212	0.22769122175949	23.4332299875413	-75.6314439342084	80.4849619120303
20250	1649765289269	9.36276260252643	0.948087355130297	2.26901767329153	0.0238430688181994	-0.0626497681304764	-0.132597440249848	-0.00659619126519148	-0.00341133144173599	-0.00387114551637526	0.353271484375	-0.27392578125	0.171142578125	0	0	0	-0.510316217042659	0.3545904785146	-0.59468951615207	-0.510085610999637	0.0412199438512072	0.244778587213181	0.968702410170854	-0.968591673592848	-0.228156523995828	0.0988674385464995	0.245216406619761	-0.942352398946413	0.227685902340113	23.4718025517284	-75.6274995463219	80.4412517972151
20251	1649765289269	9.36116638253225	0.938968415427594	2.24604918454816	0.0273151211464599	-0.0397009898159769	-0.140277510115757	-0.00308424861716622	-0.00741574699985672	-0.00247466518612068	0.36328125	-0.269775390625	0.164306640625	0	0	0	-0.510335941087017	0.354609450764004	-0.594658807365569	-0.510088489858612	0.0412660805028199	0.244717330512457	0.968715922624787	-0.968597121608449	-0.228123739885225	0.0988897128755349	0.245187125705576	-0.942376245163064	0.227618729327361	23.4826964603392	-75.6306188489635	80.4283996001013
20252	1649765289270	9.40794633530762	0.918900863615466	2.27655660923752	0.0572169231789365	-0.0528125480783484	-0.0900087211648071	0.00185373921238556	-0.0123969920470252	-0.00556203446729973	0.351806640625	-0.27392578125	0.174072265625	0	0	0	-0.510380458140508	0.354609571078722	-0.594597109957258	-0.510115787716991	0.0414126578596822	0.244655155543853	0.968725372143628	-0.968598336936521	-0.228067870442477	0.0990066066262262	0.245157609412402	-0.94240591113259	0.227527680095301	23.5158298188421	-75.632800631207	80.3926380756547
20253	1649765289271	9.40644663017807	0.910280813959206	2.25297445805008	0.0606895211820097	-0.0298687343399644	-0.09769030672871	0.0034511888148438	-0.00994112279463773	-0.00775451205554972	0.369873046875	-0.275146484375	0.169677734375	0	0	0	-0.510433746713783	0.35460234166552	-0.594557891084951	-0.51011320669992	0.0415161868678909	0.244581661080548	0.968739499190072	-0.968585668479797	-0.228083391271309	0.0990947498191715	0.245190148748875	-0.942421231556919	0.22742913900212	23.5435771927538	-75.6360630043545	80.3662298259985
20254	1649765289271	9.40835953380087	0.920514595114599	2.27419589475734	0.0576273161709781	-0.0519986072249263	-0.0900067577755141	0.00820312764676204	-0.0162471450599604	-0.00913260277385088	0.359375	-0.267333984375	0.17041015625	0	0	0	-0.51051384920873	0.354556214259209	-0.594518893964843	-0.510110561952096	0.0416743512979956	0.244529018778401	0.968745997369364	-0.968552449587778	-0.228154211030189	0.0992562763088929	0.245294518571872	-0.94241774970788	0.227331001392527	23.586835463307	-75.6375638790723	80.328177292596
20255	1649765289272	9.42934532267409	0.899284006390092	2.22739974518278	0.0690763733704729	0.000873747196715048	-0.0824354657028365	0.0110276287217089	-0.0139824208173832	-0.0100969542004503	0.36181640625	-0.2666015625	0.165771484375	0	0	0	-0.510602533332432	0.354530810982936	-0.594476902400916	-0.510088393839828	0.0418102331511865	0.244422876176542	0.968766928629085	-0.968520197105697	-0.228235469067372	0.0993840955985344	0.245398720865015	-0.942425608873817	0.227185914036569	23.6273155482889	-75.6423993848878	80.2931068687512
20256	1649765289273	9.45870029851975	0.928446946712634	2.23879004222124	0.0476422607955846	-0.00984035861503288	-0.0485264159027654	0.0164065082897676	-0.0124919116635513	-0.0114604813472679	0.34912109375	-0.265380859375	0.17138671875	0	0	0	-0.51071701286791	0.354446906614772	-0.594413721144747	-0.510105725583778	0.0420794370121487	0.244383554309854	0.968765193100796	-0.968471815776124	-0.228319078235732	0.0996631354156682	0.24554360718218	-0.942415554252193	0.227071046316995	23.6970201057565	-75.6419983853311	80.2302659049715
20257	1649765289273	9.41232204345408	0.9466705467589	2.2605186635222	0.0351591663025867	-0.0467572309516531	-0.0867162910486101	0.0164045235767381	-0.0124944532711056	-0.0114620366872466	0.361572265625	-0.271240234375	0.174560546875	0	0	0	-0.510817838486547	0.354398019962477	-0.594381094664011	-0.510076752691808	0.0422263155053763	0.244294296212953	0.968781314392809	-0.968425618297531	-0.228447499620111	0.099817642440423	0.245700549661341	-0.942407574648643	0.226934358661216	23.7424131997015	-75.6457236854232	80.1933128617225
20258	1649765289273	9.43814696457519	0.961069792834356	2.17247334870325	0.00269487041241805	0.0395592789192765	-0.0802497875347114	0.0191408136849259	-0.0119485141788651	-0.013573991537273	0.35400390625	-0.270751953125	0.170654296875	0	0	0	-0.510918758959949	0.354265283128787	-0.594396287517526	-0.510050178215721	0.0423783251101265	0.244342307160644	0.968762568688672	-0.968345422355664	-0.228689849743583	0.100040469946362	0.245990285506749	-0.942336346298747	0.226916261825012	23.791221618915	-75.6413920270456	80.1605949687792
20259	1649765289274	9.43834229318893	0.959157503332092	2.22572944792641	0.0196471847445804	-0.0108950474548367	-0.0681681393917657	0.0179966171070628	-0.0100438697904588	-0.0136588827235412	0.360107421875	-0.276123046875	0.172119140625	0	0	0	-0.51102015600165	0.35419927869938	-0.594367488037365	-0.510027999518694	0.042540320265984	0.244282180492039	0.968770632010344	-0.968294063118555	-0.228828621351596	0.100220104668111	0.246164433826308	-0.942318246848899	0.226802542257776	23.8398028537815	-75.6432551000508	80.1213391429298
20260	1649765289274	9.44179405143491	0.983116901971666	2.21493639829701	-0.00444760674227478	-0.00548878504201658	-0.0648729066642772	0.0202778635010906	-0.0138624914541581	-0.0134946837957066	0.3623046875	-0.268798828125	0.1708984375	0	0	0	-0.511112849365338	0.354116427515531	-0.594366722163938	-0.509993539725142	0.0426595106954682	0.244259464513358	0.968771118553227	-0.968233289611507	-0.229016290404516	0.100378461920044	0.246382757179358	-0.942278543067283	0.226730421954566	23.8800083462437	-75.6433675259221	80.093305420801
20261	1649765289275	9.46768772193774	0.990452954581036	2.23612602688393	-0.00326357563048781	-0.0213558377458077	-0.0342467667701705	0.0224015642678237	-0.00321344505881273	-0.0128205736310353	0.35791015625	-0.27197265625	0.164794921875	0	0	0	-0.511203386524214	0.354022142865566	-0.594365615340564	-0.509969543470862	0.0427956753234094	0.244262086345138	0.968764451942749	-0.968171359694885	-0.229198774185986	0.100559137716069	0.246602409639832	-0.94223349286998	0.226678839934094	23.9230041229191	-75.6418271416513	80.0624182475764
20262	1649765289276	9.44517048463199	1.00882265351063	2.20361915007372	-0.0276604272224635	-0.000556075077879281	-0.0615776703817534	0.0167612769456583	-0.00986402981281435	-0.0148921823492133	0.364501953125	-0.27294921875	0.17333984375	0	0	0	-0.511298628185365	0.353956088714074	-0.594307267417441	-0.509987913555618	0.0430279183140974	0.244224521447596	0.968763635449457	-0.96813357183705	-0.229254830578844	0.100794889445355	0.246710326755066	-0.942229592923061	0.226577600155996	23.9822791011186	-75.641638494168	80.0080670427214
20263	1649765289277	9.42455986169772	1.03263610678441	2.2477973015254	-0.0390109683357171	-0.053377263485978	-0.0691311608685598	0.0190248510724307	-0.00945009967499762	-0.00672201523565388	0.36083984375	-0.277099609375	0.169921875	0	0	0	-0.511388448439114	0.353903506611396	-0.594299459929869	-0.509943442685813	0.0431209198704462	0.244153894879587	0.968777302523472	-0.968082555452241	-0.229419986539796	0.100909046200716	0.246894212363484	-0.942207697586476	0.226468325622387	24.0166467041288	-75.6447965362076	79.9840689891651
20264	1649765289277	9.42784632414665	1.0595249701031	2.18291133921572	-0.0795287620492826	0.00226742010372374	-0.0779222761767322	0.0128707889285196	-0.0063909085707491	-0.00886270769689524	0.35986328125	-0.280029296875	0.165771484375	0	0	0	-0.511447724829164	0.353838040846048	-0.594291986161305	-0.509938134288615	0.0432313520693636	0.244164971394103	0.968769589191553	-0.968043615188983	-0.229523480096953	0.101047173023436	0.247027547634063	-0.942179621318727	0.226439731234605	24.0484891880132	-75.6430141379427	79.9593858778396
20265	1649765289278	9.40048345327096	1.04206865415035	2.19189078594663	-0.060298449772663	-0.00937405258665823	-0.104152069775424	0.00881820744399732	-0.00846914448594251	-0.00912420712954575	0.364013671875	-0.264404296875	0.167236328125	0	0	0	-0.511512753979951	0.353807298803343	-0.59426252327444	-0.509928574665927	0.0433448974899555	0.244108991363213	0.968778622904748	-0.968016774519635	-0.229586488105316	0.101161102841302	0.247112816563986	-0.942178775400455	0.226350195658655	24.0809649437916	-75.6451016718928	79.9312920172209
20266	1649765289279	9.40060586692052	1.04295214000399	2.19094536473021	-0.0598223687812461	-0.00951544918603148	-0.104149262126413	0.00467056898462696	-0.0101491463521646	-0.00652775084438932	0.361572265625	-0.278076171875	0.1689453125	0	0	0	-0.511563521572665	0.353826222508818	-0.594181412430593	-0.509959034416784	0.0435109067742513	0.244007181880284	0.968796829155899	-0.968025535525741	-0.229497574963684	0.101278949717551	0.24704931402816	-0.942226808298633	0.226219535322627	24.1181602913486	-75.6493097230863	79.8893928710508
20267	1649765289279	9.42160154718301	1.01772743209556	2.19911849079967	-0.0314717892503874	-0.00713509280355798	-0.0845104796656439	0.00202974885319605	-0.0110943296577665	-0.00727249653481633	0.3701171875	-0.273681640625	0.177734375	0	0	0	-0.511615923984843	0.353827572718211	-0.594137462365766	-0.509956734363849	0.0436134491958128	0.243921159047457	0.968813880587076	-0.968016441237625	-0.229500355722594	0.101359539348034	0.24706686654201	-0.942248404027381	0.226110390218948	24.1454806129261	-75.6532519539819	79.8625586250633
20268	1649765289280	9.42355239165131	1.02770481817949	2.22030401998173	-0.0344529917040758	-0.0294868242144928	-0.076815027848518	-0.00106305117897253	-0.0164028660107776	-0.00573787828943816	0.35888671875	-0.275390625	0.1630859375	0	0	0	-0.511677875298287	0.353818716703272	-0.594087953837281	-0.509958400995723	0.0437436376317668	0.243837867572367	0.968828977944251	-0.968002704386354	-0.229509489928672	0.101469987352848	0.247097669894815	-0.942267737095164	0.225996135281361	24.1795997664097	-75.656743295236	79.8295277284053
20269	1649765289281	9.39465853318246	1.00052409000035	2.2062624182723	-0.0118014506831471	-0.0182248426463643	-0.11074015235997	0.000711342421062011	-0.0126278653019643	-0.00964746737809541	0.36474609375	-0.269775390625	0.169921875	0	0	0	-0.511735647021689	0.353821811267861	-0.594031710000447	-0.509963803570771	0.0438729067701494	0.243742873507865	0.968847036257874	-0.967995807586044	-0.229494089837525	0.101570562790054	0.247101769616043	-0.942296065121666	0.225873506876847	24.2124466331428	-75.6609204659428	79.796210811771
20270	1649765289283	9.44814389851033	1.02558398305249	2.21730917417374	-0.0294716556860594	-0.0226493704534283	-0.0538798628617219	-0.00475250918587067	-0.0158406907736497	-0.00942371534056658	0.362060546875	-0.26611328125	0.171142578125	0	0	0	-0.511782884693699	0.353879648580222	-0.593914548640554	-0.510012727457288	0.0440694064676521	0.24358886288791	0.968876851457688	-0.968027052427023	-0.229312424304633	0.101683026257984	0.246944352401586	-0.942380113296385	0.22569494651067	24.2531372575923	-75.6678197970536	79.7451339297964
20271	1649765289284	9.41908480095246	1.00176254362646	2.14889670276176	-0.0237064831561213	0.0390878597122769	-0.0998940585752912	-0.00467217181100357	-0.0120024927948891	-0.0042754053863726	0.36328125	-0.270263671875	0.167724609375	0	0	0	-0.511815665026482	0.353911409637088	-0.593863645896554	-0.510017067601312	0.044145368422283	0.243486383502638	0.968899152386701	-0.968035997438101	-0.229258609768096	0.101719209155504	0.246895715051684	-0.942419689361383	0.225582878324379	24.2714343044372	-75.6729824286695	79.7236024806623
20272	1649765289285	9.44347550023227	0.998577804543735	2.1472064474911	-0.0179270686157076	0.0464725022133173	-0.076959277809598	-0.00238374240636372	-0.0179402968906808	-0.00811528718559105	0.365478515625	-0.2666015625	0.16357421875	0	0	0	-0.511903045628051	0.353903096578574	-0.593764258099986	-0.510050856201414	0.0443932080701388	0.243371790459849	0.968916619057393	-0.968028082442931	-0.229201444640603	0.101923154270867	0.246882309368459	-0.942463192587928	0.225415740217644	24.3304055874165	-75.6770272090173	79.6623880815861
20273	1649765289286	9.46806940495069	0.992049118631775	2.19978816325689	0.0035905374510657	0.00301070925271108	-0.0419378774641377	-0.00352673563561358	-0.016033224343427	-0.00819838445767523	0.356689453125	-0.27294921875	0.168701171875	0	0	0	-0.511958033390042	0.353931435271646	-0.593694684075869	-0.510056990221688	0.0445183224532135	0.243240164227534	0.968943931026204	-0.968032330453881	-0.229148811705091	0.102001123965241	0.246843120548212	-0.942509970557716	0.225263022347907	24.3614455830301	-75.6833541207818	79.6283963490149
20274	1649765289287	9.44573018197007	1.00936583203471	2.16671643528222	-0.0206190054972519	0.0233732378820197	-0.0692625782599254	0.000524268846488767	-0.0139549190379011	-0.00794012799995027	0.356689453125	-0.272705078125	0.1728515625	0	0	0	-0.512021382141955	0.353961441000838	-0.593590679285904	-0.510093626679408	0.0447228074990174	0.243101992227666	0.968969190358675	-0.968045297212495	-0.229031580611318	0.102141263098975	0.246755289779528	-0.942574111917796	0.225090805028105	24.4075034171665	-75.6892079699454	79.5760058988779
20275	1649765289288	9.42012912344365	1.00447909322615	2.14304292109063	-0.0216924477562837	0.0392695414585189	-0.0998900844904789	0.00280646689414252	-0.0177741778682289	-0.00777756367799871	0.35986328125	-0.268310546875	0.16455078125	0	0	0	-0.512097164671344	0.353976799233613	-0.593528451226327	-0.510079304740719	0.0448488063784084	0.24295212899678	0.969000953344404	-0.968034189984662	-0.229039056959103	0.102229728592147	0.2467759947547	-0.942610934268862	0.224913839079795	24.4431451911092	-75.6965723698641	79.5409790520604
20276	1649765289289	9.41712146336148	0.983097494485812	2.1510038231661	0.00208515881005814	0.0348898801860151	-0.103194435037244	0.00184458879023674	-0.0145448143392849	-0.00957229407205655	0.358154296875	-0.273681640625	0.17333984375	0	0	0	-0.51215331340368	0.35397800177743	-0.593470576402318	-0.51008943605214	0.0449844984047161	0.242864130296544	0.969016722827103	-0.968028156225843	-0.229016682971335	0.102336932115451	0.246774965621052	-0.94263904710982	0.224797115654579	24.4769884407029	-75.7002299792285	79.5063197302821
20277	1649765289290	9.47220182231365	1.02083119882998	2.12978191272233	-0.036184304425617	0.0582424427205451	-0.0507217323486984	-2.13502386507702E-05	-0.0179249189580614	-0.0028056728478011	0.36328125	-0.274169921875	0.16845703125	0	0	0	-0.512213430015085	0.354014977223753	-0.593415681685601	-0.510067276683244	0.0450624492617584	0.24270138987603	0.969053874157043	-0.968026292917992	-0.22900953831641	0.102370540584464	0.246768052806643	-0.942682696729047	0.224621596026896	24.5009677021465	-75.7088505657917	79.4816497344781
20278	1649765289291	9.44684161436699	1.01217809802356	2.16055021028838	-0.020679737554308	0.0240164029325585	-0.0692642710692777	0.00307213406036174	-0.0147352391384326	-0.00834662228432693	0.36962890625	-0.274658203125	0.168212890625	0	0	0	-0.51226719241164	0.354010781235145	-0.593381570061471	-0.510055881898603	0.0451493581613316	0.242619302066605	0.969070384297412	-0.968011738013721	-0.229038728219841	0.102442842810484	0.24680925939939	-0.942696735562478	0.224517380695957	24.5262766417614	-75.7126832097955	79.4583321166262
20279	1649765289292	9.47443854841883	1.03126574639015	2.1495569832687	-0.0397899128593698	0.0356934836129374	-0.0430285785997988	-0.00194726288926513	-0.00934325576344327	-0.00238846875461901	0.3642578125	-0.2685546875	0.16650390625	0	0	0	-0.512295944572693	0.354032787817633	-0.593346546422712	-0.510052473940366	0.0452013219966303	0.242536624924277	0.969088657481913	-0.968014870703229	-0.229014517954774	0.102467363893842	0.24678746035236	-0.942723891781832	0.224427300648895	24.5401415850111	-75.7169262987957	79.4429551077016
20280	1649765289292	9.47135563439429	1.00929256269753	2.1581658658393	-0.014797478470329	0.0305915600378143	-0.0463280586879158	-0.000625701810397746	-0.00993104033496817	-0.00401999587196521	0.359375	-0.27197265625	0.169189453125	0	0	0	-0.512363042826086	0.354056696024838	-0.593242256467412	-0.510089789632594	0.045414962282859	0.242402503388782	0.969112226499954	-0.968024767821728	-0.228904525025103	0.102619526927005	0.246709404126671	-0.94278509999569	0.22425593669194	24.5888345963024	-75.7224009198159	79.3884525863922
20281	1649765289293	9.44887423129742	1.02627127778953	2.12569674244189	-0.0396085530953699	0.0511397272853085	-0.0736494501187099	-0.00299809932188392	-0.00783448008902379	-0.00532844253341987	0.361572265625	-0.270751953125	0.162841796875	0	0	0	-0.512390273196172	0.354070649237589	-0.593201056492123	-0.510100666397383	0.0454929638502024	0.242339795061339	0.96912425104821	-0.968029221835715	-0.228862570978837	0.102671073224629	0.246677554536817	-0.942811406026988	0.22418036656485	24.6070329887217	-75.7251947787631	79.3679541239143
20282	1649765289294	9.46836852626354	0.987933088231991	2.16608991719536	0.00919682854107289	0.0255048092279749	-0.0496332952363492	-0.000446073900849891	-0.00860980821157232	-0.00573286756148241	0.353271484375	-0.273193359375	0.168701171875	0	0	0	-0.512422315875837	0.354114964390531	-0.593123479115253	-0.510127925827783	0.0456142610338225	0.242224880043074	0.969147278115384	-0.968050520600215	-0.228744182570675	0.102734066919048	0.246571548958902	-0.94286966566339	0.224051924374275	24.6327784821994	-75.7305465270195	79.3353137075942
20283	1649765289295	9.47171820031155	1.01084414900365	2.15584725267153	-0.0144706478669041	0.0301505060039558	-0.0463261973879145	-0.00149704604256279	-0.00710067580725639	-0.008672593746747	0.362060546875	-0.26904296875	0.170654296875	0	0	0	-0.512457142928593	0.354114484075173	-0.593077998284103	-0.510146152372984	0.0457228402389924	0.242175924205821	0.969154396169948	-0.968049911321003	-0.228707670774429	0.102821060684726	0.246553829967973	-0.94289109819957	0.223981217659275	24.6580136970309	-75.7322012403365	79.3084009681392
20284	1649765289296	9.47173321018435	1.01170119080233	2.15537922921887	-0.0147854018949204	0.0305253172771589	-0.0463278331273749	0.000182728449838703	-0.00292214364834381	-0.00972334192636856	0.361083984375	-0.2646484375	0.164306640625	0	0	0	-0.512469588341411	0.354085084682235	-0.593069572140808	-0.510163852533163	0.0457844708125869	0.242209640317221	0.969143060837673	-0.968040990656975	-0.228713192748192	0.102892739640806	0.246577417133592	-0.942881098336546	0.223997347661519	24.6715912033011	-75.7295662374462	79.2957782772727
20285	1649765289297	9.44584431933638	1.00677720342837	2.13291049974781	-0.0158682262921946	0.0464081200943445	-0.0769553973078505	-0.00396067466747179	-0.00460490902316944	-0.00712200485725939	0.363037109375	-0.26611328125	0.164794921875	0	0	0	-0.512487725108347	0.354089544785836	-0.59303039162345	-0.510188083453121	0.0458710977685939	0.242180987279757	0.969146125096575	-0.96804716844753	-0.228657427551582	0.102958537704328	0.246537060196281	-0.942901983360782	0.223953851773262	24.6897100939145	-75.7302785057942	79.2747551730384
20286	1649765289297	9.44264944602526	0.985031175015703	2.1419613439969	0.00952887515877072	0.041179734114138	-0.0802608007679346	-0.00414077125164536	-0.0059274366128116	-0.00541004344967817	0.37060546875	-0.2724609375	0.16748046875	0	0	0	-0.51254886006341	0.354107730481251	-0.592908629693534	-0.510255561553279	0.0461341440967065	0.242074824392507	0.969160162276494	-0.968064878783732	-0.228493954234731	0.103154754343245	0.246418406808223	-0.942968871317348	0.223802762522234	24.7458336135465	-75.7335418080398	79.210071333625
20287	1649765289298	9.42354773858554	1.02075396046138	2.15491730029338	-0.0221367055978062	0.0158928081163758	-0.0921875516208974	-0.00387195572347514	-0.00288328284842995	-0.00597554190335628	0.35693359375	-0.2548828125	0.175048828125	0	0	0	-0.512560707352531	0.354110464522066	-0.592876133957875	-0.510279521416844	0.04620733739826	0.24205887943826	0.969160657917797	-0.968071320143714	-0.228441177877126	0.103211178490117	0.246379384457732	-0.942985751289597	0.22377460038848	24.760488638222	-75.7336570459244	79.1926604734405
20288	1649765289300	9.44270963616747	0.986063891735418	2.14122070913859	0.01184221830543	0.0418462396129195	-0.0802661835966116	-0.00140911803645863	-0.00538027126147777	-0.00752730782592138	0.351318359375	-0.26806640625	0.1650390625	0	0	0	-0.51265847134047	0.353997600247946	-0.592824428661472	-0.510319691530464	0.0464897916017899	0.242100221929878	0.969136823063868	-0.968019696335105	-0.228519022909896	0.103522575680854	0.246529038419643	-0.942956276138937	0.223733981563096	24.8301624266505	-75.7281164124095	79.1299798777478
20289	1649765289301	9.46686150159546	0.982881614427501	2.14056564237426	0.0165266267021326	0.0488474599999954	-0.0573357528437022	-0.00255180395613452	-0.00134846063186456	-0.00360151245163744	0.365234375	-0.2734375	0.167236328125	0	0	0	-0.512665605541978	0.353997534488796	-0.592803951854218	-0.510336356862955	0.0465384404837519	0.242094097488356	0.969136018069001	-0.968023539004619	-0.228485096879402	0.103561520059252	0.24650476971108	-0.942966069625683	0.223719444940261	24.839795581434	-75.7279293206348	79.1186077294731
20290	1649765289302	9.43950939065572	0.964634129726545	2.15018135357934	0.0353794456176221	0.0367777902054266	-0.0835798973450892	0.00114241952051829	-0.00403214202689854	-0.00392609953471336	0.3681640625	-0.2705078125	0.17236328125	0	0	0	-0.512672655670019	0.354037042216031	-0.592764069582945	-0.510348193568509	0.0465770611007799	0.242021922971045	0.969152189380291	-0.96804236552485	-0.228404988120567	0.103562251572161	0.246423529575133	-0.943004003280495	0.223649041734349	24.8468253030336	-75.7316882143035	79.1066235431102
20291	1649765289303	9.41543253194682	0.968597140973898	2.15015055508148	0.0308920574533451	0.0297410956748742	-0.106511043362961	0.00624669508848274	-0.0034578306902105	-0.000729475454653872	0.363037109375	-0.260986328125	0.1640625	0	0	0	-0.512703258634445	0.354024095772493	-0.592761037357095	-0.510329952863274	0.0466025844076195	0.241988809431922	0.969159231105112	-0.968026039582603	-0.228460557646075	0.103592279104505	0.246482830672954	-0.942999040142547	0.22360461639618	24.8575005207784	-75.7333253107504	79.0993414081042
20292	1649765289304	9.44465585890957	0.99694496880546	2.16215296202319	0.0104227990500802	0.0183636184344618	-0.0725701631153157	0.00474673367396501	-0.00843899221897537	-0.00539798980397856	0.35595703125	-0.272216796875	0.1669921875	0	0	0	-0.512816145183968	0.35396991261676	-0.592671651903831	-0.510357928546548	0.0468912279833349	0.241906380949335	0.969165886520058	-0.967992325346265	-0.228480171463521	0.103863705492972	0.246560481036491	-0.94301543683229	0.223449804401478	24.9298983147082	-75.7348727650029	79.0298116403606
20293	1649765289305	9.44473087550833	0.997476202141219	2.1615801727106	0.0105404086172306	0.018340458289632	-0.0725702460404971	0.0116196584741369	-0.00196218885741314	-0.00210535123444073	0.366455078125	-0.273681640625	0.163330078125	0	0	0	-0.51285916749034	0.35393322071269	-0.592677789525816	-0.510333016176546	0.0469286261574696	0.241890294055346	0.969168091555222	-0.967961881742885	-0.228582975752185	0.103921213854775	0.246672859349679	-0.942994649421774	0.223413499194116	24.9455832225574	-75.7353854952168	79.0205624650596
20294	1649765289306	9.46567068728173	0.97221619730853	2.17026657704281	0.0384966464718472	0.019798515195243	-0.0529584290533833	0.00633573038609507	-0.00598306682591051	-0.00759573266664256	0.359619140625	-0.273681640625	0.1611328125	0	0	0	-0.512889437321349	0.353989426313648	-0.592605916875339	-0.510347076435893	0.0470194266849467	0.241754518952453	0.969197568135768	-0.96798426967131	-0.228474695262942	0.103950792654052	0.246567692902211	-0.943055706833151	0.223271822284648	24.9657235298793	-75.7422413300746	78.9938093188192
20295	1649765289307	9.41564429903903	0.971003748409292	2.14813681745669	0.0328614763741082	0.0286545276705457	-0.106514242697491	0.00933527233252722	-0.000267516664606086	-0.00627288202872353	0.360595703125	-0.270263671875	0.170166015625	0	0	0	-0.51292886774681	0.353945260118114	-0.59260146022822	-0.510343255865381	0.0470925243506045	0.241762834253428	0.969191944933529	-0.967957800320366	-0.228545028065286	0.104042620812798	0.246657639146339	-0.943036532760204	0.223253458943791	24.9868915734717	-75.7409332037725	78.9774874112623
20296	1649765289308	9.4479563263723	1.02218776600982	2.15094200855751	-0.0138553790551393	0.021401727726005	-0.0692460827312242	0.0131178606956208	-0.00335377504869047	-0.00945787677560078	0.36083984375	-0.271728515625	0.1640625	0	0	0	-0.512971479316992	0.353956337290695	-0.592557048982165	-0.510344311617795	0.0471821099866085	0.241677226606885	0.969208938586936	-0.967955250421414	-0.228527189782229	0.104105507596164	0.246650525397433	-0.943062798370205	0.223150345398185	25.0102894990107	-75.7448867988462	78.9532184250529
20297	1649765289309	9.49963143649901	1.03497634116745	2.19499111351362	-0.0114433530462361	-0.0104491976885017	-0.00799873364068126	0.0137428517923999	0.00233271666654747	-0.0134499032535535	0.352783203125	-0.26904296875	0.157958984375	0	0	0	-0.513027012068331	0.353874684640851	-0.592548591248698	-0.510354934793191	0.0473177491590429	0.241725651081215	0.969190249756922	-0.96791473951289	-0.228621096205153	0.10427584285753	0.246783483337552	-0.943027626307585	0.223151984917157	25.0460352205334	-75.7405388776609	78.9244098865455
20298	1649765289310	9.43027004268847	1.06944011438944	2.18671730809711	-0.049625283802533	-0.0282018167184109	-0.0734795023854122	0.0110114722346019	0.00390981751415953	-0.00732625986704094	0.35595703125	-0.26904296875	0.169189453125	0	0	0	-0.513024751407517	0.353944433379795	-0.592482091308093	-0.510386044090059	0.04737661911729	0.241624671660398	0.969212553574303	-0.967953691447373	-0.228458848155112	0.1042698705909	0.246619356852658	-0.943092822973775	0.223057885045422	25.0540460590871	-75.7457279687685	78.9064522416712
20299	1649765289311	9.45749752542952	1.08861061265979	2.17712821963689	-0.0686723780769842	-0.0165759016331345	-0.0472263321263497	0.00687080388609341	0.00435325750287515	-0.000716303676211708	0.36279296875	-0.2626953125	0.166015625	0	0	0	-0.513034097516791	0.353911764253019	-0.592498719152387	-0.510380001284561	0.0473834618521927	0.241661388935946	0.969203064708553	-0.967936599232438	-0.228517434824174	0.104300152673536	0.246685117932244	-0.943069220725037	0.223084955816895	25.0577614376029	-75.7435201121502	78.9065336615564
20300	1649765289313	9.43009422149651	1.06984002786687	2.18727983136077	-0.0486652462832981	-0.0281729487789432	-0.0734745743667755	0.00510346562875513	0.00270142925223187	0.00720147158088971	0.3583984375	-0.270263671875	0.166259765625	0	0	0	-0.513053955599891	0.353877832482301	-0.592516462447841	-0.510362968924304	0.0473894428118491	0.241680078314491	0.969198112078168	-0.967913765331132	-0.228600239256798	0.104330597114391	0.246773547189509	-0.943044362878882	0.223092236641867	25.0634601086982	-75.7423678737035	78.9060048233643
20301	1649765289314	9.34950640904633	1.02628703908361	2.18513130735188	-0.011437259022378	-0.0356855812629756	-0.156604838952761	0.00114156278326853	0.0023412190965966	0.00809243872991746	0.36474609375	-0.277099609375	0.173095703125	0	0	0	-0.51303928354432	0.353889593721938	-0.59254011906421	-0.510342097318088	0.0473167255093873	0.24167780698289	0.969202231270136	-0.967914861450464	-0.228626198320595	0.104263523941991	0.246783201353738	-0.943038651940319	0.223105697991306	25.0479976568232	-75.7433262048081	78.9225052432915
20302	1649765289315	9.39613054801043	1.00885378839662	2.16184833904188	0.000588237511378858	0.00124035499126253	-0.118429188479038	0.00579765961637837	-0.00357474229537451	0.00956121438001613	0.360595703125	-0.272705078125	0.17529296875	0	0	0	-0.513026675344885	0.353925663261608	-0.592578095384271	-0.510285661311538	0.0471756515111604	0.241621597879117	0.969223122579543	-0.967914823248462	-0.228690337489354	0.104123121711292	0.246810358049246	-0.943037503484006	0.223080510538809	25.0208760207811	-75.748187545113	78.9522129518662
20303	1649765289316	9.38986926016686	0.963697316527069	2.18034960550559	0.0481409426103433	-0.00817191329608537	-0.125071698590641	0.00561836130769002	-0.00702186426127333	0.0072681155385911	0.361328125	-0.271728515625	0.16748046875	0	0	0	-0.513052324613029	0.353946196588179	-0.592583793872926	-0.510239012002316	0.0471330743198648	0.241532901133602	0.969247301247284	-0.967904576923622	-0.228756481103326	0.104073062429856	0.246858670650765	-0.943044182434317	0.22299880425986	25.0183606044387	-75.7538158711552	78.9579850240469
20304	1649765289316	9.41755968058214	0.981666571411604	2.16933487490194	0.0286231047467283	0.00400626790989913	-0.0988169792102162	0.0126453415402469	-0.0150362909979435	0.0100435582116273	0.357666015625	-0.271728515625	0.16552734375	0	0	0	-0.513099902240039	0.353948391705131	-0.592631691862685	-0.510134006051924	0.0470164276186451	0.24142138780264	0.969280748310534	-0.967864928530326	-0.228967663757533	0.103977348852548	0.247036304325838	-0.9430214856857	0.222898052661228	25.008081837349	-75.7616052919834	78.9796795130872
20305	1649765289318	9.39537418971909	0.997552881615697	2.13589801701959	0.00382825926911398	0.0245401608165449	-0.126118775610514	0.0096438155877229	-0.020754582629847	0.00872195004138983	0.358154296875	-0.27099609375	0.175537109375	0	0	0	-0.513173672008149	0.353995630123587	-0.592613380298321	-0.510048289579011	0.0469929506896052	0.24120040723487	0.969336900223662	-0.967845356776309	-0.229075672301859	0.103921613372728	0.247117437571742	-0.94305180128622	0.222679752422154	25.0178222013946	-75.7746917934587	78.9752032996886
20306	1649765289319	9.44063626988211	0.970943168826133	2.08813674874286	0.0190895080818532	0.0849240901686714	-0.0956362672989392	0.0109617082341318	-0.0213465292309995	0.00708766732572078	0.353515625	-0.267578125	0.1728515625	0	0	0	-0.513227161721981	0.354020440807314	-0.59264676644027	-0.509938445490519	0.0468786754369743	0.241040929552863	0.969382102201999	-0.967812553661273	-0.229264618602617	0.103810383067609	0.247267569173399	-0.943046661060464	0.22253481592279	25.0086055403959	-75.785234926523	78.9942590355405
20307	1649765289320	9.46738656731147	0.972793383337445	2.16250963137929	0.0371671488323976	0.018468583947198	-0.05295066821345	0.010869062902102	-0.0230733168375027	0.00593964675319177	0.360595703125	-0.266845703125	0.16845703125	0	0	0	-0.513315453264509	0.354062759721114	-0.592618084692609	-0.509853521429228	0.0468867357478649	0.240805062705689	0.969440331214984	-0.967788606666995	-0.22937789772977	0.103783393848089	0.247359751811943	-0.943079371955712	0.222293615237041	25.0267078351649	-75.7988278478978	78.9818948006273
20308	1649765289321	9.49350359714121	0.981827911720739	2.12785597210654	0.0215292100237763	0.053918801171675	-0.0343952589195062	0.0123652778772323	-0.0223444651598337	0.00259198175324662	0.36572265625	-0.261474609375	0.171142578125	0	0	0	-0.513413689888179	0.354025158126367	-0.59263916222013	-0.509756210214283	0.0468900216332465	0.240680261221993	0.969471163949371	-0.967725712209611	-0.229629587123146	0.10381328742534	0.247605072241334	-0.943049979892777	0.22214514089801	25.0477137057153	-75.8060305727401	78.9755678037946
20309	1649765289322	9.51633189346693	0.968873817887952	2.10282429223108	0.0296263082696325	0.0838084546394264	-0.0191559653371076	0.0125420278162864	-0.021025829021935	0.000877317301835114	0.362060546875	-0.266845703125	0.1640625	0	0	0	-0.51350901730674	0.354043783554726	-0.592606186594601	-0.509685585513977	0.0469418138721178	0.240476311633854	0.969519267293525	-0.967695013140844	-0.229747206491057	0.103839215385604	0.247715214818828	-0.943073361225167	0.221922976941841	25.0752017735897	-75.8172749780259	78.9545597318242
20310	1649765289323	9.51815722162194	0.981968023605877	2.068941423164	0.0116627691623687	0.111236896578088	-0.0235307686875679	0.010439054599134	-0.015883366900575	-0.000996319107642876	0.357177734375	-0.27001953125	0.17138671875	0	0	0	-0.513660488837375	0.353993391368834	-0.592517481637421	-0.509671085140789	0.047223425642481	0.240313218750632	0.969546030348379	-0.967642892573495	-0.229848127677204	0.104101251939083	0.247865246701892	-0.943090343019689	0.221683162149081	25.1545041257348	-75.8235347625712	78.8825878584754
20311	1649765289324	9.49280775841429	0.973420904954732	2.1000467812931	0.0274667625751681	0.0766040039435271	-0.042092644783084	0.0164357793630456	-0.00870436509856217	-0.00637244381064124	0.364013671875	-0.26953125	0.172119140625	0	0	0	-0.513742776547142	0.353949888267332	-0.592503910555837	-0.509634135549432	0.0473171851431679	0.240242039817545	0.96955909891787	-0.967598833245584	-0.229985048956652	0.104208325762345	0.248019317578111	-0.943075097519127	0.221575672282354	25.1878741768558	-75.8265924391016	78.8578486346032
20312	1649765289325	9.49616253210966	0.996657884518211	2.08942174195249	0.00373342390414767	0.0819672031847183	-0.0387741115906479	0.0163429422801386	-0.0104310647470287	-0.00751960925436282	0.364013671875	-0.27197265625	0.17041015625	0	0	0	-0.513835136423628	0.353851758434159	-0.592534621063414	-0.50957345738451	0.047383311788581	0.240236897813095	0.969557143593449	-0.967522764088121	-0.230247649164503	0.104334658793245	0.248303287805919	-0.943012329178872	0.221524771259132	25.2196929015507	-75.8261349072531	78.8424348665649
20313	1649765289328	9.52361206283181	1.01625806477422	2.07853841878168	-0.0153099178567949	0.0936208124263709	-0.012519518486517	0.0167030190814424	-0.00566157736014207	-0.00694203256185115	0.353271484375	-0.2705078125	0.17236328125	0	0	0	-0.513909959457075	0.353797813370392	-0.592528265771052	-0.509542849118213	0.047474723033358	0.240196641597752	0.969562645752232	-0.967477521298471	-0.230386384333647	0.10444788028407	0.248462062406059	-0.942988699443864	0.221447321650313	25.2513848248434	-75.8274224097516	78.8196251348139
20314	1649765289327	9.50128545600117	1.03027043758962	2.10086053765994	-0.0241926150568529	0.0642861153011757	-0.0277612289914426	0.0156535676588412	-0.00202577283534199	-0.00587670140832108	0.361083984375	-0.269775390625	0.16845703125	0	0	0	-0.513945557987592	0.353714982085082	-0.592599826692761	-0.509481226618884	0.0474223137045209	0.240256485522554	0.969550383078291	-0.967417460867708	-0.230629182342936	0.104468352433186	0.248705811293555	-0.942914100762195	0.221491349746745	25.2513225805884	-75.8245531068047	78.8343691243233
20315	1649765289327	9.49949894149861	1.02157603997804	2.07802219278566	-0.0206777262560041	0.0871807936509591	-0.035456369334641	0.014156197628546	-0.00275658334202072	-0.00253012562788183	0.35546875	-0.266845703125	0.169677734375	0	0	0	-0.513997080911388	0.353672362719034	-0.592608249525317	-0.509449038921312	0.0474626448865522	0.240234282281792	0.969553911320523	-0.967380530428261	-0.230755073181776	0.104532318204513	0.248841730199557	-0.942888957310152	0.221445721326616	25.2694132405817	-75.8253786103619	78.8241051812102
20316	1649765289329	9.52399386071172	1.01511688237286	2.13186434574463	0.000663860997579969	0.0438720766125369	-0.000458171153006503	0.013194043595063	0.000475462605025625	-0.00432403985181865	0.358154296875	-0.2685546875	0.17041015625	0	0	0	-0.514037840904756	0.353605436786358	-0.5926414755709	-0.509415718864517	0.0474785530165519	0.240268616098071	0.969544624615996	-0.967334917129441	-0.230917640897752	0.104595416842202	0.249015953516299	-0.94284040815004	0.221456586386212	25.281677108489	-75.8232058993358	78.8220109757031
20317	1649765289329	9.47353616105892	1.01695099770598	2.05556388205673	-0.0218801784888934	0.103235110981832	-0.0660836787744472	0.00905672688965231	-0.00120134279067937	-0.00171390750945497	0.35107421875	-0.274169921875	0.164794921875	0	0	0	-0.514070206650714	0.353575928821933	-0.592647169251685	-0.509396915940571	0.0475067906713446	0.240259578923018	0.969545480921779	-0.967310982107853	-0.230997689175885	0.104640009025904	0.249103530150918	-0.942823102353318	0.2214317703836	25.2935894111265	-75.8234062263988	78.8151203828001
20318	1649765289330	9.47528408127172	1.0266447337214	2.07808641544481	-0.0270902813739115	0.0801539864224617	-0.0583912611512574	0.00686854352066305	0.00434849633140464	-0.000728453133216481	0.352294921875	-0.264892578125	0.171142578125	0	0	0	-0.514022737796145	0.353599030195394	-0.592708921017034	-0.509356933613607	0.0473277215834015	0.240284913903136	0.969547960092891	-0.967316680235528	-0.23104648004924	0.104479491743468	0.249115489096607	-0.942804690382594	0.221496701746866	25.2531455036852	-75.8239862276861	78.8573684002641
20319	1649765289332	9.44606084306676	0.998783730315231	2.06591218700661	-0.00444797091109679	0.0913730877726805	-0.0923345533498736	0.00933047086891302	0.00397475715479941	0.00172202860065796	0.3662109375	-0.270263671875	0.167724609375	0	0	0	-0.514033788040848	0.353564847705429	-0.592737662973197	-0.50933606402108	0.0473079227202185	0.240316780543429	0.969541028238176	-0.967293892479859	-0.231137344709101	0.104489489672362	0.249207716612192	-0.942774295825925	0.221522326438827	25.252703491562	-75.8223645808537	78.863353202169
20320	1649765289334	9.46869038209633	0.98239830219935	2.0978838827546	0.0207618283007194	0.0709590524823732	-0.0650284374804055	0.00167886433449212	0.00417953739809213	-0.00105721484441316	0.359619140625	-0.26708984375	0.1669921875	0	0	0	-0.514044499984342	0.353517211778532	-0.592758764678129	-0.509333760818425	0.0473252557471836	0.240376945014082	0.969525267579015	-0.967271258472297	-0.231209402133785	0.104539585317505	0.249292263622203	-0.9427412883027	0.221567666024362	25.2587760932691	-75.8186781883544	78.8620936109991
20321	1649765289335	9.49125375945847	0.966416260333908	2.12996056110267	0.0457195877827091	0.0503831602995117	-0.0377213015110307	0.00467099611263562	0.00563579604601584	-0.00775285505832712	0.36376953125	-0.268310546875	0.1650390625	0	0	0	-0.514055530652188	0.353467993350858	-0.592759520220427	-0.509355907269627	0.0473930577291347	0.240446772648089	0.969504640320097	-0.967255480210247	-0.231233874812107	0.104631406100766	0.249340598544095	-0.942717478708493	0.22161457816483	25.2735105256324	-75.8138549237327	78.8496942276263
20322	1649765289336	9.4732642492562	1.01554736762596	2.1119757389223	-0.0054669693442129	0.0517648583385734	-0.0540089782996667	0.00793608721855307	0.0122678317450981	-0.0110134901383647	0.3583984375	-0.27294921875	0.163818359375	0	0	0	-0.51408928338497	0.353420501026369	-0.592707782053505	-0.509415001012154	0.0475828690949698	0.240489086576988	0.969484847641291	-0.967247855001802	-0.231180612396115	0.104819423040628	0.249334028089035	-0.94271974822294	0.221612316325995	25.3134726158992	-75.8092283182846	78.8080821258374
20323	1649765289337	9.47467162550198	1.02608194239645	2.13557545070978	-0.0088223108402315	0.0288311416865677	-0.0463154777020467	0.00925685162281189	0.0138054645562555	-0.00864379751957117	0.366455078125	-0.267333984375	0.166015625	0	0	0	-0.514089648541736	0.35333476113499	-0.592734896642665	-0.50944256019489	0.0476397777513785	0.240637280186054	0.969445280023817	-0.967220252863915	-0.231245648871511	0.104930607202368	0.24943021874998	-0.942665979688804	0.221732759671828	25.3249198455156	-75.7999836803545	78.8017611914115
20324	1649765289339	9.44696596876879	1.00826162166107	2.1467583805306	0.0106211411004319	0.0157054064161676	-0.0725657284267189	0.00644161635124309	0.0136688988639074	-0.00366297445191053	0.36083984375	-0.272216796875	0.167724609375	0	0	0	-0.514083207991258	0.353360286734623	-0.592685984298981	-0.509488259958746	0.0477196635487477	0.240619922122358	0.969445659533646	-0.96724628124734	-0.231116441446068	0.104975339515993	0.249313989025859	-0.942702096937912	0.221709926040485	25.3366450973716	-75.800072321605	78.7826702706585
20325	1649765289340	9.44663753959772	1.00861452087446	2.1480374781955	0.0106963724506517	0.0156749976273972	-0.0725657617684572	-6.59997399960659E-05	0.0140917012021086	-0.00235920007737592	0.352783203125	-0.273193359375	0.15673828125	0	0	0	-0.51404804003102	0.353318188853355	-0.592712837482231	-0.509521699488268	0.0477154994182932	0.240755059550166	0.969412312907288	-0.967245149499675	-0.231107790351942	0.105004809451727	0.249319176728573	-0.942669714449148	0.221841739931303	25.3296948631165	-75.792285692862	78.7897606382927
20326	1649765289341	9.41548879735609	0.971213049118578	2.11418780933338	0.0349865457731681	0.0479217867536535	-0.114184717167216	0.00194844926066797	0.00935428672495344	0.00237611817104301	0.361572265625	-0.26513671875	0.169677734375	0	0	0	-0.513962713810092	0.353479131537036	-0.592678591247825	-0.509535984850219	0.0475691820886334	0.240631951942182	0.969450069173196	-0.96733232682222	-0.230851167421081	0.104765967685282	0.249008719526301	-0.942764022544783	0.221789664761576	25.2844726510478	-75.8011023108568	78.8176956235533
20327	1649765289341	9.42028486882294	1.00276819384798	2.12794820480114	0.00787121228767516	0.0296372037952254	-0.103179947587318	-0.000513245922076622	0.00972630152752732	-7.59005105455393E-05	0.357666015625	-0.264892578125	0.16064453125	0	0	0	-0.513934918258065	0.353456695812865	-0.59269902881461	-0.50955581168538	0.0475524508545407	0.240718993284829	0.969429280912055	-0.967333945566231	-0.230842477925411	0.104770168180284	0.249005626789828	-0.942743929525507	0.221878527960256	25.2764968670081	-75.7962472969629	78.8254699164622
20328	1649765289342	9.41193062251092	0.948911040038463	2.12532798385884	0.0599434212853353	0.042330547142969	-0.117507933961155	0.00554704084168609	0.00493822194280445	0.000904883106472955	0.361572265625	-0.270751953125	0.166259765625	0	0	0	-0.51397451063045	0.353450362422404	-0.59265235024705	-0.509574563211615	0.0476720661002383	0.240672170910535	0.969435031481194	-0.967330079143376	-0.230813211662325	0.104870297542212	0.24899777528766	-0.942763049483449	0.221806087451321	25.3048644834669	-75.7975901563739	78.7959468720778
20329	1649765289343	9.41332865892243	0.9618536348249	2.09344784431845	0.0397248004362214	0.0698744432026645	-0.121867880110173	0.00650689190541101	-0.000424128997611888	-0.00130328026706348	0.364990234375	-0.266357421875	0.1630859375	0	0	0	-0.513997229372335	0.353429864286118	-0.592655476487426	-0.509562229190627	0.0476936344403147	0.240665749440922	0.969435564790106	-0.967313633522942	-0.23086733122595	0.104902858746794	0.249057526757406	-0.942751437240297	0.221788358456519	25.313508572223	-75.797714699721	78.790714623351
20330	1649765289344	9.44246720016064	0.990118808173746	2.10574637563522	0.0181031864220141	0.057119943163062	-0.0879200406767531	0.00764707061967378	-0.00233593019293553	-0.00122209846462616	0.36279296875	-0.265869140625	0.169921875	0	0	0	-0.514058332819527	0.353484584170714	-0.592554234678195	-0.509580374599929	0.0478562554371923	0.240484625723776	0.969472497601673	-0.96733140978858	-0.230752981152507	0.104990501121145	0.248957270333622	-0.942825650096414	0.221585358424932	25.3523033292309	-75.8063422032601	78.7452126176209
20331	1649765289345	9.44282888579565	0.987314683237968	2.15980192818521	0.0350127407308703	0.0065377956178024	-0.0758868967272388	0.00896284400628432	-0.00506066438233454	-0.00685948980409375	0.361328125	-0.277587890625	0.163330078125	0	0	0	-0.514111231864573	0.353454764319067	-0.592534929251043	-0.509570140871995	0.047944174395228	0.240446086155108	0.969477712891973	-0.96730634332502	-0.230816002223696	0.105082878151726	0.249037736708194	-0.942820053228696	0.221518741701688	25.3784775756998	-75.8075609087994	78.7233042489665
20332	1649765289346	9.41557220751671	0.969466488383226	2.16902353616571	0.0537769733677171	-0.00623622570058311	-0.102146830414853	0.0111551011925232	-0.00847824699318798	-0.00383800641046143	0.3544921875	-0.268310546875	0.164794921875	0	0	0	-0.514161749076982	0.353516151748176	-0.59247377470852	-0.509547694060033	0.0480023134715967	0.240258325567929	0.969521384445268	-0.967316257207152	-0.230774955862527	0.105081769538755	0.248988024700229	-0.942877964925442	0.22132805247852	25.3973558943806	-75.817770073807	78.7013844813726
20333	1649765289347	9.46535554123121	0.975901476465658	2.13551590969618	0.0427650484874758	0.0352785654423442	-0.0606263580098822	0.00658783528677335	-0.00509714872744113	-0.0121714860539873	0.3544921875	-0.274658203125	0.166259765625	0	0	0	-0.514218035385892	0.353480334771383	-0.592436431946944	-0.50955916154629	0.0481414540637691	0.240230896477345	0.969521282271987	-0.967294749652097	-0.230802227628306	0.105219765335692	0.249044710235156	-0.94287827851717	0.221262930027568	25.4330395609041	-75.8177461802037	78.6682198528471
20334	1649765289348	9.41886109932597	0.993690345792007	2.15818171393656	0.027972849105925	-0.00237903484438703	-0.0988145500956499	0.0115999891018941	-0.00411594114806362	-0.0061243804804371	0.356689453125	-0.262451171875	0.16796875	0	0	0	-0.514201809854286	0.353553628099767	-0.592441696671922	-0.509518563787977	0.0480253362039708	0.240124253933881	0.969553458946536	-0.967315915731679	-0.230781330425858	0.105070912716388	0.248984911700849	-0.942910557900148	0.221192661600137	25.4086476985214	-75.8252727656957	78.6899561559716
20335	1649765289350	9.46858541921654	1.00032623870336	2.12480164081886	0.0169375124887351	0.0391291637264106	-0.0572926364533348	0.0143221725729417	-0.00571083474138217	-0.0122519173148192	0.3603515625	-0.26513671875	0.169921875	0	0	0	-0.514279181816909	0.353497050044839	-0.592416566155661	-0.509508950759124	0.0481648955078653	0.240090738725087	0.969554836004214	-0.967275433412089	-0.230880929411867	0.10522467558215	0.249115191745049	-0.942894709717026	0.221113517518655	25.4490907266631	-75.8255949665824	78.6563982110684
20336	1649765289351	9.47030312809034	1.01107266871474	2.14686995802766	0.0145960775017307	0.0165733010755845	-0.0496206272228434	0.0108129468104583	0.000431018186230675	-0.00963741613387859	0.36376953125	-0.265625	0.16796875	0	0	0	-0.514369729061927	0.353365763619738	-0.592421748852755	-0.509502591173433	0.0483382171753651	0.24015952803026	0.96952917328804	-0.967202136401642	-0.231079493377994	0.105462292219868	0.249366084503099	-0.942828546893046	0.221112837852398	25.4993410732423	-75.8195916398455	78.6198175558095
20337	1649765289352	9.47020268478096	1.01226419194229	2.14675155320871	0.0146577135674957	0.0165023125347975	-0.0496205993166026	0.0133604760901597	-0.000349220823654834	-0.0100461741526891	0.353515625	-0.26171875	0.165283203125	0	0	0	-0.514425113462722	0.353303459610722	-0.592414298825192	-0.509498544270165	0.0484439279491029	0.240172101118496	0.969520782494727	-0.967164790306567	-0.231175797627356	0.105593650294942	0.249490389065625	-0.942801735486143	0.221086936131922	25.5296747266172	-75.8176293059945	78.5961630992228
20338	1649765289353	9.49563112812596	1.02251755040985	2.11442278012392	0.000123510078382051	0.0507934110014605	-0.0310332956306301	0.0123995673631918	0.00501421684565922	-0.00784006541671128	0.353515625	-0.269775390625	0.159912109375	0	0	0	-0.51450071341151	0.353209889082063	-0.592396125216688	-0.509508214832634	0.0486192101657815	0.240207904632405	0.96950313818727	-0.967114864299293	-0.231288306545397	0.10580434067997	0.249649777997531	-0.942765019401691	0.221063580307368	25.5764749658636	-75.8135037432915	78.5576487394465
20339	1649765289353	9.44399140949181	1.00849626753449	2.12505880811623	0.0147286632284731	0.032057083423004	-0.0802329567833553	0.0122216956936466	0.0036952860649988	-0.00612511646935762	0.36328125	-0.273681640625	0.166748046875	0	0	0	-0.514534603372201	0.353150481492819	-0.592406775969856	-0.50950278815626	0.0486778984127814	0.240249522307386	0.969489880935943	-0.967082094009824	-0.231383292564775	0.105896153695297	0.249765261098674	-0.94273110638875	0.221077758708004	25.5944013235133	-75.8104047277937	78.5461336395474
20340	1649765289354	9.47113375736876	1.02784500668451	2.11557873185697	-0.00584100641989457	0.0419695943579262	-0.053962152188717	0.0100299372805427	0.00924448419278721	-0.00514532342630783	0.359619140625	-0.266845703125	0.160888671875	0	0	0	-0.514491644362776	0.35325223413713	-0.592366326325298	-0.509522661315356	0.048629989025993	0.24015748849366	0.969515087498771	-0.967138779757806	-0.231199033366486	0.105780847316439	0.249555013686187	-0.942799760124503	0.221022413916025	25.5756754820698	-75.816297583025	78.5528397240703
20341	1649765289355	9.46774219002893	1.00640121589324	2.12569017038001	0.0179443827676102	0.0371908021274937	-0.0572868543134355	0.0122205026953992	0.00369350556363933	-0.00612581999623299	0.3583984375	-0.268798828125	0.170654296875	0	0	0	-0.514525262455123	0.35319392012507	-0.592376747736303	-0.509517024076265	0.0486876870560924	0.240197686377345	0.969502233410578	-0.967106464176965	-0.231292913926305	0.105871029628538	0.249668972994756	-0.942766492524236	0.221035618164346	25.5933600258926	-75.8132922215805	78.5414843726662
20342	1649765289356	9.46757694561829	1.00709500612745	2.12609752933523	0.0178453298498771	0.0363092017834318	-0.0572833515002138	0.00721369567009098	0.0069783506557762	-0.00416652033423297	0.365478515625	-0.26611328125	0.165283203125	0	0	0	-0.514530546641984	0.353202389058569	-0.592355096382891	-0.509530988974014	0.0487270243050714	0.240179719532423	0.969504708306102	-0.967113392802664	-0.231252487276965	0.105896046148748	0.249634457886113	-0.942780987002572	0.22101277787124	25.6009415260951	-75.8138708182378	78.5316365186045
20343	1649765289357	9.46423577478244	0.985265073860477	2.13617911191371	0.0416289533820254	0.0315223580725173	-0.0606085772855103	0.00685960661854884	0.00434346357742017	-0.000734722965543285	0.359619140625	-0.266845703125	0.169189453125	0	0	0	-0.514539078687108	0.353172488322624	-0.592371262588035	-0.509524304872383	0.0487309615037265	0.240213018074776	0.969496260610803	-0.967097205111401	-0.231308352472643	0.105921867157389	0.249696394160265	-0.942758798433512	0.221037459991656	25.6038917724439	-75.811895958036	78.5322821734823
20344	1649765289357	9.4655182666036	0.998531936598868	2.10457091782191	0.0225289759557358	0.0584505465219375	-0.0649493306276074	0.00730019868237478	0.00656775681794778	-0.00702689456959524	0.36474609375	-0.26318359375	0.162109375	0	0	0	-0.514594792447395	0.353120152565766	-0.592326147037019	-0.509556761287918	0.04891178677642	0.240220002983524	0.969485423965174	-0.967075169457815	-0.231316129755396	0.106105912809437	0.249746378817546	-0.942755110451055	0.220996714875905	25.6467979626568	-75.8093630150528	78.4911882599448
20345	1649765289358	9.48306533517138	0.951439468514711	2.12391543574486	0.0746474609273665	0.0559391207311314	-0.0486676749552597	0.0111650942324235	0.00519267276446209	-0.00906899612841958	0.359375	-0.271728515625	0.17236328125	0	0	0	-0.51462683388991	0.353053816304221	-0.592330467452899	-0.509565346114217	0.0489952402401116	0.240280223968482	0.969466286367643	-0.967044094678047	-0.231392321665046	0.106222937366534	0.24985032595962	-0.94272106555657	0.221024449266943	25.668641807614	-75.8048908999643	78.4748890276199
20346	1649765289359	9.48599656580431	0.974904669470766	2.11489882108512	0.0515895055585478	0.0598937007107882	-0.0453377715433003	0.0103766014067285	0.00973642120145161	-0.0125850473594244	0.365478515625	-0.263916015625	0.16455078125	0	0	0	-0.514673639592741	0.352989482536698	-0.592292411716335	-0.509606876866946	0.0491762484834427	0.240323808823265	0.96944631800723	-0.967021335683748	-0.231398512536782	0.106416468312877	0.249902846957604	-0.942708436001527	0.221018939853671	25.709941515212	-75.8002261210736	78.4354971766671
20347	1649765289359	9.46151050168808	0.980069547390551	2.11608761361659	0.0470602161064374	0.0528200931525874	-0.068276699814259	0.0130995666256202	0.0102714003552702	-0.0147104073198623	0.366943359375	-0.26953125	0.16748046875	0	0	0	-0.514705732436911	0.352890014072849	-0.592298531188613	-0.509636239798603	0.0493021758389517	0.240444566220326	0.969409978302609	-0.966982618872476	-0.23147908210321	0.106592914150911	0.250027818964357	-0.942657862176822	0.221093293928496	25.7395227935921	-75.7917407058126	78.4123492169589
20348	1649765289360	9.48532400813046	0.978181589172857	2.11640173122938	0.0535613306709923	0.0583612024154629	-0.0453391083247663	0.0141498892801881	0.00663095858454974	-0.0157720740864884	0.362548828125	-0.270751953125	0.169189453125	0	0	0	-0.514815613758404	0.352827565260142	-0.592181550464866	-0.509704428381965	0.0496674409632542	0.240392838235514	0.969404161654589	-0.966957396476648	-0.23142820976083	0.106931646980685	0.250053071781304	-0.942683545550665	0.220955186046317	25.8247418374857	-75.7903829641824	78.3264041670176
20349	1649765289360	9.48984810651047	1.01165340452385	2.13018965556677	0.026460893048457	0.0400368008188961	-0.0343406677530726	0.0162623642240287	0.0172994202295711	-0.0151257733090928	0.3671875	-0.262939453125	0.165283203125	0	0	0	-0.514836274829126	0.352699826142495	-0.592209465302993	-0.509739533452788	0.0497815636891952	0.24057982385158	0.969351919723793	-0.96691048234791	-0.231536881348776	0.10712045416733	0.250211740416773	-0.942609155976551	0.221092885518245	25.850387851149	-75.7781941667924	78.3091628637098
20350	1649765289361	9.51664320875292	1.03220683039081	2.12165100603909	0.00873266197091143	0.0507056440037909	-0.00806069871922332	0.0215307398757915	0.0170516045482482	-0.0176601931015121	0.35791015625	-0.268310546875	0.165771484375	0	0	0	-0.514922258482146	0.352567565120323	-0.592165703955485	-0.509795016456298	0.0500717821680629	0.240676475787068	0.969312978677801	-0.9668560233843	-0.231610306442899	0.107452761690545	0.250364228027913	-0.942566443255935	0.221102359489545	25.9191261669839	-75.7691153092451	78.2474892112423
20351	1649765289362	9.51438163404981	1.0245373541406	2.10071264118907	0.0123014629782865	0.0735129261337338	-0.0157198526561881	0.0188045157574368	0.0186506521445285	-0.0115353658345399	0.3671875	-0.271240234375	0.170654296875	0	0	0	-0.514939472130953	0.352438085020719	-0.592210176987011	-0.509815498530044	0.0501490049998822	0.240867290311571	0.969261587888163	-0.966804416149224	-0.231751107370982	0.107613405980311	0.250547995824915	-0.942483088808646	0.221249472536849	25.9377988603846	-75.7571425484543	78.2389337084374
20352	1649765289363	9.468960791794	1.05218364539889	2.14816679604604	-0.00413494657167846	0.0129446164147009	-0.0462783909693556	0.0206468113774576	0.0262730873917002	-0.0103193226715059	0.36474609375	-0.27099609375	0.17431640625	0	0	0	-0.514926478611308	0.352341549465686	-0.59225445071001	-0.509843917056252	0.0501801962686079	0.241054671418346	0.969213388934469	-0.966774644757616	-0.231829225521714	0.107712564020116	0.25065660604945	-0.942415967384571	0.221412308290156	25.9419749365149	-75.7459223552962	78.2407156289034
20353	1649765289365	9.47318886086403	1.08530193502318	2.16321769905473	-0.0312293640746423	-0.00538507628149945	-0.0352800680305378	0.0206424819591547	0.0262674677317677	-0.0103227289245577	0.36474609375	-0.262939453125	0.171630859375	0	0	0	-0.51492363159937	0.352190598848858	-0.592324735351039	-0.509869437791991	0.050226379947609	0.241314035258628	0.969146452887569	-0.96671908395627	-0.231989876976324	0.107865238586215	0.250861562364802	-0.942310051611309	0.221630871406	25.9516630052844	-75.7303547008786	78.2424924959673
20354	1649765289364	9.47079482679882	1.07703624046091	2.1431586327949	-0.0266574196257437	0.0180428406689559	-0.0429353772316094	0.0206370118397961	0.0284018017135543	-0.00632402832686797	0.35986328125	-0.271240234375	0.169921875	0	0	0	-0.514950309777601	0.351956786685315	-0.592436929392615	-0.5098735955685	0.0502898099959949	0.241655382010084	0.96905810525279	-0.966616407337812	-0.232310673696394	0.108094736005357	0.251244216004881	-0.942143527936316	0.221905197532201	25.9716969510537	-75.7098326713177	78.2442234512237
20355	1649765289364	9.47326394916948	1.10035735449408	2.13610109266523	-0.0502726122999171	0.0226379520097435	-0.0395914634535881	0.0170313209706746	0.030672636626164	-0.0088671089112124	0.36376953125	-0.269287109375	0.16357421875	0	0	0	-0.514922816161986	0.35180840639669	-0.592515940722801	-0.509911951785604	0.0503114103559905	0.241953568853607	0.968982575956345	-0.966570270338582	-0.232441293229634	0.108226418675548	0.251417331315068	-0.942034774156845	0.222170677168862	25.9721892455052	-75.6923110322109	78.25340579604
20356	1649765289366	9.44694987411646	1.09212993499546	2.17104988474387	-0.0353024828781058	-0.0133211662552181	-0.0582195106326821	0.0151814856764182	0.0273248174378219	-0.00208139317331613	0.36669921875	-0.262939453125	0.162109375	0	0	0	-0.514862284781094	0.351803075137204	-0.59254600691747	-0.509941814053486	0.050247652020337	0.242067701238976	0.968957378569006	-0.966588241471599	-0.232387885207693	0.108180600190313	0.251360985268763	-0.942018629765661	0.222302848067997	25.9492286994498	-75.6864702964431	78.2732574204204
20357	1649765289366	9.47040472035726	1.08917098349943	2.17343955298058	-0.0305869121508127	-0.00647672031103295	-0.0352786993075504	0.0118390232905419	0.0326352029142118	-0.00520315470674382	0.365234375	-0.265625	0.1630859375	0	0	0	-0.514809184152196	0.351675129177869	-0.592630029866953	-0.509986034250129	0.0502285024352466	0.242374904741413	0.968881573307442	-0.96655725009612	-0.23247769677511	0.108264503826355	0.251483955412148	-0.941917473058936	0.22259221486056	25.9373829944706	-75.6689127462371	78.2920502393884
20358	1649765289367	9.4438265621696	1.08387221676581	2.15425643396574	-0.0292714388892483	0.00690986122515479	-0.0658645688831747	0.00911130837888684	0.0320973857329203	-0.00308254703761278	0.3671875	-0.274169921875	0.169189453125	0	0	0	-0.514825597679912	0.351661149525077	-0.592520821989837	-0.510105984474512	0.0505070228463793	0.242408511475441	0.968858686397277	-0.96658515741565	-0.232252641035982	0.108498129917402	0.251320858877566	-0.94196434343136	0.222578079776446	25.9874273857748	-75.6636159579448	78.230521884242
20359	1649765289368	9.46402535649792	1.05856750705571	2.16669994663354	-0.000808894503888727	0.00901100050762263	-0.0462731276013457	0.00155468661767398	0.0340180014744567	-0.00473264321025337	0.372802734375	-0.274169921875	0.17138671875	0	0	0	-0.514742142294961	0.351561808472492	-0.592590224224823	-0.510178055116368	0.0504822419534501	0.242725699267542	0.96878056244045	-0.966580413036427	-0.232245293802462	0.108556108261755	0.251344083641694	-0.941884471908147	0.22288964353829	25.9679213485256	-75.6455499036043	78.2510806568594
20360	1649765289368	9.44395438160294	1.09454184514792	2.18283563918373	-0.0325724022165577	-0.0175635809021572	-0.0582167284204367	0.00155672336898403	0.0318724687159249	-0.00873641339585403	0.361572265625	-0.2666015625	0.1767578125	0	0	0	-0.514663100626468	0.351558573352239	-0.592562584673108	-0.510292117910531	0.0505523054961295	0.242891581828196	0.968735332217228	-0.966628483481318	-0.232017047801847	0.108616133478976	0.251145056355153	-0.941897961037347	0.223056924712178	25.9634683295015	-75.6351006456755	78.2430397086109
20361	1649765289369	9.41423575407099	1.06400591535672	2.22808330694201	0.00687249726059411	-0.0570262189408565	-0.0802160260717617	0.000577799575883638	0.0372271409225112	-0.00654674358570223	0.361083984375	-0.280029296875	0.16943359375	0	0	0	-0.514570901594943	0.351449741031159	-0.59263349725141	-0.510377707875708	0.0505372349293892	0.243242231659653	0.968648132514033	-0.966625472090504	-0.231995349665339	0.108689256320331	0.251159679470056	-0.941812812861924	0.223399733521796	25.9440178078723	-75.6149764113423	78.26292030918
20362	1649765289369	9.43582986353097	1.05167058777447	2.20885522967797	0.0130522024631824	-0.0269682464658006	-0.0649163902694614	-0.00196748709430592	0.0358602093013406	-0.0101481388726083	0.364013671875	-0.27392578125	0.167724609375	0	0	0	-0.51441080682799	0.351386817315225	-0.592747486492321	-0.510450040349386	0.0503554437482268	0.243621604386315	0.968562255697153	-0.966650309201693	-0.231936121848775	0.108594728702744	0.251100595389959	-0.941729339703287	0.223817652871306	25.8823306682966	-75.5951843760412	78.3216881002308
20363	1649765289369	9.39151969578722	1.09139526423316	2.22536176004643	-0.0232914555243035	-0.0592091718634313	-0.0998107709006479	-0.00100382821725926	0.0326354384197038	-0.0083432806686835	0.35595703125	-0.2666015625	0.16943359375	0	0	0	-0.514330765788938	0.351289989992459	-0.592799742494637	-0.510536650586768	0.0503676164587809	0.243933490870201	0.968483120784321	-0.96665048913744	-0.231895342677486	0.108680181702277	0.251097461282686	-0.941658644136169	0.224118412588126	25.8698152853178	-75.5769696847287	78.3334680194882
20364	1649765289370	9.41007935953828	1.05383760550122	2.26987797801955	0.0241206880735208	-0.0854989182233544	-0.0759209312393292	-0.00354671142064533	0.0312696837556515	-0.0119447434879661	0.359375	-0.274658203125	0.17333984375	0	0	0	-0.514211435965128	0.351285211772615	-0.592820117767667	-0.510636472534503	0.0503260159195977	0.244161401210919	0.968427850838864	-0.96670089392656	-0.231698185814778	0.108652346370106	0.250911685266448	-0.941648108822431	0.2243705982251	25.8387692099629	-75.5642613984705	78.3534239029643
20365	1649765289371	9.3883802020308	1.08042055249444	2.26319505631144	-0.00412434757865025	-0.0878660962656199	-0.0955218693207698	-0.009341940268389	0.0254408058329347	-0.0082647124774473	0.360595703125	-0.271240234375	0.173095703125	0	0	0	-0.514131029494915	0.351232181077738	-0.592839435031062	-0.510731479113952	0.0503547184948523	0.244404797362505	0.968364960823912	-0.966722248759471	-0.2315786224349	0.108717226714926	0.250823635406902	-0.941614377894341	0.224610478971749	25.8281715025232	-75.5498143255865	78.3582511114486
20366	1649765289371	9.38612205400968	1.07161960107865	2.24307724207675	-0.00272373788473713	-0.0646590976929405	-0.103163037328351	-0.0043288153852822	0.0221559427091364	-0.0102087322148319	0.36376953125	-0.260986328125	0.162109375	0	0	0	-0.513998497793553	0.351211489488431	-0.592920991189842	-0.510784428231465	0.0501903757155471	0.244665262932894	0.968307717257024	-0.966753974952453	-0.231499515055147	0.108603528685142	0.250734277870348	-0.941566186544106	0.224912067834578	25.7745520716342	-75.5366766315038	78.4072336841887
20367	1649765289373	9.43385567441041	1.06511244817906	2.24469135293211	0.0065834018345411	-0.0509085476712126	-0.057273414170993	-0.00723229609258318	0.0203108743055574	-0.00636934154256286	0.359130859375	-0.263427734375	0.164794921875	0	0	0	-0.513934771600258	0.351170419726914	-0.592936247598953	-0.510859073651714	0.0502118851841935	0.244856345455613	0.968258300597713	-0.966771103276085	-0.231404686353071	0.108653140792975	0.250663919335413	-0.941539824555477	0.225100773698029	25.765983805204	-75.5253446388066	78.4112057719327
20368	1649765289374	9.41402493607259	1.10070996321256	2.25960855303715	-0.0231892561001912	-0.0780406354728632	-0.0692469865406622	-0.00618247145332402	0.0188167365304022	-0.00342049527349408	0.358642578125	-0.27001953125	0.175048828125	0	0	0	-0.513947568354199	0.351193608404124	-0.592818833340825	-0.510966512831634	0.0504577605050281	0.244830941904484	0.968251942570208	-0.96681134614783	-0.231152544361541	0.108831623138711	0.250459248910153	-0.941608363982261	0.225041892797793	25.808692093972	-75.5238872765889	78.3548291130209
20369	1649765289374	9.40720504057762	1.05632674942261	2.28060951180742	0.0243345330967724	-0.0876612118016887	-0.0759406906398521	-0.00653609130504435	0.0161948050523577	1.8928593849739E-05	0.361328125	-0.26708984375	0.167724609375	0	0	0	-0.513887233012516	0.351177713318089	-0.59284006298101	-0.511013488217376	0.0504297467866998	0.244967050292479	0.968218975702311	-0.96683002386326	-0.231078857057177	0.108822179622156	0.250392782634798	-0.941591050346249	0.225188250830836	25.7921471181656	-75.5163330411221	78.367408460471
20370	1649765289375	9.4325561050454	1.06541967368588	2.25000062848017	0.00813485497767212	-0.0529946655501707	-0.0572856939772954	-0.00758849760777147	0.0176851195713886	-0.00293243998172931	0.36767578125	-0.26611328125	0.166015625	0	0	0	-0.513801545508059	0.351159233898405	-0.592883933981765	-0.511061449443921	0.0503516665483822	0.245147931112616	0.968177257296929	-0.966852559498323	-0.231006774680327	0.108774989052332	0.250321469049986	-0.941561661243169	0.225390328562831	25.762289915614	-75.5067789467165	78.3932668817716
20371	1649765289376	9.38376744437334	1.07273928930625	2.25237435111711	-0.00102091928974222	-0.067030657224647	-0.10317879164646	-0.00329775634188646	0.0227920741690498	-0.0032633053612738	0.3642578125	-0.261474609375	0.171875	0	0	0	-0.513735504547557	0.351108473526865	-0.592919613798985	-0.511121319020607	0.0503383427801961	0.245353932559759	0.968125766119054	-0.966861487752745	-0.23095567412054	0.10880413637393	0.250289661685602	-0.941520538474328	0.225597342369804	25.7477120966451	-75.4949952428873	78.4057335935208
20372	1649765289377	9.43135543994925	1.06280737803972	2.30913643672784	0.0275754308437322	-0.104613827749937	-0.0453729578814048	-0.00235242112563907	0.0331994474707659	-0.00672695072100176	0.36669921875	-0.265380859375	0.170654296875	0	0	0	-0.513737520990422	0.350984271201068	-0.592884338143451	-0.511245501183407	0.0505964059073142	0.245591322408949	0.968052119499093	-0.966846479982816	-0.230876157778364	0.109105838131325	0.250295600948361	-0.941478147450553	0.225767601792142	25.792905718334	-75.4781575506699	78.3588715539263
20373	1649765289378	9.44010139848322	1.12685508058195	2.33784289633286	-0.0267409465639951	-0.141156550685147	-0.0233980587986533	-0.00884515228678432	0.0314825104770527	-0.00944330276314601	0.36474609375	-0.2626953125	0.1767578125	0	0	0	-0.513643032591905	0.350911595960782	-0.592916077028037	-0.511353510295697	0.0506231548438795	0.245892841956159	0.967974176550375	-0.966866027240003	-0.230757278657051	0.109184081788166	0.250214670958331	-0.941428589231024	0.226063773780097	25.7795724176303	-75.4603583788282	78.3667777616182
