// Start Time : 21/12/2021 10:25:09																																
// Update Rate : 100Hz																																
// Filter Profile : 46.1 human																																
// Firmware Version : 4.4.0																																
PacketCounter	Time_Of_Arrival	Acc_X	Acc_Y	Acc_Z	FreeAcc_X	FreeAcc_Y	FreeAcc_Z	Gyr_X	Gyr_Y	Gyr_Z	Mag_X	Mag_Y	Mag_Z	VelInc_X	VelInc_Y	VelInc_Z	OriInc_q0	OriInc_q1	OriInc_q2	OriInc_q3	Mat[1][1]	Mat[2][1]	Mat[3][1]	Mat[1][2]	Mat[2][2]	Mat[3][2]	Mat[1][3]	Mat[2][3]	Mat[3][3]	Euler_X	Euler_Y	Euler_Z
26111	1640082357174	9.53491691079082	0.409328657297262	-1.21444977434295	0.0726950017416725	0.0986217367190185	-0.192808889210356	-0.0102638941692399	0.0865369591707904	-0.0168009453168966	0.629638671875	0.341796875	0.218505859375	0	0	0	-0.690895392283776	-0.302988627936259	-0.612376272314222	0.236340325312648	0.0663863848956826	0.12920847908611	0.989392751556598	0.708125308736069	-0.70468228394483	0.0445132095196998	0.702959027986645	0.697658976597128	-0.1382771034753	162.155953392879	-81.6473624050211	62.806228023549
26112	1640082357175	9.5177469054447	0.428778882143243	-1.05630015919487	0.188370151552077	0.187174812958651	-0.230589537953946	-0.0192904839174947	0.118574586699353	-0.0137813358286871	0.6298828125	0.33544921875	0.2158203125	0	0	0	-0.690534122366627	-0.302836994918806	-0.612831282950772	0.236411080520372	0.065455146290916	0.128478345454653	0.989549866643046	0.707998768570965	-0.704799111031475	0.0446761322323344	0.703173781881857	0.697675804251859	-0.137095239288202	161.950422205611	-81.7095619925377	63.0027759069912
26113	1640082357176	9.49595210327321	0.410597421701935	-0.993745108667022	0.209444278050032	0.23391620083849	-0.261214529789079	-0.0118917586572882	0.107817742561503	-0.00810427948244283	0.6259765625	0.3388671875	0.225830078125	0	0	0	-0.690202746292665	-0.302698598844679	-0.613235310422119	0.236508311310656	0.0646320246179107	0.127776313035075	0.989694859651676	0.707917303851081	-0.704874753876899	0.0447735664784032	0.703331921856249	0.697728310429025	-0.136012545464938	161.779125355019	-81.7673766254894	63.1687262175981
26114	1640082357177	9.47449452642517	0.463273433860042	-0.918531075585559	0.292287945082166	0.24128669451237	-0.290045181069157	0.000669506327168279	0.0578675395319999	-0.00158465059158251	0.631591796875	0.33740234375	0.224365234375	0	0	0	-0.690022095205285	-0.30263767686485	-0.613435847030584	0.236593335172876	0.0642137962394333	0.127383701829561	0.989772691520997	0.707923033683816	-0.704868060587243	0.044788341606727	0.703364462247293	0.697806856997103	-0.135440110659291	161.701598683663	-81.7985783076269	63.2474446221104
26115	1640082357178	9.57776507451392	0.464463254387152	-0.926659786829078	0.291835058597259	0.245369030725222	-0.186544077521349	0.0124369423160711	0.0100165320126862	0.00555338985907829	0.626708984375	0.332275390625	0.2080078125	0	0	0	-0.689979718473634	-0.3026425907019	-0.613451242781802	0.236670706082839	0.0641700700454104	0.127262621508128	0.989791102848094	0.708006376614385	-0.704788878350985	0.0447169724615823	0.703284560319461	0.697908921077557	-0.135329099223427	161.714827199994	-81.8059764025319	63.2412307813964
26116	1640082357179	9.67710781780655	0.499265801641455	-1.01961585715169	0.258671079014252	0.168384683518527	-0.0741025654664629	0.0226950591611183	-0.0223576254818398	0.0116507805078586	0.62060546875	0.337158203125	0.219970703125	0	0	0	-0.690039058929012	-0.302698460858199	-0.613325972996866	0.236750902414097	0.0644097852830513	0.127336566977679	0.989766021982029	0.708158477301728	-0.704645304000376	0.0445709162561809	0.703109486911882	0.698040395865853	-0.135560522107118	161.799662677693	-81.7958999682092	63.1686568038627
26117	1640082357180	9.69998434016274	0.51719998611473	-1.07308105305266	0.237172700364597	0.121292577474168	-0.0434636532484536	0.0220262425845474	-0.0118171016657783	0.013133737713044	0.625	0.342041015625	0.218505859375	0	0	0	-0.690054743743271	-0.302729941265881	-0.613252983264453	0.236853988389079	0.0645507223568109	0.127297634131912	0.989761848419928	0.708303294042659	-0.704509541690685	0.0444156426847525	0.702950672445466	0.698184515734343	-0.13564193340287	161.869083551205	-81.7942243995671	63.1111169844596
26118	1640082357181	9.7153925993225	0.522459514650329	-1.14351316931887	0.193024718310222	0.0684848314418201	-0.0184293584101205	0.0104431867691361	0.0313802849739855	0.0199853892583341	0.620849609375	0.333984375	0.216552734375	0	0	0	-0.689976393866794	-0.302655839379121	-0.613321767035199	0.236998795096339	0.064471705941082	0.126937729687667	0.989813220721358	0.708363808862466	-0.704462028025207	0.0442036804403532	0.702896943674467	0.698297976405742	-0.135335962407409	161.911831629959	-81.8148726540548	63.0739730805636
26119	1640082357182	9.6664749195187	0.516081836742089	-1.11629098297783	0.201908971370067	0.0805296713860329	-0.0707200503746836	0.00285288349418242	0.0685597175278353	0.0200802465123222	0.6259765625	0.335205078125	0.216796875	0	0	0	-0.689769862291536	-0.302509000709717	-0.613556981568531	0.237178565499576	0.0640722697162424	0.126278054041635	0.989923531047154	0.708368313004332	-0.704469265114343	0.0440157658192403	0.70292892769099	0.698410271671827	-0.134588316872152	161.890183814608	-81.8593858414733	63.0972011533643
26120	1640082357183	9.51487741476897	0.508729883389594	-1.07500017449393	0.211726163898454	0.0887736309695241	-0.226519806642996	-0.00632224799458696	0.0912504927735338	0.0144727706714933	0.634765625	0.3330078125	0.215576171875	0	0	0	-0.689519239529854	-0.302331445236329	-0.613864024707744	0.237339155448682	0.0635333127818445	0.125538758041701	0.990052290738379	0.708314634779561	-0.704531645024438	0.0438809675856979	0.703031931226499	0.698480623488231	-0.133682168921032	161.827656956833	-81.9116515959537	63.1567013360314
26121	1640082357184	9.47315750459127	0.444455032877245	-1.0408686432319	0.181641718284191	0.146150274964162	-0.27500927059071	-0.0118898253240668	0.0714554570048952	0.0017589180499474	0.622802734375	0.344482421875	0.2138671875	0	0	0	-0.689282711632393	-0.302198909005925	-0.61416521907383	0.237415767210853	0.0629538061512462	0.124975953542639	0.990160506850874	0.70822598026518	-0.704619145750621	0.0439069506922287	0.703173363523176	0.698493285921757	-0.132869674319353	161.713797260741	-81.9558392383722	63.2643544397337
26122	1640082357185	9.43909599023239	0.420390061841651	-1.03761859978613	0.161194610180432	0.157900486251482	-0.3101089550882	0.00647904004980941	0.0288023081556477	-0.00618620583322864	0.63427734375	0.33935546875	0.212158203125	0	0	0	-0.689177218105538	-0.302205931103752	-0.614262030885996	0.237462617398692	0.0627074652350515	0.124818346540507	0.990196018054349	0.708275425031805	-0.704566161087753	0.0439596058453885	0.703145572481126	0.698574910096949	-0.132587325499948	161.656951783446	-81.9703920882185	63.3255128087877
26123	1640082357186	9.46188341621419	0.413478394174735	-1.04165099930795	0.153123753302788	0.162467195663815	-0.287279447404133	0.0145536386439914	-0.0245483108051778	-0.0117601788962914	0.62353515625	0.331787109375	0.211181640625	0	0	0	-0.68917156502797	-0.302310474016906	-0.614222399549011	0.237448468406993	0.0626784423838563	0.124995228936795	0.990175542822267	0.708379901073518	-0.704453204301694	0.0440862643478428	0.703042906667442	0.698657194690009	-0.132698137486856	161.621979431504	-81.9619979361997	63.3686763427049
26124	1640082357187	9.54162864170141	0.42322640984864	-1.05213645076956	0.159695781506135	0.161334561128586	-0.206582258018718	0.0299861566589868	-0.0492842212055542	-0.0086774660191713	0.628173828125	0.3359375	0.214111328125	0	0	0	-0.689274175093069	-0.302490965556921	-0.614017524388376	0.23745064129242	0.0629633910008237	0.125400711653097	0.990106192744281	0.708596131376313	-0.704232817412522	0.0441323178379145	0.702799497717665	0.698806697446526	-0.133199345387577	161.668658282975	-81.9336312240923	63.338884570078
26125	1640082357188	9.5413213263958	0.450740885888118	-1.10477858790926	0.144037655680844	0.108153320951336	-0.1987355663101	0.0493564518537266	-0.0556297649835347	-0.0117171439205511	0.6279296875	0.33349609375	0.2119140625	0	0	0	-0.689309771118493	-0.302732856919374	-0.613833037363656	0.237516018455414	0.0631236391646839	0.125763074564264	0.990050026642467	0.7089437906883	-0.703877916637043	0.0442106335082386	0.702434415317979	0.699099082782147	-0.133590286435991	161.688452675436	-81.9107296635465	63.3467783829673
26126	1640082357189	9.62164601910845	0.531887580115676	-1.10093387656965	0.212289483398148	0.0675751687630135	-0.116224223793919	0.0416152974755891	-0.0380620841944807	-0.0102469146650702	0.635986328125	0.33984375	0.209228515625	0	0	0	-0.689361628621763	-0.302941086533514	-0.613651008117102	0.237570375490527	0.063318276653518	0.126101320741339	0.989994572080533	0.709242522415419	-0.703574029558369	0.0442564043818952	0.702115261363433	0.699344008223628	-0.13398551385231	161.72122935421	-81.8881812431722	63.3377554645914
26127	1640082357190	9.65154748332255	0.510121695450336	-1.04144686244199	0.240758865159323	0.129767074645076	-0.0955684729404549	0.0409525860188779	-0.0275088485232744	-0.00877496653452322	0.62939453125	0.34423828125	0.211181640625	0	0	0	-0.689311740607844	-0.303112723630672	-0.613588125070474	0.237658607683121	0.0632645790913914	0.126229319262195	0.989981692755473	0.709527317242778	-0.703282125934632	0.0443309984901203	0.701832301279056	0.699614472620076	-0.134055997933241	161.701457844768	-81.8829532746072	63.3805356579721
26128	1640082357192	9.61719837932372	0.530826354909271	-0.98232564123433	0.296247120035005	0.154216535403076	-0.136649975129433	0.044659597312225	-0.0183877473304689	-0.00747544118341808	0.62548828125	0.335693359375	0.21484375	0	0	0	-0.689303732793791	-0.303297341721869	-0.61346593260094	0.237761721055037	0.0633405440850127	0.126410547702971	0.989953710485723	0.709845411478302	-0.70296017301079	0.0443450895121598	0.701503718648886	0.699905256867011	-0.134257827078011	161.721714922789	-81.8716062383512	63.3859206638091
26129	1640082357190	9.57843932768376	0.487199329021974	-0.971571216847519	0.2690386651403	0.187509512626805	-0.178359574794857	0.0404566967724266	-0.015134196542902	-0.00788220059724393	0.630126953125	0.337890625	0.217041015625	0	0	0	-0.689194911924981	-0.3034474039732	-0.613471578114	0.237871118980347	0.0631445917364885	0.126414472213115	0.989965727563087	0.71012315520758	-0.702674007553926	0.0444335857897577	0.701240233423941	0.700191845370384	-0.134139907202713	161.672647308786	-81.8764773314804	63.4576675472222
26130	1640082357191	9.53613035982617	0.477634923551527	-1.04181753013656	0.211395535753472	0.141153303899754	-0.21129743730507	0.0459964370690669	-0.0178601134691765	-0.00667111610377354	0.628173828125	0.343505859375	0.21142578125	0	0	0	-0.689184840878351	-0.30363271338551	-0.613348166257116	0.237982052715467	0.0632224046223708	0.126586415249837	0.98993878953598	0.710449837790381	-0.702343435894971	0.0444378896761256	0.700902243923777	0.700492382206575	-0.134337139068731	161.696106048772	-81.8655620997306	63.4605921481158
26131	1640082357192	9.43341381399364	0.521233000557827	-0.970110251852943	0.284828633660683	0.147815049261518	-0.320631921420773	0.0533153197670134	-0.0296196146323621	-0.0086854671748883	0.630615234375	0.33251953125	0.21240234375	0	0	0	-0.689081258292359	-0.303836778030406	-0.613311441035029	0.238116165099847	0.0630645772232757	0.126657721939132	0.989939735828823	0.710815195343621	-0.701967808468489	0.0445303710130296	0.700545942225248	0.700855917680044	-0.134299536427356	161.655768672201	-81.8659452890299	63.5306712336826
26132	1640082357193	9.42148216269706	0.543360712245625	-1.07556258536766	0.228996541475546	0.060629733249374	-0.317410490809983	0.0364740948178389	-0.06723924555762	-0.0109144060727221	0.626220703125	0.332275390625	0.2060546875	0	0	0	-0.689227385393879	-0.304066262039557	-0.613037322462386	0.238106196434613	0.0634578991148809	0.127205619296072	0.989844344055887	0.711077559791983	-0.701698295017466	0.0445893118343333	0.70024409958257	0.701026556693171	-0.134981360975181	161.719709296507	-81.8274073716121	63.4871889347866
26133	1640082357193	9.47725723891756	0.515687039721148	-1.14968592440356	0.163106369739175	0.0393362472767174	-0.253505601898956	0.0615487853216604	-0.10345005018756	-0.0102125483271398	0.63427734375	0.3291015625	0.208740234375	0	0	0	-0.689318471394854	-0.304389735227407	-0.612755858230196	0.238153715668318	0.0637542945855291	0.12778276512038	0.989750955978367	0.711503102860582	-0.701259393603126	0.0447056764084843	0.699784770155557	0.701360697374444	-0.135626131835899	161.756521368212	-81.7898529882549	63.4841443931885
26134	1640082357194	9.57174514458754	0.54990469753104	-1.12825506209293	0.215552016608574	0.0501262472352902	-0.161538470020607	0.0790163643068426	-0.106276242639794	-0.0140717825123988	0.6318359375	0.34375	0.207763671875	0	0	0	-0.689528432547074	-0.304806779284754	-0.612285920707069	0.23822115631305	0.0643975572119036	0.1286269614498	0.989599949178117	0.712064801549954	-0.700687015973857	0.0447372779600659	0.699154255525034	0.701778320008422	-0.13671326397754	161.880125187474	-81.7294865714081	63.4049957356793
26135	1640082357195	9.6168422539672	0.579926845405894	-1.08386975062896	0.27351235237899	0.071170235273256	-0.121719274952259	0.0665701499305694	-0.0909171374345657	-0.0112880910379509	0.632080078125	0.336181640625	0.205322265625	0	0	0	-0.689555690149622	-0.30513605162077	-0.612063403402126	0.238292531144752	0.0645407604341875	0.129116326094253	0.989526889265016	0.712516876565309	-0.700217319203829	0.0448932789693507	0.6986803209281	0.70215716205343	-0.137190119632868	161.880141238253	-81.7004366853407	63.4411271277701
26136	1640082357196	9.66926563641844	0.577349488072303	-1.08159978645207	0.282551065831454	0.0877354599294146	-0.070493038885747	0.0591051268936678	-0.080941131619585	-0.00870280509030035	0.6259765625	0.34130859375	0.205078125	0	0	0	-0.689719635888228	-0.305443305776151	-0.6117044287504	0.238346182419381	0.0650441576073671	0.129745660565475	0.989411603492488	0.71293532201222	-0.699790968565287	0.0448979614435784	0.698206619983282	0.702466130058159	-0.138017578346508	161.979976596993	-81.654801310059	63.3744541798893
26137	1640082357196	9.69821568559339	0.510644143407695	-1.08985660788188	0.232319650633613	0.136228087910161	-0.0437879476752982	0.0633418181899266	-0.0841307616025911	-0.00831198101002469	0.624267578125	0.33642578125	0.217041015625	0	0	0	-0.68971959447862	-0.305750617108611	-0.611523419483221	0.238416753927865	0.065111335122505	0.130169526039363	0.989351509085246	0.713359240535594	-0.699348023168406	0.0450659120946529	0.697767230515339	0.702828739438798	-0.138393117740097	161.962836757082	-81.6311111691942	63.4255927465986
26138	1640082357198	9.66339395135112	0.558083757849952	-1.08494269866337	0.27364033024081	0.108587316367344	-0.0770280302868933	0.0548102981375541	-0.0972098405024689	-0.00766370899943655	0.627197265625	0.34228515625	0.2099609375	0	0	0	-0.689939679320845	-0.306060480929376	-0.611113402159259	0.238433702762979	0.0657347834292305	0.130906477560568	0.989213036903678	0.713746602700222	-0.698952702800029	0.0450655786873571	0.69731250195404	0.703085068381643	-0.139379558176143	162.082428852249	-81.5767751431334	63.3364513989468
26139	1640082357200	9.64634901159901	0.559957425570523	-1.18112764057643	0.208211885027432	0.0419736494768674	-0.0804963249043045	0.053663166801756	-0.0958661075305858	-0.00905563659216698	0.625244140625	0.344970703125	0.21630859375	0	0	0	-0.689958970719643	-0.306357929602414	-0.610935050748622	0.238452933427105	0.0658063654730027	0.131390293591672	0.989144131566845	0.714107313529457	-0.698570035019462	0.0452841135128961	0.696936343597444	0.703375075562677	-0.139797124613575	162.05144233676	-81.5498661708296	63.3961623782398
26140	1640082357201	9.62648291781688	0.560899143840025	-1.1524143311087	0.23381751192243	0.0657602095436458	-0.104297261183159	0.0520528320420566	-0.0887805531582586	-0.0110064408665381	0.628173828125	0.34130859375	0.20703125	0	0	0	-0.690151058083966	-0.306660692435571	-0.610562212221889	0.238462830955331	0.0663460094432988	0.132091615512779	0.989014667303864	0.714477189915905	-0.698189395935411	0.045320111354877	0.696505959860231	0.703621611744957	-0.140698526518965	162.145838551309	-81.4995363811897	63.330871672471
26141	1640082357201	9.61471536207316	0.574775412242266	-1.10311131498136	0.27663297575462	0.0930836726053423	-0.122239594816699	0.0282987122783047	-0.0736745238531619	-0.0145786646390055	0.628173828125	0.334228515625	0.213623046875	0	0	0	-0.690109081182221	-0.306875939162205	-0.610527559056014	0.238396127624279	0.0661665151928403	0.132460933050606	0.988977296747807	0.714650556598034	-0.697988888594127	0.045673770955064	0.696345154518473	0.703751101323827	-0.140846771933707	162.033165632847	-81.4850633416053	63.457082739236
26142	1640082357201	9.5819951586707	0.525789912921287	-1.18849229312869	0.184723626030292	0.0691268703215564	-0.144973409968619	0.0487270090822738	-0.0830167631886814	-0.0157538998839485	0.631103515625	0.33935546875	0.199951171875	0	0	0	-0.690279941532504	-0.307177975936712	-0.610185326799994	0.238388675014757	0.0666311161148174	0.133155047400739	0.988852884769519	0.715000133677927	-0.697625061448267	0.0457611459630118	0.695941882060449	0.703980828567801	-0.141689413165385	162.101203820254	-81.4370554824833	63.4165034100082
26143	1640082357202	9.56922115391033	0.494405934969093	-1.20149784642361	0.151531304613946	0.0833989892444028	-0.157217091922302	0.0644134945194926	-0.0730351635654239	-0.0118951784576914	0.62646484375	0.33984375	0.204833984375	0	0	0	-0.690185014330145	-0.307492513922754	-0.610100181001384	0.238475929639957	0.066452246047088	0.133465034580754	0.988823130564641	0.715441865931999	-0.697155169727646	0.0460174509697884	0.695504878104415	0.704387502633583	-0.141814000248875	162.022188991325	-81.4256135201911	63.5312847321424
26144	1640082357203	9.58783811103694	0.539813629594425	-1.18548291532835	0.201827704511043	0.0722954485670189	-0.139144128917069	0.0572768845002727	-0.0997208029714861	-0.0209745046172405	0.619140625	0.345703125	0.208740234375	0	0	0	-0.690388340097625	-0.307858396188878	-0.609693196615027	0.23845618833364	0.0669948277947245	0.134313462824369	0.988671627363141	0.715853925695456	-0.696723708282808	0.0461435952550078	0.695028668556312	0.704653083453681	-0.142825704493484	162.095586598372	-81.367586504296	63.4902276658153
26145	1640082357203	9.58733245862824	0.496646318913844	-1.38347335137309	0.0343767004428492	-0.0305809187683498	-0.113436350731966	0.0403891612930514	-0.124071311047059	-0.0201637922185501	0.630859375	0.34716796875	0.207275390625	0	0	0	-0.690481406783464	-0.308196933228499	-0.609465079370904	0.238332528754037	0.0671339347519314	0.135097796936431	0.98855531968001	0.716119211151422	-0.696424512172509	0.0465421772712566	0.694741901877661	0.704798896216649	-0.143499845530247	162.030250855867	-81.3233009965159	63.5759125963561
26146	1640082357204	9.66208521960519	0.487594467196226	-1.38751355041266	0.0362226426433524	-0.00882459794339096	-0.0393850804256903	0.0564659167897616	-0.0797819588145501	-0.0213048236416726	0.6318359375	0.349609375	0.202392578125	0	0	0	-0.690623958538226	-0.308537619416976	-0.609128395264296	0.238339428924883	0.0675342709744976	0.13580831642098	0.988430687218301	0.716525571897872	-0.695997708048531	0.0466722102285715	0.69428396716356	0.705083889747944	-0.144313829405009	162.078390898489	-81.2760933481699	63.5599253078352
26147	1640082357205	9.67037776861598	0.546866546783312	-1.31226451836892	0.128231226190209	0.00745013485384041	-0.0392127429919125	0.055452261799273	-0.0505785613120074	-0.0233435336013883	0.62939453125	0.33984375	0.20361328125	0	0	0	-0.690441607199507	-0.308833819361798	-0.609185867512848	0.238337235632172	0.0670285016820463	0.136080085897046	0.988427736450426	0.716846788493841	-0.695634068259238	0.0471585082797172	0.69400134134476	0.705390284381175	-0.144175881867666	161.887590039875	-81.2749787427739	63.7766840437346
26148	1640082357206	9.62718444099916	0.511589539488675	-1.33635884962453	0.0849901757034388	0.0133110445773542	-0.0801205126979223	0.0395505329033212	-0.0296898833929485	-0.0252395997363187	0.6240234375	0.339599609375	0.200927734375	0	0	0	-0.690445430297086	-0.309077000351141	-0.609052881200747	0.238350799320835	0.0670519915100181	0.136465122879041	0.988373057439421	0.717138087130464	-0.695320608634119	0.0473520347560374	0.693698057097899	0.705624915550951	-0.144486968728375	161.854721183075	-81.2543501264144	63.8328554163285
26149	1640082357206	9.59943458841706	0.430014673231259	-1.33524163339954	0.0209439106694777	0.0683216259815398	-0.111562700225399	0.0281168838145117	-0.0279183458005268	-0.0264279738773326	0.631591796875	0.34619140625	0.194091796875	0	0	0	-0.690264291435607	-0.309289268211041	-0.609157167722663	0.238333592996208	0.0665353871631655	0.136617442175191	0.98838692663782	0.717347908106134	-0.695074494037994	0.0477852118712453	0.6935308363662	0.705837886650565	-0.144249286923243	161.671604486888	-81.2595779522111	64.0330050273188
26150	1640082357207	9.67269259742543	0.447835529377237	-1.25661186949937	0.0943002131721077	0.125826013019198	-0.0497019150807389	0.0500581405950074	-0.0498121589215247	-0.0296846626060344	0.630126953125	0.344970703125	0.201904296875	0	0	0	-0.690309915118791	-0.309603680113094	-0.608943724988154	0.238338671110394	0.0666662021159615	0.137175303889291	0.98830084159547	0.71771465666805	-0.694680478227522	0.0480073408287336	0.693138722839302	0.706117532123699	-0.144764435301766	161.653247383488	-81.2271791921082	64.0805844794193
26151	1640082357208	9.71366972217974	0.415441613985455	-1.25688253783503	0.0700653821291378	0.157105098315205	-0.0107421386735744	0.0553205487879621	-0.0598588032546168	-0.031908507604734	0.62890625	0.3427734375	0.198974609375	0	0	0	-0.690178354175111	-0.309933776166549	-0.608935161060008	0.238312533124258	0.0662780480319299	0.137585405594535	0.988269941117539	0.71805292855709	-0.694296381894085	0.0485028440338248	0.69282552792147	0.706415451597833	-0.144810212361442	161.482201783667	-81.2155784794416	64.2788156743896
26152	1640082357208	9.73857134061307	0.456081402524616	-1.32945477501629	0.0530363170807443	0.08712194676238	0.0262569604227973	0.058693079023722	-0.0581333023625337	-0.0340852162867434	0.62548828125	0.341064453125	0.200439453125	0	0	0	-0.690232085894115	-0.310299693639712	-0.608684565653155	0.238320933333583	0.0664343993254615	0.138233062002074	0.988169060007343	0.718482157170899	-0.693834465724222	0.0487557586366484	0.692365409601979	0.706742778344932	-0.14541246454128	161.464066178093	-81.1778108730942	64.3311987864577
26153	1640082357209	9.76057484413428	0.450720970333046	-1.33868672156495	0.0412272603266942	0.0897750283041177	0.0490717202700228	0.0650352396279218	-0.0330675067669269	-0.0290525421151643	0.631103515625	0.349365234375	0.205810546875	0	0	0	-0.690029421942004	-0.310622163952411	-0.608707730347458	0.238428536738266	0.0659775405535354	0.138410277572883	0.988174862665866	0.718943451364945	-0.693331408260741	0.0491108140702088	0.691930110547277	0.707201635590144	-0.145253463768191	161.319386020684	-81.1799789081957	64.5137523813251
26154	1640082357210	9.74479778275731	0.499174483999799	-1.36472043242215	0.0569780657784513	0.038373446751408	0.0396220884948377	0.0658517350010618	-0.000755593429429668	-0.0289456902076358	0.630126953125	0.342041015625	0.20068359375	0	0	0	-0.689907771632993	-0.310923668004838	-0.608637747088116	0.238566200737484	0.0657731309878393	0.138616519985881	0.988159580041129	0.719418099778816	-0.692825281080199	0.0493024097461816	0.691456067260021	0.70765711349717	-0.145292521370369	161.256278591071	-81.17427002997	64.6157980919143
26155	1640082357210	9.69933729700551	0.515819546725868	-1.35478321356758	0.0652036303924883	0.0249346652406501	-0.00586434906059274	0.0572380224123289	0.0263209441036724	-0.0177753584983428	0.63232421875	0.34033203125	0.19189453125	0	0	0	-0.689512969637796	-0.311103088748975	-0.608919009920822	0.238755884177042	0.0648650150557852	0.138253235961883	0.988270495647765	0.719785222385303	-0.692420991883372	0.0496226121338522	0.691159723549885	0.708123727003491	-0.144426534255769	161.03811076111	-81.2157865282291	64.8651862781875
26156	1640082357211	9.6173770691095	0.5336557370187	-1.26673990112356	0.130835290754942	0.0621466309529771	-0.0986573599686533	0.0545580178705123	0.0402129472715446	-0.0171441383204034	0.62158203125	0.34423828125	0.1943359375	0	0	0	-0.689298133312258	-0.31128054980524	-0.608993818665685	0.238954036484363	0.0644618962798681	0.138087141505947	0.988320092519989	0.720173266162713	-0.692010775521555	0.0497147188122931	0.690793117099854	0.708557003996694	-0.144054994549633	160.959969336538	-81.2344141095758	64.9758733174648
26157	1640082357211	9.57295584605518	0.523553714396193	-1.20626907628611	0.155963311676078	0.101767888547524	-0.151631788982238	0.0526943645379204	0.0408562434440563	-0.0147704949378468	0.6318359375	0.344482421875	0.18896484375	0	0	0	-0.688954378813858	-0.311423695543473	-0.609221760898274	0.239177741053098	0.0637282558041044	0.137688868278058	0.988423231700102	0.720538006566218	-0.691618580077567	0.0498870803422066	0.69048076765812	0.709017288395563	-0.143285708465485	160.803667086945	-81.2732774177848	65.1632963856565
26158	1640082357212	9.59294092554193	0.569074982911011	-1.17951985271308	0.206183634288758	0.0906366422095211	-0.133384592591975	0.0443668296437112	0.0184160061450557	-0.0122473748424672	0.631591796875	0.35302734375	0.1962890625	0	0	0	-0.688825753897894	-0.311579406896997	-0.609231052922204	0.239321704239328	0.0635115947060355	0.137643411988041	0.988443507983227	0.72085226743149	-0.691286790155398	0.0499457935718995	0.690172649325353	0.709349606959035	-0.143125292070572	160.762773206175	-81.2809378288456	65.2303962317054
26159	1640082357213	9.679838685889	0.545792589140077	-1.22944227445496	0.153903056405453	0.0802072993406011	-0.0413734642100127	0.0381999981625429	0.0176613439525535	-0.00650921001113292	0.63330078125	0.344970703125	0.190673828125	0	0	0	-0.688541389375509	-0.311656998372124	-0.609471708738372	0.239426203098264	0.062828303226414	0.137330491097406	0.988530697818047	0.721024479573565	-0.691090017271254	0.0501825456078975	0.690055290661089	0.709601947744624	-0.142438659034956	160.592136025948	-81.3139546731641	65.4160420802695
26160	1640082357215	9.7505353552817	0.594968860586291	-1.35254398193608	0.108260884874631	-0.0315150096601359	0.0485290548822359	0.0587595544823975	-0.00192143549965587	-0.0136768006542652	0.629638671875	0.341796875	0.1923828125	0	0	0	-0.68845534551686	-0.311886244270598	-0.609389801526282	0.239583550478327	0.0627420808610795	0.13743995957264	0.988520960223856	0.72143904867244	-0.69065338594996	0.0502354409402486	0.689629705233053	0.7100057450391	-0.142487584271915	160.579381599686	-81.3102610886815	65.4630472199918
26161	1640082357216	9.79233470857133	0.658829751323596	-1.38049670119939	0.13274348280993	-0.0920595507516442	0.0970831142368027	0.0599839305565517	0.0163133257113557	-0.0138509776897325	0.6259765625	0.33935546875	0.197998046875	0	0	0	-0.688151260224471	-0.312070540737784	-0.609558372156734	0.239788264076314	0.0621011370745206	0.137173583949982	0.988598430425807	0.721833359600571	-0.69022713202979	0.0504292293980823	0.689275017494328	0.710471613842699	-0.141880358689802	160.433012206372	-81.3396897040492	65.6428167061764
26162	1640082357216	9.770682313104	0.738922112123391	-1.35760649854835	0.201548719534068	-0.136711126636175	0.0764995457857971	-0.00268391498946051	0.0751630878257224	-0.00723550355070461	0.62451171875	0.347412109375	0.19677734375	0	0	0	-0.687914190594443	-0.311998030633714	-0.609829245178969	0.239874106530751	0.0615310412102666	0.136691254773649	0.988700880871453	0.721820236068158	-0.690235283793516	0.0505054433600322	0.689339885520988	0.710556650714699	-0.141137409481047	160.310459215099	-81.3787606501157	65.7652917234235
26163	1640082357217	9.71219399395168	0.631232158007512	-1.47003327495754	0.0326174465946934	-0.157058640444991	0.029082127131284	-0.00951746144137741	0.085691996944145	-0.00841694163432541	0.63037109375	0.35205078125	0.19482421875	0	0	0	-0.687498882163258	-0.311910928728311	-0.610308380639474	0.239959455086348	0.0604705061221317	0.135978296764676	0.988864611915257	0.721775362576193	-0.690262064909012	0.0507799933591226	0.689480705942768	0.710667421904597	-0.139886280871773	160.048641950743	-81.4415693208918	66.0249482914124
26164	1640082357217	9.63893762449141	0.66181229065668	-1.3563647924381	0.121375146007734	-0.113783455452885	-0.0577321612731154	-0.0056958121644724	0.11157697262212	-0.00562345869872817	0.630859375	0.347900390625	0.201171875	0	0	0	-0.68715647565322	-0.311779838216574	-0.610706928752826	0.240096558956565	0.0596607593098748	0.135225805368293	0.989016974253257	0.721740333866236	-0.690293949717728	0.0508444043504765	0.689587909021921	0.710780025426711	-0.138781379101014	159.879019666504	-81.5004306287758	66.1932351491372
26165	1640082357218	9.56539683252529	0.620153210389757	-1.2538492732576	0.142871301366454	-0.0322528893751402	-0.146660564950571	-0.0339380004004062	0.150447368087418	0.00228892633663716	0.635009765625	0.34423828125	0.19921875	0	0	0	-0.686564580666557	-0.311488359672915	-0.611502115224448	0.240144209670892	0.0580803297286047	0.134016365737388	0.989275638542241	0.721411134428005	-0.690611520699639	0.0512025643911664	0.690067134720902	0.710700598839958	-0.136791843275136	159.478619159888	-81.6012965931456	66.5689419833652
26166	1640082357218	9.48396134516937	0.565582074811822	-1.16877070114153	0.147077163795082	0.0445190615394983	-0.24149104862564	-0.0508273390621006	0.152147222085505	0.003031028500283	0.6318359375	0.35009765625	0.19677734375	0	0	0	-0.686165010437832	-0.31114094618546	-0.612099115310228	0.24021565955221	0.0570519692865055	0.132916475782826	0.989483846894938	0.721059646565107	-0.690975497025427	0.0512430347058701	0.690520136488383	0.71055335688176	-0.135262219884666	159.25119876239	-81.6833694619108	66.7694550416582
26167	1640082357219	9.38314588685262	0.537757979265147	-1.09496276864358	0.157461868372269	0.0915088444033741	-0.352329400271179	-0.0336685704991709	0.130104038487989	0.00639639694458001	0.627685546875	0.34814453125	0.202392578125	0	0	0	-0.685638589400951	-0.31085548880855	-0.6128140031615	0.240265659908047	0.0556557252135499	0.131792715967494	0.989713655694851	0.720745359449454	-0.691282555493097	0.0515223767212999	0.690962059076352	0.710464009284669	-0.133462820396256	158.891271561834	-81.7749009239552	67.1057913277578
26168	1640082357219	9.32706489147264	0.52057237748992	-1.08151968934107	0.144558750103257	0.0982527904878953	-0.410333158626686	-0.0223945257500066	0.0771335781332658	0.00536604485494545	0.628662109375	0.35009765625	0.206298828125	0	0	0	-0.685437768658344	-0.310677089894154	-0.613105766235281	0.240325051795728	0.0551621304478977	0.131210272487126	0.989818672160868	0.72058897259414	-0.69144723058856	0.0515000959914754	0.691164721278633	0.710411565013735	-0.132690377776859	158.787656204622	-81.8170668077363	67.1976210712708
26169	1640082357220	9.35391972179499	0.55818131429734	-1.14347022640574	0.122075522789539	0.0269803208695483	-0.37344618303449	-0.00934205343172093	0.0188960397987759	0.00572976825903388	0.63427734375	0.342041015625	0.204833984375	0	0	0	-0.685221577335962	-0.310612573108734	-0.61339876242741	0.240277293210384	0.0545235753585864	0.130905285982583	0.989894431660233	0.720448463161213	-0.691573303588525	0.0517723641753121	0.691361838445516	0.710345107581852	-0.132017561240026	158.586740311063	-81.8476200140606	67.3877038781272
26170	1640082357219	9.3995585138543	0.542587987506946	-1.1520024281046	0.107720445667481	0.0374112963741478	-0.327951836381969	-0.0110464514711366	-0.0197771135920352	0.00547180382267965	0.62939453125	0.342041015625	0.2158203125	0	0	0	-0.685304151832896	-0.310585186544341	-0.613340764986652	0.240225243022879	0.0546998958096127	0.131010767023748	0.989870749301275	0.720370504322776	-0.691657349027632	0.0517343989799642	0.691429141633593	0.710243824654547	-0.132209877240375	158.629340452584	-81.8380569013309	67.3383834703721
26171	1640082357219	9.52391248897938	0.516561060497792	-1.28092207039118	0.00310408489238734	-0.0213489612895669	-0.189172435133415	-0.0130793208400092	-0.0321267029587751	0.0107892723163511	0.6240234375	0.342041015625	0.2001953125	0	0	0	-0.685207784474473	-0.310554391702459	-0.613475321692068	0.240196360431863	0.0544079989382592	0.130879494424117	0.989904201218897	0.720297652364921	-0.691723356459205	0.051866078764403	0.69152806280665	0.710203742645798	-0.131907476220201	158.535225623773	-81.8515682823515	67.4268239752358
26172	1640082357220	9.51569357983026	0.5030026795946	-1.30323328783347	-0.0198228772167418	-0.0273003947847752	-0.195062191279739	-0.0153499408894313	-0.032332139231298	0.0111754977424604	0.623291015625	0.34716796875	0.199951171875	0	0	0	-0.685342835072532	-0.310508540984973	-0.613374522743188	0.240127756079329	0.0547122816499006	0.131033112020651	0.989867107136532	0.720186103150856	-0.691846213471379	0.0517763820066561	0.69162023037578	0.710055730530709	-0.132220711219746	158.615158030368	-81.8365871553248	67.3372454577538
26173	1640082357222	9.53028851228886	0.481921748996436	-1.32960088537181	-0.0524577616866162	-0.0284073742569696	-0.178221790927168	-0.0216989232943771	-0.027530638784675	0.010566590473334	0.623779296875	0.343017578125	0.19873046875	0	0	0	-0.685381979024857	-0.310467563279607	-0.613393074210902	0.240021606296794	0.0547176573226447	0.131122563960345	0.989854964728463	0.720032927814063	-0.691999041323859	0.0518643391008481	0.691779271762771	0.709890273230536	-0.132277130041612	158.590426323492	-81.8316891493576	67.3491439593103
26174	1640082357222	9.58730595392804	0.497838287160213	-1.33520592851359	-0.0396231073889778	-0.0351354684446949	-0.12020323945079	-0.0172346138690857	-0.0167326905428353	0.0157453185094879	0.6220703125	0.34130859375	0.205078125	0	0	0	-0.685478529555742	-0.310381771014761	-0.613343034415079	0.239984715918206	0.0549469567124873	0.131134172243185	0.989840724974544	0.719905987741237	-0.692140984694797	0.0517322541557114	0.691893200401876	0.709749734889568	-0.132435316520323	158.663250072368	-81.8259488295909	67.2656698201855
26175	1640082357223	9.62193029317447	0.4949841411318	-1.28814882608405	-0.0073202176312466	0.004505227948947	-0.0923064505459194	-0.019897525264439	-0.0177759946342414	0.0141507263134074	0.628662109375	0.351318359375	0.206787109375	0	0	0	-0.685494370050991	-0.310328365475547	-0.613367967636253	0.239944807169154	0.0549520837180948	0.131107777364794	0.989843936794839	0.719805612237662	-0.692245590187665	0.0517293287883818	0.691997217542242	0.709652586538086	-0.132412451580659	158.660995244091	-81.8272432266216	67.2596527226876
26176	1640082357224	9.63762819684309	0.519027226622007	-1.25055134018209	0.0385356039062659	0.0164527387472788	-0.0805041905437473	-0.01660861034337	-0.00569663926851061	0.0179447064534479	0.6240234375	0.355712890625	0.204345703125	0	0	0	-0.685559686048439	-0.310223662140403	-0.613352186828353	0.239933930960669	0.0551207487221478	0.131025670345445	0.989845430747062	0.719681675341642	-0.692385976443916	0.051574662395905	0.692112699809617	0.709530783922961	-0.132461607373276	158.726272752033	-81.8278453743139	67.1841602325121
26177	1640082357225	9.6113895997168	0.603750999513753	-1.26518569313421	0.0838945186044519	-0.0573401932954937	-0.100133953969765	-0.0204532739302209	0.00950737576591948	0.0171717619853442	0.626220703125	0.348388671875	0.212890625	0	0	0	-0.685448003220023	-0.310101419817091	-0.613586271496099	0.239812492878548	0.0546979937178789	0.130825491291572	0.989895358263467	0.719408104745704	-0.692654155373602	0.0517899591607982	0.692430580137413	0.709305936724064	-0.132003711381783	158.578078492118	-81.847994409853	67.3102489931001
26178	1640082357226	9.60757952742272	0.609103936969957	-1.29727623503648	0.0652493658761953	-0.0863758103731849	-0.099407852012872	-0.0270363348171004	0.0190794369063229	0.0185555151156712	0.624755859375	0.345458984375	0.20556640625	0	0	0	-0.685450157157719	-0.309933612947606	-0.61367127515434	0.239805762374777	0.0546974432313804	0.130564271435016	0.98992987667238	0.719211903378568	-0.692868703794191	0.0516449159272626	0.692634411318501	0.709144505955733	-0.131801524764597	158.602840205596	-81.8619538278522	67.2696706923554
26179	1640082357227	9.58903440605966	0.635020894617089	-1.30441946226989	0.0726852042925939	-0.115513536746337	-0.115485971797126	-0.0404357328676486	0.0354043328629286	0.0141922498317579	0.632568359375	0.349853515625	0.19921875	0	0	0	-0.685271868758195	-0.309742224804932	-0.613996352450275	0.239730472070825	0.0541364667012987	0.130127995605455	0.990018155254138	0.718902537296132	-0.693178109867181	0.051800095271605	0.692999556163122	0.70892228964864	-0.131075559876915	158.436433421911	-81.8977627971911	67.4114806626333
26180	1640082357229	9.56302112174325	0.622315199901445	-1.28198635672137	0.0755851496809333	-0.0975860129894666	-0.144859240668204	-0.0397240359292135	0.0398707954151535	0.0149947185610174	0.6357421875	0.345703125	0.205810546875	0	0	0	-0.685219270574528	-0.309522618802032	-0.614177140447606	0.239701355513159	0.0539643772030688	0.129743539982718	0.990078006939776	0.718619912344665	-0.693478017230173	0.0517074578784671	0.693306041784457	0.708699409800277	-0.130659400633513	158.409196649668	-81.9221304842703	67.4160533772937
26181	1640082357227	9.56768965209099	0.614808402391602	-1.24417301845287	0.0901284554453426	-0.0689466325492695	-0.145538726330081	-0.0650229861769059	0.0413639368020819	0.0135134407210486	0.631103515625	0.34521484375	0.20263671875	0	0	0	-0.685073397286312	-0.309227338676028	-0.614567066736403	0.239499924486305	0.0533715469967092	0.129309314730906	0.990166945062802	0.718064379031459	-0.694036478372791	0.0519318231343657	0.693927248014763	0.708231930804957	-0.129894213308136	158.208425413279	-81.9584757409086	67.5719429294077
26182	1640082357227	9.53694388246856	0.537550245533126	-1.27021008720035	0.0127672371378146	-0.0406005261263324	-0.176615521943205	-0.0729294617576262	0.0243030958514717	0.0142182770396762	0.623779296875	0.34326171875	0.206298828125	0	0	0	-0.685107183789152	-0.308927159976993	-0.614746300335097	0.239330613949319	0.053301992105721	0.129041214171095	0.990205666860583	0.717551652100178	-0.694569734110383	0.0518894115030771	0.69446275940893	0.707757903172463	-0.129615686901906	158.182154194227	-81.9743507956621	67.556351427641
26183	1640082357229	9.52955790916987	0.498184154561891	-1.23997521092278	0.00164252785910205	0.00551130923209311	-0.189893236906098	-0.0584355852265507	0.00568004977107495	0.0122362583925954	0.628173828125	0.351318359375	0.209716796875	0	0	0	-0.685095842353022	-0.308728063312557	-0.61493340132779	0.239139251578064	0.0530877897094255	0.128907198458504	0.990234629150762	0.717126051914028	-0.694998802555923	0.0520277821171738	0.694918637143922	0.707361010115354	-0.129338660572236	158.087044823414	-81.9862450973874	67.6166897870541
26184	1640082357233	9.5145995187836	0.518015751368766	-1.21671306462447	0.0317751308283319	0.00630588053107603	-0.206684793735203	-0.0506871443729547	-0.020148596438767	0.00999868743506919	0.635498046875	0.34912109375	0.208251953125	0	0	0	-0.685233006245141	-0.308563854201417	-0.614930928963116	0.238964490326853	0.0532966009698523	0.128982962814271	0.990213546478088	0.716769586917828	-0.695368640486388	0.0519982028320188	0.695270329867964	0.706983627202049	-0.129511849934774	158.124846147129	-81.9775850807502	67.5492670319557
26185	1640082357234	9.56288580239518	0.47662706724828	-1.30432936976177	-0.0590435104851399	-0.0193145432516313	-0.149697484851197	-0.040271509235664	-0.0337641708230074	0.0070204307725818	0.63037109375	0.339599609375	0.216064453125	0	0	0	-0.685265015912561	-0.308463195706869	-0.615052035876422	0.23869082099011	0.0531229001171504	0.12914352263905	0.990201953160829	0.716372624218977	-0.695754297738747	0.0523088945369734	0.695692619446807	0.706574771512853	-0.129475370278673	158.000970335542	-81.9728269111791	67.6402934360009
26186	1640082357235	9.59607715290879	0.45569143372931	-1.36917628536764	-0.115134993305163	-0.0439155267632038	-0.109501830603637	-0.0241360737678178	-0.037088810256182	0.00232232641623027	0.62841796875	0.3466796875	0.20458984375	0	0	0	-0.685410295674923	-0.30842738044716	-0.614960004459245	0.238557059188787	0.0533934878119764	0.129392503688019	0.990154894674878	0.716204704418102	-0.6959261610034	0.0523220775624244	0.695844779263775	0.706359935458131	-0.129829444853366	158.050257223539	-81.9535417046705	67.5766327005185
26187	1640082357236	9.6035755281611	0.468268329984541	-1.35252537068676	-0.0950897231921536	-0.0388499331774747	-0.103582804063413	-0.0241264759362788	-0.0221210999408166	0.00456061659765371	0.63134765625	0.3369140625	0.202392578125	0	0	0	-0.685407442955099	-0.30838080359116	-0.615028380333019	0.238449173836201	0.0532827427228271	0.12942697773926	0.990156354704253	0.716039014444161	-0.696086542946608	0.0524562152892792	0.69602376333123	0.706195569344584	-0.129764165763552	157.989338815179	-81.9541393542606	67.6239222161879
26188	1640082357236	9.65670490322698	0.491923963421965	-1.39014442977281	-0.101092100347583	-0.0746532998573392	-0.0448499599411782	-0.0201976099534309	0.00835681594576273	0.00371777085446025	0.625	0.344482421875	0.2060546875	0	0	0	-0.685410181865858	-0.308297627437679	-0.615084808931834	0.238403299751072	0.0532465014751746	0.12934416962953	0.990169124878928	0.715897161933957	-0.696232879168198	0.0524502764536796	0.696172438132651	0.70606647261289	-0.129669088978179	157.976998257984	-81.959368588761	67.6247368346289
26189	1640082357237	9.67280976746579	0.517086636096085	-1.34904688929252	-0.0561446635737829	-0.0628824274263868	-0.0329405716979867	-0.0212007896077347	0.0375964980032738	0.00166561317748487	0.63330078125	0.34716796875	0.2080078125	0	0	0	-0.685285028739538	-0.308205928535282	-0.61527113352349	0.238400854138306	0.0529010757368476	0.129055489670706	0.990225306065109	0.715780144705281	-0.696348276723662	0.052515349657727	0.696319079611905	0.706005494376524	-0.129212929997691	157.881951674814	-81.9824143572995	67.7108083350442
26190	1640082357238	9.64627741213959	0.433483057577779	-1.34024833947654	-0.1148461295683	-0.00547951464040242	-0.0647840968739324	-0.0276008392181685	0.0639664103377768	0.00472344505895624	0.627685546875	0.349853515625	0.21044921875	0	0	0	-0.685127223925588	-0.308029977497504	-0.61552807719239	0.238418552522123	0.0524854383014529	0.128572820335582	0.990310208286908	0.715586073139323	-0.696548253552286	0.0525081174896297	0.6965499628134	0.705896281576985	-0.12856356000219	157.783841511883	-82.0173670384757	67.7939483801549
26191	1640082357239	9.58972891766014	0.442972708843309	-1.37796813815469	-0.144854232248772	-0.0507192661294335	-0.115555703392047	-0.00949923450772002	0.0721938718536503	0.00305702634317767	0.62841796875	0.341064453125	0.21533203125	0	0	0	-0.684841815375524	-0.307914586660353	-0.615900281303221	0.238426380095732	0.0517109016247945	0.12805181987602	0.99041845402819	0.7154393181603	-0.696682937192459	0.0527206511266013	0.696758612923784	0.705858071039304	-0.127639409530118	157.557236875054	-82.062151559689	68.0097677201879
26192	1640082357240	9.58751083430272	0.494981363600755	-1.34192412768502	-0.0875372152845022	-0.0670784050843393	-0.119702054702238	-0.00212657493420216	0.0754690432105917	0.00330112120850339	0.633056640625	0.34423828125	0.205078125	0	0	0	-0.684615458765087	-0.307808429994054	-0.616159249430627	0.238544384519005	0.0512034995313628	0.127498161182039	0.990516239407987	0.715423476866524	-0.696701094078089	0.0526956759004843	0.696812349477215	0.705940368873741	-0.12688871191107	157.447352693362	-82.1028252479304	68.1195133804634
26193	1640082357241	9.60049750467345	0.473837327465693	-1.23368936276579	-0.0332075190188059	0.0195795750847563	-0.121734238427113	-0.027559157178562	0.0790005554548513	0.00693910226512063	0.626953125	0.336669921875	0.208984375	0	0	0	-0.684357369749166	-0.307611725273607	-0.61652675699043	0.238589133992019	0.0505395687781178	0.126839532357988	0.990634889865549	0.715225872491006	-0.696900503230267	0.0527412544113158	0.697063629310266	0.705862183169355	-0.125939966111604	157.27699476072	-82.1524590094628	68.2750512135393
26194	1640082357242	9.66216794720788	0.411748322741695	-1.21033119867966	-0.0636158343620081	0.0813578857279395	-0.0668545961137266	-0.0128187431581667	0.0817460983596223	0.00287367731952658	0.6259765625	0.34228515625	0.20703125	0	0	0	-0.684123486653085	-0.307466071615677	-0.616824170872283	0.238678888975482	0.0499851140658878	0.126243706288449	0.99073912559986	0.715135337476526	-0.696994005525306	0.0527333419586133	0.697196484116318	0.705876676824178	-0.1251206603703	157.14652751864	-82.1963216573365	68.3993350492015
26195	1640082357242	9.63643911306271	0.399625240908087	-1.1843307789415	-0.0605920003443672	0.0990337411126932	-0.0962160376443108	-0.0134467445034485	0.0745187209215459	0.00520612889105661	0.63623046875	0.351318359375	0.2041015625	0	0	0	-0.683905344228123	-0.307333474744074	-0.617087586061723	0.238793899768111	0.0494980928604988	0.125660509327004	0.990837713855731	0.715087514023679	-0.697047217470542	0.0526784956505926	0.697280278002045	0.705928192532536	-0.124360769124106	157.04276793086	-82.2380344956846	68.5003545047566
26196	1640082357243	9.57599268274609	0.389306296478879	-1.20874735862495	-0.0919159149837593	0.0767506121995227	-0.153602296690481	0.0130641192505208	0.0501278063003906	0.00446941528327782	0.62646484375	0.34521484375	0.213134765625	0	0	0	-0.683740541432092	-0.307299490656729	-0.617234977295938	0.238928604078179	0.0491760116891949	0.125276057219786	0.990902431807395	0.715176423273967	-0.696960290390735	0.0526216420450628	0.697211878461204	0.706082334509176	-0.123868209911471	156.983263905298	-82.2655383120651	68.56794810736
26197	1640082357244	9.59202966748335	0.440169536794604	-1.21427911976328	-0.0620557584133898	0.0369623094335011	-0.134359063786466	0.00948903754265328	0.0204314969675949	0.00727875823564085	0.630126953125	0.35009765625	0.205322265625	0	0	0	-0.683646887974702	-0.307280322717192	-0.617342769997084	0.238942754997199	0.0489334152062922	0.12512330824153	0.990933740777325	0.715161637204352	-0.696970326210333	0.0526896294677845	0.697244113311428	0.706099512899532	-0.123588528333352	156.9099420966	-82.2788789375172	68.6404497110397
26198	1640082357244	9.61057412526082	0.393266141744151	-1.31358093544962	-0.164018436502251	0.000433560852269171	-0.106174815946218	0.0211204953901407	0.00268428311474828	0.0088613348623323	0.631103515625	0.347900390625	0.203857421875	0	0	0	-0.683625562825442	-0.307313423053296	-0.617310137895641	0.239045484195222	0.0489733073250612	0.125044221973479	0.99094175294045	0.715305025221011	-0.696831432994275	0.0525801757767449	0.697094208886585	0.706250590472101	-0.123570900274273	156.949949871228	-82.2822965710387	68.6123092686056
26199	1640082357245	9.60738227542467	0.470756713592606	-1.33196185132213	-0.121675231990481	-0.0669418822862907	-0.102989004623009	0.043608772120038	0.00949955790961565	0.00706319087048858	0.626220703125	0.34521484375	0.205810546875	0	0	0	-0.683564772140828	-0.307422128780612	-0.617283789069263	0.239147571127847	0.0489047169765826	0.125042037116918	0.990945416060386	0.715529712526951	-0.696600147919297	0.0525876830627912	0.696868394425044	0.706479102926948	-0.123538325951891	156.941559434071	-82.2838595967652	68.6392234954975
26200	1640082357251	9.60825889727849	0.541205065273455	-1.31555711506662	-0.0600806384032855	-0.106393664669554	-0.100462979423025	0.0373028964178283	0.0293304201651064	0.008683075232937	0.630859375	0.340087890625	0.2109375	0	0	0	-0.683441742045827	-0.307474939407315	-0.617316876536071	0.239345818450171	0.0487580711604343	0.124777990332683	0.990985925038924	0.7157868425632	-0.696345481653771	0.0524610921901447	0.696614560937481	0.706776784642021	-0.123266906268334	156.94590907343	-82.3011655031069	68.6565003376549
26201	1640082357246	9.61219276250813	0.487662441242964	-1.34059408765448	-0.11736208655708	-0.0899933391397337	-0.0963412445833374	0.0292128901958293	0.0544039141496294	0.00892028287949963	0.62939453125	0.34326171875	0.212646484375	0	0	0	-0.683254309198065	-0.307471611815303	-0.617442870302989	0.239560136086914	0.0484510196794126	0.124333211386404	0.991056885974952	0.715992003529119	-0.696144298251437	0.0523313184849366	0.696425121297604	0.707053299658772	-0.122750486220052	156.910347972227	-82.3315744002586	68.7097906105254
26202	1640082357249	9.59817340816094	0.506278623149957	-1.3101940040978	-0.0872116939465152	-0.0891977067438016	-0.113084761971251	0.0371916025412366	0.0903366647151204	0.0150410695127136	0.631591796875	0.34521484375	0.21044921875	0	0	0	-0.682952843129568	-0.307429158190263	-0.617676628581824	0.239871443192928	0.0479257903964365	0.123593266645011	0.991174970958656	0.716245203942868	-0.695898006869937	0.0521418436890137	0.696201067539915	0.707425380145825	-0.121874546488668	156.837206094407	-82.3824448292883	68.8051896546657
26203	1640082357251	9.56553813806501	0.525116476592343	-1.23903957110505	-0.0316548927123749	-0.0647347670251021	-0.153221396991993	0.0312324468928103	0.117649828705781	0.0200268224483674	0.622802734375	0.3427734375	0.210205078125	0	0	0	-0.682567320020842	-0.307308531141006	-0.618031227021909	0.240209747415288	0.0471977382275015	0.122603271165528	0.991332845922962	0.716431770916302	-0.695721487869282	0.0519338900784797	0.696058827347186	0.707771184223026	-0.120673359344953	156.714527877177	-82.4509889132564	68.9451345452075
26204	1640082357253	9.57095492072441	0.515950644884874	-1.19348948070518	-0.0130487596207325	-0.0356500439508536	-0.153891119447625	0.0198721695424243	0.134498845500232	0.0209639286008268	0.629150390625	0.341796875	0.216064453125	0	0	0	-0.68215879599721	-0.307138937110222	-0.618434902213101	0.24054796211798	0.0464078900709521	0.121508544225956	0.991504907410575	0.71656156594593	-0.695604702463381	0.0517070606392242	0.69597832577479	0.708074693511158	-0.119349899291119	156.575845807265	-82.5264040226262	69.0965889372313
26205	1640082357254	9.56496465187274	0.52021289890472	-1.08983087469688	0.0542677974072208	0.0230819854425593	-0.171971141385406	0.0223482549581314	0.136591925678007	0.0199871886016383	0.633056640625	0.344482421875	0.2177734375	0	0	0	-0.681730571855438	-0.306978718521435	-0.618848086141477	0.240903590781929	0.0455822253079377	0.120388102450122	0.991679870484642	0.716719006850148	-0.695459052646621	0.0514836994747211	0.695870768142847	0.708409070297892	-0.117985012454809	156.425566954943	-82.6038748793957	69.2619648905105
26206	1640082357255	9.5093182000418	0.5467498473089	-1.01250218240533	0.117609017860714	0.0425385387183785	-0.234818265184003	0.0210661809370561	0.118313021925932	0.0201086705348619	0.6259765625	0.34521484375	0.212890625	0	0	0	-0.68136859104919	-0.306834655298079	-0.619195550188041	0.241218175242003	0.0448987298708782	0.119412552062377	0.991828990535129	0.716857434999685	-0.695332572482056	0.0512643300079035	0.695772607927084	0.708698282808303	-0.116821325120497	156.306845670941	-82.6705455582503	69.393903211054
26207	1640082357256	9.52586321296979	0.615402405973718	-0.902227332862631	0.238570979808856	0.066955513041337	-0.227626016506308	0.00980159484530733	0.0712479207383193	0.017888396233921	0.626708984375	0.347412109375	0.216064453125	0	0	0	-0.681139257578662	-0.306711253574625	-0.619439635205801	0.241396058484757	0.0444454905335728	0.118765578285849	0.991927081889419	0.716886723917513	-0.695312299757412	0.0511295499381138	0.695771531066086	0.708826878173004	-0.116044962568256	156.221652730213	-82.7147324488332	69.4827073924017
26208	1640082357257	9.51051153650357	0.516813588811096	-0.951288803900368	0.13107331369059	0.0945595430036493	-0.242120291851947	-0.0187378409067108	0.0221946562003006	0.0174692282908263	0.629638671875	0.3427734375	0.204833984375	0	0	0	-0.681118505482518	-0.306568642941129	-0.619523965852738	0.241419353798719	0.0444114457986594	0.118489000817756	0.991961682812034	0.716749302813706	-0.695464725553287	0.0509828640540838	0.695915268116844	0.708723621869838	-0.115813502691009	156.240176270594	-82.7303827440727	69.453252084162
26209	1640082357258	9.48402740064749	0.484585912014729	-1.04307882337614	0.0435950563270981	0.0483717324559943	-0.259396203405805	-0.00979295402335166	-0.0182941449912657	0.0138985751463822	0.620361328125	0.35107421875	0.20556640625	0	0	0	-0.681216571287431	-0.306533045466985	-0.619453566326267	0.241368502928201	0.0446295424048084	0.118597620563214	0.991938913613879	0.71666394031404	-0.695557475661869	0.0509175284596925	0.695989224484325	0.70861442438581	-0.116037049919735	156.307938977889	-82.7200802746888	69.3781489383715
26210	1640082357260	9.50311935774494	0.528105402391373	-1.02139190779027	0.0936420460413275	0.0372079589589368	-0.240787903527572	-0.01177790913197	-0.0477310588614981	0.0118217499166066	0.6279296875	0.344970703125	0.20947265625	0	0	0	-0.681395509856719	-0.306516111951762	-0.619295404844906	0.241290766087432	0.0450421493039172	0.118856879426433	0.991889231214401	0.716577930104249	-0.69565327862983	0.0508191501215777	0.696051201330473	0.708476928449035	-0.116503935477848	156.433115107256	-82.6976504705028	69.2452341679705
26211	1640082357258	9.54863139191453	0.537900249599213	-1.08279297500344	0.0644089426833378	-0.00279426444346198	-0.188032633722344	-0.0357920442442452	-0.0708949167330596	0.0188317055789641	0.62841796875	0.348876953125	0.21435546875	0	0	0	-0.681698284511333	-0.306491082156985	-0.619067050485517	0.24105321498729	0.0456384071228061	0.119412684224412	0.991795214064685	0.716325095473343	-0.695913128205063	0.0508259341965238	0.696272571189186	0.708128186727632	-0.117298669094909	156.572742051937	-82.6553915771846	69.0836130751806
26212	1640082357258	9.51738760885065	0.512786952468287	-1.21623020622767	-0.0416457248078331	-0.0787082481215548	-0.204623195229127	-0.0260582626665356	-0.0956447900395864	0.0137045959370401	0.630859375	0.3486328125	0.208740234375	0	0	0	-0.682045414705421	-0.306482578374143	-0.618764524241724	0.240858765612468	0.0463977853861012	0.120000355507062	0.991689044100743	0.716139793561652	-0.696110968361553	0.0507278602369239	0.696412982065053	0.707834326947289	-0.118235037135103	156.778609370874	-82.6079590854458	68.8611521614059
26213	1640082357260	9.54772381477069	0.61476827181026	-1.24355155968648	0.0200244233640333	-0.158283909631966	-0.166033699653344	-0.00485113834586804	-0.107134896588747	0.0120788350646046	0.629638671875	0.33740234375	0.215576171875	0	0	0	-0.682380105699692	-0.306585997119595	-0.618425275761443	0.240650360512602	0.0471104093391342	0.120767839116837	0.991562271552801	0.716064901365222	-0.696184860710677	0.0507710227400494	0.696442148613016	0.707631096513081	-0.119275164569077	156.942340920389	-82.5517156622422	68.6897065064292
26214	1640082357262	9.54310686863233	0.64712687803657	-1.33427446505706	-0.0130444292304513	-0.239418526754554	-0.158027719894175	-0.0164263850770675	-0.0893140262465824	0.0104431089044364	0.63671875	0.338134765625	0.212890625	0	0	0	-0.682690566189425	-0.30661147220867	-0.618133114833052	0.240487937936155	0.0478017149136433	0.121334402812113	0.991460013689681	0.715948635437127	-0.696309913634496	0.0506957156970629	0.696514570893554	0.707411101742508	-0.120154008108011	157.124009834873	-82.5066541958513	68.497211082636
26215	1640082357262	9.6034887934027	0.68262366405304	-1.35866043297926	0.00403874516301217	-0.270461812869586	-0.0933375289817153	-0.031673260744808	-0.0656304519220971	0.0097957335173721	0.6318359375	0.3505859375	0.2158203125	0	0	0	-0.682941952524612	-0.306509986730688	-0.617959646031761	0.240349315356887	0.0483550078213082	0.121604701928463	0.991400065406237	0.715709413296135	-0.696567669283658	0.0505323443750195	0.696722203563159	0.707110867246164	-0.120716164967553	157.285589161697	-82.4803619241963	68.3152061279877
26216	1640082357265	9.61443419142557	0.687731652173925	-1.31004845418407	0.0455583268935325	-0.235406923701866	-0.088025212227361	-0.0396151370570606	-0.0321074902989629	0.0108378039258126	0.625	0.33984375	0.211181640625	0	0	0	-0.68310434985073	-0.306392314746855	-0.617897688268549	0.240197093053723	0.0486523925928955	0.121761388875379	0.991366283910304	0.715430302982264	-0.69685821190521	0.0504788477976644	0.69698811056552	0.706797564143661	-0.121015606641849	157.357676976164	-82.4655861360373	68.2197537165567
26217	1640082357266	9.61355070286706	0.615510876203985	-1.3261937359245	-0.0174509243811485	-0.195393295668313	-0.0905724947578612	-0.0528220668209455	-0.00345853543905752	0.0118285473286627	0.63330078125	0.334228515625	0.217529296875	0	0	0	-0.683162967528937	-0.306217585185182	-0.617996224536285	0.239999618289925	0.0486229139645071	0.121755312422662	0.991368476467988	0.715030744395954	-0.697261947488093	0.0505649201886066	0.697400062235564	0.706400325935635	-0.120961699359176	157.31389109086	-82.4665442709372	68.2307315324041
26218	1640082357266	9.56391899889581	0.58467653996077	-1.25482601824712	0.0071909687219856	-0.13049261181213	-0.149980643608728	-0.0603136527193342	0.0204964001754612	0.00889600188044849	0.63037109375	0.341552734375	0.214599609375	0	0	0	-0.683184185580197	-0.305979529067708	-0.618148352703494	0.239851017122263	0.0485382836829216	0.121553728483901	0.991397360349915	0.714607772997437	-0.697696034753839	0.0505566401218797	0.697839355287992	0.706006327294899	-0.120728207270747	157.277814078719	-82.4791776885973	68.2324096417538
26219	1640082357267	9.55594622554907	0.518992599320957	-1.17697385595608	0.012758092399372	-0.033066990943699	-0.170619498652046	-0.0624615970772529	0.0109205747967202	0.011009416895066	0.631591796875	0.34326171875	0.208984375	0	0	0	-0.68322703355354	-0.305696233244968	-0.618297420758715	0.239705930432662	0.0485162249259157	0.121300744162735	0.991429425317054	0.714138978271068	-0.698181759790499	0.0504752415526395	0.698320625238073	0.705569528651435	-0.120498732797064	157.271868681199	-82.4932272287957	68.200248927072
26220	1640082357268	9.57532663948277	0.53687458260129	-1.10387303690915	0.0771771814152413	0.00791414299657901	-0.159313273284136	-0.0494257461568657	-0.00553004365870332	0.00510282772661982	0.63671875	0.339111328125	0.21533203125	0	0	0	-0.683309819319118	-0.30553463111896	-0.618348830889589	0.239543322483752	0.0485866250489603	0.121306960360788	0.991425217166871	0.713792293981731	-0.698535171680893	0.0504893550864339	0.698670094478539	0.705218572708328	-0.120527439981849	157.271024069106	-82.4913819016903	68.1726009421513
26221	1640082357268	9.57510697564256	0.537137209707953	-1.10564967422966	0.0771936013760705	0.00816844743363326	-0.159313616409571	-0.042869029222422	-0.03675434705924	5.52072074451875E-05	0.632568359375	0.35009765625	0.210693359375	0	0	0	-0.683484438453401	-0.305441203845653	-0.618288045498556	0.239321094304144	0.0488511275737877	0.121589876094185	0.991377561459897	0.713467362669724	-0.698862169628771	0.0505568023798675	0.698983468860229	0.704845777381952	-0.120890613229286	157.305178026005	-82.4705156510919	68.1112334413228
26222	1640082357269	9.58959607007946	0.517467798307864	-1.13358184377626	0.0469673369424554	0.00743878934210685	-0.14258550745086	-0.04340475551493	-0.057188939154912	-0.000453868728267857	0.631591796875	0.346435546875	0.216064453125	0	0	0	-0.683711465342094	-0.305378611561399	-0.61815998850607	0.239083174587372	0.0492442644220171	0.121998411079706	0.991307918921039	0.713165020899405	-0.699166278460113	0.0506178627540437	0.699264367308307	0.704473493297131	-0.1214349284788	157.37210468254	-82.4401253592844	68.0186927963315
26223	1640082357269	9.68026193132005	0.513934669606035	-1.2034477541139	0.00168046936046169	-0.0226721905915321	-0.0444036397761867	-0.0462185514217741	-0.0600137198171203	-0.00148494904196231	0.633544921875	0.3447265625	0.209716796875	0	0	0	-0.683916269928616	-0.305358169815666	-0.618074968796621	0.23874307696939	0.0494794421477655	0.122556601288588	0.991227352470328	0.712801080681648	-0.699516262652031	0.0509079332168511	0.699618756312195	0.704029031905593	-0.121970152292487	157.345306465499	-82.4051189734277	68.014726699347
26224	1640082357270	9.69454826516281	0.494534753422853	-1.23242880681211	-0.0285623961623432	-0.0233876797389995	-0.0276811544242292	-0.0398443564729765	-0.0536409618060626	-0.00318441702985787	0.6240234375	0.338134765625	0.213623046875	0	0	0	-0.684123338769574	-0.305312295020368	-0.61795694595065	0.23851388389675	0.0498272309214823	0.122959910754144	0.991159980732692	0.712525155792798	-0.699791059395767	0.0509938775952553	0.699875095585738	0.703685535972628	-0.122480680279667	157.395976680899	-82.3759684162405	67.9406577941562
26225	1640082357270	9.67919179843809	0.542119472186218	-1.26002079426656	-0.0131511734464566	-0.0742481905265248	-0.0370741562517765	-0.0418562058424534	-0.02581589584996	-0.00343195477338191	0.625244140625	0.335205078125	0.218994140625	0	0	0	-0.684241695848203	-0.305247419088354	-0.617942168664691	0.23829559582303	0.049942978651756	0.123220228848349	0.991121826056692	0.712231817912861	-0.700078444302492	0.0511469390632978	0.700165363636286	0.703354069459731	-0.122725370394652	157.375612991614	-82.3595086016969	67.9365606116726
26226	1640082357271	9.67116636231783	0.530554800813194	-1.28074790634008	-0.0361055135539138	-0.0801667730373531	-0.0430644413580445	-0.053832835359893	-0.00505795661141634	-0.00240394861989293	0.632080078125	0.344482421875	0.21484375	0	0	0	-0.684316349142617	-0.305097662491891	-0.618010756337309	0.238095055995483	0.0499562427867429	0.12327602578491	0.991114219085424	0.711857248328679	-0.700452321304984	0.0512425953712463	0.700545238945034	0.702971953242188	-0.122746898723791	157.341147045097	-82.3562311893618	67.9402936700356
26227	1640082357271	9.61767870697145	0.507764968294501	-1.24358997664934	-0.0311967278678969	-0.0449454174640304	-0.101812455305016	-0.0553385287100837	0.0104156949300088	-0.00350444353154895	0.62890625	0.334716796875	0.213623046875	0	0	0	-0.684306637033325	-0.304907765101849	-0.618190144442462	0.237900455247452	0.0497444001896064	0.123165381099687	0.99113862983356	0.711436248269086	-0.700869256347302	0.0513882297417198	0.700987845328708	0.702575671658043	-0.122488637414526	157.240261755402	-82.3667533537186	68.007056374769
26228	1640082357272	9.62148577349082	0.474998538240512	-1.16134086958508	0.00178469382994088	0.0362682902579375	-0.109800884766136	-0.0560490598356971	0.00596978609381039	-0.00433351066618491	0.624755859375	0.337158203125	0.214111328125	0	0	0	-0.684346373871048	-0.304743796427877	-0.618302888185879	0.237703171138446	0.0496655139994507	0.123155509598542	0.991143812559355	0.711045738581916	-0.701256841938903	0.0515053325236822	0.701389545376653	0.702190545428661	-0.122397481783455	157.178454147476	-82.3689892049774	68.0370212811598
26229	1640082357272	9.60587759195017	0.451148154308017	-1.19984984324814	-0.0438652958390899	0.023855240741414	-0.121786201340219	-0.043081571421195	-0.000100401523835138	-0.00428090909801327	0.63134765625	0.34619140625	0.210205078125	0	0	0	-0.684391449807428	-0.304603471399011	-0.618376797320085	0.237560950449169	0.0496537234956522	0.123131663400144	0.991147366041666	0.710740382228435	-0.701563040066718	0.0515500716015264	0.701699805339004	0.701888804783677	-0.122349862715683	157.152687629096	-82.3705225696499	68.0378913626429
26230	1640082357273	9.56026708919358	0.467443853656776	-1.19125291046468	-0.0293367582477069	0.0134534882545237	-0.167209025300354	-0.030955714907625	-0.00124501058765706	-0.00677096964414879	0.6240234375	0.342529296875	0.215576171875	0	0	0	-0.68441992189251	-0.304533078587746	-0.618429782200813	0.237431209089233	0.0496084170658503	0.123187949871961	0.991142640573275	0.710526073570882	-0.701772049992589	0.0516593517685308	0.701920012346255	0.70166995008732	-0.12234205087496	157.107930362602	-82.3684835479254	68.0651019442935
26231	1640082357273	9.6019353882184	0.433540145087429	-1.18489690988321	-0.0493060123939733	0.0480350730455464	-0.128454702780512	-0.0252690851462538	0.0156394603518358	-0.00699997712642355	0.6337890625	0.34228515625	0.2109375	0	0	0	-0.684366734516931	-0.304511614917944	-0.618552265365698	0.237292949911415	0.0493315427820579	0.12323905560171	0.991150106725082	0.710351422493771	-0.70192946460481	0.0519218959657924	0.702116269180411	0.701503500984852	-0.122170301866603	156.974699588013	-82.3717054124117	68.1841953867241
26232	1640082357274	9.57612782185369	0.494224472986056	-1.14938186718143	0.0152847167233603	0.0264372777771832	-0.155222505476718	-0.0242238820895129	0.0237304091814497	-0.00732791486379919	0.63134765625	0.345947265625	0.21044921875	0	0	0	-0.684308704601538	-0.304434861270251	-0.61868136084536	0.237222228706463	0.0491055779717933	0.123124908545022	0.991175513775354	0.710184793660556	-0.702090058901804	0.052029876461276	0.702300648629467	0.701362820576513	-0.121917975900145	156.889085231006	-82.3826794518089	68.2565357375019
26233	1640082357275	9.57623704852812	0.468221432178614	-1.09941377582444	0.0296433422122676	0.0797784524562833	-0.162557096850813	-0.0168009439419127	0.0241615079621217	-0.0039044155494648	0.626953125	0.3369140625	0.22119140625	0	0	0	-0.684260918939675	-0.304408566847173	-0.618775523676059	0.237148203748839	0.0489045514589384	0.123106763440862	0.991187706563049	0.710072779294961	-0.702192307777499	0.052178645080528	0.702427927228787	0.701263636368824	-0.121755161516236	156.802259645853	-82.3879514540591	68.3343930531076
26234	1640082357275	9.58819198164229	0.500658961718221	-1.09204019617704	0.0567414461480424	0.0626500021721814	-0.149898329186504	-0.0168418349587415	0.0129565776645721	-0.00161696493420449	0.62158203125	0.342041015625	0.215087890625	0	0	0	-0.68423632540661	-0.304348397445838	-0.618849269652074	0.237103954874871	0.0487952688464898	0.123029239611597	0.991202717883073	0.709955676835325	-0.702307535109691	0.0522212893123594	0.702553883106125	0.701161844604185	-0.12161459206758	156.761321047669	-82.394447142549	68.3659695780303
26235	1640082357275	9.5999889899945	0.5330076151566	-1.08605434225783	0.0824614963840262	0.0448591658826644	-0.137224195134706	-0.011344888723898	-0.00476352490123776	-0.00269951700515878	0.62890625	0.343017578125	0.219970703125	0	0	0	-0.68421076124243	-0.304313470679081	-0.618919574215897	0.237039039855715	0.0486637444313304	0.123012899619232	0.991211211854059	0.709845306099408	-0.702411610295066	0.0523218035940105	0.70267452023434	0.701060451209424	-0.121502108473388	156.702096857167	-82.3981250924792	68.4163124250248
26236	1640082357276	9.64937296853171	0.537743150513068	-1.10984157620488	0.0720316597596167	0.0321760980940097	-0.0851444852822052	-0.0117139173745973	-0.0233856222250732	-0.00383714149908416	0.633544921875	0.3369140625	0.214111328125	0	0	0	-0.684288498033469	-0.304319307401632	-0.618864852402325	0.236950005407761	0.0487921072072782	0.123204343322088	0.991181123741189	0.709764463815705	-0.702488908159706	0.0523807198975789	0.702747277603178	0.700949373135576	-0.12172197879662	156.716299948956	-82.3851046771435	68.3951529874798
26237	1640082357276	9.66408585947784	0.518204920777439	-1.13582038681203	0.0412094915092906	0.0307452754295993	-0.0684308040414478	-0.0117125672917127	-0.0233829838057234	-0.00383766671308335	0.626220703125	0.341552734375	0.212890625	0	0	0	-0.684349782724849	-0.304288870610175	-0.618846999829835	0.236858710857016	0.0488733480487923	0.123321439780473	0.991162558988672	0.709638650170181	-0.702612468627872	0.0524280946944576	0.702868680505217	0.700804923940406	-0.121852683785529	156.719819720125	-82.3770819426251	68.3811509168668
26238	1640082357276	9.68673967528809	0.537875976085478	-1.18956674336881	0.019420863386764	-0.016205007982123	-0.0384014490518538	-0.0235044578021663	-0.0185970667095758	-0.0025068654917367	0.634033203125	0.340087890625	0.209228515625	0	0	0	-0.684428563253487	-0.304247311651794	-0.618825407334128	0.236740850706367	0.0489773771808145	0.123468594033156	0.991139103664044	0.709473607517138	-0.702774685918964	0.0524875325017354	0.70302803412176	0.700616333751204	-0.122017769689154	156.724412753777	-82.3669577392844	68.3628205047048
26239	1640082357277	9.65590021145356	0.506869103975098	-1.15811958017799	0.0185618732944953	0.0254041224673616	-0.0744341199761944	-0.0280618362555267	-0.00119209386207871	-0.00259978402862084	0.632080078125	0.34228515625	0.208984375	0	0	0	-0.684477959211792	-0.304191379291462	-0.618843138017791	0.236623537811249	0.0490015505861027	0.123558883678511	0.991126657044536	0.70929029435045	-0.702953812236893	0.0525663029123412	0.703211295686019	0.700420687962413	-0.122084943763964	156.704663872014	-82.3615907260506	68.3674854425624
26240	1640082357278	9.63635812300229	0.46291130723401	-1.18282763657716	-0.0315824786365389	0.0366026342823879	-0.0930974159795443	-0.0300013947895799	0.00602803695268505	0.00120302106802963	0.634521484375	0.343994140625	0.204345703125	0	0	0	-0.684494119232142	-0.304088006811526	-0.618910886092516	0.236532450049006	0.0489595983791421	0.123507888284098	0.99113508628146	0.709077921281953	-0.703165768374417	0.0525966133594268	0.703428361154864	0.700216897623886	-0.122003430299984	156.678755879195	-82.3652250240324	68.3761958814883
26241	1640082357279	9.59474591639997	0.471054046420203	-1.13966986964094	0.00288915470887142	0.0569557131444985	-0.139185615199338	-0.0183311154412547	0.0144181884794599	0.00274807020813344	0.63427734375	0.34033203125	0.210693359375	0	0	0	-0.684526254340001	-0.304067860165741	-0.618905713097305	0.236478882416572	0.0489969094194863	0.123568604059904	0.991125674653838	0.709001129477834	-0.703240949170473	0.0526266644294485	0.703503163650666	0.700130678873951	-0.12206691293305	156.677693825611	-82.3611672763496	68.3708895806572
26242	1640082357281	9.59494081285562	0.471047522056594	-1.13803060157856	0.00283127067136416	0.0569717644154637	-0.139185692604578	-0.0202714531451836	0.0178564962147154	0.00196999758003613	0.632080078125	0.34326171875	0.208251953125	0	0	0	-0.684496163559401	-0.303978799888365	-0.618997000944561	0.236441544810829	0.0488792040801384	0.123431430380749	0.991148578873347	0.708857858927158	-0.703384570211796	0.0526372703051079	0.703655710731959	0.700010591621391	-0.121876217418217	156.640907318928	-82.3710459892958	68.3962907573802
26243	1640082357282	9.58413613753982	0.510556762237629	-1.12634264906519	0.0381959281742873	0.0355482649319075	-0.149237742462274	-0.0230895977083857	0.018805020975777	0.00551626119193249	0.6328125	0.34326171875	0.214599609375	0	0	0	-0.684510015016071	-0.303895564731966	-0.619038837522116	0.236398905915839	0.0488768067510139	0.123358907336709	0.991157725966215	0.708719322975273	-0.703526086036068	0.0526114769631393	0.703795409904963	0.699881151516074	-0.121812949842124	156.640300263277	-82.3749947346677	68.3857232092303
26244	1640082357283	9.557620738007	0.49848381529911	-1.10604215566978	0.0411939979955287	0.0534596869923271	-0.178613756233249	-0.0140763676691343	0.0223930655802822	0.000870965496468106	0.631103515625	0.341796875	0.218017578125	0	0	0	-0.684457416463898	-0.303824413908806	-0.619136689730613	0.236386399756745	0.0487209698847778	0.123198760719902	0.991185316906262	0.708620732890815	-0.70362439104603	0.0526248348442764	0.70390547945784	0.699810532703091	-0.121582458878925	156.595472600479	-82.386917911708	68.4228678985806
26245	1640082357284	9.52784557188439	0.538389288956645	-1.05642401934561	0.100746434429291	0.0547847535046192	-0.212031942121014	-0.00964219235115363	0.0181612708748078	0.00383773054183553	0.633544921875	0.33740234375	0.2158203125	0	0	0	-0.684394051470839	-0.303753482975117	-0.619246228678709	0.236374093671479	0.0485358596953634	0.123026621596615	0.991215779082514	0.708521685850259	-0.703722218842945	0.0526503502995851	0.704017962131322	0.699742444821868	-0.121322792216366	156.540643402671	-82.4001034664512	68.4700171300184
26246	1640082357284	9.54683524845323	0.510846070831548	-1.04530042558555	0.0891459356254795	0.0831146850296199	-0.195992253562389	-0.0129532846450826	0.00987916945923721	0.00452917609425864	0.63134765625	0.33837890625	0.2138671875	0	0	0	-0.684384227114866	-0.303687941156156	-0.619295488568513	0.236357699073689	0.048493464470043	0.122927960334982	0.991230094615561	0.708428987234061	-0.703817344969854	0.0526261813749458	0.704114162583182	0.699664106187724	-0.121216271854556	156.531870266674	-82.4063078071409	68.4714174135172
26247	1640082357285	9.53582571855482	0.550269478162032	-1.03535721034725	0.124102870345991	0.0600228642788705	-0.206037120279449	-0.0146524186759343	-0.00925436857395203	0.00256623120121867	0.618896484375	0.341796875	0.212890625	0	0	0	-0.684449556401452	-0.303595986502888	-0.61928320085495	0.236318849988826	0.0486355882363717	0.122895688887444	0.991227133007255	0.708288864261207	-0.703965756238595	0.0525271244881429	0.704245315440913	0.699520452664755	-0.121283436557613	156.582854775733	-82.4050238350766	68.4089709753471
26248	1640082357285	9.56567093748879	0.510257860433035	-1.08449029833137	0.0636610851157942	0.0585534363053322	-0.172611577579072	-0.0133671000449448	-0.0237352548013499	0.00106332139172076	0.626220703125	0.351318359375	0.210693359375	0	0	0	-0.684539361234725	-0.303580034229184	-0.619221998091203	0.236239587744519	0.0488065597946909	0.123055466326916	0.991198906339223	0.708194464532529	-0.704060039999415	0.0525362777660066	0.704328417804147	0.699397463737957	-0.121509948524475	156.618181388796	-82.3927972915297	68.365611900564
26249	1640082357286	9.59936135852445	0.4899382583965	-1.14850721562522	0.00553315535502357	0.0358883159717126	-0.132525811066479	-0.0172889688187625	-0.0280669198175026	0.00178306806471245	0.629638671875	0.34521484375	0.206787109375	0	0	0	-0.684589433855193	-0.303684378293075	-0.619174850318612	0.236083904931064	0.0487966062273456	0.123443800215995	0.991151108261968	0.708152666209295	-0.704080376426498	0.0528263653092708	0.704371132686001	0.699308552585592	-0.121773789130849	156.548445411202	-82.3721377079933	68.4314050107272
26250	1640082357287	9.64450116310238	0.447594456790625	-1.11218234520034	0.00526105772470296	0.0984955078564616	-0.0944589537740157	-0.0157340005078983	-0.0285456595835053	0.00515376732345479	0.630615234375	0.34228515625	0.2099609375	0	0	0	-0.684702430247373	-0.303654308050701	-0.619096177498113	0.236001199621559	0.0490279684189481	0.123610804213447	0.991118876520075	0.708040566496152	-0.704194989958869	0.0528012529456938	0.704467752639195	0.699163632634402	-0.122046713568819	156.60517067671	-82.3582376478561	68.365151650595
26251	1640082357290	9.64437419962511	0.474334793508429	-1.16191568310888	-0.00877223224516193	0.0479748305847003	-0.087122265541069	-0.0126472401118017	-0.0192707221585565	0.00189920514216708	0.625244140625	0.343017578125	0.2099609375	0	0	0	-0.684796417277637	-0.303713643953887	-0.618996551598303	0.235913455464867	0.0492025831713216	0.123904799699129	0.991073512117435	0.7080232613327	-0.704205728013756	0.0528900183817648	0.704472971249484	0.699100774741478	-0.12237622128007	156.626387658646	-82.3387165507273	68.3419781543675
26252	1640082357288	9.60963320339602	0.449700166120003	-1.16484216117246	-0.0286823767165718	0.0599496915106877	-0.122500523287066	-0.01358387899823	-0.0151760602467854	0.00766667681101593	0.639404296875	0.344482421875	0.210693359375	0	0	0	-0.684869594547219	-0.303666836095362	-0.618956617545255	0.235866056730291	0.0493583165055388	0.123962652493099	0.991058533780227	0.707926079163172	-0.704307311876671	0.0528382141798578	0.70455973702192	0.698988176741161	-0.12251981775888	156.671270601206	-82.3322819585422	68.2889937919462
26253	1640082357288	9.60954650202566	0.449157375829794	-1.16576641185594	-0.0285291337107377	0.061003043225729	-0.122506644868935	-0.0123773958490261	-0.0052741276003105	0.0067787894541474	0.633056640625	0.335693359375	0.209716796875	0	0	0	-0.684919933765597	-0.303664191113765	-0.618919749992602	0.235820029757542	0.0494528042086358	0.124063967607674	0.991041145511802	0.707878663050819	-0.70435394520075	0.0528518521673998	0.70460075117281	0.698923208815948	-0.122654513268493	156.688781127969	-82.3248188020983	68.2674126227169
26254	1640082357290	9.56390514771219	0.463968384927594	-1.15793990493054	-0.0139665664467638	0.050633519742789	-0.167916020064633	-0.00872137446379987	-0.0111564499228629	0.00576268111836544	0.631591796875	0.333251953125	0.21337890625	0	0	0	-0.684972282331343	-0.303634855714188	-0.618887865660397	0.235789432696916	0.0495673682674845	0.12410848273365	0.991029848448869	0.707817357721932	-0.704418435647782	0.0528134038580748	0.704654286945435	0.698850307314152	-0.122762306333569	156.722207568284	-82.3199738934623	68.2288533979171
26255	1640082357292	9.61333857586622	0.467746948525063	-1.18153707742197	-0.0225156310124243	0.0369463765770475	-0.115820676394661	-0.00396034870158925	-0.0117616726590953	0.00757414823779212	0.636474609375	0.344970703125	0.211669921875	0	0	0	-0.685081315488607	-0.303529762708592	-0.618805597338877	0.235823889842698	0.0498986317042829	0.124026852210917	0.991023443963205	0.707743424294471	-0.70451355225905	0.0525347508918834	0.70470516666332	0.698768913600188	-0.122933451363069	156.860897688171	-82.317228586159	68.0840316535303
26256	1640082357293	9.5786505890294	0.442778953137863	-1.18407017957368	-0.0424011790519555	0.0489214065310481	-0.151195181177352	-0.000916999570513964	-0.0136983110381377	0.00658981686890215	0.6279296875	0.340087890625	0.218017578125	0	0	0	-0.685134310816192	-0.303523781535123	-0.618751611332962	0.235819281777177	0.0500395150309647	0.124081992590762	0.991009437921845	0.707736234922803	-0.70452516076943	0.0524758956103112	0.704702397266223	0.698747420000614	-0.12307141962992	156.907292605595	-82.3112282382372	68.0368728268419
26257	1640082357294	9.57851777385366	0.442163215121787	-1.18537396738862	-0.0431612843234397	0.0488099183284019	-0.151197983052906	0.0013507077827484	-0.0135046540283204	0.00621304381266418	0.6318359375	0.342529296875	0.2080078125	0	0	0	-0.685159822499511	-0.303524340530474	-0.618726254225149	0.235810972328464	0.0501015940761143	0.124120487336319	0.991001480773075	0.707730245792243	-0.704532320070091	0.0524605486771419	0.704704001309687	0.698733364453173	-0.123142015324041	156.92518805252	-82.307821377345	68.0183909515237
26258	1640082357294	9.56346434361395	0.461435058566634	-1.16258358938157	-0.0129798395766243	0.0496055892134584	-0.167909299970738	0.00112855852850793	-0.00873555049236331	0.00823477758858765	0.634521484375	0.346435546875	0.20849609375	0	0	0	-0.685197393349108	-0.303513241050973	-0.61868439614022	0.235825915935746	0.0502186609586924	0.12412933444029	0.990994447221036	0.707736592019974	-0.704531699759602	0.0523832067536859	0.704689294943147	0.698732418287041	-0.123231510691357	156.970642952313	-82.3048112035897	67.9733576156922
26259	1640082357295	9.56342804491948	0.460580458176447	-1.16322087764357	-0.0124940889259701	0.0511304936502609	-0.167916622014603	-0.00268923735382293	-0.00466722475165311	0.00982729730455658	0.63671875	0.3388671875	0.21044921875	0	0	0	-0.685248954140381	-0.303556103373517	-0.618606439376224	0.235825435685956	0.0503595305339133	0.124256738551192	0.990971331880506	0.707789270887336	-0.704480111976431	0.0523652541906225	0.704626330547743	0.698761786844627	-0.123424874091598	157.010029652248	-82.2949266841799	67.9379708686204
26260	1640082357296	9.52877513778011	0.435429022787504	-1.16547085652508	-0.0323747443496159	0.0631162164839376	-0.203293813411024	-0.00428535880783434	-0.0153871279123124	0.00872424729958577	0.635009765625	0.3408203125	0.209716796875	0	0	0	-0.685314553670802	-0.303535376914073	-0.618548620082321	0.235813150784423	0.0505277591117759	0.124310624676394	0.990956010200103	0.707758220736271	-0.70451686575751	0.0522904087136688	0.704645475781524	0.698715145431799	-0.123579525022758	157.065239889662	-82.2883818087296	67.8800417770288
26261	1640082357299	9.57406346932551	0.419486442350825	-1.17651916720953	-0.0455886379876338	0.0736255375071659	-0.157877292405937	0.00612561194311388	-0.0356702115892546	0.00425507902968262	0.635986328125	0.33251953125	0.2119140625	0	0	0	-0.68547130568221	-0.303563790183093	-0.618362223426531	0.235809828071262	0.0509543718573435	0.124536756045342	0.990905771696949	0.707800314413238	-0.704485500549354	0.0521430190173935	0.704572471010006	0.698706501980216	-0.124043771247997	157.200071074334	-82.2669603355614	67.7480138056466
26262	1640082357299	9.53212579082671	0.480825508874318	-1.23283851365736	-0.0411054521319371	-0.011977572250399	-0.189243496071175	0.0072940063961734	-0.0369717491517744	0.00563482408317083	0.62451171875	0.341796875	0.208740234375	0	0	0	-0.685585894990564	-0.303614774216954	-0.618215718405249	0.235795197117877	0.0512547887877412	0.124763419062305	0.990861764268966	0.707852607793247	-0.704437387786659	0.0520831290208903	0.704498142131421	0.698714574023035	-0.124419901065647	157.285438850205	-82.2482441088648	67.6663650255013
26263	1640082357300	9.55443113055111	0.472668589635754	-1.24097973393399	-0.0474898019305489	-0.00711484255286193	-0.166533040305417	-0.000611575855218672	-0.0428168815807296	0.00393970540447814	0.62939453125	0.334228515625	0.212158203125	0	0	0	-0.685752448755904	-0.303621642238884	-0.618039955609258	0.235762784722165	0.0516810232693379	0.124996927313204	0.990810193728391	0.707840211329211	-0.704459615408427	0.0519507986851891	0.704479458223767	0.698650426480131	-0.124885045221112	157.413229245343	-82.2263683077458	67.5369435459993
26264	1640082357301	9.61123705802383	0.461970671027978	-1.20075075922646	-0.0205112295070253	0.0384099868964108	-0.115821916447221	-0.000770529279036018	-0.0446235073250597	0.00451331443757524	0.635986328125	0.3369140625	0.2109375	0	0	0	-0.685898767304324	-0.303660242777756	-0.617880403262137	0.235705632582638	0.0520285284415458	0.125284589778555	0.990755673106254	0.707836155023825	-0.704466623449945	0.0519110208541622	0.70445795464974	0.698591832194632	-0.125333324066874	157.501460060831	-82.2033074428264	67.4477313530852
26265	1640082357302	9.62956919427346	0.461227860127077	-1.24279780065471	-0.0452787205541837	0.0134551167988502	-0.0924174200836347	0.00392929190078485	-0.0424186180411694	0.0031791228617108	0.63232421875	0.33203125	0.21240234375	0	0	0	-0.686067269128649	-0.303630448839049	-0.617711800084814	0.235695534120048	0.052481365147553	0.125438000412132	0.990712377213919	0.707805651025118	-0.704512331467325	0.0517062393467388	0.704455013957001	0.698518205104978	-0.125759494463688	157.649898666762	-82.185042536688	67.2963020192804
26266	1640082357303	9.63297791851504	0.480408230796027	-1.26101825592353	-0.0409840453557131	-0.00957762576839286	-0.0857428467526375	0.00720494516846776	-0.0453383000971754	0.00475299859240117	0.627685546875	0.341552734375	0.212646484375	0	0	0	-0.686207108485108	-0.303692866876144	-0.617537118142383	0.235665768811373	0.0528371006498972	0.125727688660094	0.990656746355216	0.707857127526433	-0.704464576038186	0.0516521840522403	0.70437669453563	0.69851428719213	-0.126219106253889	157.744329028032	-82.1616360619386	67.2054039775975
26267	1640082357304	9.62845483586498	0.487125217439386	-1.2990298849235	-0.0595664805672358	-0.0396619097503735	-0.0850571730261773	0.000247165531415223	-0.0477187417242197	0.00646605658086074	0.640380859375	0.33935546875	0.20947265625	0	0	0	-0.6863645339084	-0.30366835624798	-0.617388104326568	0.235629337397536	0.0532349160993935	0.12590487971857	0.990612944076012	0.707803879476929	-0.704528689542496	0.0515072209398016	0.70440024979077	0.69841770229182	-0.126621487987291	157.864440185953	-82.1432551795277	67.0804579240792
26268	1640082357304	9.601257550903	0.474493965413017	-1.28468504675021	-0.0565051111949172	-0.0217320643237061	-0.114438003168974	-0.000260043706362607	-0.0353829010840628	0.00737188159662692	0.629638671875	0.343505859375	0.20849609375	0	0	0	-0.686486354891282	-0.303686390602187	-0.617256002480503	0.235597300733446	0.0535392071296109	0.126105430537324	0.990571034145925	0.707800822721019	-0.70453697610026	0.0514358305362201	0.704380258564492	0.698373159347134	-0.126977878577808	157.948257722108	-82.1257083035873	66.9959086533061
26269	1640082357305	9.60386283971995	0.421615521010364	-1.31756617289052	-0.113310114787177	-0.00496086881150853	-0.110365123576191	-0.00189886751159683	-0.0357365736251674	0.012303562372653	0.6318359375	0.3427734375	0.220703125	0	0	0	-0.686636326756756	-0.303694440404144	-0.617092618649576	0.235577888720084	0.0539327737516459	0.126308517538669	0.990523808049377	0.70780202252353	-0.704545490427604	0.0513025226448802	0.704349027703634	0.698327867348363	-0.127399516708793	158.065842587553	-82.105982095912	66.8778873922626
26270	1640082357306	9.5510768224019	0.468185983116998	-1.26820070940462	-0.0455891915912498	-0.00864147362949763	-0.166525117316231	0.00399798215904826	-0.0236547363836845	0.0100789232529682	0.63232421875	0.341552734375	0.20703125	0	0	0	-0.686721260558311	-0.303702689660979	-0.616990683456203	0.235586678566802	0.0541743456418677	0.126408616113658	0.990497855649625	0.707827759402091	-0.704527186349098	0.0511986983705494	0.704304623933487	0.69832822187511	-0.127642826820218	158.143830186397	-82.0951626776104	66.8017064646
26271	1640082357307	9.56575444466775	0.420218005654544	-1.24681058658702	-0.0627721106423871	0.0423496596868564	-0.157168545228588	0.0032242865054985	-0.0215249308584044	0.0106883549740145	0.634765625	0.342529296875	0.21484375	0	0	0	-0.686756010093053	-0.303692774714752	-0.616959290009718	0.235580380460319	0.0542638661135176	0.126438667976348	0.990489119614537	0.70781268505242	-0.704545165856452	0.0511596730559254	0.704312881973131	0.698304641620455	-0.127726237625751	158.171843738483	-82.0915239795084	66.7723718639319
26272	1640082357308	9.55458948037229	0.458630065666408	-1.23926312218432	-0.0282873254789658	0.020046744691285	-0.16721734023759	0.00391108500814042	-0.0282616475741821	0.0137910490096379	0.63330078125	0.3408203125	0.21337890625	0	0	0	-0.686860418222243	-0.303693398613092	-0.616837871781386	0.235593135414864	0.0545627191500815	0.126544413054228	0.99045919714227	0.707835486076662	-0.704532388368447	0.051019980306425	0.704266877206053	0.698298378391797	-0.128013828963209	158.27021946649	-82.0790733792754	66.6755283785242
26273	1640082357309	9.577001807346	0.449759956788768	-1.24672918069347	-0.0366592711223392	0.0245772094310655	-0.144511097776768	0.00810919317507025	-0.0352702319721323	0.00958965237811968	0.630126953125	0.33984375	0.20703125	0	0	0	-0.686940920515681	-0.303695487286442	-0.616750643427493	0.235584096565734	0.0547753896672482	0.126648428909612	0.990434163456374	0.707835001462416	-0.704538368894315	0.0509440620724376	0.704250855442507	0.698273486687319	-0.128237554554161	158.333896174299	-82.0686719003353	66.611538850785
26274	1640082357310	9.56456271505908	0.443866251956342	-1.30359386085567	-0.0781991288416807	-0.0103802655825894	-0.149819790728703	0.0144130425532296	-0.0438962307834923	0.00557980196100087	0.62744140625	0.345458984375	0.212158203125	0	0	0	-0.687068311650935	-0.303774869689449	-0.616569752169863	0.23558375236736	0.0551251385087043	0.126920542054245	0.990379924629459	0.707935805303804	-0.704442248331346	0.0508725302568435	0.704122229924074	0.69832105422258	-0.128684072659416	158.429681737508	-82.0461820700778	66.5233466190333
26275	1640082357311	9.5719491071752	0.455419526265222	-1.28851485528098	-0.056460128206294	-0.00379551036666023	-0.143836179970028	0.0140958973613844	-0.0475090601388458	0.0067284137676388	0.633056640625	0.335205078125	0.211669921875	0	0	0	-0.687167481771196	-0.303911046713527	-0.616400495996156	0.235561788534166	0.0553770084423637	0.127274770724762	0.990320412630647	0.708076383885568	-0.704297438936148	0.0509210378087738	0.703961093754132	0.698402641922941	-0.129122144636556	158.47754249196	-82.0215782197216	66.4862345145144
26276	1640082357312	9.61393788163495	0.491178784965564	-1.2726080984975	-0.0136846727849096	-0.00970856794271016	-0.10247078121991	0.0230053402668607	-0.0485454186685061	0.00576746603633964	0.630126953125	0.344970703125	0.207763671875	0	0	0	-0.687298876772489	-0.304022295043065	-0.616190572221234	0.235584118330779	0.0557592456448319	0.127578938432831	0.990259824992144	0.708237789154741	-0.704141134614114	0.0508379440728349	0.703768527669662	0.698504743729561	-0.129618603791956	158.584303155656	-81.9966068690611	66.3919384613304
26277	1640082357315	9.61716761181023	0.536847517109318	-1.33813760128456	-0.0241675440801704	-0.0851437363295661	-0.0884446728934911	0.0160198552401503	-0.0331754356586645	0.0066740707353704	0.633056640625	0.33740234375	0.20654296875	0	0	0	-0.687379851825398	-0.304083071964616	-0.616061086254889	0.235608070005045	0.0560044466940175	0.127743226823847	0.990224807784136	0.708339080974751	-0.70404464538612	0.0507630147546171	0.703647104956982	0.698571975750362	-0.129915150701888	158.657436166725	-81.9822096710243	66.3266715559899
26278	1640082357317	9.60612160440312	0.548753702743682	-1.28370422086696	0.0246792262527145	-0.0552999471601458	-0.105837636507912	0.00650302940705438	-0.0281899824972992	0.00767075524740617	0.636474609375	0.343505859375	0.208251953125	0	0	0	-0.687470671089152	-0.30411292146085	-0.615944102564773	0.235610419779037	0.0562563870324472	0.127891731275729	0.99019135725846	0.708383125538563	-0.704006122184186	0.0506826141729254	0.70358266491598	0.698583627777292	-0.130201185214445	158.730835596959	-81.9684805535172	66.256501689706
26279	1640082357318	9.63268528153348	0.532960661250373	-1.25702010484906	0.0365265967231743	-0.020872432114373	-0.083812704512205	0.000743047270022383	-0.0206990924237064	0.00850985088989748	0.635498046875	0.343017578125	0.211669921875	0	0	0	-0.687563470548033	-0.304111486359255	-0.615840735117203	0.235611686472918	0.0565127856693358	0.12799334959001	0.990163626637851	0.708390446388752	-0.704006674123504	0.0505725049281493	0.703554745930291	0.698564460340127	-0.130454644335382	158.810505740965	-81.9571167104509	66.1771473229498
26280	1640082357319	9.60871550655532	0.468329482304987	-1.26984234359365	-0.0178011610760604	0.0134592047861787	-0.10914432548369	-0.00253391512873794	-0.017776554024558	0.00694228591400929	0.632080078125	0.3427734375	0.2099609375	0	0	0	-0.68763190034795	-0.30410378967063	-0.615773895799683	0.235596612843883	0.0566867887192856	0.128074445332282	0.99014319390557	0.708371421844631	-0.704030242248902	0.0505108573751038	0.703559902708015	0.69852584379662	-0.130633490536342	158.860464777552	-81.9487536942828	66.1254299684863
26281	1640082357320	9.59349183391899	0.514621636836792	-1.295655480128	-0.00314632037706277	-0.0379960022599705	-0.11850406355437	0.00610895545160533	-0.0290057448828943	0.00568032004520844	0.63525390625	0.342529296875	0.210693359375	0	0	0	-0.687686493846486	-0.304146088377486	-0.615701839206473	0.23557098357728	0.0568128042448817	0.128231338562454	0.990115664497999	0.708397289971292	-0.704002937242215	0.0505286445064884	0.703523691736932	0.698524579499401	-0.130835113788398	158.8833921043	-81.937499671027	66.104296365771
26282	1640082357323	9.54350532038648	0.536902513194965	-1.32332732501006	-0.0072033815995581	-0.0774243501703159	-0.16323629315105	0.00233237568044854	-0.0352794115199652	0.00125453199155478	0.633544921875	0.329833984375	0.210693359375	0	0	0	-0.687794037520035	-0.304193671648949	-0.615574516247054	0.235528314705103	0.0570684501518741	0.128474730448795	0.990069409502876	0.708415643997104	-0.703985246201811	0.0505178034988104	0.703484518193139	0.698497685584058	-0.13118885583876	158.939455120129	-81.91862568185	66.0492168676835
26283	1640082357320	9.59267606706996	0.513980449376592	-1.30193476644501	-0.00283104166350322	-0.0394231821277229	-0.118509665191679	-0.00241422461106078	-0.0308999107778738	0.00404844347924837	0.63720703125	0.3408203125	0.2109375	0	0	0	-0.687910780020214	-0.304111263857944	-0.6154945540551	0.2355027640076	0.057365586246476	0.128501496043701	0.990048763965255	0.708304170890105	-0.704109574679009	0.050347873291988	0.703572591147694	0.698367433633525	-0.13140980414659	159.036347338658	-81.9102155508724	65.9430792367325
26284	1640082357321	9.59229357656733	0.51386877767456	-1.3047938109552	-0.00283734214499114	-0.0393837359393946	-0.118509506698659	-0.00515606889281733	-0.029115682055879	-0.000691395903279382	0.63623046875	0.3408203125	0.214599609375	0	0	0	-0.688005250749638	-0.304134335836797	-0.615402339556225	0.235437977341727	0.0575645324676703	0.128713875824971	0.990009627615759	0.708270204130908	-0.704142529180695	0.0503648343527222	0.70359053613742	0.698295092900651	-0.131697838587922	159.071786802111	-81.8942968238167	65.9044388208279
26285	1640082357322	9.59201404179189	0.513902151016969	-1.3068338706119	-0.00376523665365676	-0.0404523629131938	-0.118514223010294	0.00168657004390861	-0.0136062866639475	0.000467714207175555	0.628173828125	0.342041015625	0.208251953125	0	0	0	-0.6880211691744	-0.304090222060335	-0.615416368513322	0.235411768994379	0.0575836604263417	0.128688508273273	0.990011813005433	0.708193532192545	-0.704220871732467	0.0503476392397094	0.703666144568964	0.698220761403415	-0.131687984769623	159.07688342422	-81.8951849132961	65.8931337209177
26286	1640082357325	9.56915474277785	0.521331276264047	-1.30339881288727	0.00351902026841413	-0.0456356053000234	-0.141220968768426	-0.00266268455556887	-0.00840876317793113	0.00525158663446588	0.637939453125	0.346435546875	0.20556640625	0	0	0	-0.688057730886423	-0.304075638500876	-0.615385159234553	0.235405333056784	0.0576782237282985	0.128713290953882	0.990003086479719	0.70817308442513	-0.704244670477418	0.0503023518331921	0.703678978656707	0.698192189039647	-0.131770869924578	159.106091027388	-81.8916392418191	65.862182187595
26287	1640082357325	9.55298370477369	0.496413347105776	-1.34333599236018	-0.0431595556813318	-0.0564669111872917	-0.153214079665357	-0.00495126007848256	-0.0123682475731025	0.00105259342482791	0.630859375	0.34326171875	0.206787109375	0	0	0	-0.688077008472376	-0.30414215125316	-0.615354429629257	0.235343383545104	0.0576729555335032	0.12890725607242	0.989978156088259	0.708185630266087	-0.704222087305285	0.0504416973942431	0.703666784269838	0.69817918264817	-0.131904835514387	159.072657715286	-81.8815182578112	65.8963137669433
26288	1640082357326	9.57968683392629	0.481225742998863	-1.31571062789732	-0.031833594651174	-0.0221659970408752	-0.131180889671874	-0.00276340822744388	-0.0167787022952792	0.00437879938504867	0.63623046875	0.33935546875	0.207763671875	0	0	0	-0.688137850751932	-0.304140800353954	-0.615295656696345	0.235320901692098	0.0578192568213406	0.128997735881055	0.98995783631334	0.708165450845115	-0.704244893573749	0.0504065879090627	0.703675086790745	0.69813946601869	-0.132070656154865	159.109955090613	-81.8732783056377	65.8571632757377
26289	1640082357327	9.57945544477896	0.48076312270875	-1.31756323715458	-0.0320975005270851	-0.0218365005743404	-0.131181012231531	-0.00323952192033755	-0.0222010330575195	0.0061046890406721	0.630615234375	0.336669921875	0.20703125	0	0	0	-0.688212270710907	-0.304155489067119	-0.615219322552388	0.235283858501727	0.0579892472570464	0.129144727490248	0.989928728022392	0.708149431630025	-0.704261888797763	0.0503941908267314	0.703677219813626	0.698095144911121	-0.132293382173441	159.146785558	-81.8614889255011	65.8187143755494
26290	1640082357328	9.59780743827798	0.479890530848208	-1.35721682045687	-0.0580773350493439	-0.0456277512275532	-0.107802765065925	-0.0011120085047957	-0.0126543476376462	0.00402743755581387	0.636474609375	0.3291015625	0.205322265625	0	0	0	-0.688257849932684	-0.304155762331022	-0.61517267077974	0.235272160215771	0.0581037147331133	0.129209175733061	0.98991360594781	0.708141188373281	-0.704272565736479	0.0503608030141954	0.703676072965033	0.698072447570694	-0.132419191506252	159.177516062244	-81.8553709042985	65.787159634054
26291	1640082357329	9.62040660303784	0.471817305929299	-1.36274561721357	-0.0636215200920585	-0.0416338056695622	-0.085091088791815	-0.00399265778230463	-0.00891226935428062	0.00445163332368151	0.638916015625	0.33203125	0.2099609375	0	0	0	-0.688353240825513	-0.304043322982261	-0.615111138845992	0.235299299749286	0.0583918892349811	0.1291079729755	0.989909853767366	0.708048853929291	-0.7043837945748	0.0501027982234884	0.703745129802678	0.697978940409067	-0.132545052810164	159.293117283438	-81.8538535706381	65.6641040538533
26292	1640082357329	9.58990616998548	0.439573278393306	-1.33072864826036	-0.0648403111940171	-0.00062276238937814	-0.12113645395001	-0.00434225941464449	-0.00219698808845629	0.0116369815781098	0.627685546875	0.34814453125	0.210205078125	0	0	0	-0.688382493538411	-0.303994263314824	-0.615096179938123	0.235316212546108	0.0584883545944111	0.129044451174825	0.98991244158149	0.708012864833299	-0.704427535969265	0.0499962978510957	0.703773326865536	0.697946542501114	-0.132565939076966	159.336390551923	-81.854900019445	65.617973840772
26293	1640082357330	9.59793210907838	0.450991514892255	-1.31168383992193	-0.0428189413480821	0.00484628650127203	-0.115143777132516	-0.000928046662887428	-0.00707683296405792	0.00803776669279844	0.634765625	0.339599609375	0.209716796875	0	0	0	-0.688392016559123	-0.303947677144603	-0.615109927291174	0.235312597291162	0.058511173812495	0.12898407957514	0.989918961206037	0.707956538016996	-0.704487582228976	0.04994784043542	0.703828091807989	0.697897093919531	-0.132535517807869	159.350389360201	-81.857536988518	65.599484094445
26294	1640082357331	9.58981953454893	0.437894021854937	-1.33190610869237	-0.0657453310293082	-0.00107713688549602	-0.121142590997945	0.00797514193833468	-0.00812506932149978	0.00706169197427149	0.6376953125	0.33837890625	0.2041015625	0	0	0	-0.688417754112904	-0.30395903463329	-0.615061680068082	0.235348742930085	0.0586160699532519	0.128993605472173	0.989911514273132	0.708009578386131	-0.704439748932053	0.049870602944399	0.703766007460383	0.697943615109297	-0.132620197826113	159.391692186578	-81.8545250232491	65.5624460402168
26295	1640082357334	9.61630778105596	0.449008856133071	-1.35144072563656	-0.0681645691836253	-0.019114010679408	-0.0917633112643212	0.00632505530063597	-0.0122452437930572	0.00741258298714069	0.637939453125	0.35009765625	0.21533203125	0	0	0	-0.68848239761482	-0.303943576373283	-0.614984942506577	0.235380141571352	0.0588236457432013	0.129009118739305	0.989897179500773	0.708030090065098	-0.704428982670537	0.0497312772424124	0.703728051354988	0.697951614122254	-0.132779418888064	159.467037068724	-81.8487303340145	65.4886732904491
26296	1640082357335	9.59733738321689	0.475565536609092	-1.36205455518687	-0.0566306143271633	-0.0474018694401654	-0.107802718449038	0.0110153790438626	-0.0100578058632231	0.00606092603592976	0.6337890625	0.33203125	0.208251953125	0	0	0	-0.68850913745124	-0.303969818991682	-0.614926450650175	0.235420850986252	0.0589356188658831	0.129038979158305	0.989886627188527	0.708105012382384	-0.704358744126147	0.0496593496935	0.703643293343892	0.698016977895825	-0.132884966423373	159.509194219556	-81.8444672799024	65.4525278821388
26297	1640082357336	9.57047143933003	0.489853141149983	-1.39102678810719	-0.0691467681830024	-0.0823964903214271	-0.12985386076687	-0.000961794760324378	0.0106469276343615	0.00722143383111787	0.6357421875	0.34423828125	0.210205078125	0	0	0	-0.688457301879009	-0.303886114845386	-0.61502065793639	0.235434413383307	0.0588056390313338	0.128831173770159	0.989921423893392	0.708019285049637	-0.70444773239807	0.0496193945652074	0.703740427157569	0.697965558594563	-0.132640454612696	159.489707194756	-81.8585332835532	65.4654339153599
26298	1640082357338	9.56276727152552	0.450002746525773	-1.36292126087007	-0.0776682796284719	-0.0361840523965783	-0.1431872205528	0.00984117017540658	-0.00875650020345993	0.00468651111913225	0.631591796875	0.34814453125	0.2119140625	0	0	0	-0.68847896625017	-0.303911658201596	-0.61497063837084	0.235468747357298	0.0588976359018353	0.128860836782621	0.989912093687545	0.708086300297419	-0.704384346054283	0.0495629333756029	0.703665303831508	0.698024052434702	-0.132731165919493	159.523945293993	-81.8547593318639	65.4365709792701
26299	1640082357338	9.58647420512195	0.513417688593055	-1.35323594541489	-0.0257687910317196	-0.0698521984219637	-0.117854235034716	0.0108297648936175	-0.0156332280706297	0.00205100354874909	0.6298828125	0.342529296875	0.205078125	0	0	0	-0.688446483979587	-0.304010054868149	-0.614972914765698	0.235430752748641	0.0587724012872931	0.129022234250208	0.989898513947774	0.708156379223464	-0.704300494398548	0.0497529512197525	0.703605249704719	0.698078847021628	-0.13276134952958	159.456273309252	-81.8492695982204	65.5097150287027
26300	1640082357339	9.63567625017781	0.517225788250756	-1.37717846377017	-0.0361843624324794	-0.0825055256873534	-0.0657758844805016	0.00368114394950419	-0.00209534477093611	0.00354872478261123	0.6337890625	0.333740234375	0.2001953125	0	0	0	-0.688452474407088	-0.304013305475126	-0.61495721254482	0.235450052698975	0.0588070736663854	0.129014008611471	0.989897526852551	0.708180841016643	-0.704278365556275	0.0497180070632629	0.703577731671318	0.698102692582819	-0.132781798846309	159.472396256275	-81.8488706991455	65.4955864093534
26301	1640082357340	9.61996028014544	0.465281039292368	-1.36813311296499	-0.0664873309041546	-0.0414579907522257	-0.0851095033571258	0.00786037936186292	0.0123896843134949	0.00310418838813707	0.633544921875	0.3359375	0.202880859375	0	0	0	-0.68844350704912	-0.304048966564867	-0.614924328837784	0.235516099951037	0.0588445914684759	0.128991914327387	0.989898176628821	0.708290233098922	-0.704172785189379	0.0496551537637986	0.703464469430818	0.698213273031091	-0.132800472934509	159.498829786958	-81.8491332807023	65.4780871459446
26302	1640082357341	9.56010313961406	0.500441919335247	-1.33353156059017	-0.0217106870601613	-0.051126213279036	-0.147221259460098	0.00545800017419403	0.0215536702193885	0.00180117093189618	0.63330078125	0.33837890625	0.204833984375	0	0	0	-0.688372299355694	-0.304036095383773	-0.614988938922252	0.235572144335503	0.0587013154141447	0.128831525963849	0.989927569818355	0.70832857830197	-0.704135635033925	0.049634994067499	0.70343783003856	0.698280348709025	-0.132588739632912	159.476461127505	-81.8610201829694	65.503901212159
26303	1640082357341	9.57117760150348	0.46051286849612	-1.34153454358794	-0.0548927298135257	-0.0284958921529847	-0.137182094380829	0.00529969659130193	0.0197481944468941	0.00237660254306868	0.6376953125	0.342041015625	0.203369140625	0	0	0	-0.688350095874001	-0.304020528268663	-0.61499381990716	0.235644362074498	0.0587082397344857	0.128705466819235	0.989943556672864	0.70838477230636	-0.704086506027491	0.0495298535679792	0.70338066290718	0.698353130472573	-0.132508672197006	159.504973163954	-81.8674926738143	65.4801793495038
26304	1640082357342	9.56481944128697	0.492586983014967	-1.29630644125704	-0.00181072810661216	-0.0217876427272917	-0.147888086525569	0.0096727309330904	0.0183215937000667	0.00217635437866312	0.627685546875	0.342529296875	0.215087890625	0	0	0	-0.688284737705969	-0.304023071158029	-0.615040062035624	0.235711294035482	0.058591388589712	0.128565101764974	0.989968718592306	0.708452657389294	-0.704020316135517	0.0494997647114974	0.703322032515104	0.698445709469683	-0.132331815910669	159.491291572182	-81.8776901889011	65.4996692996115
26305	1640082357344	9.54891997641995	0.46761941470831	-1.33394176017651	-0.0488520567515201	-0.0334098815840698	-0.159893028971528	0.00956844901493623	0.0099525611964061	0.00130596633201317	0.629638671875	0.341064453125	0.204833984375	0	0	0	-0.688208046970112	-0.304061480104027	-0.615097742092153	0.235735165123212	0.0584027679801665	0.128514779164451	0.989986398001794	0.708515450360485	-0.70395109648256	0.0495853845551257	0.70327446512207	0.698524734921616	-0.132167399194934	159.435362097417	-81.8848628377688	65.5608638166073
26306	1640082357345	9.56897533012516	0.511685552491708	-1.30852826316545	0.00116397472087782	-0.0445822356225207	-0.141215485557806	0.00719770467749203	0.00139280687946829	0.000823793703484141	0.637451171875	0.343505859375	0.212646484375	0	0	0	-0.688195220505698	-0.30408123965446	-0.615091479717857	0.235763461422285	0.0583941425374082	0.128502318852021	0.989988524260243	0.708566704250569	-0.703900379896779	0.0495729846656128	0.703223541802184	0.698578133948396	-0.132156123673361	159.438467052663	-81.8857258986012	65.561958786969
26307	1640082357346	9.57952025489749	0.498775811019906	-1.36583389428747	-0.0485932182864416	-0.0740118466653838	-0.123845904215351	0.00149249445186323	0.00231421070487491	0.000223410541362767	0.634765625	0.341796875	0.21240234375	0	0	0	-0.688161252332039	-0.304106867599804	-0.615122594107805	0.235748378754806	0.0582864145934409	0.128520817107778	0.989992471407632	0.70857743429324	-0.703883429986232	0.0496602114496689	0.703221667388207	0.698591809686291	-0.132093792265131	159.396420293457	-81.8873283107824	65.6048856665507
26308	1640082357348	9.5795202574176	0.498654512501978	-1.36587816892718	-0.048645334045801	-0.0739809857370023	-0.123845930042215	0.00101376883179811	-0.00310808477767999	0.00195171979973784	0.63525390625	0.3408203125	0.203369140625	0	0	0	-0.688170994141225	-0.304109248270059	-0.615109189487546	0.235751846116358	0.0583165002491871	0.128532073449443	0.989989238271545	0.708584581388746	-0.703877264338697	0.0496456218130791	0.703211971468648	0.698595951063172	-0.132123504121406	159.406208382524	-81.8860157404475	65.5956503278504
26309	1640082357349	9.57567678832082	0.478794762114863	-1.35164020943205	-0.0530717413522043	-0.0506184789931918	-0.130519074715583	0.00487755353007367	0.00776661690361214	0.00265670705636879	0.640380859375	0.341796875	0.20654296875	0	0	0	-0.688143561759171	-0.30411517823601	-0.615128063676675	0.235775024235532	0.0582628472877284	0.128486135630059	0.989998360390956	0.708613472115355	-0.703848192626428	0.0496454315434197	0.703187306315002	0.698633691348596	-0.132055206448237	159.396524340171	-81.8897196291738	65.6077849227013
26310	1640082357351	9.60626922913726	0.51001027221976	-1.38360600221294	-0.0519364761474499	-0.0915630243574737	-0.0944671882151873	-0.00247986799515355	0.00456638394620533	0.00240889818441011	0.630859375	0.346435546875	0.21240234375	0	0	0	-0.688134435718759	-0.304096280416336	-0.615145904323293	0.235779488101175	0.0582419372624551	0.128440671799177	0.9900054901725	0.708595817514698	-0.703866970455394	0.0496311928389929	0.70320682885236	0.698623132833233	-0.132007098770052	159.395061343514	-81.8926157316523	65.6078937655403
26311	1640082357351	9.5835653463568	0.517715004542571	-1.37900421939317	-0.0456520065361475	-0.0962664555412752	-0.117170105551837	0.0062385170481969	-0.00206243201501023	-0.00257298787369556	0.634033203125	0.3349609375	0.20458984375	0	0	0	-0.688102160419636	-0.304157653601169	-0.615160240348255	0.235757115006817	0.0581320009010163	0.128526270039455	0.990000842616303	0.708639884165073	-0.703813408958988	0.0497614302451308	0.703171518935286	0.698661350927096	-0.131992922836679	159.343519691745	-81.8907277873845	65.6629199758446
26312	1640082357352	9.59556112912943	0.549804942786719	-1.37305600863477	-0.0185648895796704	-0.113378368268428	-0.104486590538826	-0.0120783661862551	0.0123385134207052	0.00027833683488743	0.639892578125	0.3408203125	0.209716796875	0	0	0	-0.688076900976118	-0.304107689132419	-0.615222197786318	0.235733618952866	0.0580403215230257	0.128441842313878	0.990017178750208	0.708556062891096	-0.70389634861185	0.0497818857735842	0.703263554307894	0.698593317713477	-0.131862616492716	159.317052900066	-81.8973658322659	65.6827328788977
26313	1640082357353	9.61702218929381	0.497409103531015	-1.43945141442842	-0.100747756044679	-0.121122574916409	-0.0770964119436961	-0.00802518594790039	0.00729586166100804	0.0012317184793229	0.641357421875	0.33544921875	0.204345703125	0	0	0	-0.68810695047627	-0.304025846147037	-0.615228961280641	0.235733821888946	0.0581232201522428	0.128344046957506	0.990024998113534	0.708465144475315	-0.703995700184417	0.049670848446781	0.703348299452486	0.698511173663257	-0.131845780838347	159.356879479923	-81.9005450744144	65.6356350189396
26314	1640082357354	9.62940861941101	0.502451388039251	-1.3851308661956	-0.0592420582092166	-0.0861002761010913	-0.0717617350420028	0.000531437357651431	0.0203590863666595	0.000586979525518095	0.6376953125	0.34423828125	0.208740234375	0	0	0	-0.688042893490435	-0.304003783727992	-0.61529876978051	0.235767046261695	0.0579782467713099	0.128200938937286	0.99005204012563	0.708469633015707	-0.7039911987522	0.0496706268737281	0.70335574355792	0.698541989672087	-0.131642647607253	159.327801719059	-81.9115495421293	65.6653717168728
26315	1640082357355	9.58043103760862	0.498344958076581	-1.35958895387754	-0.0475102330953214	-0.07326842561651	-0.123834882786804	-0.015142945140182	0.0320066422133048	0.00045025005588771	0.640869140625	0.338134765625	0.203857421875	0	0	0	-0.688013460365978	-0.303895893335423	-0.615383401289071	0.235771147062129	0.057901110863519	0.127989629519592	0.990083893463684	0.708348231139266	-0.704118504453747	0.0495975314677242	0.703484360027033	0.698452422446409	-0.131430471261804	159.32514509374	-81.9245310364082	65.6585234537769
26316	1640082357356	9.60380777536306	0.463775884377811	-1.31352178036518	-0.0404486258733763	-0.0158800295975023	-0.108478875929412	-0.00599768572483481	0.0299765698028582	0.00204153103638134	0.629150390625	0.341064453125	0.216064453125	0	0	0	-0.687930042619809	-0.303837242277592	-0.615494108959066	0.235801163065285	0.0576998640836654	0.12776908055426	0.990124127440113	0.708305987563776	-0.704161483404413	0.0495906570938491	0.703543426993693	0.698449473723057	-0.131129626667487	159.284363547898	-81.9409576602322	65.6963079067719
26317	1640082357356	9.58147492769882	0.471598975411329	-1.30614150239965	-0.0332629570873856	-0.021390816507013	-0.131183951291536	-0.0088996014821521	0.0299511444747781	-0.00212256723876356	0.63427734375	0.339599609375	0.203125	0	0	0	-0.687845863568126	-0.303755306447475	-0.615628405197794	0.235801714350936	0.0574687610372424	0.127541195455982	0.990166948027707	0.708206128851073	-0.704260530628321	0.0496103220801237	0.703662860013673	0.69839125743438	-0.13079843644556	159.228847434596	-81.9584769552603	65.7441588234329
26318	1640082357357	9.57374643097087	0.459479621970186	-1.32343694430895	-0.0562155762972138	-0.0273107577454246	-0.137186271985316	-0.00604897959004331	0.0150408586506389	-0.000275370152765454	0.63134765625	0.33984375	0.2041015625	0	0	0	-0.687804854063056	-0.303721843431912	-0.615690720229957	0.235801742089273	0.0573559576900759	0.127440827558052	0.990186411535108	0.708164605231743	-0.704301160499971	0.0496262754532752	0.703713852367867	0.698368606675382	-0.130644950900762	159.200416190684	-81.9664526554984	65.7694187787312
26319	1640082357358	9.60464954629263	0.464174563054309	-1.30721067470438	-0.0394903722500391	-0.0148955950413393	-0.108473368092641	-0.00106442846797247	0.00967745259259565	-0.000506089212987691	0.634521484375	0.3486328125	0.205078125	0	0	0	-0.687813344418647	-0.303765601366842	-0.615655993135229	0.235811282135845	0.0573883150858321	0.127510810199267	0.990175527153613	0.70822532658261	-0.704238997287379	0.0496419327446359	0.703650103445289	0.698418519214656	-0.130721474668248	159.20555315324	-81.9619915159169	65.7690970466631
26320	1640082357359	9.6234524367968	0.463668180906265	-1.34390682648945	-0.065487904947633	-0.0386850840185957	-0.0850913010655603	-0.00431733372409962	0.0163729534674423	0.00251185001644262	0.632080078125	0.338623046875	0.206298828125	0	0	0	-0.687770682956817	-0.303726705129996	-0.615716483904119	0.235827877284977	0.0572866000792496	0.127382424022007	0.990197941576147	0.708194869655918	-0.704270601772277	0.0496280774597594	0.703689044993879	0.698410078341939	-0.130556847488021	159.186891225109	-81.9711811150377	65.785531324338
26321	1640082357360	9.61182534750335	0.431464945242448	-1.34735867074124	-0.0927199724573245	-0.019935791064625	-0.0977643594032731	0.00165582668061719	0.0256362791380935	0.00341185854310051	0.63427734375	0.339599609375	0.206787109375	0	0	0	-0.687695508400801	-0.303779906096141	-0.61576269037842	0.235857935027662	0.0571081555802989	0.127351120690003	0.990212275537532	0.708281187168931	-0.704177606273413	0.049715779442905	0.703616670118599	0.698509549599751	-0.130414687244834	159.132501115844	-81.9770633200878	65.847070088335
26322	1640082357361	9.57069840567627	0.466048663625682	-1.34968156603783	-0.0739042379392509	-0.0534304852464355	-0.136490167250605	0.00293687344994805	0.0327143275476547	0.00565813889569139	0.635009765625	0.336181640625	0.20068359375	0	0	0	-0.687598698147667	-0.303733923693757	-0.615864417231813	0.235933790481457	0.05691344637063	0.12708764826991	0.99025733487788	0.70830055379053	-0.704161900213294	0.0496622974501859	0.703612951218385	0.698573366186564	-0.130092532193543	159.105846528722	-81.9955822179357	65.8758138586273
26323	1640082357362	9.56320593094041	0.45304216132942	-1.36583102074638	-0.0948896442336377	-0.0585869449471088	-0.142464425356662	0.00272562519986518	0.0374789387813515	0.00767867551989894	0.638916015625	0.342041015625	0.20166015625	0	0	0	-0.687556732824533	-0.303688032823379	-0.61589387045171	0.236038255813612	0.0568966381197575	0.126856473396471	0.990287941827063	0.708354533187337	-0.704119041024668	0.0494998119132961	0.703559967510673	0.698658579868531	-0.12992136426496	159.143247155222	-82.0081856548324	65.8431978987265
26324	1640082357363	9.49960431117572	0.468394691575417	-1.31545340007385	-0.0543693635035106	-0.0451645888395823	-0.211265782480057	0.00209447706007277	0.0376450180409756	0.00312743255625992	0.63330078125	0.341064453125	0.20751953125	0	0	0	-0.687442314941298	-0.30364240589274	-0.616016169453637	0.236111058494698	0.0566507366306732	0.126576817203406	0.990337822859381	0.708369736481595	-0.704105714800364	0.0494717982537941	0.703564503422535	0.698722728793134	-0.129551294056363	159.099625744096	-82.0287682655242	65.8886138310338
26325	1640082357365	9.5307334768649	0.499445249536925	-1.3442952360422	-0.0518746207908097	-0.0847405290420794	-0.175178204280751	-0.00430479219489112	0.0379071393941551	0.00626544376137471	0.6357421875	0.342529296875	0.205810546875	0	0	0	-0.687385368178118	-0.303621363861299	-0.616067514369249	0.236169940425389	0.0565497702917984	0.126416509635877	0.990364069204567	0.70840302230229	-0.704075653292945	0.0494229949830436	0.703539111544573	0.698782040790685	-0.129369153956726	159.091605607789	-82.0396196305109	65.8996477325106
26326	1640082357366	9.52441985958218	0.531479749214702	-1.29769277870142	0.00121605763818352	-0.0779951517845802	-0.185903601049018	-0.00387582451614445	0.0283875837433627	0.00222270352436694	0.63623046875	0.33740234375	0.21044921875	0	0	0	-0.68730541253874	-0.303571798702927	-0.616167548445969	0.236205387680525	0.0563634305487087	0.126208891371607	0.990401170958279	0.708377269998961	-0.704102355725926	0.049411699120959	0.703579993352284	0.698792664815503	-0.129089134145555	159.054556012461	-82.0549842072292	65.9350138933851
26327	1640082357367	9.543561389204	0.503863082259572	-1.28560667995669	-0.00951000968291045	-0.0492542110701752	-0.169881252455511	-0.0007628831569057	0.0236562394196115	0.00436854706944706	0.634765625	0.33544921875	0.19921875	0	0	0	-0.687271556661846	-0.303530409229714	-0.616208329431014	0.23625069908105	0.0563131708253629	0.126056336475739	0.990423458337851	0.70837493090631	-0.704109795713116	0.0493391613661431	0.703586372846343	0.698812704245672	-0.128945803847108	159.061406376937	-82.0642280660409	65.9282426389001
26328	1640082357368	9.57045893297755	0.542327694541578	-1.34960258054007	-0.0269500949601544	-0.119195563607707	-0.13310593845735	-0.00430968887455539	0.0163887542989663	0.00250399282528962	0.634033203125	0.341064453125	0.207275390625	0	0	0	-0.687229663812788	-0.303492717191484	-0.61626722433553	0.236267365493571	0.0562137576430214	0.125930728942684	0.990445084272528	0.70834606307785	-0.704139805228913	0.0493253445431278	0.703623385323258	0.698805113175448	-0.128784880425016	159.042874850927	-82.0732078241571	65.9446679900959
26329	1640082357368	9.58947483745095	0.514932854357736	-1.33836577305276	-0.036383210459973	-0.0896476558644076	-0.117067435144264	-0.00680986065525115	0.0171863893130614	0.000323305552357478	0.628662109375	0.352294921875	0.21533203125	0	0	0	-0.687256662711534	-0.303489257692585	-0.616232694100278	0.236283339966495	0.0563030743742331	0.125938990504083	0.990438960505302	0.708361067138344	-0.704128907438963	0.0492654064373749	0.703601138699076	0.698814605156207	-0.128854899952382	159.076523796567	-82.0706640207675	65.9121922442988
26330	1640082357369	9.58973769595653	0.514941661457094	-1.33647767833667	-0.0363804367929855	-0.0895783425943736	-0.117066784099673	-0.0106204865649346	0.0212555775492109	0.0019239452113944	0.63134765625	0.3369140625	0.207763671875	0	0	0	-0.687206837385812	-0.30342861233078	-0.616317844230321	0.236284055222727	0.0561667842046137	0.125784275022663	0.990466359100164	0.70828859318614	-0.704201844933042	0.0492648998303989	0.703684987131679	0.698768973087617	-0.128644320261586	159.0454420058	-82.0820516654804	65.9376790005792
26331	1640082357370	9.58614877701967	0.495297778206004	-1.31981834715968	-0.042555958298017	-0.065456374931979	-0.123755929597822	-0.01244721454522	0.0330760392481333	0.00202391160420742	0.6279296875	0.34228515625	0.206787109375	0	0	0	-0.687059355215166	-0.303433561497325	-0.616489169025464	0.236259646665829	0.0557383564626828	0.125650707731454	0.990507513987362	0.708256760720521	-0.704218906228773	0.0494782073606725	0.703751089883713	0.698775809367021	-0.128244967663261	158.902880475087	-82.0991874676081	66.0780394169606
26332	1640082357371	9.59346434549903	0.462975312512051	-1.35976086320958	-0.0956761329115076	-0.0720729955074009	-0.11302219923054	-0.0164886123190857	0.0381363394920477	0.00105980981233776	0.6337890625	0.342041015625	0.211669921875	0	0	0	-0.686962556903504	-0.303338383989614	-0.616642654638138	0.236262791594445	0.0554753225587998	0.125384793742933	0.990555976250227	0.708143653746996	-0.704331436213138	0.0494953898842376	0.703885682653691	0.698710155543756	-0.127863459577661	158.838795854864	-82.1194133348125	66.1334563971157
26333	1640082357372	9.60989423519007	0.487531913633263	-1.31689517130929	-0.0503891578782636	-0.0590748991572638	-0.101048094484465	-0.0156936378850552	0.0397922535345367	0.0050339381139923	0.633544921875	0.3388671875	0.208740234375	0	0	0	-0.686849310927929	-0.303295809140036	-0.616789147200129	0.236264309899016	0.0551656001084566	0.125186510597443	0.990598351567935	0.708087559463206	-0.704381656052065	0.0495831700357092	0.703966451400998	0.698695083839715	-0.127500647528159	158.749656529949	-82.1371411635	66.21848190216
26334	1640082357372	9.58771532965351	0.495086834456036	-1.30846976707485	-0.0431129701817245	-0.0642282423361437	-0.123750172963968	-0.0144269983728282	0.043104469500663	0.00269748631048839	0.627197265625	0.338623046875	0.2060546875	0	0	0	-0.686737005651059	-0.303195887592957	-0.616954639665888	0.236286926026113	0.0548784526829054	0.124875041334203	0.990653612259558	0.707988302551007	-0.704481484671699	0.0495822670488521	0.704088715207164	0.698650171263516	-0.127070922367728	158.68458647249	-82.16031946944	66.276098597031
26335	1640082357373	9.58828644003683	0.494939551562215	-1.30433402158724	-0.0424243890783084	-0.0633320228666537	-0.123741233834778	-0.0155228197166019	0.041618382091089	0.00445535593452189	0.634033203125	0.34423828125	0.21533203125	0	0	0	-0.686657968706381	-0.303123536829348	-0.617070516495875	0.23630686215937	0.0546801981831613	0.124648389164264	0.990693118480897	0.707920379101072	-0.704550376632919	0.0495732149432213	0.704172431141723	0.698621174790148	-0.126766089135813	158.641493099656	-82.1769316209367	66.3141144026947
