// Start Time : 29/04/2022 06:06:15																																
// Update Rate : 100Hz																																
// Filter Profile : 46.1 human																																
// Firmware Version : 4.4.0																																
PacketCounter	Time_Of_Arrival	Acc_X	Acc_Y	Acc_Z	FreeAcc_X	FreeAcc_Y	FreeAcc_Z	Gyr_X	Gyr_Y	Gyr_Z	Mag_X	Mag_Y	Mag_Z	VelInc_X	VelInc_Y	VelInc_Z	OriInc_q0	OriInc_q1	OriInc_q2	OriInc_q3	Mat[1][1]	Mat[2][1]	Mat[3][1]	Mat[1][2]	Mat[2][2]	Mat[3][2]	Mat[1][3]	Mat[2][3]	Mat[3][3]	Euler_X	Euler_Y	Euler_Z
27493	1651212414909	9.67978157553926	-0.404922882938093	1.75687487135019	1.38777878078145E-15	1.95156391047391E-15	0.0335679093491699	0.0216528354622513	-0.0158287760576692	-0.0102027218733986	0.29736328125	-0.384521484375	0.2978515625	0	0	0	-0.552238678232181	0.325238966635736	-0.677168029611151	-0.361518348799399	-0.128673851491459	0.130398261760493	0.983076463593853	-0.84883640993857	-0.527048196126149	-0.0411940301836546	0.512757046860356	-0.839771690574298	0.178504113692185	-12.9948524162017	-79.4440437233039	134.618639110655
27494	1651212414910	9.65492309719609	-0.380062019853183	1.75875794709623	1.73472347597681E-15	1.56125112837913E-15	0.00847430095137724	0.0185245697297364	-0.0112078847099871	-0.0114312636531074	0.296875	-0.383056640625	0.29541015625	0	0	0	-0.551822808492246	0.325463724085033	-0.676226549989934	-0.363706757458728	-0.126417965213175	0.132699719034787	0.983061179499755	-0.85109294418258	-0.523581517767118	-0.0387710538328284	0.509567756470116	-0.841577791306763	0.179129904664863	-12.2127715455655	-79.4392645821322	133.611258440615
27495	1651212414910	9.6307630884054	-0.385819286094922	1.80645942071216	0.0225650686683083	-0.0485860060863242	-0.00652195881820106	0.0168810176993571	-0.00371790522761638	-0.0094139020166375	0.2958984375	-0.381103515625	0.292236328125	0	0	0	-0.552060786371652	0.325267068223934	-0.676741447132065	-0.362562044639699	-0.127555303874789	0.131587138600247	0.983063817566494	-0.849855912458274	-0.525500196231375	-0.0399308379639262	0.511345844329574	-0.840555987853151	0.178860444959441	-12.5849859786982	-79.4400893192437	134.108642819982
27496	1651212414912	9.58127270378836	-0.355564572049936	1.7606466084003	-0.0189955094707341	-0.0322475962935756	-0.0645753199610173	0.0153983137797689	-0.00678598940736936	-0.00961413768146925	0.296875	-0.379638671875	0.298828125	0	0	0	-0.55212729561368	0.325200727080127	-0.676730326776446	-0.362541034044321	-0.127438896144797	0.131580628928662	0.983079786100871	-0.849789420826074	-0.525616971481263	-0.0398087872579888	0.511485354630493	-0.840483989961501	0.178799873089761	-12.5518553671869	-79.4450829119298	134.083916215593
27497	1651212414913	9.53263137492192	-0.356036851403806	1.75984357686821	-0.0115461669517262	-0.0377757437181065	-0.112516633816378	0.0108370916214174	-0.00857621248691627	-0.0066729808734684	0.294677734375	-0.384521484375	0.29638671875	0	0	0	-0.552187805183002	0.325159519638614	-0.676711953695619	-0.362520132297538	-0.12733556297231	0.131545170994911	0.983097921058958	-0.849741656929332	-0.525700880934724	-0.0397202752186927	0.511590432750182	-0.840437059970808	0.178719829191131	-12.5302611700352	-79.4507568108221	134.068406850692
27498	1651212414914	9.58237173690506	-0.377882871388209	1.7559348853701	-0.000115673097569879	-0.0167558488571442	-0.0634479057750834	0.00627225974163489	-0.0100694889542219	-0.00830005103569011	0.297607421875	-0.378662109375	0.289306640625	0	0	0	-0.55224673776109	0.325133632245338	-0.676679303423662	-0.362514526789279	-0.127213516997958	0.131504179449652	0.983119205325725	-0.84972013042526	-0.525742678099397	-0.0396274699539912	0.511656545978932	-0.840417329195531	0.178623323630374	-12.5084479859436	-79.4574198874224	134.049874366774
27499	1651212414915	9.53384516040015	-0.381702885129067	1.77894479048653	0.0223716629990612	-0.0409657945521548	-0.106897011108712	0.00479131101112492	-0.0132367202380879	-0.00697674339818745	0.2958984375	-0.377197265625	0.29248046875	0	0	0	-0.552311361399616	0.32512158328435	-0.676638068661917	-0.362503848516193	-0.127086239759704	0.131431119316662	0.98314543610745	-0.849704496453374	-0.525773831787254	-0.0395492922144971	0.511714135402431	-0.840409268560812	0.178496232303161	-12.4931556849587	-79.4656372109261	134.03712529751
27500	1651212414916	9.51050251731633	-0.406049349981733	1.77418845229854	0.0449315213919603	-0.0282645020106579	-0.129740453379858	0.00182983549789036	-0.0195712228774476	-0.00432977434305759	0.291015625	-0.38134765625	0.29345703125	0	0	0	-0.552387926903495	0.325138907256401	-0.676579144985383	-0.362481626803649	-0.126949296882078	0.131289404401384	0.983182062648153	-0.84970063214151	-0.525783522435787	-0.0395034590046873	0.511754542490308	-0.840425356487384	0.178304538398744	-12.4921266009593	-79.4771218306651	134.037144962965
27501	1651212414917	9.58566173553304	-0.454930800875005	1.79014793758873	0.0865421033141999	-0.00763353929874956	-0.0510812283347253	0.00648821105368016	-0.0241673609502359	-0.00309937240609139	0.30078125	-0.3857421875	0.3017578125	0	0	0	-0.552484799207819	0.325151178857002	-0.676518754422523	-0.362435694222845	-0.126801828395	0.131106921301811	0.983225442867731	-0.849671256353796	-0.525834156882213	-0.0394613175417974	0.511839869922075	-0.840422164535618	0.178074515064396	-12.4948317437249	-79.4907401862955	134.043689876641
27502	1651212414918	9.61044789515645	-0.456895462219735	1.81276903452693	0.0978973920507945	-0.0235395769687321	-0.022618124638873	0.00627574088712299	-0.010366077863527	-0.00373268778893771	0.29541015625	-0.383544921875	0.30029296875	0	0	0	-0.552537303524233	0.325138423833573	-0.67649355609187	-0.362414130694935	-0.126717052173608	0.131039432149278	0.983245369127374	-0.849643864057764	-0.525882006439309	-0.0394134440560416	0.511906332210711	-0.840402750189075	0.177975067122379	-12.4869034559245	-79.4970014901867	134.039283451707
27503	1651212414919	9.58557564406746	-0.436167841486972	1.83906058073251	0.0976897685275838	-0.0604056160626849	-0.0432219524903861	0.0093587946614664	-0.0119404425339308	-0.00230634482022166	0.300537109375	-0.380859375	0.29638671875	0	0	0	-0.552592693126643	0.32512240720435	-0.676476350978174	-0.362376161473056	-0.126649666198194	0.130957273603802	0.983264997110212	-0.849598339975279	-0.525957875859405	-0.0393824013070953	0.511998557383843	-0.84036807728026	0.177873471673384	-12.4842799551241	-79.5031726788013	134.042010573735
27504	1651212414921	9.56139985199494	-0.439957761250104	1.86241550265794	0.116465012937632	-0.081857769317069	-0.0626998416491347	0.0123308082533566	-0.00619833589377051	0.00418210702525297	0.29833984375	-0.378662109375	0.29541015625	0	0	0	-0.552629200268167	0.325103484506054	-0.676486846062967	-0.362317869386492	-0.126653457068398	0.130883188173094	0.98327437313614	-0.849529902760995	-0.526066971770509	-0.0394015929513159	0.512111165790708	-0.84031133055901	0.177817382745976	-12.493988944619	-79.5061218398694	134.059070005923
27505	1651212414921	9.51266378188953	-0.438592879323514	1.83738233437938	0.108533847945387	-0.068561766513129	-0.115129454059872	0.0139338044209982	-0.0109396551504575	0.00693292073762471	0.30517578125	-0.385498046875	0.3037109375	0	0	0	-0.552667131618123	0.325094983810378	-0.676502722230317	-0.36223798799311	-0.126685363367399	0.1307713455333	0.983285143738011	-0.849448594356988	-0.526193783112067	-0.0394612234877386	0.512238132369514	-0.840249342636828	0.177744586260652	-12.5172653932006	-79.5095106664685	134.090760222096
27506	1651212414923	9.51368134482996	-0.466542094734661	1.8572379650011	0.142448810111026	-0.0717664820787806	-0.109508254355237	0.0140099115718806	-0.0158027434440863	0.0112059124929013	0.304931640625	-0.379150390625	0.29638671875	0	0	0	-0.552727740247372	0.325107180229476	-0.676502117990214	-0.362135680207057	-0.126699588564013	0.130579595186934	0.983308793603783	-0.849362623452669	-0.526326140968422	-0.0395465196305514	0.512377154193384	-0.840196264365717	0.177594733048546	-12.553715035471	-79.516955582738	134.135992467175
27507	1651212414924	9.44151377610566	-0.493670847411941	1.85231097990856	0.171933842574587	-0.0643315808404973	-0.180281167586237	0.0156292167149242	-0.0217711295044404	0.00929006069047231	0.301025390625	-0.388427734375	0.302001953125	0	0	0	-0.552791810746142	0.325118880946744	-0.676503196362336	-0.362025347918458	-0.126717722873042	0.130376500249427	0.983333405764587	-0.849268719874667	-0.526470721432913	-0.0396386290927442	0.512528301806168	-0.840137219540129	0.177437854447876	-12.5927939934972	-79.5247089826159	134.184663316062
27508	1651212414925	9.44279451920732	-0.521614714501368	1.87085354176807	0.20584851147773	-0.0675361303115061	-0.174658122084587	0.0249917681396479	-0.0340085655629234	0.0115529531723077	0.29833984375	-0.384033203125	0.293701171875	0	0	0	-0.552933289650097	0.325127829769932	-0.676470720882572	-0.361861900860577	-0.126641483804584	0.130029960927214	0.983389111105589	-0.849125962813155	-0.526695718029328	-0.0397079322831509	0.512783613092703	-0.840049897250656	0.177113343011633	-12.6364772526634	-79.5422784448891	134.243647220819
27509	1651212414925	9.44284790781243	-0.501309337963413	1.89446504880893	0.20119740873819	-0.101282099593916	-0.171269141893655	0.0282635155429219	-0.0479594976087307	0.0152389692880827	0.306640625	-0.3828125	0.29638671875	0	0	0	-0.553083835142403	0.325163087713432	-0.67644331613184	-0.361651320685266	-0.126613187101547	0.129588342097021	0.98345104730461	-0.848958132494183	-0.526954577270539	-0.0398617958152397	0.513068406865963	-0.839955793530929	0.176734475385676	-12.7101689937355	-79.5618474520311	134.334679369958
27510	1651212414926	9.39557701910065	-0.524551199250662	1.8624208855377	0.212411489156255	-0.0726797103868195	-0.222576316894161	0.0329571228102387	-0.0553074755898458	0.0117031843141262	0.293701171875	-0.375	0.29638671875	0	0	0	-0.553311434297198	0.325183976772226	-0.676365076719309	-0.361430658523958	-0.126428671509832	0.129062124965921	0.98354397914864	-0.848774175359148	-0.527246520659078	-0.0399187386611291	0.513418143683741	-0.839853602928616	0.176203675853157	-12.7648214220076	-79.5912779146249	134.409448686702
27511	1651212414926	9.39752926617658	-0.552192342179243	1.8778017362267	0.245026826204338	-0.075295264494142	-0.216912199085463	0.0377655041383081	-0.0703668648143894	0.00920163038049748	0.301025390625	-0.37890625	0.29541015625	0	0	0	-0.553545788728281	0.325212563129144	-0.676295813804788	-0.36117560935683	-0.126278477973815	0.128483015789498	0.983639090649743	-0.848563194836171	-0.52757793597739	-0.0400253149802433	0.513803708015081	-0.839734265183619	0.175647697128315	-12.8369493210553	-79.6214841095035	134.504212515935
27512	1651212414927	9.42319891602707	-0.548316347574967	1.84653220133397	0.226245602950656	-0.0538401776399877	-0.1974432724161	0.0471350455741121	-0.0838357783802462	0.00679539352069555	0.29296875	-0.38623046875	0.302978515625	0	0	0	-0.553903283006415	0.325223343630463	-0.676152617532622	-0.360885809690989	-0.125905170876789	0.127743214211411	0.983783288722381	-0.848312325200358	-0.527982418243003	-0.0400095606003632	0.51430932993642	-0.839592899713432	0.174841859665075	-12.8892352684775	-79.6674461436838	134.584817848054
27513	1651212414927	9.42583860242388	-0.578509989091656	1.8836744735337	0.273378589499019	-0.0749930994370981	-0.187253852452724	0.0549640512823775	-0.0960967875846383	0.00905565958522985	0.30224609375	-0.386962890625	0.30078125	0	0	0	-0.554234105844269	0.325244880829299	-0.676057510407931	-0.360536497506657	-0.125675979769271	0.126963202417386	0.983913559892817	-0.848010425244797	-0.528458402919934	-0.0401252421731073	0.514862959228154	-0.839411735452414	0.174080646826676	-12.9798616742863	-79.7091436548587	134.708074629612
27514	1651212414928	9.3780198983108	-0.552481226726449	1.85336361545612	0.246910358209444	-0.0773466150933524	-0.240827895295908	0.0674004986757532	-0.109812041071714	0.0112112884132044	0.29541015625	-0.379638671875	0.294677734375	0	0	0	-0.554708451284265	0.32524600488173	-0.675882884209494	-0.360133165946906	-0.12520527371774	0.125982270490704	0.984099642798061	-0.84764910110806	-0.529038278187064	-0.0401185942371423	0.515572148999501	-0.839194237191172	0.173027140764571	-13.0541029729345	-79.7689970788846	134.822767908594
27515	1651212414928	9.40685214260473	-0.627203986580973	1.85761092095619	0.312343198614905	-0.045923513842186	-0.208870832397311	0.0829365729865969	-0.126527489751066	0.0131652723451299	0.300537109375	-0.377197265625	0.298583984375	0	0	0	-0.555160583041079	0.325244303609307	-0.675776595647374	-0.359637126535112	-0.124915728510114	0.124943071631539	0.984268911234153	-0.847194340521669	-0.529754560374529	-0.0402722627926941	0.516389204146293	-0.838897690194499	0.172025740014372	-13.1760013741023	-79.823744621934	134.993729876838
27516	1651212414929	9.43474764974022	-0.671380871642659	1.81541117336211	0.331251551703488	0.0064839645855137	-0.187140577826975	0.101403997885187	-0.135393748758539	0.0125390837254761	0.300048828125	-0.385009765625	0.293212890625	0	0	0	-0.555779809494293	0.325179827278936	-0.675587982220818	-0.359092970647063	-0.12432208358071	0.123741026025308	0.984495900454824	-0.846654555851206	-0.530620636725417	-0.0402219211066526	0.517416739766456	-0.83852841237451	0.170733766578657	-13.256185879041	-79.8976219139563	135.13420812447
27517	1651212414930	9.38835859321943	-0.672253718213264	1.80338705229492	0.335485758548202	0.00183480400568248	-0.234961164088936	0.11987816200011	-0.143117594675807	0.0180914011085127	0.3076171875	-0.3798828125	0.291748046875	0	0	0	-0.556318125993607	0.325110117159227	-0.675526432130022	-0.358437712727551	-0.124065097571206	0.122538996200211	0.984678651121721	-0.845997600678543	-0.531651635630711	-0.0404301617278395	0.518551744005163	-0.838051748247944	0.169627108823351	-13.4061637379359	-79.9574918364926	135.354568531822
27518	1651212414931	9.46442294681945	-0.672655844475309	1.81380172953604	0.339337032512852	-0.00849316588889981	-0.158548034576091	0.13840727921635	-0.155314991463918	0.0218293363080205	0.2958984375	-0.3828125	0.289794921875	0	0	0	-0.557054985266159	0.32498152930382	-0.675358146919205	-0.357726323313406	-0.123443241997584	0.121121611598099	0.984932140408163	-0.845251935670551	-0.532837766440046	-0.0404113833018605	0.519914349917669	-0.837504310352527	0.168153498002941	-13.5133047689968	-80.0411257341923	135.543886932416
27519	1651212414931	9.46643531663185	-0.666492112141991	1.75126164597387	0.305180551497921	0.0296925709651539	-0.167455791842798	0.158419996343806	-0.163106832862246	0.0288779758771886	0.302490234375	-0.37548828125	0.2978515625	0	0	0	-0.557685476067992	0.324863640358247	-0.675343469271446	-0.356877743027515	-0.123250372628809	0.119686638303191	0.985131693865618	-0.84437357402467	-0.53420378340955	-0.0407380078026389	0.521385282814605	-0.836840143876119	0.16690104991201	-13.7168219251469	-80.1074568729168	135.840433044361
27520	1651212414931	9.54166252364259	-0.640257463942133	1.73870869298647	0.275093530610401	0.0225725691359581	-0.0967130808586684	0.176852322448638	-0.167780992856465	0.0345847945761729	0.291748046875	-0.390380859375	0.296875	0	0	0	-0.558511006851323	0.324662074322001	-0.675224057467673	-0.355995034993115	-0.122665980572344	0.118098139900755	0.985396309391408	-0.843407507964834	-0.535724145114373	-0.0407849954029924	0.523083963354616	-0.836093577115298	0.165319985445713	-13.8583331195465	-80.1960996580678	136.086900310209
27521	1651212414932	9.59179159168764	-0.590969694839426	1.72919299726826	0.225000004656603	-0.00202789112245756	-0.0509676092632283	0.192112654240124	-0.162015706456695	0.0439798946012869	0.295654296875	-0.372314453125	0.298583984375	0	0	0	-0.559143996299259	0.324487110214938	-0.675314400871861	-0.354988121888511	-0.122682849441124	0.116587142593177	0.985574125388327	-0.842327220805892	-0.537383097244852	-0.0412826826278636	0.524817846059402	-0.835240591073906	0.164132213413706	-14.1182294676566	-80.2561142547143	136.459367056765
27522	1651212414934	9.61715819177534	-0.561544611879879	1.66874534246076	0.172280756672402	0.0226367429255546	-0.0372301406508217	0.202846531128276	-0.162224506748864	0.0499883188793122	0.2978515625	-0.380859375	0.292724609375	0	0	0	-0.559970166220914	0.324229639071847	-0.675278125321106	-0.353988711052591	-0.122250810779694	0.114963816599237	0.985818472202994	-0.841199516138475	-0.53913426718933	-0.0414441309550587	0.526723944122634	-0.834336600428844	0.162617108179723	-14.2978660100461	-80.3391858648467	136.759515257832
27523	1651212414935	9.66649423694493	-0.48906206828305	1.66205417278598	0.10324624988893	-0.0174816727579017	0.00727872946000119	0.213491632536075	-0.156250073427009	0.0548145285832704	0.302978515625	-0.377685546875	0.290771484375	0	0	0	-0.560600889655437	0.324004593485479	-0.67543609906948	-0.352893386154581	-0.122385801051774	0.113439337542525	0.985978312336955	-0.839988390984154	-0.540974562817328	-0.0420241049452937	0.528621999838039	-0.833353489872404	0.161495331835686	-14.5859526080785	-80.3939123272861	137.172579676191
27524	1651212414935	9.66757241939609	-0.442575682814796	1.65372851516299	0.0655499696467759	-0.0484311526475154	0.0049492760989871	0.219573353005628	-0.150420609622348	0.0611914730741975	0.301513671875	-0.375	0.2998046875	0	0	0	-0.561396601439503	0.323699708954835	-0.675477576797099	-0.351827226858654	-0.122102916666251	0.111854972311052	0.98619437379803	-0.838750638287854	-0.54287220172701	-0.0422745711248094	0.530648890051899	-0.832333008934142	0.160104708629463	-14.7909953520516	-80.468382693705	137.508096101186
27525	1651212414936	9.69185113184786	-0.390449149391529	1.59675192124523	-0.0111083118956617	-0.0384630933439127	0.0174920636265252	0.217952706194374	-0.144350301506799	0.0615392247494272	0.2900390625	-0.384521484375	0.294189453125	0	0	0	-0.561978755038352	0.323454145298566	-0.675690859214327	-0.350712357280039	-0.122361442673244	0.110397552281498	0.986326547243445	-0.837494983829028	-0.544756516680504	-0.0429242308648443	0.532569084164803	-0.831295806548052	0.159114589549435	-15.0972542055522	-80.5142247306526	137.942432806026
27526	1651212414937	9.69390461071381	-0.371458407902165	1.61077935331313	-0.014904500583604	-0.0726136433059626	0.0208709430927048	0.216372211632228	-0.138443639652691	0.0649291773248639	0.30224609375	-0.376708984375	0.294921875	0	0	0	-0.562720374784908	0.323148077367665	-0.67576506826111	-0.349660796220524	-0.122166214776723	0.108893089237684	0.986517973015901	-0.836261118067103	-0.546625295360021	-0.0432218565280071	0.534549116897864	-0.830266873715219	0.157842199791029	-15.3138850680804	-80.581009310411	138.287723964601
27527	1651212414937	9.71778037392462	-0.341867377609338	1.52775722532851	-0.087424143128469	-0.0285701614825347	0.0299595765337344	0.207086143305825	-0.129418364958595	0.065516100879844	0.29345703125	-0.374267578125	0.294677734375	0	0	0	-0.563239214366631	0.322916979537333	-0.675997647719685	-0.348587710631915	-0.122496390792121	0.107529933101823	0.986626549272835	-0.835047956542834	-0.548422464645773	-0.0439057006036003	0.536366986788469	-0.829258773700329	0.156972423452292	-15.6264800284878	-80.6190987650699	138.722651649367
27528	1651212414938	9.72012331473042	-0.347461430751233	1.54060157731169	-0.0723784264042931	-0.0472463897401866	0.034520265257612	0.197745383337451	-0.120151990390577	0.0615289509350946	0.29443359375	-0.375	0.295166015625	0	0	0	-0.563890115694358	0.322631190572674	-0.676085371483915	-0.347628570110857	-0.122364629329769	0.106196103166375	0.98678735559454	-0.833910260680909	-0.550126984224681	-0.0442038274242977	0.538164077786773	-0.828301085898199	0.155874104583725	-15.8326326447193	-80.6757942589076	139.04639780092
27529	1651212414939	9.69680541785676	-0.326670057238081	1.53306224717489	-0.0910528473842915	-0.0646285910425358	0.00935678656789207	0.18386196063125	-0.112541097601019	0.0590430900920685	0.29931640625	-0.38525390625	0.28955078125	0	0	0	-0.564353020950141	0.322407021368926	-0.676284328373214	-0.346697112063626	-0.122613560462383	0.105028894191584	0.986881373912605	-0.832834400131943	-0.551709650117518	-0.0447585067229913	0.539771041042036	-0.827396756914178	0.155118760632934	-16.095150408696	-80.709101147026	139.417147537432
27530	1651212414940	9.67365139255058	-0.352013689597488	1.49698643957417	-0.0834568887938295	-0.0332738980188459	-0.0179779533693036	0.176129394609261	-0.106458777865101	0.057924635336899	0.30078125	-0.37841796875	0.294677734375	0	0	0	-0.564924420054672	0.322159430117336	-0.676368005813539	-0.345832361013515	-0.12252075540342	0.103828430280638	0.987019919535991	-0.831811347177358	-0.553226559324582	-0.0450583706415811	0.541367294175004	-0.826534954568374	0.154147402424731	-16.2940129265998	-80.7583991052489	139.720876801902
27531	1651212414941	9.67529992843272	-0.332819218490453	1.51411652051291	-0.0910015219886911	-0.0668256646196309	-0.014626781534357	0.162228529583837	-0.103191143614256	0.0506436967104629	0.2939453125	-0.381103515625	0.30419921875	0	0	0	-0.565335835419515	0.321971000352835	-0.676547034096496	-0.34498431671244	-0.122762428825941	0.102752743632561	0.987102456558962	-0.830839721493868	-0.554640992308492	-0.0455930569170694	0.542802674327188	-0.8257210444981	0.153460136244629	-16.5467018182951	-80.7878921195694	140.070505847717
27532	1651212414942	9.62878237839202	-0.384772556122906	1.5014684899011	-0.0456935142818006	-0.0414705988473875	-0.0601444969882117	0.151442879996789	-0.101563926246772	0.0462977347204801	0.297119140625	-0.382080078125	0.302978515625	0	0	0	-0.565865597086978	0.321765039563454	-0.676583340873277	-0.344235919393782	-0.122595515665031	0.10165704431548	0.987236640770523	-0.829960109252635	-0.555937782227694	-0.0458192027550328	0.544184303878914	-0.824984259021222	0.152526770696253	-16.7203233095983	-80.8360411005948	140.334244065537
27533	1651212414943	9.63133466542072	-0.413567952267117	1.51430715431614	-0.015655828803875	-0.043402032765137	-0.0543762458504311	0.142232657891087	-0.100066028303359	0.0449816359352014	0.299072265625	-0.3759765625	0.298828125	0	0	0	-0.566219922080507	0.321607679959096	-0.676738777155308	-0.343493999255898	-0.122813744628668	0.100710067059381	0.987306571700594	-0.829112769007109	-0.557160745333035	-0.0463024851309561	0.545425338978352	-0.824275067106141	0.151927000060944	-16.9495428104475	-80.8612339290745	140.64746729244
27534	1651212414944	9.63184712723742	-0.413310447178775	1.4810348064211	-0.0307126322000795	-0.0247312559879206	-0.0589595225234056	0.137555239834372	-0.0983770334461835	0.0405504638862815	0.29736328125	-0.3798828125	0.297607421875	0	0	0	-0.566723174118581	0.321426327865076	-0.676751086877574	-0.342808876901045	-0.122613835669608	0.0996730625221748	0.987436645010624	-0.828312057614076	-0.558334379346034	-0.0464957638007416	0.546685451163209	-0.823606703134287	0.151019919344266	-17.1124660762085	-80.9082773284592	140.8922613868
27535	1651212414945	9.63312341929744	-0.415190231463371	1.47218164942493	-0.0335618768848736	-0.0236700855803852	-0.0589662774677624	0.128346455392523	-0.0968765525160863	0.0392418539579916	0.2978515625	-0.377685546875	0.300537109375	0	0	0	-0.567090737209364	0.321281415347728	-0.676850823050716	-0.342139315570529	-0.12269756902454	0.0987631253214206	0.987517671554395	-0.827545984046264	-0.559437881786182	-0.0468711074276194	0.547825657343985	-0.822967254208414	0.150372695847002	-17.3122350127067	-80.9377044642807	141.168320291878
27536	1651212414946	9.68401283897995	-0.418165400622636	1.48619956640637	-0.0261916745210533	-0.036743926588965	-0.00647945185880516	0.123654530645169	-0.0936667149968951	0.0348832194424456	0.2978515625	-0.387939453125	0.292724609375	0	0	0	-0.567562528392184	0.321122518714432	-0.676843605199568	-0.341519894647475	-0.122473875850099	0.097796896190689	0.987641593306865	-0.826825330771606	-0.560488979068955	-0.0470316567501777	0.548962678265727	-0.82236723635959	0.149506208679143	-17.4625304713396	-80.9828944320104	141.392204465452
27537	1651212414947	9.71048746586235	-0.421275237267855	1.5013964767936	-0.0178493135271032	-0.0518647994883178	0.0220580284634391	0.115883166490908	-0.0874388559729053	0.0307144616526147	0.2978515625	-0.377197265625	0.2958984375	0	0	0	-0.567898029142762	0.320985308685086	-0.676932397419375	-0.340914636570747	-0.122538078135205	0.0969784761262978	0.987714328424546	-0.826126172870464	-0.561491284360352	-0.0473612086602913	0.549999969004846	-0.821780209518084	0.148920520208214	-17.6422304677827	-81.009523314805	141.641378862979
27538	1651212414948	9.6623856918144	-0.399093552351707	1.49800715283945	-0.0290394927084573	-0.0729552876732258	-0.0270433434806634	0.114203733416192	-0.0721419811692758	0.0298962470608905	0.297119140625	-0.3720703125	0.292724609375	0	0	0	-0.568288078185681	0.320807404039378	-0.676961904310576	-0.340373103840093	-0.122389620748573	0.0962172028848305	0.987807182906684	-0.825461295321933	-0.562457519391553	-0.0474888282160965	0.551030335515621	-0.821208736405623	0.148262539411081	-17.7603804296584	-81.0436321527896	141.827166830871
27539	1651212414948	9.6628359043732	-0.422335523218843	1.464889129495	-0.0268109564912081	-0.0378131426911558	-0.0304323826337605	0.103449266469515	-0.0750918367283721	0.0253780501499635	0.29443359375	-0.38134765625	0.29443359375	0	0	0	-0.568605223984935	0.320651180162435	-0.67701886110533	-0.339877009556576	-0.122343435263842	0.0955584196171669	0.987876850770435	-0.824854164086347	-0.563332878070634	-0.0476621073188104	0.551948993872853	-0.820685479903797	0.147741839834959	-17.8799081869777	-81.0693085371548	142.007779312622
27540	1651212414949	9.66466310452866	-0.425447610157932	1.48294992687377	-0.0117893643954302	-0.0564947143078886	-0.0258326268395024	0.0972459846839876	-0.0629518058301142	0.0260192243704017	0.294921875	-0.37939453125	0.294921875	0	0	0	-0.568941063555756	0.320503888141784	-0.677040101837581	-0.339411290899113	-0.122212083620486	0.0948944639240379	0.987957108043517	-0.824285755896605	-0.564154466592393	-0.0477779284797611	0.552826554393965	-0.820198011787656	0.147166647772089	-17.9861193218547	-81.0989787559483	142.171602348283
27541	1651212414950	9.66453968101434	-0.42457430761206	1.45295336204157	-0.0287533783352799	-0.0370408868405821	-0.0304349445646377	0.0911644509000035	-0.063073120114842	0.0276555678907007	0.302978515625	-0.37744140625	0.301025390625	0	0	0	-0.569185442557859	0.320386012254646	-0.677123328616844	-0.338946504591249	-0.122286398011177	0.0942990624747257	0.98800492087734	-0.823735279172759	-0.564936140353881	-0.0480348536818666	0.553630044982775	-0.819728518558705	0.146761470263561	-18.1232097750199	-81.1167013507618	142.363002005709
27542	1651212414950	9.59244455950717	-0.451453071048116	1.44837885556057	0.00159816229928257	-0.0300009171607846	-0.101060353814979	0.08492885371891	-0.0538507361501234	0.0251109926159953	0.3017578125	-0.376708984375	0.300048828125	0	0	0	-0.569470455045376	0.320262563057284	-0.677148824828075	-0.338533248837317	-0.122197280524127	0.0937146481943789	0.988071550722067	-0.823234918267299	-0.565654260271261	-0.0481614698945815	0.554393446911074	-0.819300202948087	0.146270583068783	-18.2247940680313	-81.1414574302271	142.514942706007
27543	1651212414951	9.56907703435607	-0.476980946673535	1.44249200756404	0.0222229750650007	-0.0159666534253625	-0.123787600454474	0.0801655219701879	-0.0535083038681208	0.0160520659154677	0.303955078125	-0.380615234375	0.299072265625	0	0	0	-0.569666924392101	0.32011339913221	-0.677236450689711	-0.338168296572684	-0.122243596893549	0.0933237627326457	0.988102817690522	-0.822755824894034	-0.566339229778304	-0.0482983376220803	0.555094006111997	-0.818871511363987	0.146014013899335	-18.3031194991506	-81.1530982502562	142.640997227542
27544	1651212414952	9.76826117655577	-0.504031779048343	1.50069821946331	0.0553590881570899	-0.0340286051737053	0.082808804205662	0.0770104492576725	-0.0608432082622233	0.00817050576097924	0.290771484375	-0.377685546875	0.301025390625	0	0	0	-0.56998911457042	0.319980135680193	-0.677200344809623	-0.337823644866729	-0.121975188480375	0.0927781891442322	0.988187361290507	-0.822318966010137	-0.566975795478087	-0.0482697159926366	0.555799938408774	-0.818492916866791	0.145450244082628	-18.3591532600878	-81.1846505398474	142.742232451446
27545	1651212414953	9.79236541258628	-0.429788174689719	1.50134915777361	-0.00712249206740109	-0.076524071729566	0.103122225630081	0.0781612307313673	-0.0375197060732085	-0.00158286451737425	0.302490234375	-0.380126953125	0.297607421875	0	0	0	-0.570160078976435	0.319770858110851	-0.677295103062733	-0.337543220953818	-0.121964116659416	0.0925915858183948	0.988206229733006	-0.821873896677776	-0.567622344582344	-0.0482511335673174	0.556460288077394	-0.818065811635273	0.145328165289271	-18.3669414983885	-81.1917076853104	142.795296239103
27546	1651212414954	9.62113986979325	-0.429390365375867	1.48085612000386	0.00479408708236664	-0.0775645521570231	-0.0690944222634719	0.0719689164048758	-0.0298860180709283	-0.00267363821196748	0.30029296875	-0.385009765625	0.298583984375	0	0	0	-0.570385877701811	0.319571524493916	-0.677320725294839	-0.337299016211198	-0.121778648362586	0.0923610596288733	0.98825067440767	-0.821477397576746	-0.568206828791184	-0.0481236426884302	0.557086031124027	-0.817686024326757	0.145067982501939	-18.3523169797758	-81.208353023634	142.822085744673
27547	1651212414954	9.61858445309634	-0.42287605202218	1.4050149997613	-0.0424299593371535	-0.0205965130057784	-0.0829477570061243	0.0677124763345918	-0.0365790435465906	0.0108888260774499	0.296142578125	-0.370849609375	0.2978515625	0	0	0	-0.570519669026557	0.319432691095896	-0.677423842750762	-0.336997033200372	-0.12188061373595	0.0920943840518185	0.988262991526782	-0.821064916852991	-0.568791510946762	-0.048255770515982	0.55767151470067	-0.817309513893614	0.144940126226124	-18.4144519482748	-81.2129715446864	142.924889004323
27548	1651212414956	9.62006208514956	-0.424857837092959	1.42617054313211	-0.0274257993791615	-0.0392862854542648	-0.0783273560366275	0.066142429111805	-0.0350066106634798	0.00945651483026365	0.29248046875	-0.37646484375	0.28857421875	0	0	0	-0.570733317778518	0.319296604420306	-0.677445728495222	-0.336720126108858	-0.12176607330152	0.0917528014692037	0.988308882290997	-0.820685643054069	-0.569338470157794	-0.0482574521013118	0.558254510664855	-0.816967031048949	0.144626316766375	-18.4523037640688	-81.2302003407435	143.001355431504
27549	1651212414957	9.57203810817161	-0.449974270284295	1.42333825241559	-0.00141499280862153	-0.0286298296511332	-0.124991046409479	0.0584449219264409	-0.0304358445126465	0.00827024776347981	0.29296875	-0.382568359375	0.30078125	0	0	0	-0.570883063709792	0.319163979530831	-0.677490353482506	-0.3365021585035	-0.121717649783615	0.0915433117035847	0.988334273317228	-0.820364553545065	-0.569801302985058	-0.04825426823958	0.558736801202463	-0.816667801005324	0.144453763478731	-18.4717141557664	-81.2397473545755	143.053334576728
27550	1651212414958	9.54742847522536	-0.472618407800526	1.39486159457127	0.0062149457226858	0.0026754431309662	-0.15233796371986	0.0554079536606433	-0.0425414413203609	0.00479945115209333	0.302001953125	-0.3798828125	0.295654296875	0	0	0	-0.571111321250765	0.319063891113336	-0.677465572970875	-0.336259556839753	-0.121522738346277	0.091166545848456	0.988393082221281	-0.820050547517047	-0.5702554876431	-0.0482263240349302	0.55923995170393	-0.816392883194723	0.144060184253645	-18.5087485838959	-81.2618992189453	143.122712619076
27551	1651212414959	9.57141568632797	-0.469764175401288	1.36529803884895	-0.0143476477779765	0.0249823206857189	-0.133023965050311	0.0553702698883396	-0.0515130216502757	-0.000134788497571451	0.291015625	-0.381103515625	0.29541015625	0	0	0	-0.571306536736135	0.318962911706056	-0.677469367938456	-0.336016007868118	-0.121404167077873	0.0908299120671147	0.988438645182395	-0.819732297803355	-0.570711806824735	-0.0482389208925497	0.559732068184555	-0.816111487864695	0.143743004077118	-18.5513115189724	-81.2791000465608	143.197581909364
27552	1651212414960	9.62121587843974	-0.492369921751077	1.35674703889056	-0.00328241922337887	0.0460709774624211	-0.0839232830835428	0.0568198261395361	-0.0498574765679135	-0.00315615008590219	0.286865234375	-0.37158203125	0.300048828125	0	0	0	-0.571574215789127	0.318847982073153	-0.677412458133618	-0.335784516823351	-0.121103348213506	0.0904386592702148	0.988511420248084	-0.819419800507848	-0.571169445179173	-0.0481316468593613	0.560254557845946	-0.815834734369113	0.143277760345845	-18.5688699371278	-81.306643973378	143.248025735483
27553	1651212414961	9.62020349401775	-0.440921927041049	1.33152390818279	-0.0571492403995025	0.0344505124822422	-0.0909988052046664	0.0523257138230831	-0.0530637904575399	-0.000128827341095596	0.292236328125	-0.378662109375	0.302490234375	0	0	0	-0.571784027350843	0.318767324127342	-0.677382681858213	-0.335563885800782	-0.120919809225461	0.090078201042228	0.988566799682183	-0.81914245855176	-0.571568543229947	-0.0481147896989509	0.56069959188023	-0.815595069925629	0.14290083827029	-18.6084072324543	-81.3276621588631	143.3160396609
27554	1651212414962	9.67217104896599	-0.467286221527456	1.37138996283793	-0.0160359279966871	0.0182001019904498	-0.0326378087409509	0.0568269096518342	-0.0513845770198506	-0.00321750548419172	0.29345703125	-0.38134765625	0.297607421875	0	0	0	-0.572056284610918	0.31865505871556	-0.677321536425951	-0.335329833277215	-0.120611020302856	0.0896749778469696	0.988641178653636	-0.818829493692157	-0.572025712938516	-0.0480087908307247	0.561222987805516	-0.815318945005774	0.142421121584272	-18.6284668972802	-81.3559710460004	143.368988057215
27555	1651212414963	9.67217298642086	-0.417813646259311	1.37082490542949	-0.0552555833376426	-0.0121823125606262	-0.0350876289038151	0.0492348351014923	-0.0424717537295622	0.00187260922033484	0.299072265625	-0.383544921875	0.294921875	0	0	0	-0.57221378767844	0.31857629344519	-0.677333526769709	-0.335111652974238	-0.120543122463135	0.0893772204676743	0.988676422338629	-0.818552210614995	-0.572418650591196	-0.0480537922817611	0.561641909159335	-0.815075825256047	0.142161052890836	-18.6764672993937	-81.3694170872895	143.444753493977
27556	1651212414964	9.67336672748532	-0.466009853931929	1.36336706036611	-0.0176459253203046	0.0187367610663867	-0.0326415945198679	0.0492139582849225	-0.039421973575398	0.0019886557789213	0.294677734375	-0.376708984375	0.294921875	0	0	0	-0.57242383507058	0.318485002657903	-0.677303391669973	-0.334900540097259	-0.120345162571308	0.0890417300921569	0.988730808738091	-0.81827535662776	-0.57281786264912	-0.0480118419330737	0.562087611126057	-0.814832048051799	0.14179651225017	-18.7059346625539	-81.3902072788052	143.502770691962
27557	1651212414965	9.67241574119198	-0.439463084859705	1.33759023359781	-0.0524509473391726	0.022051432230672	-0.0385038380844307	0.0476814055821114	-0.0333916453794546	0.00377775521652408	0.293701171875	-0.38330078125	0.288818359375	0	0	0	-0.572572311494943	0.318409706691523	-0.677315035111248	-0.334694711649595	-0.120280796206266	0.0887623572194048	0.988763760462954	-0.818012684270573	-0.573189417356826	-0.0480535139463785	0.562483580592748	-0.814601212723746	0.141552413587913	-18.7510686137673	-81.4028279494629	143.574176401903
27558	1651212414966	9.69867446768639	-0.464896555825602	1.35596156504717	-0.0225332824834529	0.0216390011300936	-0.00870499675169789	0.0445927890683509	-0.0333602598438856	0.00232143588934119	0.300048828125	-0.37744140625	0.30615234375	0	0	0	-0.572753201141532	0.318325488032588	-0.677295255445597	-0.334505293234391	-0.120119958760603	0.0884738115069713	0.988809172785518	-0.817761580609393	-0.573550184933977	-0.0480227304661834	0.562882929912231	-0.814378640461321	0.141245308501884	-18.777787992197	-81.4202512829874	143.626665064446
27559	1651212414968	9.69878381964514	-0.440031771811227	1.35490425214688	-0.0424097123225093	0.00635817977385159	-0.0099346163842533	0.0445019260680787	-0.0301972064042869	-0.000613543013643552	0.295166015625	-0.38232421875	0.30419921875	0	0	0	-0.572888345439333	0.318240734610716	-0.67730861056908	-0.334327421165535	-0.120048238233173	0.0882528664044823	0.98883762674592	-0.817518498014607	-0.573896020582469	-0.048029813278291	0.563251210297015	-0.81415894586438	0.141043556988431	-18.805340243228	-81.4311861240164	143.678718669948
27560	1651212414967	9.64895449012232	-0.414171248210471	1.33194998019975	-0.0686202446364815	0.003859490535739	-0.0636757652778677	0.0460888636876422	-0.0287721989958287	0.00245736604930482	0.293212890625	-0.374755859375	0.3017578125	0	0	0	-0.573055577901509	0.318144689263179	-0.67730452416875	-0.334140453806698	-0.119914923531643	0.0880005046181366	0.988876292718838	-0.817258859666166	-0.574268227646978	-0.0479995730434852	0.56365624933248	-0.813923776469364	0.140782522659205	-18.8267267159853	-81.4460676721353	143.726625319957
27561	1651212414967	9.62727240694956	-0.417789515173792	1.37881801252536	-0.0358807443952006	-0.0356887173606221	-0.0783409946248188	0.0400219944155862	-0.0349232853602982	0.00237127431169763	0.292236328125	-0.384521484375	0.29833984375	0	0	0	-0.573182763115451	0.318075959746602	-0.677316579196738	-0.333963254631169	-0.119860129246986	0.0877663834320721	0.9889037422096	-0.817029013384699	-0.574592456774869	-0.0480322798235308	0.564001011261967	-0.813720204097621	0.140578407797228	-18.8640707069269	-81.4566478978951	143.786919067402
27562	1651212414969	9.64950803403739	-0.389182284592583	1.32763769723694	-0.0887716559767054	-0.0110425999861241	-0.0649139354644355	0.0400214771374664	-0.0349236148120506	0.00237117100719898	0.290771484375	-0.377685546875	0.296875	0	0	0	-0.573360251377131	0.318010643034927	-0.677285435452284	-0.333783900123233	-0.119692660318555	0.0874646238216332	0.988950760475772	-0.816803272746068	-0.574915077870073	-0.0480111119321506	0.564363429624192	-0.813524795453334	0.140254506114532	-18.8968046674405	-81.4748010612744	143.842778644282
27563	1651212414971	9.62445578781755	-0.387864657437907	1.30083784172491	-0.100931598274684	0.00481436859963748	-0.0935024394409201	0.0310562105256062	-0.0428455428658817	0.00840266667227715	0.297119140625	-0.37890625	0.297119140625	0	0	0	-0.573500673272219	0.318031768354205	-0.677248776699838	-0.333596862293971	-0.119620222447859	0.0870732672528091	0.988994058885818	-0.816639000345174	-0.575137855570229	-0.0481372018849598	0.564616458754755	-0.813409302393327	0.139905544147617	-18.9867671580086	-81.4915520365934	143.948592323796
27564	1651212414972	9.6009233150466	-0.412777727946327	1.29614920112935	-0.0783281223035221	0.0174106622288688	-0.116209813495956	0.0324822351157571	-0.0441938563336155	0.00373785336260795	0.293212890625	-0.37939453125	0.30419921875	0	0	0	-0.573694039425322	0.318012112055711	-0.67718158006289	-0.33341948553924	-0.119413191581213	0.0866877617795996	0.989052941775127	-0.816454374385274	-0.57539948649723	-0.0481423460778077	0.564927202587678	-0.813265432006284	0.139486891427448	-19.0415436678135	-81.514384892828	144.022303275111
27565	1651212414973	9.67730239326802	-0.439525079119663	1.33542106877204	-0.0417940115576325	0.00434532670415562	-0.0338865037059328	0.0233602118818987	-0.0443226942295696	0.00547863484182644	0.295654296875	-0.373291015625	0.297119140625	0	0	0	-0.573840237514024	0.318029763443029	-0.677123920245621	-0.333268132298036	-0.119279467608855	0.0863310984878108	0.989100272996037	-0.816324198450518	-0.5755788431179	-0.048205791967143	0.56514353188466	-0.813176448742183	0.139128902748439	-19.1103286509524	-81.5327827001748	144.104046054821
27566	1651212414974	9.77623457628135	-0.415686614634042	1.35300078532311	-0.0612905732358015	-0.018550265697879	0.0652712970894917	0.0202962658942456	-0.0367755191538184	0.00735133353309808	0.297607421875	-0.382568359375	0.3076171875	0	0	0	-0.573981915334505	0.318049719371571	-0.677064862568587	-0.333125064730317	-0.11914490423471	0.0859849781465763	0.98914663995185	-0.81620412653256	-0.575744134512174	-0.0482650536729037	0.565345306539395	-0.813096104472258	0.138778273753197	-19.1769270136989	-81.5508442553122	144.182616653031
27567	1651212414975	9.70494177415092	-0.443400192515591	1.37640846256496	-0.016326994648963	-0.0297109038377639	-0.000661617364780653	0.0217176706954601	-0.0199850827079514	0.00791898141514347	0.30615234375	-0.38818359375	0.300537109375	0	0	0	-0.574043513437975	0.318025956577662	-0.677079396759304	-0.333012050993212	-0.119154037146161	0.0858297222434966	0.989159023722361	-0.816072672156752	-0.575924929672315	-0.0483308301281501	0.56553311944634	-0.812984461205467	0.138667071245297	-19.2154191971483	-81.5556746573918	144.233822353009
27568	1651212414976	9.70424950376499	-0.466458335934117	1.34870589754057	-0.0126585016314967	0.00437869226010863	-0.00407533907385193	0.0170724897598215	-0.0153912913230532	0.00666934048909499	0.301025390625	-0.382080078125	0.2880859375	0	0	0	-0.574108135637149	0.31801938881092	-0.677075726290478	-0.332914370077034	-0.119135741582898	0.0856614410114839	0.989175814808131	-0.815971514638294	-0.576063381073082	-0.0483887206437313	0.565682916815049	-0.812904113970698	0.138527033871133	-19.2547608870274	-81.5622285573684	144.282963694749
27569	1651212414977	9.72877142133307	-0.466877988485053	1.34623982932563	-0.0167413431530811	0.00663134568380103	0.0198609153728349	0.0157158932223364	-0.0126233930157899	0.014438034846153	0.30078125	-0.3828125	0.30224609375	0	0	0	-0.574149288311827	0.318066810513966	-0.677076266634896	-0.33279697705996	-0.119197533581551	0.0854222037658602	0.98918905932681	-0.815893535334686	-0.57615935221845	-0.0485606821439236	0.565782367158206	-0.812861272269136	0.138372197560991	-19.3381390801157	-81.5674017280735	144.372948667584
27570	1651212414978	9.68125610945914	-0.470559627590325	1.37222799867683	0.00591223960865021	-0.0177646067680668	-0.0233663823206651	0.0171865058454226	-0.0034595065132598	0.0147281531750112	0.30322265625	-0.372314453125	0.297119140625	0	0	0	-0.574160814756452	0.318064225651536	-0.6771198593881	-0.332690852265485	-0.119312311234144	0.0853031363214932	0.989185496922434	-0.815783196101357	-0.576303890359107	-0.0486991059015674	0.56591726369375	-0.812771309096645	0.138349014317791	-19.3921616859443	-81.5660099804231	144.436873689865
27571	1651212414979	9.63155400575339	-0.495094395714045	1.34827550138459	0.0175504492115843	0.0110211581747101	-0.0746501746306407	0.0125695591595101	-0.00344113190800292	0.0133149140621292	0.300048828125	-0.37939453125	0.30078125	0	0	0	-0.574167230234924	0.318057574487351	-0.677153908306306	-0.33261682985242	-0.119396072446564	0.0852290994087599	0.989181772223036	-0.81570204580332	-0.576410847620299	-0.0487924914092974	0.566016563676906	-0.812703227112837	0.138342742071159	-19.4273801318706	-81.564555071698	144.479424264308
27572	1651212414980	9.6321318702323	-0.544674468570578	1.34447582238629	0.0550960089272341	0.0418910496000336	-0.0721812455833532	0.0139913372929021	-0.00479341592439757	0.00864999115129142	0.30224609375	-0.37353515625	0.29248046875	0	0	0	-0.574187667091863	0.318050725203755	-0.677178319186804	-0.332538393543217	-0.1194534795586	0.0851339729661125	0.989183033047144	-0.81561718865259	-0.576523906034125	-0.048875222205135	0.566126724149098	-0.812632999833357	0.138304518313938	-19.4628208933177	-81.5650475356277	144.522693920969
27573	1651212414981	9.63188743774986	-0.520853947441146	1.34569065686848	0.0364635180243081	0.0264013172206834	-0.07341628422731	0.0185503713966372	-0.00775554606220103	0.00690561193775996	0.30029296875	-0.37890625	0.29150390625	0	0	0	-0.574235957757915	0.318028012977311	-0.677184363210459	-0.332464413137406	-0.119440957630102	0.0850331625494403	0.989193216165197	-0.815525645052931	-0.576651193917808	-0.0489011535054931	0.566261229382169	-0.812553236299018	0.138222495559108	-19.4830553023511	-81.5690259954643	144.551935067695
27574	1651212414981	9.67953756368161	-0.518595000084124	1.31819475491921	0.0135206545876674	0.050649550244717	-0.0301888378256585	0.0184543279794377	-0.0106456565261101	0.00222397269983667	0.298583984375	-0.37548828125	0.298828125	0	0	0	-0.574293938269033	0.317997645172446	-0.677188078589649	-0.332385734273123	-0.119412392238323	0.084927073473326	0.989205778779712	-0.815423553498776	-0.576794442632992	-0.0489142039404118	0.566414255628643	-0.812462653381035	0.138127940264447	-19.5001971570197	-81.5739366743089	144.579250061183
27575	1651212414982	9.65526090506386	-0.518773796021015	1.31868864008523	0.0174416745483862	0.0475257891709931	-0.054123626163955	0.0214041311434707	-0.00593967129499931	-0.00073789086469599	0.29833984375	-0.382080078125	0.297607421875	0	0	0	-0.574347385314855	0.31796033703529	-0.677187928163814	-0.332329377280426	-0.119364531956787	0.0848595085169055	0.989217353428965	-0.815338261357102	-0.576916818137619	-0.048892785941739	0.566547110201717	-0.812382821559045	0.138052610108788	-19.5021362280192	-81.5784636774636	144.589938610091
27576	1651212414983	9.60659225068243	-0.519287978418608	1.32046879036517	0.0250757366065857	0.0417876227019173	-0.101995447581791	0.0230243025973335	-0.00908543170422452	0.00216624483045813	0.2919921875	-0.37646484375	0.3017578125	0	0	0	-0.574407730798002	0.317912272757731	-0.677202996872443	-0.332240344715217	-0.119344224286008	0.0847657798709505	0.989227839626665	-0.815210848621364	-0.577096280347056	-0.0488994427333021	0.566734707265759	-0.812265132682957	0.137975091259009	-19.5147215135351	-81.5825670592244	144.615233126496
27577	1651212414983	9.60733016992106	-0.472475883816895	1.34752408660867	0.0015097731441387	-0.00791853566151686	-0.0998205048819329	0.0231678380056408	-0.00777243802321503	0.00831785773242856	0.30029296875	-0.385009765625	0.2939453125	0	0	0	-0.574422100767965	0.317902424340968	-0.677249156600152	-0.332130815540858	-0.119456743034965	0.0846502725535969	0.989224149472747	-0.815090986270269	-0.5772543399326	-0.0490317359466146	0.566883383637621	-0.812164859117643	0.137954597494905	-19.5661983336108	-81.5811228289092	144.677584124927
27578	1651212414984	9.60714465227344	-0.448373772829349	1.3484563078683	-0.0174946117537152	-0.0234759982204916	-0.101058015112367	0.0245970946722143	-0.0106531322885884	0.00359998806531634	0.29638671875	-0.37744140625	0.292236328125	0	0	0	-0.574487554171792	0.317856229082095	-0.677264889408114	-0.332029723534561	-0.119440625582549	0.0845352527323991	0.989235931416727	-0.814953043226966	-0.577447360646547	-0.0490518401025178	0.567085067953262	-0.812039615245344	0.137862935470845	-19.5856352391194	-81.5857348370081	144.710681078887
27579	1651212414985	9.60730941858927	-0.448258455617185	1.34732030636928	-0.0178459787767296	-0.0243186660233093	-0.101060727970751	0.0214942085122068	-0.0151468222484578	0.000466391711379148	0.299072265625	-0.378173828125	0.301025390625	0	0	0	-0.574558036945712	0.317878610163772	-0.677233848822409	-0.331949642853587	-0.119384993580931	0.0843356480044605	0.989259683694503	-0.814894488975374	-0.577525247619449	-0.0491076389134856	0.567180919235868	-0.812004979564634	0.137672502762876	-19.6312646716088	-81.5950402360902	144.761947698684
27580	1651212414986	9.68218619050122	-0.472945906517364	1.36482554170492	0.00418728085603733	-0.0191631828599436	-0.0233681304026074	0.0215116314229451	-0.01819772694648	0.000360251519678426	0.295166015625	-0.380126953125	0.3037109375	0	0	0	-0.574648807756124	0.317847190818175	-0.67721723669785	-0.33185648306578	-0.119300044783355	0.084176842379554	0.989283457115148	-0.814778879388744	-0.577688875872413	-0.0491013278363364	0.567364853526118	-0.811905057195899	0.137503822066921	-19.6511706380968	-81.6043641715325	144.793612965095
27581	1651212414987	9.68236058063853	-0.473153950974112	1.36351560962729	0.00331047814063935	-0.0189546673147694	-0.0233673886646581	0.0201725393463452	-0.0108964826309498	0.00980968607761703	0.29638671875	-0.378173828125	0.2919921875	0	0	0	-0.5746664713366	0.317838115662905	-0.677260767527663	-0.331745733538858	-0.119406430000612	0.0840549234725581	0.989280988554077	-0.814658557009661	-0.577847401021237	-0.0492322721793155	0.567515233245281	-0.811804872474306	0.137474757906789	-19.703392076207	-81.6033955236206	144.856765583105
27582	1651212414988	9.6321989850331	-0.448549227618368	1.34225946860718	-0.0229457503481592	-0.0214937687594602	-0.0771275146461683	0.0171285807253584	-0.0124446133884042	0.00983274382042302	0.2890625	-0.38330078125	0.296630859375	0	0	0	-0.574714999201857	0.317839392304617	-0.677269779068665	-0.331642031039677	-0.119432465880573	0.0838881179949183	0.989292004290419	-0.814556382373585	-0.577983367894619	-0.0493267308023919	0.56765639785714	-0.811725329219474	0.137361580783682	-19.7532824448758	-81.6077188871299	144.916195600519
27583	1651212414989	9.65794121523283	-0.450572704832909	1.36424681573419	-0.0128383792773842	-0.0380085265549334	-0.0485486885688928	0.0171284871353418	-0.0124446819267578	0.0098327260928344	0.293701171875	-0.3798828125	0.301025390625	0	0	0	-0.574724906035121	0.317908571832471	-0.677275314943119	-0.331547236615025	-0.119535424551724	0.0836775700455712	0.989297400455752	-0.814517466342277	-0.578021139696758	-0.0495263474023592	0.567690566506611	-0.811720165041456	0.13725084467672	-19.8417495620725	-81.6098375358122	145.007087805566
27584	1651212414990	9.65781180237775	-0.426821280183319	1.36471782094523	-0.0318841582886175	-0.0535867878980168	-0.049794776085097	0.0124805973868093	-0.0138996664930471	0.00684547366270412	0.301513671875	-0.382080078125	0.2998046875	0	0	0	-0.574774710689628	0.317920571951748	-0.677267889636596	-0.331464549459999	-0.119530568805869	0.083515182272543	0.989311708942601	-0.814446001335931	-0.578115524762307	-0.0495999086361624	0.567794112358396	-0.811669670715117	0.137121083763056	-19.886244394103	-81.6154579237277	145.058266046843
27585	1651212414991	9.60943049469412	-0.452339448252834	1.36456274739806	-0.00606082891035277	-0.0438103765346977	-0.0964205491222234	0.00934686261719632	-0.00624278209552765	0.00565930252224562	0.297119140625	-0.381591796875	0.306640625	0	0	0	-0.574765669827193	0.317946598094069	-0.677289184010388	-0.33141174808846	-0.119621356034098	0.0834336060229494	0.989307618775156	-0.814412763714208	-0.57815242797872	-0.0497153932066918	0.56782266728262	-0.81165177472135	0.137108771097013	-19.9305533216287	-81.613850920144	145.104964431249
27586	1651212414992	9.58515132962987	-0.453134805977209	1.36492477655264	-0.0023660446949703	-0.0467527798305814	-0.120356101752311	0.0048017397621983	-0.0123777472987257	0.00556479864064608	0.30029296875	-0.376953125	0.29345703125	0	0	0	-0.574799213638876	0.317978892220512	-0.677271974016517	-0.33135775426888	-0.119615805372028	0.083290606274507	0.989320339430877	-0.814386675082951	-0.578182925576201	-0.04978803088575	0.567861252906497	-0.811644737233335	0.136990576204691	-19.9732340250971	-81.6188497974054	145.14982114977
27587	1651212414993	9.63406054434669	-0.453068602674895	1.36121842888923	-0.0106548157488345	-0.0410431573215018	-0.0724865903727263	0.00183560253008206	-0.0140288255960186	0.00863827862407545	0.29833984375	-0.379638671875	0.297119140625	0	0	0	-0.574811091784528	0.318039119642213	-0.677257552453537	-0.331308820865564	-0.119653347956298	0.0831379750678962	0.989328637725837	-0.81438762943482	-0.578171167187751	-0.0499088214275674	0.567851974854702	-0.811668761585885	0.13688665427737	-20.031836089827	-81.6221124012903	145.207513518081
27588	1651212414994	9.61005365595744	-0.478614643624636	1.35972038935474	0.0118890172020618	-0.0285289781473279	-0.0951728947142527	-0.00125008870506945	-0.0079489117424468	0.00892427757303282	0.30712890625	-0.379150390625	0.30908203125	0	0	0	-0.574814040416714	0.318094548738206	-0.677249071057086	-0.331267826320583	-0.119700892369297	0.0830112297039498	0.989333529255444	-0.814392080882909	-0.578154970615747	-0.0500236798677533	0.567835570355715	-0.811693270697339	0.136809354005698	-20.0846952519138	-81.6240361734226	145.25912466736
27589	1651212414995	9.63351461326402	-0.501900609451612	1.331649305001	0.0116616786496583	0.00880000900149681	-0.0746390815756204	0.000323518565472163	-0.00951531231329729	0.010357995688683	0.296142578125	-0.376220703125	0.29443359375	0	0	0	-0.574819374595804	0.318127259881745	-0.677251394000461	-0.331222406298025	-0.119748808310869	0.0829102476448458	0.98933619854102	-0.814373097913252	-0.578173528172558	-0.0501181475682207	0.567852692432906	-0.811690373329613	0.136755466218842	-20.1268767417472	-81.6250861522097	145.30250916982
27590	1651212414996	9.6591764108437	-0.504363360712342	1.35411448445948	0.0225638165701442	-0.00718245206031741	-0.0460535248762071	0.000369421770839856	-0.00351709448387407	0.0136161546758979	0.296630859375	-0.38720703125	0.291259765625	0	0	0	-0.574802578847277	0.318183265539511	-0.677265980787564	-0.331167927415976	-0.119859598403054	0.0827924191772135	0.989332649818778	-0.814362665489848	-0.578174426763241	-0.0502770453911918	0.567844279470111	-0.811701760232035	0.136722809762267	-20.1899768876728	-81.6236902705864	145.365416575098
27591	1651212414997	9.68227349089748	-0.503582463550081	1.3283009569985	0.00302540219994391	0.0134520308815116	-0.0267684748091597	0.00337458346420781	-0.0019184807080033	0.0120666602584758	0.294189453125	-0.374755859375	0.30419921875	0	0	0	-0.574762874372715	0.318297340450146	-0.677263515545951	-0.331132257286297	-0.119998132854592	0.0826366047561352	0.989328883468885	-0.814418581965401	-0.578076462493691	-0.0504972955735889	0.567734816142957	-0.81178740755518	0.136668882610358	-20.2785865343209	-81.6222090382284	145.446794092004
27592	1651212414998	9.65782687272925	-0.505050949641121	1.32958860650821	0.00670936204911678	0.0104915246301287	-0.0507025726371442	0.0033507426271425	0.0026578833855703	0.012223408700272	0.299560546875	-0.380126953125	0.30126953125	0	0	0	-0.574731924078198	0.318330308114986	-0.677297971386131	-0.331083808630114	-0.120133454216701	0.0825756029372779	0.989317554164238	-0.814393964838603	-0.578098653196793	-0.0506400751037571	0.567741510911809	-0.811777812564251	0.136698060761581	-20.3272514549735	-81.6177550090684	145.496706654653
27593	1651212414999	9.65920870736793	-0.53225105413139	1.35267266514878	0.0398289113674819	0.00778190754188212	-0.0447970924036483	0.00642673922143996	0.00567802632525319	0.0137751435948534	0.299560546875	-0.37939453125	0.2919921875	0	0	0	-0.57466715935481	0.318331887412705	-0.677378892341403	-0.331029155250217	-0.120354708666801	0.0825945620891759	0.989289079296353	-0.814334087975233	-0.578169015661186	-0.0507994339626024	0.567780536178614	-0.811725771207661	0.136844930830676	-20.3658810315995	-81.6065706944765	145.53976841218
27594	1651212415000	9.65729053018935	-0.483196881055323	1.33241315813334	-0.0131199086118619	-0.004579217974085	-0.0519562874450603	0.00797663050575384	0.00868759299064369	0.0153654377315481	0.30322265625	-0.376708984375	0.29052734375	0	0	0	-0.574618119051428	0.318348097446546	-0.677443657836843	-0.330966156225379	-0.120550841382395	0.0825646770703718	0.989267693166143	-0.814279016903711	-0.578231784571126	-0.0509674988793595	0.567817908551961	-0.811684099518992	0.136937012219928	-20.4150985709319	-81.5981804033204	145.592948761035
27595	1651212415001	9.63397232648046	-0.486466238580697	1.35885354147968	0.00640513408704385	-0.0270366540248574	-0.0712407064703786	0.00946369284212371	0.00874947814793154	0.0138023900480328	0.29736328125	-0.37451171875	0.30078125	0	0	0	-0.574598478247175	0.318403481935834	-0.677449750505289	-0.330934505646493	-0.120637883537083	0.0824746841897519	0.98926458923965	-0.81429130894548	-0.578203151327296	-0.0510957921069792	0.567781793677421	-0.811713645482804	0.136911622974335	-20.4657118382213	-81.5969633497999	145.641343470808
27596	1651212415002	9.63228646815989	-0.461726407071642	1.33715383926269	-0.0276756715840992	-0.0239499105110598	-0.0771455440038586	0.0110213785435189	0.0102334645576468	0.0153405095090427	0.302978515625	-0.3779296875	0.297607421875	0	0	0	-0.574549599899161	0.318407633459105	-0.677522867283427	-0.330865683501221	-0.120841313473968	0.0824561763253407	0.989241303193357	-0.814220089960411	-0.578288956872485	-0.0512594134203092	0.567840666087545	-0.811654397724264	0.137018672421372	-20.5110901950863	-81.587838436719	145.692292819546
27597	1651212415003	9.60996102509977	-0.442308132018996	1.38965577235021	-0.0124763842946914	-0.0794496505305418	-0.0930339507167304	0.0110287219348542	0.00870794101834759	0.0152885403306742	0.292236328125	-0.3740234375	0.29638671875	0	0	0	-0.574514516474947	0.318395831461143	-0.677586485190972	-0.330807678197272	-0.120998700810575	0.0824555695686765	0.989222115325602	-0.814147678206827	-0.578380749107795	-0.0513737981070146	0.567910972312199	-0.811589051249838	0.13711432973545	-20.5398964116744	-81.5803268217491	145.727201260791
27598	1651212415005	9.58419106432351	-0.442322800871562	1.36713397436405	-0.0237894482062004	-0.0637295712881524	-0.121619538261779	0.00647916491763153	0.0025762547330772	0.015195943431056	0.29736328125	-0.377197265625	0.296630859375	0	0	0	-0.57448444460166	0.318427555443272	-0.677629977010447	-0.33074027438757	-0.121156987617515	0.0823756943899707	0.989209396096307	-0.81410240372874	-0.578429525664914	-0.0515418284711474	0.567942127856824	-0.811562399826922	0.137143029690288	-20.5974933674321	-81.575351196717	145.787873650823
27599	1651212415005	9.60849397255275	-0.443325539056006	1.36603415791012	-0.0281243372596064	-0.0608959149032417	-0.0976863917270734	0.00340217090480221	-0.000442931870074284	0.0136443125166447	0.287109375	-0.3798828125	0.291015625	0	0	0	-0.574443760859187	0.318482609917163	-0.677658352162897	-0.330699789135361	-0.121304030151563	0.0823022519140433	0.989197488673958	-0.814103644750302	-0.57841295329236	-0.0517079400854938	0.567908960902417	-0.811581662430521	0.137166385580611	-20.6550578030187	-81.570695784387	145.84392690718
27600	1651212415008	9.58405942802565	-0.445138841762822	1.36714282594136	-0.0244377201837681	-0.0638683947774169	-0.121622065223924	0.000473288819713066	-0.00214194830923477	0.0182427041423012	0.296630859375	-0.38232421875	0.300537109375	0	0	0	-0.574414660244668	0.318551552913732	-0.677683818767186	-0.330631740783272	-0.121460900165252	0.0821661973245942	0.989189549959088	-0.814088925474005	-0.578415120245747	-0.0519150276093377	0.567896532082762	-0.811593903801842	0.137145412464505	-20.7336600806782	-81.567593424438	145.922328751399
27601	1651212415007	9.6573755715143	-0.470483831110963	1.36152704982781	-0.0187461919975339	-0.0403805854967968	-0.0485677655045276	-0.000968353985570695	-0.0037797806956042	0.0212782835123334	0.302978515625	-0.37744140625	0.298095703125	0	0	0	-0.574322672767162	0.318708661106112	-0.677715933678744	-0.330574303477267	-0.121748194852205	0.081987725301582	0.989169040129189	-0.814154165623605	-0.578290838432938	-0.0522752406236472	0.567741465499888	-0.811700510708476	0.137156513763065	-20.8636285742182	-81.5595836553384	146.042868861005
27602	1651212415008	9.6573266429347	-0.472576410220177	1.36114934459596	-0.0189863768078979	-0.040543476813519	-0.0485689046045774	-0.00402091957287076	-0.00379863585071309	0.0213549298327772	0.291259765625	-0.38037109375	0.30810546875	0	0	0	-0.574286011577627	0.318805571108319	-0.677734848468244	-0.33050576380494	-0.121923033995949	0.0818193876993972	0.989161443636841	-0.814161707301493	-0.578257895844024	-0.0525216170539436	0.56769312849914	-0.81174096464977	0.137117169473121	-20.9589319273515	-81.5566188874187	146.13546215686
27603	1651212415010	9.63410738427572	-0.476663503455944	1.38652931598743	-0.000792974830161716	-0.0614342249623563	-0.0678465965453334	-0.0070933513965343	0.000759250441591673	0.0215871262077369	0.29833984375	-0.387939453125	0.302978515625	0	0	0	-0.574203098566971	0.318877977406291	-0.677794527572732	-0.330457585045072	-0.122177172164538	0.0817632400939787	0.989134728523477	-0.814166130859821	-0.578229240022905	-0.0527679575432132	0.567632143172518	-0.811767034654567	0.137215274242726	-21.0349109059186	-81.5462006798098	146.208824597029
27604	1651212415011	9.65735715008977	-0.501077618192817	1.35927689826436	-0.00108588515254793	-0.0246305798632078	-0.0473071096535449	-0.0117823516718425	-0.000639029431153028	0.0170766821035086	0.302001953125	-0.37841796875	0.29833984375	0	0	0	-0.574149433561662	0.318983520938546	-0.677803451684135	-0.330430661706119	-0.122336011490558	0.0816456703686181	0.989124807495314	-0.814222501818102	-0.578130182348209	-0.0529831085450633	0.567517063907028	-0.811849417544957	0.137203882620941	-21.1147325718497	-81.5423349779049	146.28130204258
27605	1651212415012	9.65970480463926	-0.50654045757554	1.40810021273752	0.0284601553673271	-0.0621008915914604	-0.0379976324970652	-0.0085608767512655	0.00522273450812428	0.0248305075128962	0.29833984375	-0.38134765625	0.28857421875	0	0	0	-0.574052750764536	0.319105789244122	-0.677845992609656	-0.33039331850627	-0.122607388852168	0.0815444616680081	0.989099554630437	-0.814278686069914	-0.578023500714601	-0.0532827742698441	0.567377871978725	-0.811935547560835	0.137269869221111	-21.2142574545021	-81.5325031724465	146.372676190032
27606	1651212415013	9.63404830892008	-0.5317702114977	1.38409323973815	0.0359898404948437	-0.0309459114319029	-0.0653222239413811	-0.0102670862159502	0.0115224101612629	0.0189788535965521	0.28955078125	-0.38623046875	0.301513671875	0	0	0	-0.573957176961233	0.319191993163072	-0.677895263014963	-0.330375003438747	-0.122851032235081	0.0815142290903453	0.989071814548662	-0.814324370308369	-0.577937657206867	-0.0535152716905806	0.567259591193181	-0.811999688939623	0.137379261030555	-21.2831042566967	-81.5217160536701	146.434894136887
27607	1651212415014	9.58630036031097	-0.535777536939963	1.41170640546894	0.0575500085211199	-0.0560110725371557	-0.108529611697378	-0.00880035607955466	0.0070580781401808	0.0157352095657501	0.2958984375	-0.37939453125	0.299560546875	0	0	0	-0.573830335283645	0.319358995836393	-0.677920254143354	-0.330382667688304	-0.123132078398838	0.0814304447743376	0.989043767450681	-0.81446196340092	-0.577714249339061	-0.0538326692977785	0.567001059471939	-0.812167057183717	0.13745715617326	-21.3869181855237	-81.5108233810938	146.522299539941
27608	1651212415015	9.78406575678623	-0.586947325618258	1.44768922487952	0.0936747725432259	-0.040149892902176	0.0947778498378664	-0.00588486612186062	0.00270596285364183	0.00940420617042508	0.290771484375	-0.378662109375	0.302734375	0	0	0	-0.573786534015135	0.319418700782603	-0.677935334304216	-0.330370079569993	-0.123249247815629	0.0813828022314522	0.989033094701	-0.814495399118121	-0.577654608230541	-0.0539666415986029	0.566927568326232	-0.812214253193685	0.137481413946504	-21.4318802721273	-81.5066820398066	146.562788677417
27609	1651212415016	9.68606046597986	-0.564347767610495	1.45590869115685	0.0892040643602399	-0.066287594549069	-0.00220451836139013	0.00300763140853429	0.0319476797150977	0.00406953826335223	0.289794921875	-0.38037109375	0.30078125	0	0	0	-0.573618905695773	0.31937537771681	-0.678081556689138	-0.330402968531859	-0.123590458827439	0.0816808091294086	0.988965946788254	-0.814479827817771	-0.577666492987161	-0.0540743280850327	0.566875655293783	-0.812175885076551	0.137921438273258	-21.4084649223665	-81.4806725093991	146.539324429486
27610	1651212415018	9.46359427238415	-0.539605739481943	1.42218729958658	0.0753466106854747	-0.0698931183314696	-0.228176669942727	0.00623322593212449	0.0165543262719968	0.00804526366230226	0.295654296875	-0.376220703125	0.29248046875	0	0	0	-0.573549833098862	0.319367259155778	-0.678153994853432	-0.330382054591234	-0.123776573912684	0.0817537439257851	0.988936643625139	-0.814445896669935	-0.577704503566802	-0.0541792207044405	0.566883798628911	-0.812141509783087	0.138090285463187	-21.4223790383101	-81.4693466942035	146.555458234742
27611	1651212415018	9.53494096808175	-0.490016889930764	1.39842214309082	0.00987825092709192	-0.0735705204567409	-0.163579134286875	0.00831426513428045	0.000634629786038753	0.0273048797111953	0.296630859375	-0.38330078125	0.301025390625	0	0	0	-0.573467369329834	0.3194589132927	-0.678228610648068	-0.330283409710749	-0.124096091167522	0.0816167909465913	0.988907912594758	-0.81441384140632	-0.577717743975378	-0.0545188336430767	0.566859996015545	-0.81214586604352	0.138162358063534	-21.5341803237857	-81.4582564836986	146.667469879392
27612	1651212415019	9.60812019850193	-0.51609128450923	1.3932359579739	0.0166916168277766	-0.0498479000748652	-0.090513405038493	0.0083141263346081	0.000634528175965266	0.0273048614431664	0.298828125	-0.380126953125	0.30078125	0	0	0	-0.573424559404502	0.319525718889128	-0.678290655263909	-0.330165680563253	-0.124349796099914	0.0814488024849959	0.988889893154779	-0.814344380774616	-0.577787876693181	-0.0548123986630152	0.566904187416813	-0.812112838292898	0.138175179280277	-21.637620354841	-81.4513082462385	146.775302429705
27613	1651212415021	9.5348357418331	-0.51971507648646	1.39672835350987	0.0278077553611821	-0.0580705230348342	-0.162303942363158	0.00699478515750218	-0.00420837810800859	0.0348092179834966	0.29736328125	-0.376953125	0.2958984375	0	0	0	-0.573360483283277	0.319624553835202	-0.678362991348929	-0.330032654085847	-0.124672406892437	0.0812436996246968	0.988866144749095	-0.814284054249309	-0.577837183645399	-0.0551875728045805	0.56691998549615	-0.812098300988276	0.13819580158963	-21.7689677303998	-81.4421594911038	146.909424859164
27614	1651212415022	9.5572169872653	-0.592418502419782	1.34087065345573	0.0502348266652493	0.0282864620309297	-0.143873286632417	0.0100926621089588	-0.0179223985457905	0.0342658027856803	0.298828125	-0.3828125	0.298095703125	0	0	0	-0.573372246497798	0.319736071753508	-0.678386171185344	-0.329856505332537	-0.12487790567175	0.0808846038908553	0.988869652445891	-0.814195762881615	-0.577927060618883	-0.0555479280445504	0.567001559416429	-0.812070189982268	0.138026222731409	-21.9220606872308	-81.4435101731713	147.068486936944
27615	1651212415023	9.58257427783162	-0.548114776928729	1.36565065115849	0.0235428931925486	-0.018632905234035	-0.117830016901646	0.0100156964857682	-0.0178193970520919	0.031216700620341	0.2939453125	-0.3779296875	0.295654296875	0	0	0	-0.573389062906966	0.319850197069185	-0.678386501808956	-0.329715920357028	-0.125024788803579	0.0805524500672332	0.988878205328031	-0.814146869139666	-0.577966526595843	-0.0558531073872905	0.567039396915858	-0.812075117783387	0.13784166794695	-22.0576710705109	-81.4468044537406	147.206647399682
27616	1651212415024	9.60609203779252	-0.597570490163241	1.33515673895324	0.0420921775543544	0.0335747488973963	-0.0960089921397067	0.0129525789759718	-0.0176506856411554	0.0265669143358544	0.296142578125	-0.387451171875	0.30322265625	0	0	0	-0.573417027995853	0.319929831465532	-0.678401921706702	-0.329558261264216	-0.12516852887382	0.0802394892595684	0.988885465432134	-0.814052341764286	-0.578072510741886	-0.0561333875038212	0.567143389494796	-0.812030662406251	0.137675629885679	-22.181804610302	-81.4496017885239	147.338031969719
27617	1651212415025	9.67903490267054	-0.550581688214368	1.33324506341065	-0.0086142278436856	0.0111333807511576	-0.0267688859557946	0.012948047599311	-0.0161253516645619	0.0266186184548797	0.2841796875	-0.382568359375	0.29638671875	0	0	0	-0.573394270055577	0.320037774727211	-0.678438953681371	-0.329416787584988	-0.125407182249236	0.0799627089286353	0.988877648559771	-0.813994013848317	-0.578120805609683	-0.056480789126191	0.567174385933827	-0.812023582971582	0.137589667630173	-22.3182322245664	-81.4465899671401	147.477412110065
27618	1651212415026	9.65460685349656	-0.528558036901363	1.3346376206472	-0.0238625804898144	-0.00731289128980536	-0.0519783042575721	0.011266810855478	-0.0159267865205345	0.0205588080127288	0.302734375	-0.38330078125	0.302734375	0	0	0	-0.573422806392389	0.320103535909028	-0.678446830177168	-0.329286972153723	-0.12551275015782	0.0796980691584978	0.988885618926794	-0.813916740746825	-0.578207632536741	-0.0567051391702866	0.567261922466056	-0.811987777893648	0.137440022815228	-22.420112440342	-81.4496609401745	147.585274817413
27619	1651212415027	9.67915842382565	-0.554521126106362	1.33071311793345	-0.0104260930407822	0.0109129615148847	-0.0267704003286759	0.00662539099962689	-0.00674232647509872	0.0194589014693456	0.29443359375	-0.385498046875	0.300537109375	0	0	0	-0.573356441021649	0.320204550342166	-0.678497203696928	-0.329200519523601	-0.125778818968759	0.0795405811384349	0.988864492562547	-0.813905946670922	-0.578192127771124	-0.0570173075233245	0.567218475256698	-0.812014260549444	0.137462874958319	-22.5278583409313	-81.4415233695212	147.691372061019
27620	1651212415028	9.7047728041751	-0.557628052744735	1.35318817739278	0.000300852847433426	-0.00517171439357276	0.00182512719803185	0.00349511921454022	-0.00665273939823831	0.0164868559588921	0.3037109375	-0.38525390625	0.300048828125	0	0	0	-0.57334668226421	0.320270260210266	-0.678512798128927	-0.329121444358651	-0.125905313599796	0.0793744420331426	0.9888617446131	-0.813878006510947	-0.578212070576248	-0.0572135644554189	0.567230502111006	-0.812016317195569	0.137401084722943	-22.6067571718794	-81.4404654634065	147.771453248973
27621	1651212415029	9.68163817827593	-0.560700382518978	1.37821559730224	0.0186301063998188	-0.0270085410417268	-0.0174382921382108	0.0063882897569644	-0.00490984820585999	0.0103630655534712	0.2861328125	-0.3759765625	0.2998046875	0	0	0	-0.573327037751147	0.320334582047122	-0.678521924803688	-0.329074248291917	-0.126012493789211	0.0792552306800599	0.988857653971933	-0.813881138737373	-0.578191789311611	-0.0573737464368164	0.567202206815685	-0.812042402330376	0.137363726656382	-22.6691992061406	-81.4388908879119	147.832266501696
27622	1651212415031	9.70623386276239	-0.609983222756775	1.37348688505836	0.052132172354849	0.00646228871117351	0.00906207483671828	0.00782585432994474	-0.000224820302452596	0.00742965021281659	0.292724609375	-0.376220703125	0.295166015625	0	0	0	-0.573317005101541	0.320349558677201	-0.678547776978114	-0.329023838459742	-0.126101850773234	0.079193089186501	0.988851241520516	-0.813840487452155	-0.578238947961081	-0.0574750384471635	0.567240675741088	-0.812014885138174	0.137367543833444	-22.7045969122778	-81.436423176167	147.870811837725
27623	1651212415032	9.65583632974126	-0.536063960812526	1.35673119322758	-0.0128947401710142	-0.026325314395454	-0.0473199843215291	0.00770197078509487	0.00297950869185741	0.0029587635208789	0.294189453125	-0.3837890625	0.2998046875	0	0	0	-0.573256410664771	0.320344910529319	-0.678612447102261	-0.329000566211652	-0.126271430128312	0.0792482115003078	0.988825185210892	-0.813807305839366	-0.57827553146075	-0.0575767199157738	0.567250557422224	-0.81198345468845	0.137512451859412	-22.7191515894899	-81.4264031460655	147.887532880861
27624	1651212415033	9.6315168554472	-0.560833154715744	1.35659208898898	0.00959002088229462	-0.0139202675458375	-0.0699615057038336	0.0123230893811924	0.00142129436310291	0.00431625507747689	0.28662109375	-0.383056640625	0.292724609375	0	0	0	-0.573252734429426	0.320333040568088	-0.678645557480144	-0.328950228609214	-0.126346099134263	0.0792176396879438	0.988818096919664	-0.81374480542294	-0.578356980436698	-0.0576419537084457	0.567323589215834	-0.811928425874114	0.137536091179178	-22.7387625241193	-81.4236793333274	147.912732089031
27625	1651212415034	9.63137282979191	-0.536732462323602	1.35835585563408	-0.0112421412303897	-0.02993915240788	-0.0712535758293828	0.0108003146432521	-0.00011031580566225	0.00430361911732411	0.297119140625	-0.38623046875	0.30029296875	0	0	0	-0.573173871168712	0.320419997535449	-0.678684978879656	-0.328921629012105	-0.126564550754992	0.0791555969037609	0.988795128411845	-0.81378107845281	-0.578283174294812	-0.0578699116959565	0.567222858182186	-0.811987045343906	0.137605477177712	-22.8091624750315	-81.4148591334461	147.977447052634
27626	1651212415035	9.58361501696416	-0.490651805332549	1.38830625463583	-0.0265057845940019	-0.0853483109282433	-0.117027339649566	0.0110016399803409	-0.00341576811428331	0.0118240805395624	0.291015625	-0.383056640625	0.297607421875	0	0	0	-0.57317165402971	0.320443129479898	-0.678714681174425	-0.328841659988929	-0.126674835345144	0.0790414877396098	0.988790134106419	-0.813717161925409	-0.57835872684971	-0.0580134765795077	0.567289931585551	-0.811944349258428	0.137580911571951	-22.8635992537363	-81.4129424466483	148.037011848867
27627	1651212415036	9.58238471101803	-0.49017197513246	1.36347271013771	-0.0428786218292189	-0.0669870275479016	-0.12170716790574	0.00803703464330829	-0.00810585688725744	0.0147972460480059	0.29541015625	-0.38330078125	0.3037109375	0	0	0	-0.573122345888328	0.320549772172234	-0.678740525584553	-0.328770313643118	-0.126881715020932	0.0788709961548168	0.988777222815582	-0.813727945760097	-0.578315848854669	-0.0582890148532118	0.5672282262744	-0.811991468507552	0.137557240407578	-22.964496453367	-81.4079893897674	148.134485237014
27628	1651212415037	9.58358319112579	-0.469136334535348	1.38844997797742	-0.0471641872038903	-0.101339373344995	-0.118335686669489	0.00366282491116378	-0.0129537142673168	0.0223830090847952	0.29638671875	-0.381103515625	0.298583984375	0	0	0	-0.573123019747213	0.320644458243721	-0.678748589821355	-0.328660139732442	-0.127025033573775	0.0786177724000678	0.988778987796784	-0.81369265309547	-0.578339287897286	-0.0585485642259195	0.567246777993527	-0.811999331241912	0.137434271266853	-23.0745566805005	-81.4086663083829	148.245989540648
27629	1651212415038	9.57991510434462	-0.466699726712911	1.31407077907163	-0.0927506264930598	-0.0449120845531197	-0.13235971049191	-0.00227987747520321	-0.0162304315325339	0.0285343048587807	0.294677734375	-0.382568359375	0.29833984375	0	0	0	-0.573093597066925	0.320773331303301	-0.678764735830502	-0.328552328128145	-0.127234193364938	0.078353183857295	0.988773097640808	-0.813685752976292	-0.578315675212317	-0.0588767798637683	0.567209798436327	-0.812041722070453	0.137336397850951	-23.2050484815481	-81.4064074786841	148.374465430084
27630	1651212415039	9.68029351344502	-0.545274290257999	1.35120327628747	-0.0223373918196686	-0.025032913225204	-0.0234059699261664	-0.00525136199594483	-0.0178685159201652	0.0316101633343491	0.293212890625	-0.3857421875	0.299072265625	0	0	0	-0.573081325856772	0.320932817564365	-0.678759676585476	-0.328428412300188	-0.127425143896444	0.0780067166272423	0.988775902246817	-0.813689135030185	-0.578273809208352	-0.0592401309712555	0.567162079336057	-0.81210489085136	0.137159841128885	-23.3597959230224	-81.4074829501044	148.525998743832
27631	1651212415040	9.78031046594273	-0.550953361086438	1.39377452432808	-0.00940430898790055	-0.0514649991698778	0.0816489956582131	-0.00531416974332448	-0.00408811169889011	0.0305446937629817	0.29296875	-0.38818359375	0.298095703125	0	0	0	-0.572980218055214	0.321111727211074	-0.678798318352196	-0.328350074413195	-0.127759796700496	0.0777856217300155	0.98875013597932	-0.813748291639966	-0.57814697456074	-0.0596640063966549	0.567001897880496	-0.812216395339529	0.13716185672984	-23.5085480123609	-81.3976074777911	148.665159323243
27632	1651212415041	9.70711294174206	-0.60297581860651	1.39450990074083	0.0398425105311779	-0.0293183862543071	0.0124758291792304	-0.00240098003760839	0.00980405113236668	0.0263524363988135	0.297119140625	-0.3837890625	0.29931640625	0	0	0	-0.572886713867737	0.321201623369008	-0.678868526345684	-0.328280145845252	-0.128065917835292	0.0776938326753178	0.988717749943443	-0.813742402678731	-0.578123325977868	-0.0599726774701035	0.566941286882204	-0.812242013395335	0.13726066043788	-23.6017418598996	-81.3852107740961	148.756041154623
27633	1651212415042	9.68235154865138	-0.581288988216135	1.39847502978737	0.0238229746691954	-0.0480183144544033	-0.0127543580231375	-0.00244464521137346	0.0129058873885523	0.0249300318786462	0.28662109375	-0.38037109375	0.300537109375	0	0	0	-0.572744851489476	0.321337904991088	-0.678941717821432	-0.328242943122804	-0.128439810764757	0.0776263939889981	0.988674546029672	-0.813804916677238	-0.577997042212037	-0.0603405070089016	0.56676694734491	-0.812338329854256	0.137410571816474	-23.7075101055376	-81.368700720897	148.85209309641
27634	1651212415043	9.6576912017776	-0.608459908141507	1.39931116140211	0.0462782787825768	-0.0356588041702851	-0.0353727776450405	-0.0023275065260568	0.0127530174477087	0.0295036162992257	0.291015625	-0.38671875	0.298828125	0	0	0	-0.572636015867947	0.321432438879318	-0.679025576120383	-0.328166798353154	-0.128789091579049	0.0775397162895236	0.98863590987177	-0.813794880971803	-0.577975479389469	-0.0606814380894372	0.566702092456285	-0.812361949885797	0.137538361133955	-23.8069022353468	-81.3539627027683	148.949223986979
27635	1651212415044	9.63168031176225	-0.60991412343385	1.37758852314914	0.0329839050275468	-0.0195967581562969	-0.0639675445559504	-0.000765996160281265	0.0157573268933892	0.0310915634663901	0.297607421875	-0.3876953125	0.30322265625	0	0	0	-0.572428748565286	0.321565744570031	-0.679171648971228	-0.328095521104458	-0.12935731369435	0.0775193986858035	0.988563315231338	-0.813813305668553	-0.577897601900632	-0.0611740568731772	0.566546193095148	-0.812419291095978	0.137841599470205	-23.9316325851545	-81.3263382134456	149.0671897981
27636	1651212415045	9.60820002206716	-0.638827567815396	1.40295814305361	0.0703749684507742	-0.0259676838899508	-0.0818974557332321	-0.00240742963265824	0.014380443682008	0.0265054992804303	0.298828125	-0.38330078125	0.29931640625	0	0	0	-0.572318196544113	0.321649768195006	-0.679255700173281	-0.328032014149075	-0.12969375919559	0.0774632003957675	0.988523637254144	-0.813807261404559	-0.5778728486268	-0.0614874955186813	0.56647795200778	-0.812442258504808	0.137986617049186	-24.0179810197611	-81.3112763625934	149.151066357661
27637	1651212415046	9.58352327429873	-0.665746572568179	1.40372961465654	0.0930802931634868	-0.0134143929162455	-0.104507858611075	0.00518893015250566	0.00987442228806831	0.0246348250960284	0.292724609375	-0.38818359375	0.302001953125	0	0	0	-0.572240842445388	0.321704791442169	-0.67932794307215	-0.32796339911933	-0.129960854150976	0.0774041609062009	0.988493182709297	-0.81377464440054	-0.577892072002491	-0.0617380048871308	0.566463595051901	-0.812434212100325	0.138092890801087	-24.0882682398334	-81.299733299677	149.222142516786
27638	1651212415047	9.60762360243804	-0.667757222615458	1.40341823210437	0.0887121910571256	-0.0108350837785786	-0.0805793638396679	0.00663894158674926	0.0084544894862248	0.0214961781995125	0.29541015625	-0.386474609375	0.306396484375	0	0	0	-0.572173395595025	0.321753587876707	-0.679401140359385	-0.327881570906467	-0.130222561666332	0.0773285405127645	0.988464658576736	-0.813723912193956	-0.577936608296748	-0.0619892854791478	0.56647637122551	-0.812409732593485	0.13818446812345	-24.1609121437079	-81.2889356786256	149.29738413071
27639	1651212415048	9.60734744924828	-0.645281763328217	1.40583992924131	0.0680940825461601	-0.0258963375048638	-0.0818810371202243	0.00812752655375994	0.00698339891066877	0.0198821845559633	0.28759765625	-0.38623046875	0.301025390625	0	0	0	-0.57205491039151	0.32180532544276	-0.67951399230128	-0.327803670327863	-0.130595866433087	0.0773137282116603	0.988416565573749	-0.813674994650334	-0.577972172472523	-0.062299044360017	0.566460698328993	-0.812385841381671	0.138389024027283	-24.2360022965518	-81.270760401952	149.374150441642
27640	1651212415049	9.63030464488389	-0.645169520836963	1.38087692044725	0.0487615410923667	-0.00458580705391337	-0.0626394942928581	0.0111046312658075	0.00404087712879464	0.0166544261370488	0.293701171875	-0.387939453125	0.29443359375	0	0	0	-0.572017045265592	0.321832465979334	-0.679574259494753	-0.327718155736664	-0.130794620652363	0.0772303334953843	0.988396804323343	-0.813604958535535	-0.578049348484441	-0.062497377249801	0.566515435495623	-0.812338861747304	0.138440727534566	-24.2962155392801	-81.2633031182291	149.439412734702
27641	1651212415052	9.60696822160266	-0.624129026637508	1.40843951624801	0.0468065787041279	-0.0422522860658222	-0.0831909230748469	0.0111821965256145	0.00241372805364468	0.0196526334963223	0.287353515625	-0.382568359375	0.294921875	0	0	0	-0.571905702170618	0.321963062623611	-0.679644529370147	-0.327638471227036	-0.131153799993487	0.0770903663557888	0.988360134850854	-0.813620411966824	-0.577985636956071	-0.0628842484523788	0.566410192332557	-0.812397488233202	0.138527308261515	-24.4155968433978	-81.2494819026202	149.553584208896
27642	1651212415051	9.58367000884521	-0.62733326886272	1.43431186852367	0.0652792836046632	-0.0640489663894841	-0.102426571785861	0.0141193021251645	0.00257205683176588	0.015002354428033	0.29150390625	-0.3876953125	0.30615234375	0	0	0	-0.571879758002418	0.321978638499812	-0.679702856160326	-0.327547440937031	-0.131332432645396	0.0770037305313712	0.988343167943045	-0.813535994000253	-0.578084860570818	-0.0630640979071097	0.566490051635033	-0.812335102936632	0.138566597473807	-24.4711173838002	-81.2430941721284	149.615759496633
27643	1651212415051	9.58231143098025	-0.578166419479098	1.41340734185249	0.0103670303234174	-0.0760438748629619	-0.10976002866879	0.0125555168130179	-0.000431430140643336	0.0134146931871707	0.29345703125	-0.387939453125	0.304931640625	0	0	0	-0.571783784163565	0.322042225384586	-0.679790751532066	-0.327470064843195	-0.131653321598375	0.0769451983863112	0.988305033558672	-0.813499287549729	-0.578104323401874	-0.0633585070858331	0.566468279842922	-0.812326798591154	0.138704218473874	-24.5503806199165	-81.2287541190588	149.695714962685
27644	1651212415053	9.58347723754082	-0.605274217248841	1.43614259078519	0.0437429963141974	-0.0796279667933984	-0.103740755449026	0.00950299683814171	-0.000437271576172699	0.0134912778669284	0.2900390625	-0.382080078125	0.299072265625	0	0	0	-0.57176224545989	0.32207452728344	-0.679831052131529	-0.327392232802722	-0.131804521134225	0.076842702321904	0.988292855032578	-0.813442922021954	-0.578164649551194	-0.0635314931489094	0.566514060567752	-0.812293565842555	0.138711867083625	-24.6082775571586	-81.2241794043698	149.757598397769
27645	1651212415054	9.55659326968974	-0.603156837631116	1.3885771424159	0.0162822038050771	-0.0446720603865479	-0.13703964202084	0.00790044150150384	-0.00339024310462068	0.0103793941943722	0.302001953125	-0.38525390625	0.29736328125	0	0	0	-0.571699106851281	0.322117072614284	-0.679892438019751	-0.327333156706453	-0.132026271492073	0.0767945904854325	0.988266995557413	-0.813410761345974	-0.578187192101986	-0.0637377769912417	0.566508602725912	-0.8122820703188	0.138801445511704	-24.6646394879553	-81.2144734454072	149.815087148001
27646	1651212415055	9.60537444397255	-0.579643683570675	1.3871643875097	-0.011052846660161	-0.0546783358990268	-0.090531326078807	0.00797793278272721	-0.009593175087905	0.0132266495814221	0.301513671875	-0.3916015625	0.30419921875	0	0	0	-0.571706200053544	0.322168916512011	-0.679904041257721	-0.327245633638149	-0.132124632170207	0.0766193235201436	0.988267454101977	-0.81336319165794	-0.578234968996488	-0.0639111812255142	0.566553969212022	-0.812264611991035	0.138718420107628	-24.7367522889472	-81.214645460451	149.890473447204
27647	1651212415055	9.55915390042622	-0.584132377696503	1.4372538245383	0.0276112193702931	-0.0983797932953625	-0.128995332910685	0.00488707898452327	-0.0125991572892462	0.0116780637692245	0.295166015625	-0.382080078125	0.2939453125	0	0	0	-0.571767165800243	0.322232763468641	-0.679848369640214	-0.327191913955195	-0.132055519110188	0.0763975507309098	0.988293860202954	-0.813366006316691	-0.578222995179398	-0.0639836511477956	0.566566041729449	-0.81229402440747	0.13849670852024	-24.7963138005685	-81.2245568947656	149.949502580102
27648	1651212415056	9.60558128206734	-0.630652723667258	1.38151493306979	0.0271376582732864	-0.0247362273775036	-0.0878660556311637	0.00649029937193579	-0.0172739121170424	0.0145375852291551	0.291015625	-0.383056640625	0.2958984375	0	0	0	-0.571796344667669	0.322306266873848	-0.679836974530936	-0.327092186729001	-0.132119283211065	0.0761516347132083	0.988304317269889	-0.813325815761001	-0.578258743429369	-0.064171201205759	0.566608870756977	-0.812291668169749	0.138335221117073	-24.8857306218327	-81.2284849883991	150.041476653724
27649	1651212415056	9.63011321726479	-0.631679857328751	1.37873502839003	0.0230222960518509	-0.0225938320110655	-0.0639454153390382	0.00484805495223678	-0.015600046864737	0.0100528472730126	0.28955078125	-0.38623046875	0.295166015625	0	0	0	-0.571827941766788	0.32240563209252	-0.679788612508703	-0.327039532340166	-0.13211589860297	0.0759144018230608	0.988323020541451	-0.813356597877005	-0.578199505363496	-0.0643146693014316	0.566565471967957	-0.812356039919231	0.138134826819564	-24.9663780205109	-81.2355150431016	150.118127123872
27650	1651212415057	9.60462611010256	-0.655482898123486	1.35256511540406	0.0305346277898107	0.00845983971432089	-0.0912199453693816	0.0048868039142345	-0.0156503257244198	0.0115774042790172	0.2919921875	-0.385009765625	0.301025390625	0	0	0	-0.571853836736937	0.322474041472657	-0.679773958996408	-0.326957255089844	-0.132164285506719	0.0756980197016339	0.988333148007163	-0.813330091158453	-0.578218891840812	-0.0644753901466706	0.56659223825665	-0.812362433235089	0.137987363971072	-25.0446035778565	-81.2393240199163	150.197773772046
27651	1651212415058	9.60726243745038	-0.659914009798456	1.39961477963565	0.0588006955546731	-0.0294191252202806	-0.0818304547195439	0.00958146788976527	-0.0188453764761034	0.0159339913445228	0.29150390625	-0.391357421875	0.294189453125	0	0	0	-0.571834711609581	0.322601028121947	-0.679777498410771	-0.326858060796187	-0.132337741381887	0.0754325780447198	0.988330232450403	-0.813330441568992	-0.578184769494438	-0.0647762698976513	0.56655124659922	-0.81241140962827	0.1378672785061	-25.1662563482678	-81.2382272999715	150.316838430811
27652	1651212415058	9.63059194265175	-0.659321521452038	1.37216124843094	0.039430548567148	-0.00813277697058823	-0.0625996070167076	0.0124765999660992	-0.0216918320780594	0.00965740948235759	0.291015625	-0.38720703125	0.296875	0	0	0	-0.571896193660838	0.322648651745282	-0.679754762123665	-0.326750752980612	-0.132337378205697	0.0751776890862727	0.988349701974605	-0.813263832377985	-0.578263585907109	-0.0649088912224217	0.566646942350803	-0.812378938844121	0.137665182406395	-25.2437950680621	-81.2455535679723	150.400132562237
27653	1651212415059	9.65523398788837	-0.611308393223449	1.37216743054212	-0.00418000012915101	-0.0374323706279836	-0.0413688344665655	0.0109508345919692	-0.0201683890055448	0.00974665815922967	0.287353515625	-0.385498046875	0.2939453125	0	0	0	-0.571882641653597	0.322827433611895	-0.679716904817601	-0.32667663153039	-0.132465245174524	0.0748564466557107	0.988356955363261	-0.813334068784596	-0.578129653039032	-0.0652211379175769	0.566516241051524	-0.812503917941969	0.137465384565724	-25.382234571728	-81.2482845314748	150.529098417593
27654	1651212415061	9.65413068594112	-0.659182554618355	1.3429030575734	0.0182520455742194	0.0117939905460827	-0.0433640960869752	0.00786025000023025	-0.0170712674744229	0.00840074603250109	0.2919921875	-0.395263671875	0.305419921875	0	0	0	-0.571922355473766	0.32288094627924	-0.679697666367594	-0.326594237814461	-0.132482046271462	0.0746450199159424	0.988370693827713	-0.813296345250427	-0.578168196712428	-0.065349759851108	0.566566467608192	-0.812495942951131	0.137305427678325	-25.4518545182984	-81.2534595009142	150.601568010449
27655	1651212415062	9.67994682890686	-0.636982991565701	1.36619657136391	0.0074401591221001	-0.0201497672720015	-0.0160986949717312	0.00934897775081609	-0.0124428042750808	0.00698653987882632	0.2958984375	-0.38330078125	0.293701171875	0	0	0	-0.57184334552447	0.323024499048721	-0.67972359013926	-0.326536678187766	-0.132737971954963	0.0744705459750996	0.988349517419548	-0.813348186864646	-0.578057941624844	-0.0656790914099866	0.566432129849002	-0.812590397375344	0.137300722387409	-25.5645595426719	-81.2454840924262	150.706083130131
27656	1651212415063	9.65572253555449	-0.613298108476261	1.36783491214511	-0.00797415454265333	-0.0386315221947635	-0.0413758615082518	0.00938775360421991	-0.0140182593547919	0.0084612274710533	0.294677734375	-0.385009765625	0.29541015625	0	0	0	-0.571874200038254	0.323068998627382	-0.679716021865902	-0.32645436292888	-0.132774896510613	0.0742828714871843	0.988358680773439	-0.813302172075958	-0.5781079421012	-0.0658086937725069	0.566489544257547	-0.812572004368311	0.137172642913017	-25.6294031709105	-81.2489342878165	150.774526107508
27657	1651212415063	9.65710469865749	-0.615535749617283	1.39108173217273	0.00737435319426611	-0.0583102040923783	-0.0366856612737738	0.00629815792388984	-0.00939530041777733	0.00716536862560167	0.2880859375	-0.392578125	0.3076171875	0	0	0	-0.571917343001026	0.323141834757921	-0.679663053550037	-0.326416974195537	-0.132725023463353	0.0740862757301509	0.988380135319953	-0.813327953919059	-0.578062627172629	-0.0658880750979682	0.566464215569253	-0.812622189467353	0.136979814807861	-25.6878208201958	-81.2570176599286	150.830019136728
27658	1651212415064	9.63028488707092	-0.588655854260731	1.34448960600328	-0.0378440320083074	-0.0392817630724691	-0.0713537920382396	0.00629901981897302	-0.00786973579827625	0.00721511164998539	0.29345703125	-0.3798828125	0.297119140625	0	0	0	-0.57192458877147	0.323183788160956	-0.679665342300201	-0.326357972638128	-0.132785476908231	0.073954896087864	0.988381854581966	-0.813301916654107	-0.578085425530931	-0.0660093414258799	0.566487431007087	-0.812617938599288	0.136909007657037	-25.7405865576316	-81.2576657426285	150.884371465344
27659	1651212415064	9.68035679152105	-0.615026623697266	1.36397052029879	-0.0140274350336257	-0.0365728544439636	-0.0174616606613114	0.00778535052043812	-0.00781843248521233	0.00565077015466357	0.293701171875	-0.388427734375	0.30029296875	0	0	0	-0.571865464048272	0.32322300181662	-0.679720365975629	-0.326308146088117	-0.13298576965078	0.0739164411098145	0.988357802015064	-0.813276728809562	-0.578099769786378	-0.0661937954022431	0.566476608031795	-0.812611232943894	0.136993564251015	-25.7893265683281	-81.2486033583053	150.9337234696
27660	1651212415066	9.63157373829819	-0.615758371206722	1.36638540530685	-0.00652046874651622	-0.0424911962771873	-0.065301454259405	0.00482069550579834	0.00428385125640229	0.00917665898182388	0.293212890625	-0.378662109375	0.291748046875	0	0	0	-0.571825301900842	0.323255790992988	-0.67975876080087	-0.326266064447368	-0.133132558592073	0.0738727507687172	0.988341306703606	-0.813256111871761	-0.578112297559047	-0.0663375302089656	0.566471727755194	-0.812606293419428	0.137043035391017	-25.8299294128035	-81.242393730893	150.974930429657
27661	1651212415066	9.607143838117	-0.616393303855714	1.36774060427196	-0.00256655624085271	-0.0457804896334213	-0.0892226843991768	0.00469586794805722	-0.00319536491982098	0.00435500575170605	0.29248046875	-0.382568359375	0.30126953125	0	0	0	-0.571829030028583	0.323300786765933	-0.679742903356162	-0.326247983947847	-0.133147626773072	0.0737839530379261	0.98834590997221	-0.81327505425329	-0.578077708492988	-0.0664066944878576	0.566440990407657	-0.812638967326569	0.136976323386199	-25.8643015564492	-81.2441261827186	151.006907113953
27662	1651212415067	9.63153085262029	-0.616702671886042	1.36626180230035	-0.00706924121653286	-0.043280580672653	-0.0653053098867779	0.00469695763611197	-0.00166977638045829	0.00440456889599823	0.291748046875	-0.376953125	0.295166015625	0	0	0	-0.57181675765147	0.323330399068463	-0.679755922716305	-0.326213019726823	-0.133221322859334	0.0737189835619892	0.988340827143246	-0.813261945343927	-0.578085037597872	-0.0665033650342538	0.566442483744838	-0.812639650009803	0.136966097414376	-25.8987141735271	-81.2422132666918	151.041733728912
27663	1651212415068	9.63023261784315	-0.615628706555513	1.34186955753521	-0.0219598939733908	-0.0240093265928475	-0.0700011734489152	0.0047778112501505	-0.000243225860951692	0.00750320430946373	0.290771484375	-0.389892578125	0.297607421875	0	0	0	-0.571810448649492	0.323308366015328	-0.679788721046829	-0.326177568231297	-0.133282009595969	0.0737214602375192	0.988332460368731	-0.813205867530953	-0.578159788894434	-0.066539278015123	0.566508713905876	-0.812586244534075	0.137009022559532	-25.9038140512725	-81.2390653445981	151.051971606575
27664	1651212415069	9.6070746506757	-0.642136986138088	1.36575054033818	0.0153771142760545	-0.030511373666413	-0.0878567529518275	0.00316953374096355	-0.00319685619261019	0.00439496934353063	0.284423828125	-0.390625	0.294921875	0	0	0	-0.571801084393596	0.323345265353534	-0.679794878996317	-0.32614457185448	-0.13334647627233	0.0736444727928725	0.988329504210419	-0.813201166243616	-0.57815511524662	-0.0666372713591216	0.566500291690812	-0.81259655078103	0.13698271851952	-25.9412909305138	-81.2379533854501	151.089046940719
27665	1651212415070	9.60709633008162	-0.642561852348604	1.36539817480041	0.012382738078168	-0.0316986054828969	-0.0878562765541062	0.00626050520861543	-0.00476919899584301	0.00579029471258164	0.289306640625	-0.386474609375	0.3056640625	0	0	0	-0.5716829912183	0.323529003644115	-0.679818949115002	-0.326119207923909	-0.133649639549559	0.0734919773358104	0.988299905451552	-0.813316091532386	-0.577950492048257	-0.0670086859717653	0.566263815816231	-0.812755903090498	0.137015082705488	-26.0614377298058	-81.2268275197308	151.194250338363
27666	1651212415071	9.60717106540528	-0.642950246869771	1.36468932897981	0.0118677733468939	-0.0320150618617074	-0.0878566711336308	0.00621548122012508	-0.010822203438602	0.00406806312683542	0.2880859375	-0.390380859375	0.301513671875	0	0	0	-0.571704112809605	0.32356840259875	-0.679807928065762	-0.326066062593473	-0.133670660442743	0.0733538157665816	0.988307326821613	-0.813295361930339	-0.577968823328965	-0.0671021126517634	0.566288626761477	-0.812755348781055	0.136915792472551	-26.1093670366391	-81.2296158201761	151.24354931326
27667	1651212415072	9.65600655680953	-0.643270417306761	1.36141654087413	0.000851661118125497	-0.0258789960413662	-0.0400191505655734	0.00473453472266863	-0.00477045652856034	0.00583010483617765	0.287841796875	-0.38916015625	0.299072265625	0	0	0	-0.571587549437002	0.323639620691621	-0.679890391329429	-0.326027797933096	-0.133987096606999	0.0733495788583201	0.988264791047488	-0.813303089625697	-0.577926541786961	-0.0673720765856275	0.566202739615522	-0.812785796861308	0.137090138494374	-26.1715157712363	-81.2136465083701	151.302044427252
27668	1651212415073	9.68038797219253	-0.643602144543559	1.35995436347733	-0.00371321619235428	-0.0233872316370318	-0.0161037672228108	0.0123293032168785	-0.000138127074098065	0.0042533696425597	0.29443359375	-0.3876953125	0.302490234375	0	0	0	-0.571581182941675	0.323641503167366	-0.679920929234015	-0.325973401866038	-0.134072585165757	0.0732974901458091	0.988257061621771	-0.813247063063509	-0.577995037406901	-0.0674607378522741	0.566262974531753	-0.812741788436722	0.137102257469127	-26.1993485094871	-81.210747721649	151.334569902702
27669	1651212415074	9.65729775122187	-0.621265429171663	1.38718893842962	-0.00559356436344808	-0.0604427159250293	-0.0366974323960569	0.00935704424044959	-0.000239039860640963	0.00738256320936909	0.291748046875	-0.390380859375	0.298583984375	0	0	0	-0.571501089216497	0.323704289288724	-0.679978510705963	-0.325931377898078	-0.134310483851635	0.0732579580458396	0.988227689103323	-0.81324737369607	-0.577968539995086	-0.0676836461221866	0.566206148945756	-0.812764196036528	0.137204076240879	-26.257417495125	-81.199740709557	151.390298452368
27670	1651212415075	9.68155632287741	-0.646196127283981	1.38458945332221	0.00875143424659344	-0.0425979254476224	-0.0113966816110071	0.0078352028124974	0.00433663810480689	0.00757011296246752	0.29248046875	-0.384521484375	0.294921875	0	0	0	-0.571466353396905	0.323724008362033	-0.680020245523215	-0.325885622609849	-0.13444953582287	0.0732228850679105	0.988211379928073	-0.813212399330631	-0.578002654772419	-0.0678124225415569	0.566223379852805	-0.812743096050878	0.137257946690525	-26.2917196545407	-81.1936349279832	151.426740643185
27671	1651212415076	9.58391191045336	-0.622376628413286	1.39226682326935	0.00503594862493201	-0.0700015849177764	-0.108451106435297	0.00925181809680163	0.0151643415073765	0.00330018620893303	0.296875	-0.388916015625	0.30224609375	0	0	0	-0.571380615603266	0.323768421789527	-0.680069579383169	-0.325888889596365	-0.134641247500962	0.0732642398369004	0.988182212768731	-0.813244240456892	-0.577940881379134	-0.0679569201362404	0.566132086915305	-0.812783297559584	0.137396402329504	-26.3172201422835	-81.1827258709039	151.447438920448
27672	1651212415078	9.60940629441245	-0.624154680647463	1.41631920260582	0.0153266584038466	-0.0862966042788195	-0.0798287662884007	0.00928104676815483	0.00443597435713136	0.00448147747378737	0.29443359375	-0.3798828125	0.30615234375	0	0	0	-0.571352737661294	0.323774905791879	-0.680108673717501	-0.325849737579497	-0.134755995372636	0.0732471080923391	0.988167841445591	-0.813205823333209	-0.577983517797666	-0.0680539642577285	0.566159969097151	-0.812754522786766	0.13745171909281	-26.3405535162341	-81.1773556515816	151.473548601393
27673	1651212415079	9.80806664004153	-0.677305278263629	1.47671950467071	0.0656760575620141	-0.0884418535283809	0.128413118104344	0.0121785905712465	0.0092107478718839	-0.00154961891014109	0.286376953125	-0.388671875	0.304443359375	0	0	0	-0.571342969637816	0.323653605999946	-0.680179183817569	-0.325840194374388	-0.134790757551007	0.0734250101570643	0.9881498973143	-0.813093859701052	-0.578153022106585	-0.067951882574862	0.566312481758323	-0.812617899699765	0.137631108737347	-26.2766927975095	-81.1706549083982	151.421399985853
27674	1651212415080	9.6115546939323	-0.626494713977222	1.46794394176913	0.0446372365419228	-0.123137044081647	-0.070399012282154	0.0180704245696914	0.0354434875070239	-0.0100253347421094	0.290283203125	-0.3876953125	0.297119140625	0	0	0	-0.571247684303076	0.323537492821952	-0.680297565978007	-0.325875429637244	-0.13496257507423	0.0737444360689823	0.988102657358131	-0.813024610308035	-0.578257390194453	-0.0678923686357107	0.566370979449689	-0.812514706841893	0.137999147833718	-26.1961123284142	-81.1530385190935	151.347518302148
27675	1651212415081	9.46125365096786	-0.548067798933757	1.40995436901106	-0.0351374313465602	-0.129735153255944	-0.232206993958316	0.0167272388588314	0.0199423847022445	-0.00285026134468721	0.287353515625	-0.390380859375	0.291015625	0	0	0	-0.571097410832581	0.323528311404891	-0.680427119118515	-0.325877453389921	-0.135303265424844	0.0739393516428241	0.988041496418047	-0.813004075540305	-0.5782666341832	-0.0680593340056172	0.566319167537378	-0.812490413524413	0.138354358119644	-26.1935149747567	-81.1302823756989	151.344661691076
27676	1651212415082	9.60864473640171	-0.52541469599661	1.42951224822424	-0.0640036571134345	-0.147342317913322	-0.0854157420824499	0.0141330541081889	0.00410055287331874	0.0150375127469984	0.286376953125	-0.387939453125	0.300537109375	0	0	0	-0.571061084293092	0.323548675753681	-0.680490905373029	-0.3257876918004	-0.13550323575473	0.0738590075103049	0.988020101065556	-0.81292323790027	-0.578357268578813	-0.0682545175339731	0.566387396030084	-0.812433207649495	0.138410984848074	-26.2492586040935	-81.1223354714072	151.406439432037
27677	1651212415083	9.55956584488139	-0.599939317648599	1.42797275217631	-0.00171635352695133	-0.10807993061516	-0.129059526310492	0.00807076577413219	0.00709927711845506	0.0168164548314228	0.29052734375	-0.38916015625	0.300537109375	0	0	0	-0.570906649761	0.32372278546219	-0.6805624116228	-0.325736027048636	-0.135923275882481	0.0737364104422634	0.987971560748823	-0.812998374040335	-0.578199197710342	-0.0686973913252054	0.566178864742536	-0.812556846960388	0.138538310862543	-26.3755658514884	-81.1043321898958	151.520809385434
27678	1651212415084	9.53498661601573	-0.626107946683729	1.42788431507016	0.0206824244926847	-0.0958681630221658	-0.151568600832032	0.00669005639526171	-0.00377479243694901	0.0226150575816067	0.2939453125	-0.389404296875	0.302978515625	0	0	0	-0.570871975313795	0.323804132989769	-0.680604087833995	-0.325628848359178	-0.136142081835201	0.073547240590585	0.987955533895674	-0.812950060649146	-0.578233473150038	-0.0689800653768376	0.566195666218072	-0.81254960090468	0.138512142520138	-26.4736421598563	-81.0983958679064	151.621011225043
27679	1651212415085	9.5811519089526	-0.649219267321412	1.37448912720486	0.000473642562684968	-0.0374239577662891	-0.11177107463368	0.00965461364426465	-0.0113047587785535	0.0192452784435056	0.2900390625	-0.380126953125	0.29541015625	0	0	0	-0.570831030943772	0.323902336148715	-0.68063772672949	-0.325532633850414	-0.136360876820165	0.0733525748226837	0.987939831690027	-0.812926592698153	-0.578231561871634	-0.0692720415439184	0.566176709302853	-0.812568557490612	0.13847842149815	-26.5759172026698	-81.0925836008029	151.722869325514
27680	1651212415087	9.58111709582245	-0.675258585564649	1.37194060474308	0.0188226280308346	-0.022415661147778	-0.110360685970177	0.0142329229314273	-0.011303262550373	0.0191270963410843	0.291015625	-0.386962890625	0.302490234375	0	0	0	-0.570839624286005	0.323960572302611	-0.6806645415282	-0.325403523097989	-0.136509341000859	0.073122216968903	0.987936405445748	-0.812840342475711	-0.578324189497563	-0.0695104991059439	0.566264759157306	-0.812523398572337	0.138383341876755	-26.6705590687177	-81.0913158555334	151.823949537189
27681	1651212415087	9.60565043523163	-0.627883139828267	1.37299321890651	-0.0235899853078715	-0.0500697275483614	-0.0892721023307246	0.0125553681144815	-0.00653381263806758	0.0132127781543521	0.290283203125	-0.393310546875	0.302490234375	0	0	0	-0.570835320489842	0.323975461913278	-0.680700247584572	-0.325321548468035	-0.136625853967239	0.0730196439093547	0.987927885845457	-0.812766190437797	-0.578411580360876	-0.0696502935073842	0.566343090104359	-0.812470415035393	0.138373873918676	-26.7183332867179	-81.0881642921166	151.877738788507
27682	1651212415091	9.60692408273152	-0.630458054422295	1.3967746711664	-0.00932302732687216	-0.069186725683339	-0.0845542755624038	0.0109897185742616	-0.00648596257330762	0.0117277017043598	0.289306640625	-0.39306640625	0.29345703125	0	0	0	-0.570834238047895	0.324015712558945	-0.680723504716522	-0.325234685748083	-0.13674134371725	0.0728712654873604	0.987922863175396	-0.812708315063885	-0.57847243440253	-0.0698200348211858	0.566398269369197	-0.812440410924199	0.138324181374397	-26.7826597153411	-81.0863068280891	151.946257917026
27683	1651212415089	9.6543586528461	-0.654338248634523	1.36781395404354	-0.0156706749556422	-0.0307937021502018	-0.0400459280580936	0.00950305947922914	-0.00653426165247707	0.0132918923695377	0.28271484375	-0.384521484375	0.298583984375	0	0	0	-0.570745203236267	0.324199895700624	-0.680740671014977	-0.325171461596149	-0.137026867092433	0.0726438072021072	0.987900053127854	-0.812785948645425	-0.578315896382257	-0.0702120052138013	0.566217837390689	-0.812572212955113	0.138288681220993	-26.9178411316162	-81.0778761327901	152.070023025742
27684	1651212415090	9.65563910471062	-0.656648843671395	1.39166788794923	-0.00142912556727639	-0.049931936619203	-0.0353258329295016	0.0108337843507219	-0.00476850001604728	0.00567716620751183	0.293701171875	-0.3857421875	0.2958984375	0	0	0	-0.570747200096543	0.324221832246367	-0.680758688708593	-0.325108358589136	-0.13710437751487	0.0725432738331164	0.987896686444405	-0.812738085692257	-0.578369517340573	-0.0703242879560046	0.56626777564289	-0.812543029526934	0.138255674153531	-26.9603421504694	-81.0766324606963	152.116243049152
27685	1651212415092	9.60555418519442	-0.679822437825917	1.36802416726367	0.00958050599563394	-0.0216652634759302	-0.0864466342234547	0.00927052343338375	-0.00319496340286355	0.00424009378817356	0.28759765625	-0.38916015625	0.293212890625	0	0	0	-0.570709719270923	0.324269658429193	-0.680783934954098	-0.325073589915164	-0.137235154938743	0.0724820639237939	0.9878830207359	-0.812737446844607	-0.578352699523764	-0.0704698336175462	0.566237012871332	-0.812560462589044	0.138279209903836	-27.0042949242575	-81.0715860342565	152.158795870481
27686	1651212415093	9.60822145543278	-0.658664888683868	1.41777625614612	0.0197153052673503	-0.0749326892443714	-0.0784259698573173	0.0153278301728236	-0.00772410782352877	0.0024133116232154	0.2890625	-0.384521484375	0.291259765625	0	0	0	-0.570734138267142	0.324272142315416	-0.680795533258425	-0.325003943099173	-0.137269960772904	0.0723761020897261	0.987885953800186	-0.812668828923442	-0.578440029376321	-0.0705443613006914	0.566327054241281	-0.81250774289321	0.138220242269266	-27.0386974321508	-81.0726689078007	152.199391845474
27687	1651212415094	9.60571574685579	-0.679847816227788	1.36687667971398	0.00803331137389576	-0.0235683966871309	-0.0864496587057903	0.0152459200913356	-0.00915429326959362	-0.000683604526070079	0.2890625	-0.388916015625	0.293212890625	0	0	0	-0.570746144438977	0.324371509079436	-0.680755556588319	-0.324967436645121	-0.137290007456685	0.072179200066975	0.987897574108893	-0.812714352758738	-0.578358578435658	-0.0706875913426891	0.566256862803877	-0.812583237476369	0.138063925411144	-27.1120720970207	-81.0769603523375	152.267184645348
27688	1651212415095	9.63157421863693	-0.656777744223879	1.39068704555723	-0.000760987061667641	-0.0552596594093561	-0.059250268688416	0.0183378077649857	-0.00920205420093482	0.000761376725763201	0.27880859375	-0.393798828125	0.30322265625	0	0	0	-0.570782971034827	0.324362540843525	-0.680764681084326	-0.324892583883267	-0.137303217828622	0.0720695629977646	0.987903742508964	-0.812632022018055	-0.578467502070374	-0.0707428147539421	0.566371806470586	-0.812515431938234	0.137991484148378	-27.1424325403266	-81.0792392087403	152.30531210731
27689	1651212415096	9.58311332213407	-0.60777096532926	1.39543633662258	-0.0343833460530518	-0.092287677262499	-0.109956315935317	0.0198214908663179	-0.0106803311790953	-0.00085055968913378	0.29345703125	-0.390380859375	0.298095703125	0	0	0	-0.57068082950527	0.324491846198415	-0.680814059338494	-0.324839420626503	-0.137605483284429	0.0719479372673716	0.987870550878519	-0.812673041092205	-0.578368785115564	-0.0710779620268822	0.566239577610049	-0.812596482103459	0.138056865171841	-27.2414724962244	-81.0669836750364	152.396884034127
27690	1651212415097	9.58329171077568	-0.607501532323108	1.39432815519865	-0.0350303512006893	-0.0926567475927034	-0.109962147723959	0.0259979275102258	-0.0153523300064433	0.00189697510303081	0.2900390625	-0.38916015625	0.3046875	0	0	0	-0.570748126531164	0.324471123260313	-0.680820424949092	-0.324728525392359	-0.137595921715342	0.0717810538728635	0.987884022865137	-0.812546196730008	-0.57853974993339	-0.0711367410457586	0.566423905310242	-0.812489531041424	0.137930132462715	-27.2821830346527	-81.0719560010078	152.449847110394
27691	1651212415098	9.58367404782117	-0.55894552214442	1.39576552732184	-0.0741227789079035	-0.123392757982382	-0.112859039136634	0.0169936789447579	-0.0201175939953246	0.00809477209256697	0.2958984375	-0.38671875	0.294189453125	0	0	0	-0.570772334822005	0.324527291140052	-0.680816402179844	-0.324638268893286	-0.137657872343614	0.0715757171207037	0.987890290923282	-0.812500515830576	-0.57858406335054	-0.0712979201086917	0.566474378905946	-0.812476090943872	0.137801958214273	-27.3567786773648	-81.0742703920653	152.527657533015
27692	1651212415099	9.58018932493922	-0.530744246116733	1.32198712247767	-0.138223782056473	-0.0826475473234205	-0.128502843042659	0.0170580886712181	-0.0293658798566655	0.0108623368165824	0.29150390625	-0.383056640625	0.294677734375	0	0	0	-0.570858062838292	0.324585553800671	-0.680782868611414	-0.324499578060803	-0.137642191861748	0.0712429462949644	0.987916529683914	-0.812412068166744	-0.578688484204546	-0.0714581678052238	0.566605028672115	-0.812430969899756	0.13753058071285	-27.4554955332685	-81.0839651484242	152.634130206723
27693	1651212415100	9.58040847963344	-0.556196240515735	1.3178192926191	-0.118121795532344	-0.0682280658497642	-0.12704747470603	0.0110774932746004	-0.0279800900231375	0.0156448929740523	0.285888671875	-0.388916015625	0.29541015625	0	0	0	-0.57099083370684	0.324669884386013	-0.680685817063156	-0.324385191469346	-0.137487430756327	0.0708417422668539	0.987966929576401	-0.812375854127146	-0.578727427456338	-0.0715544292197177	0.566694519132852	-0.812438312896657	0.137117867991081	-27.5576303850743	-81.1026164070729	152.739770014835
27694	1651212415100	9.5819703968651	-0.559445369891353	1.33951040800232	-0.103928843197541	-0.0874139614582344	-0.122332334691119	0.00670203254309621	-0.028213271523301	0.0233900413127701	0.2783203125	-0.392333984375	0.29443359375	0	0	0	-0.571035932351676	0.324797631512103	-0.680658288590654	-0.324235649952657	-0.137578414526061	0.0704451285214489	0.987982623189341	-0.812329601865968	-0.578755483727812	-0.0718519866619177	0.5667387385637	-0.812452813351387	0.136848925054761	-27.7015408532836	-81.1084319943423	152.885910293572
27695	1651212415102	9.70544110690223	-0.563395208569529	1.35437519730911	-0.113447190585774	-0.0934904118243543	0.00187942826772414	-0.000856014660835521	-0.0328814604088517	0.0265037094818863	0.2939453125	-0.386962890625	0.2958984375	0	0	0	-0.570928098225614	0.325143280883779	-0.680640257401715	-0.324116944260469	-0.137978626199481	0.06994721072778	0.987962188762054	-0.81248095075103	-0.578460106678776	-0.0725162716076939	0.566424402174558	-0.812706153965	0.136645907105232	-27.9543323908637	-81.100860343383	153.117618831738
27696	1651212415104	9.80546302809063	-0.642008925190465	1.3908325860663	-0.043941209659501	-0.0744609403769344	0.111335007967604	-0.00399874323606815	-0.017482614683415	0.0224790423494953	0.28564453125	-0.382568359375	0.300537109375	0	0	0	-0.570919666623672	0.325288778554506	-0.680624845345684	-0.324018154903388	-0.138125939110639	0.0696420911231056	0.987963159277108	-0.812497135158145	-0.578398891679043	-0.0728225752377752	0.566365279925077	-0.812775923147614	0.136475889617666	-28.0840674024733	-81.1012198076997	153.243091776643
27697	1651212415104	9.72982687297097	-0.61638794211377	1.34664296388536	-0.0806606792691332	-0.0602800170012473	0.0286932502141166	-0.00421127487215603	-0.00194450455840393	0.013798575536731	0.2763671875	-0.392578125	0.2998046875	0	0	0	-0.570874110483211	0.325355714048228	-0.680643109308199	-0.323992850333828	-0.138262765825129	0.069572694393862	0.987948909499456	-0.812521309785509	-0.578344584537459	-0.072983989207461	0.566297208831923	-0.812820510156438	0.136492818632342	-28.1338333833716	-81.0959433483322	153.288832901998
27698	1651212415106	9.65518326773252	-0.640883117920973	1.3245385880747	-0.0649034602894477	-0.0349182636065046	-0.0463028990784053	-0.00862483473266004	-0.00212899231490252	0.0200208772345486	0.291015625	-0.397216796875	0.298828125	0	0	0	-0.570809937641875	0.325484993194314	-0.68065998419271	-0.323940612170433	-0.138476989751847	0.069406686581383	0.987930582160032	-0.812566961255833	-0.578243997983885	-0.0732721793798604	0.566179350369411	-0.812906261910564	0.136471068589152	-28.2316322615729	-81.0891615909635	153.379303521445
27699	1651212415107	9.65506660735246	-0.642897832086293	1.32441259954261	-0.0692870361749854	-0.0357322388209805	-0.0463359585528504	-0.0132367915492689	0.00097281005548482	0.0187138349063345	0.28662109375	-0.383056640625	0.3056640625	0	0	0	-0.570555257300518	0.325789683672781	-0.680726278053889	-0.323943690702609	-0.139054367241423	0.0692719321544993	0.987858938496115	-0.812795999329611	-0.577843134532723	-0.0738916459904383	0.565708888408929	-0.813202749189266	0.136655560758257	-28.4007331707545	-81.062699905489	153.519149370649
27700	1651212415108	9.6303097558422	-0.693317731172379	1.32283394784735	-0.0279332044059753	-0.00833492857016359	-0.0672989548737259	-0.00877830881241196	0.00263572324956777	0.0140630471294306	0.2880859375	-0.389404296875	0.29833984375	0	0	0	-0.570483090511073	0.325895899358583	-0.680747427480878	-0.323919505742341	-0.139250394481145	0.0691785407880127	0.987837869860883	-0.812850940191893	-0.577736033161795	-0.0741243888044247	0.565581715286131	-0.813286791655265	0.136681812444391	-28.4715735315364	-81.0549329504977	153.58216190762
27701	1651212415109	9.60436629920766	-0.717766203326606	1.29834959800121	-0.0212297162212929	0.023969997743427	-0.0944711429663982	-0.0117561217505042	-0.000507183033138464	0.0171008468347023	0.291015625	-0.384765625	0.296142578125	0	0	0	-0.570361017324879	0.325986728470564	-0.680812053540046	-0.323907256065334	-0.139544798768712	0.0691796841469635	0.987796244393512	-0.812900172486483	-0.577633484658571	-0.0743832438970245	0.565438377463051	-0.81335953225036	0.136841925554377	-28.5272015337416	-81.0396073463882	153.629970044673
27702	1651212415110	9.6555292716929	-0.747083122596939	1.34252693589734	0.0184323378831622	0.00678884437484029	-0.0357056637359498	-0.00714916591682008	-0.00513617223897574	0.0183603714493123	0.294921875	-0.381103515625	0.295166015625	0	0	0	-0.570310621465528	0.326111895937384	-0.680821145754875	-0.32385088214292	-0.139732802357712	0.0689989011898374	0.987782311837915	-0.812939213347241	-0.577543274926755	-0.0746565535585925	0.565335811131428	-0.813438944986945	0.136793652743456	-28.623962182453	-81.0344834823993	153.720221363085
27703	1651212415111	9.63078227181675	-0.797659238162127	1.34045302534668	0.0622384679915971	0.0345393720636826	-0.0566648715314528	-0.000995442277360699	-0.00213878069996003	0.0198139207151714	0.285888671875	-0.38818359375	0.297119140625	0	0	0	-0.570356233267414	0.32613036929298	-0.680802809996571	-0.323790492909542	-0.139706967748805	0.0688539768778714	0.987796078667321	-0.812895932814091	-0.577597397852441	-0.0747090918723892	0.565404426562741	-0.813412795487132	0.136665498795662	-28.663511412949	-81.0395463815209	153.763815775963
27704	1651212415113	9.60777788025553	-0.776044847793763	1.36743432025833	0.0614875278120409	-0.00276600317811372	-0.0773019244497774	0.00325346987359423	-0.0017658553569185	0.00749314972542826	0.294677734375	-0.39013671875	0.30078125	0	0	0	-0.570329556943358	0.326183413682647	-0.680820303163903	-0.32374726549415	-0.139823809123707	0.0687633392686312	0.987785860181631	-0.812891506500215	-0.577584177446791	-0.0748593121991084	0.565381907264414	-0.813429850162717	0.136657154230256	-28.7134515813095	-81.0357881525534	153.812703820858
27705	1651212415114	9.58320703428024	-0.801076647638281	1.36718961906861	0.0838938110772473	0.00956225691733491	-0.099723928776001	0.00635114387976772	-0.000291199851968319	0.00898214360663661	0.2880859375	-0.38623046875	0.29345703125	0	0	0	-0.570289636555117	0.326232387034673	-0.680845908582985	-0.323714393954457	-0.139957443169062	0.0687053424776011	0.987770970426148	-0.812893140215648	-0.577562841592717	-0.0750060437677413	0.565346492597169	-0.81344990007153	0.136684320174983	-28.7559468858171	-81.0303146859539	153.853501417946
27706	1651212415115	9.63072561572686	-0.776015064885923	1.34178080609954	0.041215802712052	0.0182765283323322	-0.0581285204102695	0.0170334340715181	-0.000304874430083938	0.00869264498727591	0.2841796875	-0.388916015625	0.295654296875	0	0	0	-0.570278270493679	0.326239722436724	-0.680891942530755	-0.323630190655697	-0.140092387797792	0.0686195289992069	0.987757805902358	-0.812809227709417	-0.577662286401133	-0.0751494658679298	0.565433711615724	-0.813386527494611	0.136700675414296	-28.7992383501539	-81.0254781713505	153.90363601058
27707	1651212415116	9.63226129463639	-0.729419803734426	1.36927526665233	0.0167378925774841	-0.031908275920418	-0.0563495593037651	0.0139858661984272	0.00122483552639298	0.00882229783446308	0.292724609375	-0.389404296875	0.30224609375	0	0	0	-0.570220715424046	0.326314239473953	-0.6809299029605	-0.323576606187821	-0.140293031258522	0.0685236959317391	0.987735981159009	-0.812808252275304	-0.577634394089015	-0.0753740790894491	0.565385364520042	-0.813414414589065	0.136734705635649	-28.8654530323223	-81.0174656689018	153.967606754238
27708	1651212415117	9.5347373597002	-0.729514945993664	1.37445280385188	0.0324953694778793	-0.0434525451793832	-0.151963527975472	0.0214694083061483	-0.0062732336302272	0.00380762286949757	0.29150390625	-0.3828125	0.29296875	0	0	0	-0.570244545727422	0.32630276806366	-0.680958183187849	-0.323486652540136	-0.140355087393006	0.0684170189103761	0.98773455997364	-0.812706513886626	-0.577765778364741	-0.0754640817663235	0.565516199351664	-0.813330078672862	0.136695323244239	-28.9013522141099	-81.0169441559454	154.012773879507
27709	1651212415118	9.60809624327866	-0.705633499645862	1.37130127543521	0.00194158134355568	-0.0504487951489061	-0.0817392937990355	0.0215788867749863	-0.0109910001964279	0.00824147004436162	0.29052734375	-0.3857421875	0.303955078125	0	0	0	-0.570331695044422	0.326260053014025	-0.680951460354302	-0.323390234973763	-0.140281027102742	0.0682732074178651	0.987755031667203	-0.812579003660953	-0.5779462674618	-0.0754551173635446	0.565717770840171	-0.813213920857145	0.136552270870084	-28.9238608985783	-81.0244592748082	154.048331040668
27710	1651212415119	9.58498433600086	-0.731687616646289	1.39465877376537	0.0391456004736689	-0.0571899136048275	-0.0994200704099555	0.022985744213727	-0.00932751639149131	0.00367266214912375	0.283447265625	-0.388427734375	0.29541015625	0	0	0	-0.570368948784031	0.326247830265376	-0.68097293842828	-0.32329162166454	-0.140323579249023	0.0681424271652248	0.987758018305483	-0.812468955131358	-0.578089761217293	-0.0755408824643508	0.565865257861359	-0.813122892062304	0.136483231020268	-28.9636969630448	-81.0255561856195	154.098361839619
27711	1651212415120	9.56090037827791	-0.707186291068265	1.39652922948679	0.0228489480364094	-0.0749104199240083	-0.124803763208492	0.0244560199729625	-0.0138605420051773	0.00196754752963303	0.287841796875	-0.393798828125	0.296875	0	0	0	-0.57038561740307	0.326222973069509	-0.681013782224859	-0.323201249566275	-0.140402399477035	0.0680632269632252	0.987752278335233	-0.812354794584492	-0.578239048240979	-0.0756259929188023	0.566009588202072	-0.813023370036016	0.136477638602819	-28.9920358276326	-81.0234481688138	154.137166705709
27712	1651212415121	9.60870463594451	-0.68149140425415	1.36946780441746	-0.0198472846298901	-0.0661874962802046	-0.0832319626894122	0.0214628149485742	-0.0215774782218186	0.0048694398458903	0.289306640625	-0.392578125	0.29345703125	0	0	0	-0.57045991735286	0.32623908283358	-0.681000042458958	-0.323082784587125	-0.140385993994395	0.0678261395821469	0.987770918522908	-0.812251420504215	-0.578371150270668	-0.0757261013354724	0.566161993230817	-0.812949215710286	0.136287087051345	-29.0581547768152	-81.0302956121431	154.212936972413
27713	1651212415122	9.65770871196522	-0.681540650148421	1.36508559685377	-0.0296321394540089	-0.0621986144798104	-0.0354409715529318	0.0197847798383503	-0.0168133726727718	-0.00104929618631784	0.289306640625	-0.38916015625	0.291259765625	0	0	0	-0.570477105942324	0.326358408119006	-0.680954793868473	-0.323027289486885	-0.140418483684854	0.0675739623255174	0.987783584119151	-0.812293962980216	-0.57828711939357	-0.0759112985620993	0.566092896215403	-0.813029991549584	0.136092122091397	-29.1524932652615	-81.0349512585361	154.301620131875
27714	1651212415123	9.58747965473736	-0.683683691668575	1.41644004345652	0.011598297245128	-0.108640506057422	-0.0976704054029849	0.0181431672867501	-0.013621589615134	-0.00548956398522957	0.28955078125	-0.385498046875	0.297607421875	0	0	0	-0.570535517371693	0.32634443659728	-0.680941335050631	-0.322966608705735	-0.140363586157062	0.0674604434669105	0.987799145701381	-0.812224811368521	-0.578383756726242	-0.0759149903023791	0.566205721870152	-0.812970675069211	0.135977064238837	-29.17430033538	-81.0406747026948	154.330495606252
27715	1651212415124	9.6095551069007	-0.656251237488262	1.36646707758094	-0.0411472382837853	-0.0842950736392374	-0.0847560138338856	0.0184633821283273	-0.0185659476197459	0.00657036723037309	0.291259765625	-0.384765625	0.305419921875	0	0	0	-0.570609864584046	0.326396662154	-0.680896329886619	-0.322877359567123	-0.14030918623668	0.0672017078807158	0.987824510080366	-0.812182328650229	-0.578430859227381	-0.0760105658561022	0.566280140289144	-0.812958591535503	0.13573920274821	-29.24773775349	-81.0500113295064	154.407702352385
