// Start Time : 29/04/2022 06:06:15																																
// Update Rate : 100Hz																																
// Filter Profile : 46.1 human																																
// Firmware Version : 4.4.0																																
PacketCounter	Time_Of_Arrival	Acc_X	Acc_Y	Acc_Z	FreeAcc_X	FreeAcc_Y	FreeAcc_Z	Gyr_X	Gyr_Y	Gyr_Z	Mag_X	Mag_Y	Mag_Z	VelInc_X	VelInc_Y	VelInc_Z	OriInc_q0	OriInc_q1	OriInc_q2	OriInc_q3	Mat[1][1]	Mat[2][1]	Mat[3][1]	Mat[1][2]	Mat[2][2]	Mat[3][2]	Mat[1][3]	Mat[2][3]	Mat[3][3]	Euler_X	Euler_Y	Euler_Z
27492	1651212414908	9.7514936327726	0.218956161286553	0.514024023329455	-1.73472347597681E-16	-2.08166817117217E-15	-0.0452009670273039	-0.00766659369430659	0.0106550511219871	-0.00017065165990591	0.613037109375	0.360595703125	-0.153076171875	0	0	0	-0.352917024633431	-0.590900654001554	-0.385873098212985	0.614319088829196	0.00387673835209448	-0.0570206188674457	0.998365474124442	0.891176221524154	0.453103051598796	0.0224180021810775	-0.453640731294801	0.889632662201558	0.0525719816488433	23.0946071297591	-86.7236317892501	-86.110539460568
27493	1651212414909	9.77501690599071	0.194551882542091	0.540756818631219	0	6.93889390390723E-16	-0.0207915455284695	-0.00472428444639776	0.0152515194346453	0.00446018285106856	0.61865234375	0.351806640625	-0.160888671875	0	0	0	-0.344140997835287	-0.594972943658262	-0.376127204677196	0.621371463639322	0.00907104443268208	-0.0579202583385673	0.998280000714676	0.876938588400778	0.480190599021303	0.0198922292670711	-0.480516834592246	0.875249811359909	0.05514833984711	19.8345790478117	-86.6390346744592	-81.0990595409273
27494	1651212414910	9.72614911484774	0.193881817696274	0.540354352055273	-0.0178828972558814	0.00785242721336871	-0.0696299411700867	-0.0046680953852375	0.0167733652886203	0.00140662067532996	0.6181640625	0.357421875	-0.165771484375	0	0	0	-0.348595153476347	-0.592868686957583	-0.381112215363593	0.617852424368998	0.00652039865169271	-0.0575999105954731	0.998318453551178	0.884284514280668	0.466469796546913	0.0211382760149294	-0.46690296872565	0.882659718809505	0.0539762779959878	21.3863837783435	-86.6768270792815	-83.5415233845396
27495	1651212414911	9.75048752093509	0.193913263605933	0.542384772854475	-0.0180282204709174	0.00740499053967364	-0.0452204116920303	0.00452920769282174	0.00459745433615857	0.00161133464464218	0.61669921875	0.357421875	-0.1669921875	0	0	0	-0.34857717719302	-0.59286030605279	-0.381101824442135	0.617877017256682	0.00655611382773685	-0.0576329732074289	0.998316311481862	0.884263261022115	0.466510701894044	0.021124635496527	-0.466942718733265	0.882635941607636	0.054021218094276	21.3576503617359	-86.6747105160715	-83.5101421204272
27496	1651212414912	9.75031695112248	0.218113707635176	0.542303210465476	0.00348927065856736	0.0189078364889662	-0.0448842668505236	0.00147998571228401	-0.00456860656734595	0.00308935453953381	0.6171875	0.361083984375	-0.162841796875	0	0	0	-0.348590548723216	-0.592880459560094	-0.381073156671322	0.617867816994229	0.00655201987273255	-0.0575606294045681	0.998320512149349	0.884250728305869	0.466535757210803	0.0210958937777507	-0.466966508998372	0.882627419235485	0.0539547800253191	21.3551067137698	-86.6788624348959	-83.5060781637793
27497	1651212414913	9.77572031624459	0.217925308578397	0.518675760438295	0.0146792428018941	-0.00315962356390795	-0.0208030582899905	-6.19495558811068E-05	4.38697394817093E-06	0.00305114561703849	0.616943359375	0.354736328125	-0.163818359375	0	0	0	-0.348599776530247	-0.592875009916376	-0.381063921879713	0.61787353549199	0.00657902011661854	-0.0575464333860893	0.998321152985775	0.884250817254956	0.466536966489429	0.0210654001334929	-0.466965960941746	0.882627705719338	0.0539548368394376	21.3269929524949	-86.6794962903257	-83.4779526682397
27498	1651212414914	9.75132572609041	0.217452814778779	0.517833318147659	0.0148215522907379	-0.00271672671949622	-0.045212590240391	0.00145273435414977	0.00306228172603047	0.00307727088912783	0.617919921875	0.35791015625	-0.167236328125	0	0	0	-0.348598382213987	-0.592862976640313	-0.381055629391861	0.617890982419838	0.00662019647592152	-0.0575595253403295	0.998320126032335	0.884243823465857	0.466551550453127	0.0210359557012803	-0.466978622274193	0.882619143125946	0.0539853176939584	21.2889068432173	-86.6784805824064	-83.4389674962159
27499	1651212414915	9.72574461491453	0.241694179493023	0.541599590992649	0.0252540412987928	0.0306822370195185	-0.0689573106956196	0.00306045930299647	0.00611353929506523	-0.00147331999871303	0.614013671875	0.361083984375	-0.167724609375	0	0	0	-0.348572911471746	-0.592852487798375	-0.38106176459033	0.617911631761931	0.00663571855716327	-0.0576203580298885	0.998316513726853	0.884229629010477	0.466577713910829	0.0210523172534045	-0.467005278791604	0.882601343315458	0.0540457061987761	21.282307848671	-86.6749102953526	-83.4306009167916
27500	1651212414917	9.72471763679497	0.241777188492737	0.566580785852449	0.0138988009759623	0.0522872117434132	-0.0686288670194361	0.00299837024365058	0.00611800153750204	0.00157782162925831	0.611328125	0.3583984375	-0.167724609375	0	0	0	-0.348555791999733	-0.592836870261552	-0.3810594870376	0.61793767684174	0.00667622519425731	-0.0576685786357219	0.998313459317909	0.884215477998356	0.46660505440416	0.0210407146415899	-0.467031494104299	0.882583740073783	0.0541066102438515	21.2498203232657	-86.6718944004898	-83.3963303617897
27501	1651212414917	9.70128491780739	0.241389765768552	0.541855543199345	0.0253799918968125	0.0311138204775886	-0.0933667455019424	0.00146740460151224	0.0076386831994364	0.00154427172069174	0.6201171875	0.35400390625	-0.156982421875	0	0	0	-0.348541281440229	-0.592813373184537	-0.381063678289865	0.617965818467148	0.00672555532353797	-0.0577287901957091	0.99830964819946	0.884208521174283	0.466618896440403	0.0210260925406444	-0.467043957233553	0.882572485559844	0.0541825594111465	21.2092488436126	-86.6681351615572	-83.3548480793064
27502	1651212414919	9.67803442479505	0.21665988558668	0.517060529317705	0.0151968597709969	-0.00145443586377011	-0.118441111803376	0.00151475374740974	0.00305786772341251	2.61603379072616E-05	0.616943359375	0.359130859375	-0.157958984375	0	0	0	-0.348528008269589	-0.592806855076668	-0.381067125513816	0.617977431528354	0.00673575685349537	-0.0577621819529817	0.998307647930056	0.884201351906701	0.466632146608542	0.0210335217656359	-0.467057382840665	0.882563295230169	0.054216520051487	21.2039678060182	-86.6661638155062	-83.3486716478569
27503	1651212414919	9.72580951539222	0.217153542890438	0.543672222713029	0.00356981785160967	0.0192715756418493	-0.0692936135202426	-0.0045508847666404	0.001507420788109	-0.00162153410327125	0.622802734375	0.3603515625	-0.158935546875	0	0	0	-0.348534391437312	-0.592796351927947	-0.381088251624983	0.617970879248977	0.00672845922866311	-0.0577830523253619	0.998306489361044	0.884222715387223	0.466591044917673	0.0210472420017331	-0.467017041904954	0.882583659301824	0.0542325262526814	21.2108642515105	-86.6650225314229	-83.358191673953
27504	1651212414921	9.75253078792148	0.168426481100207	0.496266949801801	-0.0172048916929495	-0.0471551811936699	-0.0462148406860745	-1.08236074006962E-05	0.00305237230578735	-4.92641786411759E-06	0.61962890625	0.360107421875	-0.164306640625	0	0	0	-0.348525122370237	-0.59278717869128	-0.381096897308999	0.617979574676621	0.0067370312813726	-0.0578177490334192	0.998304422661856	0.884222645004962	0.466590787876532	0.0210558953546519	-0.467017051583711	0.882581522900557	0.0542671997120875	21.2064567255092	-86.6629876338176	-83.3537608574516
27505	1651212414922	9.75250808496352	0.168666281893771	0.496631553320095	-0.017204892367687	-0.0471551819344655	-0.0462148406908316	0.0107562520854232	0.00461040316758139	-0.00436575852520347	0.62353515625	0.354248046875	-0.158447265625	0	0	0	-0.348470161052579	-0.592801035621806	-0.381086539712421	0.618003663639397	0.00671996283145435	-0.0578788107013408	0.998300999384124	0.884172700122406	0.466683192212005	0.0211053184070988	-0.467111847909894	0.882528663205117	0.0543109580434073	21.2361998226277	-86.6596197563019	-83.3773811661335
27506	1651212414923	9.77752809301095	0.21778216228785	0.473500022480948	0.0372062598103393	-0.0465502341185045	-0.0214598747335089	0.0152079354806612	0.00463634043604322	0.00183018277483061	0.624755859375	0.360107421875	-0.161865234375	0	0	0	-0.348419611968396	-0.592813426616691	-0.381044004270377	0.618046504745692	0.00675541606514851	-0.0579101818443328	0.998298940795062	0.884101478130104	0.466818481610778	0.0210969570026995	-0.467246124351987	0.882455050450369	0.0543520304375394	21.2139208197122	-86.657596114271	-83.3463283289392
27507	1651212414924	9.75194415026126	0.241905634029013	0.497233985107822	0.0476390895839252	-0.013150917515499	-0.0452039485367432	0.00754890480447254	0.00461111810505513	0.00319944592138859	0.6220703125	0.352783203125	-0.1572265625	0	0	0	-0.348396981864215	-0.592807985133729	-0.381019774374912	0.618079418299044	0.00680524859395842	-0.0579359353209621	0.998297108074575	0.884065986703353	0.466886949126394	0.0210691217110461	-0.467312550383361	0.882417137262153	0.0543964715791879	21.1726389016287	-86.655795535635	-83.3006434498185
27508	1651212414925	9.75109006921146	0.217504975672179	0.522230364319387	0.0145717860848927	-0.00279150058076633	-0.0452122355125279	-0.00304141229833257	0.0060912325550874	-0.00159903419582148	0.619873046875	0.353271484375	-0.1640625	0	0	0	-0.348390135745694	-0.59279098337311	-0.381044154184444	0.618084554012232	0.00680840518680542	-0.0579899498637581	0.998293950364125	0.884080074528483	0.466859331753917	0.0210899543858668	-0.467285851958439	0.88242820108442	0.0544463266932761	21.1740320955931	-86.6526954738854	-83.3037504815321
27509	1651212414925	9.72565704453724	0.217395716478014	0.546296693139863	0.00338243767468299	0.0192761539963233	-0.0692935557257126	-0.00463509917172562	0.00761684765834834	0.00141805525767808	0.627685546875	0.35791015625	-0.161376953125	0	0	0	-0.348394151079764	-0.592756142407671	-0.381066777809613	0.618101756979534	0.00685653297555258	-0.0580505437184303	0.998290099284546	0.884101635844175	0.46681925268642	0.0210732726207035	-0.467244353045822	0.882445420235885	0.0545233422627752	21.131517839671	-86.6489185786386	-83.2638237483617
27510	1651212414926	9.69923912807246	0.217272481691626	0.594389738712613	-0.0192684896490812	0.0630137715418741	-0.093047237658121	-0.0106734279238825	-0.00156477096799951	-0.000217137239566455	0.614990234375	0.36279296875	-0.162841796875	0	0	0	-0.348428577347813	-0.592745997899826	-0.381097103362543	0.618073382592875	0.00683435956483827	-0.0580326619895742	0.998291290992635	0.884151241096958	0.466725048592118	0.0210787068719551	-0.467150804768703	0.882496424445498	0.0544994169222374	21.1449453125588	-86.6500868760898	-83.2833586295551
27511	1651212414926	9.678057911438	0.192420345798092	0.519861927551072	-0.00673770679829669	-0.0127319781981328	-0.118777964419746	-0.00912624246423879	-0.00766400807675728	-0.00017542967467667	0.620361328125	0.359619140625	-0.166748046875	0	0	0	-0.348470863965002	-0.592752597526631	-0.381111340329149	0.618034433802387	0.00679700879590395	-0.05796584331678	0.998295428057248	0.884193882427198	0.466644406480009	0.0210754876394399	-0.467070635931813	0.882543460068395	0.0544248301858343	21.1684113093601	-86.6541458323622	-83.3121025991201
27512	1651212414927	9.72789566225977	0.192526108358096	0.496596628995717	0.00421358585663851	-0.0352616815349475	-0.0702868726559771	-0.00612701689771563	-0.0107007806209068	0.00294337896042191	0.61328125	0.35498046875	-0.15478515625	0	0	0	-0.348516648406949	-0.592771459410974	-0.381103853072162	0.617995142266122	0.00676370016267361	-0.0578592151845784	0.998301839915331	0.884222104405412	0.466591997913479	0.0210517829167321	-0.467017689644594	0.88257816577419	0.0543162853819431	21.1852218685271	-86.6604463706353	-83.3324269374298
27513	1651212414927	9.75301685001432	0.241148081198481	0.471712298216003	0.0586471727945686	-0.0346662670214784	-0.0455300941104593	-3.25812435113533E-06	-0.0167835690396523	0.00307822339836035	0.62158203125	0.349365234375	-0.157958984375	0	0	0	-0.348557760187406	-0.592817950901765	-0.381065104736927	0.617951252813364	0.00671252608093451	-0.0576967234208663	0.99831158968536	0.884221912081694	0.466593747529947	0.0210210599293681	-0.467018792114629	0.882587878271879	0.0541487298035428	21.2166931660169	-86.6700496889424	-83.3639534621105
27514	1651212414928	9.77948281760164	0.240943203287092	0.422290874951886	0.0810085315193477	-0.0782767862066103	-0.0217743538955251	-0.00912543906821231	-0.0168185443329238	0.00136592174447265	0.61669921875	0.35986328125	-0.166015625	0	0	0	-0.348621354678248	-0.592856766602879	-0.381059203604389	0.617881775668996	0.0066294752831372	-0.0575340165096635	0.998321534878286	0.88426413292271	0.466514068821385	0.0210134913368784	-0.466940031785581	0.882640617995786	0.0539680107109656	21.2744156114211	-86.6798740801438	-83.426964441131
27515	1651212414928	9.80295217123859	0.240787625645147	0.446352744769137	0.0695260644481105	-0.0571033677442142	0.00296268974678426	-0.0107654424345301	-0.010712713590676	0.00590207218518401	0.616455078125	0.358642578125	-0.157958984375	0	0	0	-0.348692522501297	-0.592859049571604	-0.381054207334315	0.617842506764915	0.00663167682774235	-0.0574119383798139	0.998328548221438	0.884314008311189	0.466422431648999	0.0209487460062008	-0.466845537160901	0.882696994775731	0.0538633441854741	21.2522517594851	-86.6868197298196	-83.4109423610323
27516	1651212414929	9.72980671803571	0.239649651339796	0.442956316648653	0.0695762825309865	-0.055492823709561	-0.0702615511426234	-0.00775680962461076	0.00150755460536864	0.00594542307118375	0.621337890625	0.353759765625	-0.16650390625	0	0	0	-0.348732092719774	-0.592846971231235	-0.381060228882081	0.617828049034336	0.00665114133257508	-0.057369865669491	0.998330837364067	0.884348925429684	0.466358058943245	0.0209078681374067	-0.466779113082769	0.882733742060285	0.0538367924184766	21.2240041595991	-86.689089927954	-83.3869704562096
27517	1651212414930	9.67906231038713	0.238817123908988	0.489639483250903	0.0472010626518268	-0.0113594271931992	-0.118427687931471	-0.0123124210224819	-0.0046132129624404	0.00586164683167175	0.62451171875	0.35595703125	-0.16357421875	0	0	0	-0.348796284858396	-0.592827550557289	-0.381070581147418	0.617804062104803	0.00668141496842925	-0.0573018115708548	0.998334543669965	0.884406000355196	0.466252727705899	0.0208427551569702	-0.466670531777768	0.882793801687295	0.053793293938452	21.1793619294173	-86.6927688615892	-83.3493199906902
27518	1651212414932	9.70169305779953	0.214134935478118	0.538845969178441	0.00222450114589733	0.0204874581134426	-0.093704278779235	-0.015316970823448	-0.00920427873981822	0.00428075568264928	0.61474609375	0.35546875	-0.166015625	0	0	0	-0.348875302203019	-0.59284400537472	-0.381084291985778	0.61773519505182	0.00662149538591508	-0.0571610958133318	0.998343009653633	0.884475621950746	0.466121571828901	0.020821970382187	-0.466539419528186	0.882872181802765	0.0536440176080233	21.2137643005158	-86.7011876935527	-83.3923533261795
27519	1651212414931	9.72582476584046	0.262565284079276	0.538690463799233	0.0453199594228099	0.0427059916588791	-0.0686164737503976	-0.0107607469388313	-0.0122389817793121	0.00590286213364955	0.622802734375	0.363037109375	-0.159912109375	0	0	0	-0.348949367700484	-0.592851022610068	-0.381076565519945	0.617691391378536	0.00661663240343877	-0.0570254489947995	0.998350799239716	0.884525406916274	0.466029979985911	0.0207572222113191	-0.466445092905088	0.882929304033609	0.053524007543257	21.196862245013	-86.7089528980028	-83.3815962380113
27520	1651212414931	9.72507577823077	0.237725927236948	0.562130451641631	0.0117610368493181	0.0532236834743113	-0.0686311224089611	-0.00918399031697179	-0.0091848760347185	0.00287852062640887	0.6123046875	0.346923828125	-0.161865234375	0	0	0	-0.348999151415384	-0.592880457228594	-0.381082603239918	0.617631285845885	0.00653762588860035	-0.0569075235780466	0.99835804860178	0.884566629432225	0.465951283638458	0.0207672668058777	-0.466368028002192	0.882978445397104	0.0533847114955089	21.2566075877949	-86.7161960474415	-83.446500427472
27521	1651212414932	9.72726022035395	0.212950033361668	0.512455208842382	0.0128093569411682	-0.00134831636208477	-0.0696188788867857	-0.00914819800206824	-0.0107127119270842	0.00135482380581685	0.61572265625	0.365234375	-0.16064453125	0	0	0	-0.349051824469312	-0.592893777344529	-0.381086830746363	0.617586123591255	0.00649959243565687	-0.0568065677074264	0.998364046409661	0.884609186501866	0.465871302532675	0.020748894742018	-0.466287832196678	0.883027147567848	0.0532795852415606	21.2776420378249	-86.7222008012178	-83.4728176468163
27522	1651212414934	9.75269452964453	0.212809806604919	0.487942186457242	0.0234397147189395	-0.0233002234610903	-0.0455314946398655	-0.0106992381923564	-0.0122424357837576	0.00285163786611537	0.6171875	0.3583984375	-0.16650390625	0	0	0	-0.34910974336674	-0.592925750511131	-0.381095228448001	0.617517504465572	0.00641096246995637	-0.0566736356769489	0.998372174381561	0.884658262062838	0.46577762788115	0.0207595936705934	-0.466195944774478	0.883085103704375	0.0531228829344434	21.3447824793164	-86.7303557648597	-83.5460955517478
27523	1651212414935	9.80233517632208	0.237170876964881	0.464796636844834	0.0560918095141007	-0.0344778634773515	0.00330600722537078	-0.013785997918063	-0.00156950287074433	0.00277854119623963	0.620361328125	0.36083984375	-0.16748046875	0	0	0	-0.349163516685029	-0.592899516841127	-0.381124792166531	0.617494043972669	0.00642811145115346	-0.0566468176641031	0.998373586104772	0.884722339028514	0.465657462824324	0.0207246264123083	-0.466074095189904	0.883150194114537	0.0531100030914032	21.3167621473602	-86.7317742479894	-83.5259404039097
27524	1651212414936	9.75174923880854	0.212181683075821	0.512011962534739	0.0113409251693135	-0.00140890327518864	-0.0452076525568046	-0.013816407925038	0.00758756448895876	0.00276877593757502	0.620361328125	0.358154296875	-0.159912109375	0	0	0	-0.349193120031605	-0.592874655826055	-0.381175339083327	0.617469973582878	0.00641000670769487	-0.0566731513973244	0.998372208008969	0.884784154819581	0.465539051594609	0.0207458627343384	-0.465956984274522	0.88321092913929	0.0531276148034592	21.3302046085121	-86.7303895461423	-83.5469949233772
27525	1651212414936	9.75159005239743	0.236112225848789	0.512134349976023	0.0329604553901725	0.00992393957082588	-0.04486497399553	-0.00926041301622972	-0.00460386933422067	0.00592370280476243	0.60498046875	0.35302734375	-0.16552734375	0	0	0	-0.349248007182253	-0.59286100265711	-0.381176450828017	0.617451353826183	0.00644068972512366	-0.0566047837927007	0.998375889115741	0.884826878648974	0.465460685626762	0.0206819959427963	-0.465875425769784	0.883256615365912	0.0530833220152608	21.286575826701	-86.7340896076254	-83.5086043173512
27526	1651212414937	9.75276966898742	0.211025736684415	0.487214588485499	0.0220229196394172	-0.02285003967369	-0.0455271337328131	-0.0153526730789201	-0.00767642030492808	0.00580461541443342	0.61962890625	0.363525390625	-0.161376953125	0	0	0	-0.349320547730074	-0.592869145685721	-0.381197288008832	0.617389632762129	0.00638960741718933	-0.0564917579009899	0.998382619142737	0.884897256713778	0.465327565096546	0.0206664516003484	-0.465742437380882	0.883333990317692	0.0529626620548884	21.316124401346	-86.7408651373428	-83.5468775681711
27527	1651212414938	9.75393340838665	0.186088102024493	0.462440821723909	0.0117327624517393	-0.0558007304023368	-0.0461912737061496	-0.0137860429716138	-0.00156895970623883	0.00277855028061264	0.61279296875	0.364013671875	-0.16552734375	0	0	0	-0.34937428035892	-0.592843011411808	-0.381226833657019	0.617366080493339	0.00640653024004353	-0.056464831191809	0.998384033931214	0.884961233103072	0.46520742704706	0.0206316680116963	-0.465620631281491	0.883398988373167	0.0529495520877299	21.288258101978	-86.7422912820793	-83.5268720247064
27528	1651212414938	9.72970457442308	0.161259249584586	0.461449933978493	-0.0106053572977501	-0.066439260085082	-0.0709439326536483	-0.0107094089364763	-3.38366150547481E-05	0.00131259106781038	0.61279296875	0.36181640625	-0.16015625	0	0	0	-0.349401869639038	-0.592853095302831	-0.381262461369363	0.617318780236899	0.00632828588085507	-0.0564329953651069	0.9983863329553	0.885008915045506	0.465114538086639	0.0206805887350805	-0.465531065652752	0.883449932647331	0.0528870817651954	21.3571332152936	-86.7446100911141	-83.6016932877095
27529	1651212414939	9.72956283950023	0.185355101565258	0.461201236111169	0.0110095859136476	-0.0551079465245692	-0.0705983656206985	-0.00465322602840731	-0.00459057757129317	0.00448890536067396	0.61767578125	0.350341796875	-0.172119140625	0	0	0	-0.349438148024689	-0.59285077213818	-0.381254529262863	0.617305375480234	0.00634589178343303	-0.0563715889383587	0.99838969026029	0.885030292422248	0.465075929243257	0.0206339897623378	-0.465490183733733	0.883474178456329	0.0528418853604796	21.3299240940607	-86.7479992554231	-83.577110183413
27530	1651212414940	9.75592599223713	0.185071221803234	0.413020023835192	0.0328682537961922	-0.0982111963753619	-0.0468180668934988	-0.00462771910271198	-0.00306531389371982	0.00296221013832023	0.619384765625	0.361328125	-0.16357421875	0	0	0	-0.349472443487177	-0.592878462146403	-0.381247539495345	0.617263682711662	0.00629088550332407	-0.0562711507928661	0.998395704291656	0.88504989022176	0.465038649743695	0.0206336148799232	-0.465453667488007	0.883500204772477	0.0527282807320362	21.3713849679675	-86.7540791948672	-83.6210525762492
27531	1651212414941	9.7772574700963	0.209425243844042	0.48706950248279	0.0203154154805121	-0.0224571959222874	-0.0211122986688661	0.00145994733285647	0.00153284383289486	0.0030804625022467	0.609375	0.356689453125	-0.157958984375	0	0	0	-0.349474022978114	-0.592871444098031	-0.381236425399981	0.617276393510113	0.0063244774427193	-0.0562701541356092	0.998395548236585	0.885042828846742	0.465053390423473	0.0206042510805148	-0.465466639075275	0.883492509198118	0.0527427160732152	21.3383933190565	-86.7539212858205	-83.5871607742164
27532	1651212414942	9.77721904304278	0.209109258931225	0.487976028208313	0.0196298565200792	-0.0219163208759796	-0.0211096747110382	-0.0138442055993669	0.0167457441184067	0.0027657816595375	0.617431640625	0.353515625	-0.16015625	0	0	0	-0.349497446261147	-0.592820184056422	-0.381294973595672	0.617276200369756	0.00635674497197272	-0.0563503442028809	0.998390820521492	0.885106905882011	0.464931356335225	0.0206058015195217	-0.465344342345897	0.883551624187577	0.0528315288644946	21.3072005442311	-86.7491410364391	-83.563812076711
27533	1651212414943	9.75078408249303	0.20865537689662	0.537605830858187	-0.00288904552399327	0.0217644251108491	-0.0448900181707543	-0.0184305533422242	0.019783575587812	0.0026722798195077	0.618408203125	0.360107421875	-0.161865234375	0	0	0	-0.349524360861628	-0.59271958213947	-0.381376101825507	0.617307449387307	0.00647153180958529	-0.0565127511154165	0.998380903381773	0.885192483585295	0.464769980241302	0.020570184019548	-0.465179950427934	0.88362615082843	0.0530324362253652	21.2002419533813	-86.7391364402359	-83.4672567580327
27534	1651212414944	9.67767434396674	0.183505997866587	0.536272674113331	-0.0246205984192178	0.0123280003316385	-0.118468194582585	-0.0107480461447144	0.0121762540674614	0.00130421055532377	0.6162109375	0.359375	-0.16357421875	0	0	0	-0.34954531692408	-0.592689077804109	-0.381418810420851	0.617298484953028	0.00647869621771663	-0.056555124533799	0.99837845749209	0.88524189068771	0.464675524947176	0.020577936891628	-0.465085821614643	0.883673115130269	0.0530754569363199	21.1918583602463	-86.7366736910283	-83.4649447729379
27535	1651212414945	9.7007628055419	0.23240228721383	0.56191125417535	0.00711859032663953	0.0561721178206909	-0.0930501217132153	-0.00608306746727477	-0.00612400662895364	-0.000119977931106091	0.61474609375	0.3642578125	-0.16064453125	0	0	0	-0.349575278500668	-0.592696755193917	-0.381426687540314	0.617269279225693	0.00644847682925181	-0.0565016864641944	0.998381678804897	0.885270219517617	0.464621613386409	0.0205765597085597	-0.465032316706928	0.883704880489472	0.0530153620875648	21.2124517040985	-86.7399175963348	-83.4890658559916
27536	1651212414946	9.72828965790831	0.208065977165337	0.48915626627877	0.0185970024293478	-0.0201247177519612	-0.0699241967874489	-0.0106597543829558	-0.00613845638338315	-0.000212104962970145	0.61767578125	0.355224609375	-0.169677734375	0	0	0	-0.34961526390457	-0.592725871061871	-0.381451588457508	0.617203284730508	0.00634145487438012	-0.0564143230545627	0.998387304659055	0.885318370392012	0.464527705816364	0.0206250715251738	-0.464942113597498	0.88375982862047	0.0528904180377678	21.303722964589	-86.7455906533533	-83.5863849068987
27537	1651212414947	9.75481194788273	0.183682682925436	0.44115929686806	0.0194709734027174	-0.0751384005383528	-0.0464858439271865	-0.00461215250749054	0.00151216344774605	0.0014329595743017	0.6181640625	0.35791015625	-0.164306640625	0	0	0	-0.349630624629084	-0.592710123849747	-0.381463841129317	0.617202133274312	0.00636009399376933	-0.0564213713729176	0.998386787801596	0.885339814675193	0.464487528464686	0.0206094262817139	-0.464901023611784	0.883780495798117	0.0529062708149881	21.2832021051099	-86.7450690472566	-83.5684882655816
27538	1651212414948	9.72857397752172	0.159207596017223	0.489658499255822	-0.0253165553587589	-0.0419977578690799	-0.0706208831881252	-0.00150249888866772	0.0122038312005868	-0.00308660733814551	0.614501953125	0.364501953125	-0.16748046875	0	0	0	-0.34961325641717	-0.592712664652385	-0.381484633829346	0.617196680362218	0.00632234262551751	-0.0564616895997008	0.998384748276572	0.885342508834974	0.464480090178944	0.020661265139259	-0.464896407851814	0.883781830224467	0.0529245361961033	21.3252284762931	-86.7430115983574	-83.610874306658
27539	1651212414948	9.728216161583	0.207958453016437	0.490661413109489	0.0179173171747909	-0.0193326664345426	-0.0699213192408763	-0.000121168656548395	0.00915826967965264	0.00457321085832169	0.613525390625	0.357666015625	-0.168701171875	0	0	0	-0.349609539523387	-0.592676550211634	-0.381487000948078	0.617232002419774	0.00640434987375588	-0.0565212193729943	0.998380857219972	0.88534272259619	0.464481675963774	0.0206164070548279	-0.46489487827751	0.883777191635128	0.0530153534069637	21.2498720013201	-86.7390899430399	-83.5354574047738
27540	1651212414949	9.67941712016227	0.207511750977092	0.488980670952809	0.0173901313643535	-0.0177438452094301	-0.118737612767729	0.00614262885780818	-0.00303357763956258	-0.00140105618751307	0.614013671875	0.358154296875	-0.165771484375	0	0	0	-0.349595598877062	-0.592743376268047	-0.381458841253638	0.61719312987555	0.00628888463957714	-0.0564266010903874	0.998386943333784	0.885308503517745	0.464544139350441	0.0206783992206545	-0.464961615113722	0.883750406667259	0.0528764142722903	21.3589958449406	-86.7452259996166	-83.640488496327
27541	1651212414950	9.70284587158065	0.207628725385588	0.513977306653437	0.00586708021404498	0.00344808239904834	-0.094022122706642	0.00910608458605428	-0.00454882179463554	0.00323792732255351	0.622314453125	0.359619140625	-0.1591796875	0	0	0	-0.349585489870442	-0.592769853638572	-0.38141398414338	0.617201149212494	0.00629454663435913	-0.056370819348679	0.998390058748898	0.88526577800736	0.464626715943834	0.0206522909206533	-0.465042880788097	0.88371055530485	0.0528277717786983	21.3523299986185	-86.7483714557281	-83.6285629863018
27542	1651212414950	9.72923309688644	0.207553565004036	0.465786960527707	0.0278431895893235	-0.0396726134480829	-0.0702203509402359	0.00913210608406904	-0.00302313841237037	0.00171164825048935	0.62255859375	0.361083984375	-0.16162109375	0	0	0	-0.349575173461237	-0.592821210556464	-0.381368773459485	0.617185603399757	0.00624174188875268	-0.056279478107282	0.998395543360529	0.885221788154389	0.464710113459107	0.0206614671688748	-0.465127322821333	0.883672524633869	0.0527204208278286	21.400527733792	-86.7539163519597	-83.6714070520096
27543	1651212414951	9.75349454453854	0.231919209529467	0.46643327401709	0.0492778284206229	-0.0287688230116781	-0.0454591785754861	0.00757578562577996	-0.00302732551291014	0.00320646825987482	0.625244140625	0.35693359375	-0.16357421875	0	0	0	-0.349566799774483	-0.592840059453626	-0.381331240310617	0.617195432230031	0.00625429814037701	-0.0562373946500139	0.998397836134349	0.885186204095286	0.464779075317187	0.02063480619438	-0.465194870816683	0.883638934514703	0.0526874328048968	21.3875810021001	-86.756237133378	-83.6540731378715
27544	1651212414952	9.72995785011137	0.255878550116851	0.440645111338885	0.081843989605866	-0.0379014172446505	-0.0698137236278669	0.00452938474473459	-0.00456300580220626	0.00314583340024343	0.609130859375	0.3583984375	-0.16259765625	0	0	0	-0.349580693379192	-0.592890298442082	-0.38128593432823	0.617167294267309	0.00620426059341508	-0.0561084136087147	0.998405405170065	0.885160420117432	0.464828750199944	0.0206219214694134	-0.465244599977282	0.883621004113117	0.0525488656595644	21.4266926406102	-86.7639104333217	-83.6900789434916
27545	1651212414953	9.75338148893001	0.255976666813398	0.465798787375622	0.0703244883023007	-0.0167082186663593	-0.0451022799480469	-0.00454598779647732	-1.48631393505891E-05	-0.00161766637520177	0.622802734375	0.35791015625	-0.16357421875	0	0	0	-0.349589778242515	-0.592884968837548	-0.381304426081818	0.617155843628871	0.00618869675382869	-0.0561154599574154	0.998405105749293	0.885181559074372	0.464787843197528	0.0206365765196973	-0.465204586721963	0.883642074580855	0.0525488013496961	21.4405616633848	-86.7636065427567	-83.7065646547839
27546	1651212414954	9.77808874971097	0.207342598690371	0.466558047388111	0.0261566199228134	-0.0391974683646823	-0.0213919253799588	-0.019813470666323	-0.00616633546566463	-0.000395743056220803	0.62060546875	0.353271484375	-0.165771484375	0	0	0	-0.349666562040769	-0.592902054667977	-0.381349397145401	0.617068137451545	0.00607958173465975	-0.0560010782642454	0.998412198402631	0.885273170594884	0.464611865374857	0.020669493892641	-0.465031667858022	0.883741870562971	0.0524008979221599	21.5267171608071	-86.7708127527565	-83.8041279009264
27547	1651212414954	9.80253691219108	0.207234340471735	0.466515218013663	0.0259707074192367	-0.0396233831577525	0.00301779580111194	-0.00614706910000755	-0.0152792711206433	0.00446090140810379	0.615966796875	0.365478515625	-0.163330078125	0	0	0	-0.349727691922123	-0.592930155513923	-0.381327217101707	0.617020198763806	0.00604676835940432	-0.0558450010624699	0.998421139824643	0.885301380098108	0.464560190000584	0.0206227123096231	-0.464978389808378	0.883778912241604	0.0522487443701194	21.539275671158	-86.7799202866123	-83.820220343364
27548	1651212414956	9.72956187326303	0.18237146277048	0.462409557426259	0.00399840269339376	-0.0489013793730786	-0.0705598336826831	0.0092730945422204	-0.00913016523838091	-0.00438976177262147	0.61279296875	0.361572265625	-0.174072265625	0	0	0	-0.349708820521209	-0.593027456619224	-0.381287608767757	0.616961859392917	0.00587639019180047	-0.0557059593556669	0.998429924496747	0.885253688919671	0.464647000499661	0.0207140334261999	-0.465071364730648	0.883742050045675	0.0520443530907991	21.7029175706741	-86.7888932878672	-83.9781716873426
27549	1651212414957	9.75271887996279	0.231461438785904	0.486903239749378	0.0357161664089034	-0.00503929227316235	-0.0451455206379592	0.00606490656664422	-0.00761089713025265	0.00317651785624264	0.6103515625	0.352783203125	-0.162841796875	0	0	0	-0.349713837251514	-0.593057492211092	-0.381246562880904	0.616955509950766	0.00586773844757632	-0.0556235126145285	0.998434571962496	0.885225157862131	0.464702580652638	0.0206865033958002	-0.465125778186371	0.883718018589188	0.0519660859342257	21.7063637908079	-86.7936505335964	-83.9781253190063
27550	1651212414958	9.72836877966608	0.230877635688267	0.485252522734035	0.0349262959884976	-0.00368181709684764	-0.0695513089584168	0.00294825963011317	-0.00609302911961403	0.00616612539851654	0.620849609375	0.355224609375	-0.16748046875	0	0	0	-0.349742960671704	-0.593121652667037	-0.381194666135529	0.616909388085427	0.00579466329468983	-0.0554448907696674	0.998444933867082	0.885205382138723	0.464740975940827	0.0206701890219957	-0.465164329361075	0.883709052442662	0.0517731331962259	21.7641314775361	-86.8042826714663	-84.0335568663976
27551	1651212414959	9.72518573672789	0.279102210459357	0.55815853985528	0.0441381580506583	0.0838559291402245	-0.0679607585870752	0.00289468074702069	0.00153843005044984	0.00768786859293568	0.607421875	0.35546875	-0.168212890625	0	0	0	-0.349753638886056	-0.593110005467141	-0.381164869396741	0.616932942740535	0.0058677275050675	-0.0554215637487636	0.998445802257473	0.885191094436209	0.464771468847455	0.0205963121991959	-0.465190601909318	0.883694478887936	0.0517858270014609	21.6887558909675	-86.8051753142802	-83.9563556998028
27552	1651212414961	9.67642035820518	0.278123511143753	0.55615377882764	0.0436943222902048	0.0855568914367527	-0.116784028694507	-0.0123168887973661	-0.00308680938346399	0.00586094684075006	0.606201171875	0.365966796875	-0.16162109375	0	0	0	-0.349823779398717	-0.593129765333448	-0.381163311488253	0.616875137137165	0.00582322290159673	-0.0552785477263029	0.998453991046312	0.885242132457585	0.464675706685015	0.020563427212645	-0.465094030274509	0.883753794774344	0.0516408096853746	21.7125014866715	-86.8136050842508	-83.9864543758365
27553	1651212414961	9.67566247043042	0.252935432118	0.579791488288488	0.0107126626860292	0.0958638287789255	-0.116849394264985	-0.0153969528784156	-0.0137780900774152	0.00885628513105362	0.610595703125	0.358642578125	-0.1611328125	0	0	0	-0.3499235889128	-0.593128755435988	-0.381157003150699	0.616823394778863	0.00583523684826945	-0.0551136276752165	0.998463037901455	0.88531259883339	0.464545641743129	0.0204682457561765	-0.464959731974496	0.883832469861762	0.0515035227946843	21.6735893992171	-86.822944150192	-83.9562406534804
27554	1651212414962	9.67909232841216	0.178946796338678	0.505209742752613	-0.0213003450742238	-0.00337789568814958	-0.118791251891485	-0.0091949786270646	-0.0168136235545264	0.00440165030676545	0.615234375	0.355712890625	-0.16455078125	0	0	0	-0.34996827922838	-0.593181019586378	-0.381181419524483	0.616732686782282	0.00567400682352989	-0.0549850006384757	0.99847105884515	0.885363163420798	0.464445857886454	0.0205454118876509	-0.464865436985892	0.883892920436013	0.0513169630727834	21.819335523042	-86.8312471638106	-84.1083928485117
27555	1651212414963	9.7533344413422	0.178904022383307	0.482006695347334	-0.0105501996118765	-0.0262577249823183	-0.0458522158439791	-3.70878492133328E-05	-0.0183130245197732	0.00458284430990777	0.617431640625	0.35302734375	-0.165771484375	0	0	0	-0.350016332023866	-0.593230893934847	-0.381135465643944	0.616685844353667	0.00562572661927294	-0.0548006898108978	0.998481464823587	0.885362695964156	0.464448648289867	0.0205024314850389	-0.464866914067981	0.883902900491885	0.0511313475956415	21.8495893981987	-86.8420515852713	-84.1386652281843
27556	1651212414964	9.75423403909239	0.203149705850299	0.455963180871393	0.0220143169079586	-0.0360067902815342	-0.045780348327904	-0.00602829499090381	-0.01527967068403	-0.00164043772880527	0.613525390625	0.355224609375	-0.166259765625	0	0	0	-0.350067561771126	-0.593292977801529	-0.381120850744118	0.616606066962605	0.00550067923894704	-0.0546176053197215	0.998492193117727	0.88538810993937	0.464399198647397	0.020525084010695	-0.464820005277205	0.883940213750226	0.0509122893740261	21.9566290795497	-86.8532294624244	-84.248986863745
27557	1651212414965	9.75427901834539	0.203129379934001	0.455008830729424	0.0219828436373207	-0.035990489531957	-0.0457802173578763	-0.0091700940785808	-0.00460478939112976	0.00134781294584882	0.609619140625	0.352783203125	-0.1748046875	0	0	0	-0.350108210815029	-0.59328882598632	-0.38113560184584	0.616577864251777	0.00548804393076727	-0.054568972027609	0.998494921702491	0.885430129478086	0.464319787451017	0.020509041758733	-0.464740107141866	0.883984933284098	0.0508652193593477	21.9594717447431	-86.8560787248936	-84.2570293613325
27558	1651212414966	9.75141994268224	0.203053282001966	0.528133940369531	-0.0128246743812441	0.0298426274572633	-0.0449193502065412	-0.00611113656460208	0.00303465819453301	-0.000120077134265764	0.619384765625	0.357421875	-0.160888671875	0	0	0	-0.350129119735743	-0.593316864239159	-0.381136297300641	0.616538580303328	0.00542044297873776	-0.0544954404787524	0.998499306842494	0.885445486080465	0.464289444786062	0.0205329647148227	-0.464711641749638	0.884005406333738	0.0507693962449706	22.0201741211838	-86.8606632195267	-84.3197020021178
27559	1651212414969	9.751417292107	0.202955657396115	0.528220394600311	-0.0128611569650676	0.0298727797176615	-0.0449194903429557	-0.00765334533080157	-0.00154807743576693	0.00137669453515372	0.612060546875	0.357177734375	-0.160400390625	0	0	0	-0.35015942541755	-0.593306711630031	-0.381151198586287	0.616521927057139	0.00542181950199247	-0.0544722684236164	0.998500563768531	0.885480017386606	0.464224281214977	0.0205172010628533	-0.464645824991793	0.884041056005446	0.0507510454520214	22.0120798593811	-86.8619785209811	-84.3158677879192
27560	1651212414967	9.72802534545442	0.202493818098928	0.502064432060792	-0.00163302778927819	0.00855554897697883	-0.06961425850651	-0.00462228955586879	-0.0152745077030178	0.004490108176976	0.611572265625	0.3603515625	-0.161376953125	0	0	0	-0.350212860514791	-0.593340181378604	-0.381139902749007	0.61646634622186	0.00535960738816621	-0.0543291221361394	0.998508698558286	0.885510570852003	0.46416665372505	0.0205023530125198	-0.46458831616605	0.884080123098357	0.0505967629833061	22.0583209812365	-86.8705044679004	-84.3659592779304
27561	1651212414968	9.803328920197	0.178110751108683	0.454724667392037	-0.00117457465849263	-0.0472537638145122	0.00268432868367441	-0.00307134733340921	-0.0137440312138908	0.00299398139318413	0.6142578125	0.353271484375	-0.16552734375	0	0	0	-0.350257087243871	-0.593373177175889	-0.381115114233554	0.616424784662635	0.00531908462187206	-0.0541912830736504	0.998516405562581	0.885523925818725	0.464142485076369	0.0204726732433018	-0.464563326298342	0.884101271566761	0.0504564908872599	22.0848076813425	-86.8786035214463	-84.3941535777198
27562	1651212414970	9.77897991651123	0.177525383634622	0.452953630615001	-0.00146894234203786	-0.046697972710466	-0.0217248164636175	0.00446696923622508	-0.00303906053659243	0.00619168505525351	0.609130859375	0.359619140625	-0.165771484375	0	0	0	-0.350265402829767	-0.593396208000361	-0.38108518583861	0.616416392583492	0.00531004293028942	-0.0541219873774855	0.998520212077046	0.885506634709096	0.464176457429707	0.0204503362852304	-0.464596387556178	0.884087680521745	0.0503901758225868	22.0892695879548	-86.8826114252845	-84.3965023686153
27563	1651212414971	9.77870899479271	0.226134770399807	0.452933780288514	0.0417410584334881	-0.0240105931957245	-0.0210012601713316	2.10085936419306E-05	0.00305222905199773	-0.00152611393917791	0.614501953125	0.357666015625	-0.166015625	0	0	0	-0.350254644019278	-0.593391244088803	-0.381094650345169	0.61642143316076	0.00530739783407302	-0.0541537431463757	0.998518504401129	0.885505898996295	0.464177103642445	0.0204675180926638	-0.464597820023935	0.884085396642964	0.050417031563344	22.0953995133693	-86.8808127659018	-84.4025392951672
27564	1651212414973	9.70281410872345	0.201158248820096	0.523441116813861	-0.0142269325281988	0.0310942342855641	-0.0937425839254953	-0.00619119122451432	-1.69671891217044E-05	0.00445832994561755	0.612060546875	0.3544921875	-0.158447265625	0	0	0	-0.350278429448969	-0.593407301619389	-0.381105098825832	0.616385999108117	0.00525335606749477	-0.0541001389403357	0.998521695916851	0.885531249479497	0.464127851023432	0.0204876572514067	-0.464550114030024	0.884114536059105	0.0503455924951172	22.1433952039399	-86.884175165009	-84.4537222804521
27565	1651212414973	9.7281660230943	0.200833493371189	0.500001114510134	-0.0031229324415339	0.00907898618639283	-0.0696150958449806	-0.00314002022419228	-8.4130386418032E-06	0.00451756072414996	0.612548828125	0.36328125	-0.16796875	0	0	0	-0.350301026459111	-0.593395482647601	-0.381100047021269	0.616387659022713	0.00528911066761512	-0.0540766383384638	0.998522780157947	0.88554482500908	0.46410389004416	0.0204436333736484	-0.464523829537284	0.884128551983188	0.0503419840702285	22.1018303733278	-86.8853182848686	-84.4138005454586
27566	1651212414975	9.67911847596103	0.248940281359687	0.498023092588099	0.0398346182072797	0.0325363318935935	-0.117704777682565	-8.46135589480429E-05	-0.00152609184905324	0.00457697892219299	0.615966796875	0.35205078125	-0.153564453125	0	0	0	-0.35030773045534	-0.593409675002582	-0.381102068058681	0.616368936042331	0.00525234266945157	-0.054046959464932	0.998524581104081	0.885550945386514	0.464091415409251	0.0204617024827056	-0.464512578970188	0.884136914915351	0.0502989031931173	22.1365979620175	-86.8872179566326	-84.4493633622146
27567	1651212414975	9.70272761767999	0.224217875121089	0.523076105984567	0.00663657045597218	0.0424259391757616	-0.0933786697258831	-7.62124278507022E-05	-0.00457840945283261	0.00457735112603661	0.62255859375	0.348876953125	-0.16259765625	0	0	0	-0.350329614953839	-0.593417720875132	-0.381080050298132	0.616362364768025	0.00526680763227363	-0.0539831986134094	0.998527954042765	0.885550405257289	0.464094312302135	0.0204193299953568	-0.464513444892627	0.884139289680237	0.0502491388753172	22.1149458574176	-86.890778915029	-84.4276401726097
27568	1651212414977	9.72906786498839	0.22381725440509	0.47442387118578	0.0301820516534424	-0.00129709365422962	-0.0695348479872297	-0.00923847406371451	-0.0122341875525338	0.00592645959287987	0.619873046875	0.35400390625	-0.17578125	0	0	0	-0.350427539919062	-0.593386055798727	-0.381059831274653	0.616349684058358	0.0053727875451271	-0.0538545817152804	0.99853433450346	0.885609844738574	0.463987888510414	0.0202593735778658	-0.464398897561262	0.884202987635713	0.0501870560998088	21.9828097240339	-86.897526213088	-84.3027539588699
27569	1651212414977	9.75366947062586	0.198927382675473	0.474116008710106	0.00835001235500003	-0.0130326015426674	-0.0454878408200621	-8.0821954026706E-05	-0.0137355910547838	0.00610342838235685	0.61962890625	0.355224609375	-0.160400390625	0	0	0	-0.350471873302797	-0.593418614253916	-0.381016822312313	0.616319718486775	0.00536105874397882	-0.053703294551861	0.998542545514922	0.885609428113141	0.463991294277311	0.0201994968249814	-0.46439982761222	0.884210401991032	0.0500476285611805	21.9792726252024	-86.9062309398427	-84.2991999762865
27570	1651212414978	9.77907508899017	0.198396012540573	0.449462455713098	0.0193090491047862	-0.0341973706822034	-0.0213572869831413	0.00598402168177605	-0.0106670003117644	0.00774628633958253	0.6220703125	0.3623046875	-0.16552734375	0	0	0	-0.350506846883906	-0.593480635428467	-0.380918113020578	0.616301125126157	0.00536425308852967	-0.0534824708496524	0.998554380141923	0.885558575692408	0.464092682920689	0.0200995193253853	-0.464496753278682	0.884170575721277	0.0498513713178502	21.958744905336	-86.9188203877679	-84.272429906481
27571	1651212414979	9.75471551156827	0.197678719029875	0.447997946236571	0.0194871277252628	-0.0337545847215293	-0.0457669357512049	-8.78709257304175E-05	1.41475525751307E-08	0.00457680899780606	0.619873046875	0.354248046875	-0.160400390625	0	0	0	-0.350520782282068	-0.593473645985828	-0.380903183528909	0.616309157392779	0.00540359259566037	-0.05345854686837	0.998555449113259	0.885557933487345	0.464095891931818	0.0200536662391829	-0.464497521656125	0.88417033814686	0.0498484254173094	21.9145715093626	-86.9199600703331	-84.2281438208946
27572	1651212414980	9.78004737127154	0.197202011139719	0.424842988346198	0.0304612803342708	-0.0557617905992846	-0.0216368852462772	-0.00626474115166446	0.00608871938843733	0.00751022265548593	0.62353515625	0.360595703125	-0.170654296875	0	0	0	-0.350550493764846	-0.593434204455424	-0.380913652427737	0.616323766942134	0.00548126875303834	-0.0534749675103041	0.99855414652518	0.885589581065494	0.464038281430769	0.0199891789481781	-0.464436270763924	0.884199582230478	0.0499003926071612	21.8301304809822	-86.9185713736172	-84.1475313266015
27573	1651212414981	9.75457844086562	0.220804468248279	0.44882870952953	0.0409322596275264	-0.0223705918356722	-0.0454038889264243	-0.00470589004020254	0.00456653800233316	0.00601406631901384	0.61669921875	0.357421875	-0.172119140625	0	0	0	-0.350574316457298	-0.593401450142433	-0.380916086451465	0.616340249125316	0.00555530810271562	-0.0534852157017675	0.998553188494844	0.885610446775578	0.464001167445996	0.0199261930813031	-0.464395601953598	0.884218439250216	0.0499447352187128	21.7502614625676	-86.9175504108114	-84.0701660393523
27574	1651212414981	9.72914075506912	0.244477758827571	0.472149461408485	0.0503858949487729	0.0120965913819007	-0.0691669930167826	-0.0092516508090395	-0.00765433343522483	0.00592654700379859	0.617919921875	0.361328125	-0.162841796875	0	0	0	-0.350628247312034	-0.593463998274384	-0.380874094557701	0.616275294843079	0.00547081369406593	-0.0532761067277975	0.998564833473247	0.885617072958755	0.463989512563485	0.0199030730056268	-0.464383968587949	0.88423717897577	0.0497206298781456	21.816131339255	-86.9299833377766	-84.136964956646
27575	1651212414982	9.70679598653035	0.219405726762314	0.421550565582921	0.051624106256787	-0.0420280304280679	-0.0944930559531869	-0.0107402673544041	-0.0107103096255454	0.004371636128267	0.61767578125	0.3544921875	-0.1650390625	0	0	0	-0.35069492465953	-0.593470330939543	-0.38087214165268	0.616232462489162	0.00545875601481952	-0.0531574894952847	0.998571220941866	0.885665621481323	0.463898963061895	0.0198534378937508	-0.464291512854665	0.884291825915324	0.0496120722251109	21.8099799473224	-86.9368244203256	-84.1368338924516
27576	1651212414983	9.70603625097152	0.194590018771759	0.444925516535201	0.0182038088808428	-0.0316177766788842	-0.0945788763055102	-0.00918544178958829	-0.0107062714609181	0.00287526196143631	0.609130859375	0.361083984375	-0.156982421875	0	0	0	-0.35074851397415	-0.593496855085367	-0.380877883270732	0.616172866153574	0.00538704207797072	-0.0530369540398191	0.998578019627825	0.885709513917916	0.463815035960264	0.0198562174763838	-0.464208613376508	0.884343086094621	0.0494739258974085	21.8679165465771	-86.9441227327563	-84.2002729356418
27577	1651212414983	9.73151986142662	0.170063000105162	0.420803573711051	0.00771719710881552	-0.0649522488216252	-0.070808819946123	-0.00764957665915065	-0.0030714335745303	0.00137955169794391	0.61669921875	0.354248046875	-0.168212890625	0	0	0	-0.350782241329208	-0.593490641072557	-0.380889474543723	0.616152486247641	0.00538413428218476	-0.0530000388846648	0.998579995281427	0.885743948018025	0.463750054699728	0.0198379765964634	-0.464142940964821	0.88437937710251	0.0494413562546857	21.8627570784193	-86.9462468422441	-84.1993722740318
27578	1651212414984	9.7052657270104	0.169529934541617	0.468674965325727	-0.0154066751944001	-0.0213965261024809	-0.0946688273692757	-0.00775201821176288	0.0030321304968444	0.00595719751480983	0.619140625	0.360595703125	-0.17138671875	0	0	0	-0.350811236039407	-0.593469121215079	-0.380923746547669	0.616135519304635	0.00538300296057687	-0.0530100288598657	0.998579471108536	0.885792572718596	0.463657151969181	0.0198384360371203	-0.464050149655937	0.884427488417284	0.0494517576654102	21.8590505347661	-86.9456831377679	-84.2016682795149
27579	1651212414985	9.72966121552792	0.169046289566076	0.46983448900322	-0.0156167712957718	-0.021783400395696	-0.0702590181432914	0.00140527753200541	0.00152822781911393	0.00613183728525418	0.617431640625	0.358154296875	-0.16259765625	0	0	0	-0.350822257740931	-0.593457586852012	-0.380902280248766	0.616153624498496	0.00544309101815441	-0.0529923801242231	0.998580082121078	0.885784902095853	0.463674392749694	0.0197778848020831	-0.464064090378915	0.884419507449363	0.0494636721626852	21.7938358721365	-86.9463402411252	-84.1354535571702
27580	1651212414987	9.75476852872987	0.217489224353666	0.446309025858049	0.0379525224912035	-0.020609021514665	-0.0453879803437651	0.00297105452499525	-0.00304617100313702	0.00463462743280148	0.61669921875	0.35791015625	-0.1611328125	0	0	0	-0.350826013243118	-0.593505538262548	-0.38086397024162	0.616128980535255	0.00538762444694682	-0.0528882957624368	0.99858590099909	0.885757023067879	0.46372748920746	0.0197816035566669	-0.464117947927838	0.884397899095588	0.049344568967245	21.8452149355881	-86.9526051506249	-84.183458250187
27581	1651212414987	9.70613055420583	0.192179453027648	0.44391489555502	0.0167101610421043	-0.0310894306217516	-0.0945744886068986	-0.000156638581132952	-0.00763298980626938	0.00915246234409621	0.615234375	0.359619140625	-0.170654296875	0	0	0	-0.350868199997301	-0.593514203544758	-0.380821699850417	0.616122738863227	0.00543144622734135	-0.0527752969196152	0.998591641977303	0.885756338001939	0.463732678307386	0.0196904230338665	-0.46411874459159	0.884401928483257	0.0492647928425709	21.7858734039196	-86.9587988249129	-84.1240092416556
27582	1651212414988	9.75393028019877	0.216138984742248	0.469364220233748	0.0257760143080333	0.001412462665	-0.0451130334472118	-0.00159142874524421	-0.00916157462517714	0.00454632716108417	0.60693359375	0.350830078125	-0.16552734375	0	0	0	-0.35089683792698	-0.593566399332633	-0.380796909082655	0.616071467241616	0.00534528723278063	-0.052635075748198	0.998599507663298	0.885757366250294	0.463730246331886	0.019701440818138	-0.464117782505413	0.884411559986611	0.0491006774322806	21.8629169539369	-86.967305266	-84.201280843832
27583	1651212414989	9.72876486715406	0.191156785437273	0.492079923461547	-0.00700741885383133	0.0121391250289073	-0.0696204474221815	0.00297830160434155	-0.00609870078844923	0.00463385491523069	0.6123046875	0.35791015625	-0.16357421875	0	0	0	-0.350912926856466	-0.593584444251533	-0.380762029429502	0.616066475514091	0.00535556897465209	-0.0525565336229023	0.998603589345894	0.885742352298001	0.463760789419512	0.0196574551403984	-0.464146316614237	0.884400215383588	0.0490352506152537	21.8450672919999	-86.9717288590188	-84.1815803278629
27584	1651212414990	9.72962380793983	0.215224103196177	0.466939786242313	0.0254301548546961	0.00218734534658191	-0.069521445689654	0.0060654609766735	-0.00914365989231386	0.00316572596064592	0.6201171875	0.35498046875	-0.162353515625	0	0	0	-0.350923999455561	-0.593640254455668	-0.380720196601706	0.616032244931612	0.00528676037873754	-0.0524266101439074	0.998610785398153	0.885717059469507	0.463808957011344	0.0196606704041183	-0.464195369138241	0.884382667144075	0.048887189791847	21.908218559098	-86.9795434676524	-84.2416928937098
27585	1651212414991	9.73164136801031	0.190324282919038	0.417091719784906	0.0264567379882497	-0.052353928937552	-0.0704293333932337	0.00446012588310088	-0.012200335175661	0.00771329925344712	0.615234375	0.3515625	-0.159912109375	0	0	0	-0.350956212407295	-0.593674723748857	-0.380660709532609	0.616017437717939	0.00529549319969777	-0.0522796049546491	0.998618445983028	0.885694934750033	0.463854322381712	0.0195869897109624	-0.464237482663676	0.8843675765843	0.0487601187088882	21.8853788006568	-86.9878847978622	-84.2161366714598
27586	1651212414992	9.73157612295462	0.214304926706026	0.416269829679681	0.0487852662067113	-0.0409955236742587	-0.070063467100125	0.00608385715593459	-0.00456508392947715	0.00164038154622965	0.61865234375	0.360595703125	-0.170654296875	0	0	0	-0.350976236095794	-0.593668784515122	-0.380626575014011	0.616032845213201	0.00536156937088283	-0.0522296729859091	0.998620706191128	0.885684214892638	0.463878184178266	0.0195064536368197	-0.464257175565324	0.884358010934067	0.0487461119767351	21.8095241403049	-86.990350268248	-84.1389061403211
27587	1651212414993	9.75691379331102	0.214060546352336	0.392486058541875	0.059910956325321	-0.062998050855783	-0.0459235229409316	0.00446515078365637	-0.00151686303335827	0.00618864657410725	0.61865234375	0.356201171875	-0.1650390625	0	0	0	-0.35098385325438	-0.593672311213987	-0.380590435545077	0.616047434881568	0.00540821453890308	-0.0521847323953695	0.998622804125925	0.885662313836645	0.463922510252632	0.0194466020275488	-0.464298413808428	0.884337411956387	0.0487270433051017	21.7565759570018	-86.9926405354681	-84.0832197685707
27588	1651212414995	9.75508657381507	0.213455282441464	0.441276723008615	0.0364509286230519	-0.0190185944735126	-0.0453790347534309	-0.00164397666529664	0.0015220328532885	0.00607375627511626	0.625	0.357177734375	-0.155517578125	0	0	0	-0.351000113614689	-0.59370029205196	-0.380558422353131	0.61603098187996	0.00539050078702522	-0.0520938172431521	0.998627646676328	0.8856492970964	0.463948414837142	0.0194214037277059	-0.464323448744425	0.884329182247843	0.0486377669197847	21.7671749991006	-86.9979337015216	-84.0922426674054
27589	1651212414995	9.73163275066161	0.212759043701041	0.415738674076287	0.047976216820917	-0.0401973645674861	-0.0700561236160126	-0.000101828393238887	-0.00610539082310104	0.00610213538392693	0.613037109375	0.363525390625	-0.1708984375	0	0	0	-0.351030266393463	-0.593709695601808	-0.380527849024861	0.616023624174151	0.00541470692984286	-0.0520081440960092	0.998631981210572	0.885648434525948	0.463952616384493	0.019360273028084	-0.464324812357257	0.88433202062216	0.0485730988482863	21.7312446436314	-87.002679499575	-84.0561973318327
27590	1651212414996	9.73074954468952	0.212152482329883	0.439620168080881	0.0359954847799954	-0.018806205739598	-0.0697867735420594	-0.00468190607811991	-0.00458900881968224	0.00601605302348759	0.61328125	0.349365234375	-0.17578125	0	0	0	-0.35106180874605	-0.593713793172033	-0.380544955811821	0.61599113211426	0.00537893680691043	-0.0519641600848857	0.998634464208751	0.885685112518694	0.463882286092262	0.0193676563519228	-0.464255262222817	0.884371500398158	0.0485190764744568	21.7607037479918	-87.0054014715536	-84.0902217155634
27591	1651212414997	9.7306817801092	0.236030741757062	0.439116782519005	0.0575992203972097	-0.0074496475077769	-0.0694164146152882	-0.00770121720101801	-0.0061213293554544	0.0044329549410362	0.612060546875	0.36083984375	-0.158447265625	0	0	0	-0.351110296314083	-0.593711445814724	-0.380542589645409	0.615967220229123	0.00538811314911106	-0.051887118915208	0.998638420614474	0.885719925575489	0.463817794576406	0.0193201157560919	-0.464188734972363	0.884409848613728	0.0484565578616534	21.7376659016264	-87.0097437725546	-84.0714842553609
27592	1651212414998	9.72999698547652	0.186653271364036	0.463145977213586	0.00222534379689301	-0.00769626538444992	-0.0698889569456007	-0.00773940249301557	-0.00154317860338605	0.00595908677094251	0.615966796875	0.357177734375	-0.166259765625	0	0	0	-0.351155536046079	-0.593737502471155	-0.380524824610279	0.615927289149314	0.00535327202926333	-0.0517628254506176	0.998645058256411	0.885739669254292	0.463781294719015	0.0192911632114915	-0.46415146319696	0.884436272758034	0.0483311353270126	21.7591990267592	-87.0170430144286	-84.0955049513536
27593	1651212414999	9.75532092711348	0.186152852171503	0.439675435103471	0.0133352676439557	-0.0296920882267966	-0.0457434037627937	-0.00469446229345558	0.00151536957309895	0.00601680476245939	0.619384765625	0.357666015625	-0.169677734375	0	0	0	-0.351184914022174	-0.593714988226336	-0.380521790764539	0.615934116340367	0.00541135901750142	-0.0517452116977367	0.998645658008856	0.885760200073504	0.463744645833174	0.0192294416666333	-0.464111608516023	0.884456520427896	0.0483433378372804	21.6910887921829	-87.0177034258045	-84.0298799128952
27594	1651212415000	9.70561434745296	0.185417432025812	0.462392104187558	0.00165254023741738	-0.00643787652922223	-0.0942980021226116	-8.90036674080673E-05	0.00152499404151866	0.00457710760068549	0.6240234375	0.357421875	-0.173095703125	0	0	0	-0.35119358332041	-0.593750465166523	-0.380484880153088	0.615917777080674	0.00538328217885739	-0.0516520962734106	0.998650630212361	0.885737510113376	0.463788646018922	0.019213406832042	-0.464155236371562	0.884438891486856	0.0482469042982171	21.7139738921369	-87.0231841549535	-84.0500034808012
27595	1651212415001	9.70472779701713	0.184812480046525	0.486418737464596	-0.00971350502841379	0.0152182887693572	-0.0940365092911559	-0.000124908654346047	-0.00915877869177844	0.00762645185275772	0.613037109375	0.363037109375	-0.163330078125	0	0	0	-0.351233988429555	-0.593767012665759	-0.380444301364999	0.615903850938397	0.00540573645775799	-0.0515319084435485	0.998656718009505	0.885736532669534	0.463793637861531	0.0191378205059839	-0.464156840634609	0.884443284722844	0.0481508400836969	21.6756234532737	-87.0299083330963	-84.011531029553
27596	1651212415003	9.72918960237578	0.184616772296535	0.486143886207749	-0.0111058510434112	0.015378746429074	-0.0696288320286662	0.00310977565719737	-0.0152550716455076	-0.00147115327367528	0.621826171875	0.360107421875	-0.1650390625	0	0	0	-0.35123199488951	-0.593878248863891	-0.380404859792022	0.615822096013862	0.00520153634594103	-0.0513453520420569	0.998667411525639	0.885701520321871	0.463856456825095	0.0192354974252238	-0.464225980443974	0.884421190545176	0.0478894225845866	21.8835937174849	-87.041756653723	-84.2153908000236
27597	1651212415003	9.7563913142919	0.184532014792652	0.412371400292434	0.0226686147352682	-0.0498399298088876	-0.0459952087745119	0.00296746064610428	-0.0152568407895347	0.0061569258159982	0.61279296875	0.364990234375	-0.167236328125	0	0	0	-0.351269959738719	-0.593922444052837	-0.380348942987046	0.615792357377144	0.00518162403788361	-0.0511777184350726	0.998676119624431	0.885686170476519	0.463888193907592	0.0191768344569981	-0.464255488065536	0.884414260790119	0.047731091670927	21.8886924108464	-87.0514402897654	-84.2186379863228
27598	1651212415005	9.73115708400302	0.183980338283427	0.434448865165379	0.0100571181752817	-0.0279492840917238	-0.070145069921157	-0.00308125947697327	-0.0137418171297641	0.00299252039132876	0.61669921875	0.359375	-0.16845703125	0	0	0	-0.351283798036071	-0.593996535317312	-0.380358931679049	0.615706823382976	0.00499039824600342	-0.0510564612458335	0.998683299995749	0.885701897031964	0.463853552658652	0.0192881123993066	-0.464227579447115	0.88443943797809	0.0475356185367638	22.085408292419	-87.0594490194826	-84.4174864253883
27599	1651212415006	9.73302312966109	0.183703996762729	0.384392991729343	0.0326863751150392	-0.0711535512532543	-0.0706591839204513	0.00149264525166458	-0.0122068784152314	0.00307749581052808	0.60693359375	0.35498046875	-0.175537109375	0	0	0	-0.351310985623067	-0.594034197866076	-0.380322869122677	0.615677251787373	0.00495577397580599	-0.0509307986144004	0.998689888832765	0.885693756798955	0.463870213205689	0.0192612166765823	-0.464243480806844	0.884437945281074	0.0474079262923156	22.1112602015836	-87.0668171949444	-84.4423834022742
27600	1651212415009	9.73207582911628	0.207737152510512	0.407831319338866	0.04126492896088	-0.0367380843476414	-0.0700117278925756	-6.98672815803181E-05	-0.00763170964573539	0.00457567888763775	0.614990234375	0.349853515625	-0.16552734375	0	0	0	-0.351325039279896	-0.594148813024902	-0.380253576190195	0.615601431569687	0.00478881155133612	-0.0506905815761993	0.998702924909801	0.885648001872508	0.463955869139095	0.0193020276297959	-0.464332514544438	0.884406816137717	0.0471158095121597	22.2775384780084	-87.0814499620387	-84.6032031457182
27601	1651212415007	9.73130880572647	0.182939041081724	0.431479903542597	0.00823216758184392	-0.02640828041479	-0.0701390580297048	-0.00156739451277369	-0.00763422889991372	0.00302196362658432	0.621826171875	0.358154296875	-0.1669921875	0	0	0	-0.35135260281418	-0.594167834039089	-0.380234320688252	0.615579235240876	0.00477289272808196	-0.0506038746870205	0.998707398271219	0.885653534679412	0.46394641973289	0.0192752724208375	-0.464322125258823	0.884416738581815	0.0470318669779965	22.2855011809549	-87.0864881530436	-84.611875265099
27602	1651212415008	9.70685549624174	0.206965219975868	0.4299232647111	0.0304932091121765	-0.0139317096087922	-0.0941695594915614	0.00148098518186336	-0.00610239643539178	0.00307828009383264	0.608642578125	0.358154296875	-0.15966796875	0	0	0	-0.35139453333827	-0.594188500464011	-0.380172573219111	0.615573490680251	0.00481768097657936	-0.0504591342437278	0.998714506614068	0.885637497585798	0.463981393023878	0.0191700234112225	-0.464352250796713	0.884406661383209	0.0469238157126189	22.2217358511954	-87.094511987226	-84.5461095887595
27603	1651212415010	9.70688996652592	0.206900882380527	0.429175344721592	0.0304336785436581	-0.0138764745743633	-0.0941692938647272	0.00614746959880521	-0.00914515501929878	-0.00141511313922552	0.61865234375	0.35107421875	-0.16455078125	0	0	0	-0.35138833410792	-0.594234397511146	-0.380140913404645	0.615552276759098	0.00475673354089651	-0.0503791394488947	0.998718837208156	0.885607279493155	0.464038249217487	0.0191898351192579	-0.464410508058071	0.884381391466125	0.0468234389348536	22.2854840620293	-87.0994111943216	-84.6061966681475
27604	1651212415011	9.72946466484183	0.231317695259976	0.477753365534172	0.0293417303244784	0.039974906860412	-0.068880111523594	-0.00155584778470146	-0.0137386048965385	0.00302160204668831	0.622314453125	0.361083984375	-0.168701171875	0	0	0	-0.351442824900037	-0.594243091728791	-0.38014062946754	0.615512949162658	0.0047364995212619	-0.050278018211234	0.998724029177749	0.885647901549225	0.46396208530861	0.0191566666604843	-0.464333242460347	0.884427105125594	0.046726177517781	22.2925099984607	-87.1052957970509	-84.6182671672899
27605	1651212415012	9.75670158103354	0.206722106729816	0.403810167151567	0.0414774631222317	-0.0365690235719036	-0.045601592387726	-0.00154456036151667	-0.0198430965349398	0.00302078022919248	0.616455078125	0.359619140625	-0.18017578125	0	0	0	-0.351493839980403	-0.594298984170459	-0.380099696574409	0.615455131210906	0.0046658761560058	-0.0500837531718012	0.998734122410926	0.885653481341911	0.463952602239746	0.0191283523054129	-0.464323314713626	0.88444310192527	0.046521595739582	22.3510659687803	-87.1167698540737	-84.6776031800916
27606	1651212415014	9.78027540444135	0.206568447423753	0.427759367408458	0.0281392224096268	-0.0136401794862552	-0.0209327862891069	-0.00611616830713791	-0.00764210589420969	0.00141390168823767	0.6103515625	0.355712890625	-0.1650390625	0	0	0	-0.351507943346601	-0.594423588927404	-0.38003586919008	0.615366151831451	0.00446667011121107	-0.0498331943216856	0.998747566506079	0.885611647203994	0.464029807786367	0.0191923896994539	-0.464405059398308	0.884416751440996	0.0462055253818151	22.5565331151245	-87.1321244298582	-84.8781273366823
27607	1651212415014	9.73168665338206	0.157400814136812	0.425389222277405	-0.0147199009859721	-0.035469166998571	-0.0705119697770655	-0.004596117674534	-0.00458707072754756	0.001442031651762	0.61669921875	0.358154296875	-0.16845703125	0	0	0	-0.35153455096683	-0.594430630577788	-0.380035050227826	0.61534465586838	0.0044511720584525	-0.0497792647985438	0.998750325088019	0.885630884002914	0.463993640149765	0.0191791345161173	-0.464368522154036	0.884438763678236	0.0461513698148837	22.5663150985457	-87.13528518898	-84.8903042242854
27608	1651212415016	9.70810156497225	0.18150921226776	0.399752164063881	0.0176600837327966	-0.0450771448661597	-0.0947843195529518	-0.00157520643972293	-0.0030558129122203	0.00302309844428139	0.610595703125	0.358154296875	-0.16259765625	0	0	0	-0.351547799142825	-0.594462291996353	-0.38003214326256	0.615308295409338	0.00438030696341729	-0.0497100396938522	0.998754086281775	0.88563768139272	0.463979430010203	0.0192090037413436	-0.464356232011841	0.884450111923246	0.0460574566245594	22.6393624735091	-87.1396003547372	-84.9642659351872
27609	1651212415016	9.73252360298439	0.181440264409475	0.400120206198771	0.0173592672435044	-0.0454053299099401	-0.0703740124577141	-0.00608874189613992	-0.00764158449060871	-0.00011173491798258	0.610595703125	0.357177734375	-0.1650390625	0	0	0	-0.351580056570935	-0.594478819042064	-0.380035308960863	0.615271941075613	0.00433619530674786	-0.0496363307851789	0.998757944687524	0.885663918101304	0.463929255529199	0.0192111956309347	-0.464306602993872	0.884480571030426	0.0459727950638626	22.6791635995621	-87.1440338196913	-85.0073555411496
27610	1651212415018	9.78135652722012	0.181749800128351	0.400921842632417	0.0159133204113439	-0.0466944642140886	-0.021554991406953	-0.00755113695184141	-0.0122217685692597	-0.00319156409862737	0.615966796875	0.35986328125	-0.175537109375	0	0	0	-0.351603327466468	-0.594516279310917	-0.380102340778379	0.615181033748284	0.00414520833820065	-0.0495956977829665	0.998760774164291	0.885731305937778	0.463794621298609	0.0193546618735477	-0.464179782982405	0.884553455714182	0.0458509874976218	22.8856263567418	-87.1472893788382	-85.2223232004489
27611	1651212415018	9.78245624480152	0.133001942482963	0.375310614158422	-0.0160651186238323	-0.0909360273897999	-0.0225663112765986	-0.00305642057329403	-0.0122150108859765	0.00146752067438109	0.618408203125	0.356689453125	-0.1669921875	0	0	0	-0.351639329213706	-0.594549830624871	-0.380084319445403	0.615139164064359	0.00409281803132644	-0.0494752938251271	0.998766961879237	0.885743708325336	0.46377138452372	0.0193438894495242	-0.464156581341519	0.884572381548209	0.0457205621081455	22.9327113055482	-87.1544218513245	-85.2710041044754
27612	1651212415020	9.75975517931071	0.157441973247941	0.324530144605401	0.0273757783051488	-0.121155664136681	-0.047058825028369	0.0107533972346593	-0.0106625048866824	-0.00286325035270712	0.61962890625	0.35693359375	-0.16796875	0	0	0	-0.351610666623211	-0.59468381230728	-0.379995792642259	0.61508072646657	0.00390872190772359	-0.0492618330344907	0.998778250513661	0.885650519736071	0.463946273381926	0.0194168047384509	-0.464335954653822	0.884492581778448	0.0454422049929229	23.1363261830706	-87.1674802983419	-85.463322482483
27613	1651212415021	9.80839686189591	0.206682896096518	0.325462252867155	0.0700527903854889	-0.0991882274984285	0.00253279698490338	0.00461527646398346	-0.00609569153254153	-0.00144541422340208	0.61865234375	0.362060546875	-0.16845703125	0	0	0	-0.351602744913483	-0.594718882596726	-0.379974262802183	0.615064647057643	0.00385802058167781	-0.0492078885370491	0.998781106841192	0.885627054828602	0.463990138754484	0.0194389015690383	-0.464381131650293	0.884472574387878	0.0453699209044113	23.1928821046491	-87.170793982794	-85.517039196102
27614	1651212415022	9.75698987323929	0.206620213093082	0.396836013565638	0.035801754433171	-0.0330634770534827	-0.0455666427061452	0.00307003773536766	0.00458435325013975	-0.00147032728609139	0.61669921875	0.353759765625	-0.16943359375	0	0	0	-0.351575075320428	-0.594748594731496	-0.379967182801402	0.615056107580692	0.00379809811775275	-0.0492047089455743	0.998781493154669	0.885599836903352	0.464039812814803	0.0194931013324967	-0.464433529503894	0.884446690728381	0.0453381509566918	23.2652479058464	-87.1712424507816	-85.5861068234735
27615	1651212415023	9.70729286627612	0.206507889913637	0.420157076903318	0.0248218349619165	-0.0106036841828486	-0.0941492186165522	0.00150876273240275	0.00915951655199911	2.90017920438633E-05	0.61572265625	0.359619140625	-0.171875	0	0	0	-0.351552054404268	-0.59472833080694	-0.379977239205546	0.615082647508008	0.00383102044264474	-0.0492788795514596	0.998777710660646	0.885590745581864	0.46405690145974	0.0194993217149738	-0.464450594382359	0.884433595154401	0.0454187311594586	23.2349772950881	-87.1668544388608	-85.5546737920103
27616	1651212415024	9.63225230573731	0.230554274434358	0.46664268856829	0.0236791524834468	0.0464529919020788	-0.16652353569331	-0.00154728476161087	-0.00305542698935566	0.00149778595649007	0.614013671875	0.3505859375	-0.16552734375	0	0	0	-0.351571205540433	-0.594796242467982	-0.379921128896249	0.615040692311506	0.00375473152833922	-0.0491074442494592	0.998786444096252	0.885560372311011	0.464115246506093	0.0194901244986081	-0.464509126910906	0.884412515108122	0.0452302347616327	23.3116548570479	-87.1769962584475	-85.6276993013323
27617	1651212415025	9.65678259665149	0.206066803004566	0.466705139825027	0.00172730790619809	0.0347996452075304	-0.142500539025507	-0.00915584846783543	-0.0137521909364556	0.00135942194816843	0.60400390625	0.359619140625	-0.168701171875	0	0	0	-0.351628508357652	-0.594824337454056	-0.379918045922297	0.614982664849262	0.00369257190985423	-0.0489716355836412	0.998793343901006	0.885600413638833	0.464039340985512	0.0194781256916202	-0.464433280757762	0.884459874118659	0.0450827993650332	23.3668681491631	-87.1850345655647	-85.6879285820042
27618	1651212415027	9.70669815559984	0.157486894485592	0.44247991727726	-0.0315992195219326	-0.00982089078420192	-0.0946893965841831	-0.00448913298048497	-0.0183207856614774	-0.00313716286344287	0.62255859375	0.352294921875	-0.165283203125	0	0	0	-0.351666467924533	-0.594915601939177	-0.379916387648632	0.614873694593325	0.00347792993072293	-0.0487774489258326	0.998803616573191	0.885624922714424	0.463988467466996	0.019575452094402	-0.464388199969022	0.884497293683772	0.044812243813661	23.5972773574292	-87.1970449549816	-85.9215981687999
27619	1651212415027	9.7093642069784	0.15790326413515	0.367358613053347	0.00233187529943904	-0.0745886619529713	-0.0953796168709378	0.00317168795580939	-0.0213584870908263	-0.00452857191594977	0.61669921875	0.35107421875	-0.166015625	0	0	0	-0.351682640116204	-0.595001194432377	-0.379881443876808	0.614803210680469	0.00332733444423289	-0.048601480886241	0.998812707618981	0.885607844607335	0.464018818477935	0.0196285931307409	-0.464421871163975	0.884491058266846	0.0445857985298823	23.7611660508774	-87.2077168885541	-86.0835512408194
27620	1651212415029	9.78168393116745	0.183027073690392	0.392259668765949	0.0136676264094892	-0.0420560325929076	-0.0215305768524665	0.00317168726868203	-0.0213584442660795	-0.00452857644727593	0.62451171875	0.351806640625	-0.17041015625	0	0	0	-0.351758431735704	-0.595037957931736	-0.379794212770868	0.614778163461442	0.00337236913237196	-0.0483591394305507	0.998824319267394	0.885597615051685	0.464044723297189	0.0194771403138309	-0.464441052601085	0.884490750892045	0.0443916686465351	23.6897837737057	-87.2214073077502	-86.0108841632133
27621	1651212415029	9.75734078447842	0.18345441674316	0.389767797239395	0.0138155293858694	-0.041591487936482	-0.0459400641606216	-0.00597278474852587	-0.0122185084987995	-0.00621218401741514	0.60693359375	0.363525390625	-0.167724609375	0	0	0	-0.351780901298078	-0.595080279861613	-0.379807030012022	0.614716420762602	0.00325216094654404	-0.0482714817500671	0.998828958079826	0.885622990527789	0.463993634870719	0.0195403543487306	-0.464393520731926	0.884522340503117	0.0442593160034735	23.821313595726	-87.2268954607169	-86.1456759061053
27622	1651212415031	9.78166248146063	0.20831927177551	0.390048058939524	0.0344503358498806	-0.0299640491721716	-0.0211414861350612	-0.00760163411661819	-1.40629761038402E-05	-0.00165860088893941	0.61474609375	0.36328125	-0.17041015625	0	0	0	-0.351795805481904	-0.595111260050428	-0.37981773536455	0.614671283947017	0.00316215212747231	-0.0482108199631712	0.998832176910817	0.885641400286335	0.463956398295767	0.0195900632791215	-0.464359032315279	0.884545181050069	0.0441645988130606	23.9206075132055	-87.2307100285093	-86.2473397681468
27623	1651212415032	9.73210785193528	0.183838978241994	0.412665252868736	0.00186689331237513	-0.0188475342781463	-0.0701181984675649	-0.00149611362605571	-0.0015284687980053	-0.00155270133413138	0.614990234375	0.357177734375	-0.16748046875	0	0	0	-0.351798020905451	-0.595121275871208	-0.379821651875114	0.61465789855764	0.003132359544572	-0.0481957826360614	0.998832996481285	0.885645730836933	0.463947330507736	0.019609027641892	-0.464350974774468	0.884550756627817	0.0441376389848671	23.9541408187435	-87.2316821228395	-86.2814396889121
27624	1651212415033	9.75747895609917	0.159682992419414	0.388359243511582	-0.0100990016241802	-0.0519100987390296	-0.046320568690243	-0.00147247832917333	-0.0137373200070697	-0.00155648278176058	0.60791015625	0.3564453125	-0.1787109375	0	0	0	-0.351799353390877	-0.595218040910049	-0.379820193882584	0.614564332717056	0.00290420818840006	-0.0480532441743473	0.998840553491457	0.885642531849306	0.463947670545514	0.0197449936678205	-0.464358559040694	0.884558333135646	0.0439053974579292	24.2142489153974	-87.2406616336982	-86.5414048966108
27625	1651212415034	9.7574611904762	0.184241633617116	0.386368003867533	0.0114118247886067	-0.0404816514175163	-0.045932296640407	-0.00297142948337577	-0.0274751768888141	-0.00158731913347268	0.617919921875	0.355224609375	-0.1689453125	0	0	0	-0.351854986626658	-0.59530542161362	-0.37978330619711	0.614470636985509	0.00275219066284482	-0.0478090178295276	0.99885270348572	0.885653742472076	0.463925417439893	0.0197650069169502	-0.464338102993672	0.88458323795299	0.0436190467667698	24.3766063124641	-87.2551602269039	-86.7053272697882
27626	1651212415036	9.76015960585245	0.160108512004059	0.310771542991457	0.0225635253108409	-0.114648361440001	-0.0469679573248047	0.00161986901685464	-0.0213612289595105	-0.00303215687861815	0.611328125	0.35400390625	-0.171875	0	0	0	-0.351878034797211	-0.595485223243939	-0.379668129873839	0.614354383628433	0.00249892011243724	-0.0474252196122932	0.998871665402017	0.885577900035715	0.46406791957071	0.0198178957926138	-0.464484163741463	0.884529148513513	0.0431583950507393	24.6641057084176	-87.2779416718301	-86.9837717156191
27627	1651212415036	9.7610173202892	0.160501573868619	0.285477020917523	0.0338004499580612	-0.136157870107458	-0.0471850424242852	7.22952308586037E-05	0.0030539946002232	-0.00457598371613331	0.61474609375	0.356689453125	-0.164794921875	0	0	0	-0.351857446761032	-0.595490838075973	-0.37968428649723	0.614350747955492	0.00246100870932997	-0.0474628790830424	0.998869970789633	0.885574422503039	0.464072359491794	0.0198692567583266	-0.464490996300835	0.884524799123726	0.0431739978527654	24.7125257929016	-87.2758979644178	-87.031801444444
27628	1651212415038	9.75838142571249	0.185155628728173	0.359436813590961	0.0210704350690111	-0.0593019111843548	-0.0461360422491897	1.83303937527491E-06	0.01220940129528	-0.00152169632788945	0.6162109375	0.357421875	-0.171630859375	0	0	0	-0.351844131314098	-0.595478726776485	-0.37969394974529	0.614364140997264	0.00247518096695504	-0.0475093038768524	0.99886772874306	0.885572085231641	0.464076423573299	0.0198785045186921	-0.464495377089659	0.884520174517548	0.0432215864329691	24.6986825106919	-87.2731964019089	-87.0176510991914
27629	1651212415038	9.68273516811549	0.16061958175762	0.430770834563733	-0.0339854469071664	-0.00458895108779722	-0.119104617660676	0.00310068490508766	0.00153335875796367	-0.00299838271896296	0.614990234375	0.35595703125	-0.171142578125	0	0	0	-0.351821856118193	-0.595492059953876	-0.379693446687578	0.614364284957993	0.00244418614879388	-0.0475259420816612	0.998867013562526	0.885554429428137	0.464108536200114	0.0199152993046502	-0.464529200884375	0.884502431571241	0.0432211761788774	24.7391363231558	-87.272335204878	-87.0559598522477
27630	1651212415039	9.70694086379914	0.209789184752834	0.431476668084368	0.00836946717169689	0.0190735342984263	-0.0939194008101136	0.0137662937237902	-0.00455024358663689	-0.00129100640509001	0.612060546875	0.357666015625	-0.17041015625	0	0	0	-0.351789314598062	-0.59559559313984	-0.379592393730766	0.614345002574917	0.00235100810829808	-0.047353049231312	0.998875448436577	0.885449711184474	0.464307785512745	0.0199270990257455	-0.46472925636784	0.884407128556045	0.0430203351340557	24.8536596752579	-87.2825095636178	-87.157684074701
27631	1651212415040	9.66067932206261	0.209813210472514	0.355915153518315	0.0428044242370128	-0.0449095688117358	-0.143376477181093	0.00919858204084524	-0.00913772757764361	-0.00137069019150728	0.6142578125	0.354248046875	-0.171875	0	0	0	-0.351773460346216	-0.595650833880297	-0.379549514460564	0.614327016145723	0.00228450034091529	-0.0472667314118693	0.998879691033826	0.885403351380594	0.4643951973376	0.0199500890670997	-0.464817906735751	0.884365850082086	0.0429110333875126	24.9345395723162	-87.2876415069337	-87.232927992238
27632	1651212415042	9.70951029568056	0.210321121620875	0.356537253556029	0.0415269829828186	-0.0443960465497974	-0.0945471934718132	0.00620570520400754	-0.012195264184058	-0.00447485024622838	0.618408203125	0.358154296875	-0.17333984375	0	0	0	-0.351767421412983	-0.595770035401062	-0.37947755779514	0.614259333897756	0.00210969609610714	-0.0470502855444742	0.998890294182783	0.885340241977086	0.464512928724595	0.0200098721548986	-0.464938926224013	0.884315560011178	0.0426354923013573	25.1418057939207	-87.3005099482069	-87.4326240757673
27633	1651212415042	9.78283707720206	0.186585427285018	0.358054768822722	0.0190490476032795	-0.0567189047132682	-0.0217048441154954	0.00159333883321216	-0.00762665926583969	-0.00302653655157508	0.607421875	0.359619140625	-0.16650390625	0	0	0	-0.351767124136694	-0.595809584386644	-0.379464701272744	0.614229085942372	0.00203495928200439	-0.0469840651547683	0.998893566183231	0.885328961285843	0.464532861729174	0.0200462136633137	-0.46496073947082	0.884308610155548	0.0425416590592291	25.230457001198	-87.304493384586	-87.5199729266115
27634	1651212415044	9.78202428076552	0.186803304734921	0.38185366069306	0.00631275646479027	-0.0346404874891064	-0.0214940286538514	0.00308672543002716	-0.00457166773392136	-0.00147442810114423	0.61279296875	0.354736328125	-0.168701171875	0	0	0	-0.351743164623921	-0.595888617382563	-0.379456187181823	0.614171396129517	0.00185951536666171	-0.0469027764198557	0.998897728381996	0.885301768585919	0.464579496299565	0.0201660644818946	-0.46501324792015	0.884288426466248	0.0423870036284932	25.4432623373291	-87.3095690931499	-87.7296309217607
27635	1651212415044	9.78212328910835	0.162704579443727	0.381760912264241	-0.0154357528086152	-0.0458676970479917	-0.0218851432741403	0.0122767331099168	0.00307836644782153	-0.00436905464127217	0.617431640625	0.353271484375	-0.16845703125	0	0	0	-0.351685512771133	-0.595918307885408	-0.379434678274221	0.614188892244751	0.00182139049985997	-0.0469374581002037	0.99889616956105	0.885240800813747	0.464693250059686	0.0202214718455769	-0.465129451992972	0.884226813875296	0.0423973408677938	25.4988743967291	-87.3076670258132	-87.7777736744759
27636	1651212415046	9.75749093568462	0.211754989254105	0.381513607462816	0.0286229962922916	-0.0219801975238763	-0.0455117364982911	0.0122120414859248	0.00918231209222323	-0.0013172526761844	0.618896484375	0.359130859375	-0.1708984375	0	0	0	-0.35166236495553	-0.595913789297851	-0.37938090250925	0.614239747663587	0.00191377307188656	-0.046940754743143	0.99889584192586	0.885182564559518	0.464807423770301	0.0201466177769213	-0.465239900344395	0.884166627029181	0.0424406735971193	25.3937250893028	-87.3072674173584	-87.6653458725294
27637	1651212415046	9.78196400567714	0.187756747252421	0.382928613434678	0.00663491126783565	-0.0335655192912204	-0.0214904975152042	0.00159733875952979	0.00305580501200969	-0.00455089644475909	0.613525390625	0.352294921875	-0.168212890625	0	0	0	-0.351637249368764	-0.595923400677128	-0.37939135689578	0.614238344370128	0.00187499767637095	-0.046975706958831	0.998894272352901	0.88517116875317	0.464826886338297	0.020198211435417	-0.46526173966044	0.884154538919957	0.042453090763554	25.4440385333908	-87.3053538697992	-87.7142982041724
27638	1651212415048	9.75848623758303	0.163619467350141	0.357916021460526	-0.00320692915210565	-0.0653239753358355	-0.0464879300737397	0.00157452269198863	0.00152958393311747	-0.00302525138046846	0.614501953125	0.355712890625	-0.162109375	0	0	0	-0.35164134387685	-0.595943630890763	-0.379360515677487	0.614235421660236	0.00187357589129086	-0.046916494134257	0.998897057905133	0.885150171099367	0.464867928842789	0.0201738280001291	-0.465301691718548	0.884136104517606	0.0423991081544341	25.445471284786	-87.3087508152201	-87.7131500672807
27639	1651212415048	9.70946731831513	0.212543084240654	0.356389777883355	0.0403906068733877	-0.0417648094768776	-0.0945307397803425	0.00615148103210813	0.00153936252212728	-0.00294705517192384	0.609375	0.355712890625	-0.168212890625	0	0	0	-0.351610049471049	-0.59596366393275	-0.379349510227331	0.614240696692349	0.00184252072427199	-0.0469301881871911	0.998896472390455	0.885117441620558	0.464928644402501	0.0202106445500923	-0.465364072159055	0.884103451554606	0.0423953687656372	25.4879881168971	-87.3080364319858	-87.7516717155284
27640	1651212415050	9.71123326131769	0.188513223382206	0.307581788243074	0.0415499358277475	-0.096786929309537	-0.0953265513810741	0.00465847172736446	-0.00151604495789348	-0.0044987033836471	0.61767578125	0.35546875	-0.17431640625	0	0	0	-0.351605399091622	-0.595954519094705	-0.379393668332076	0.614224957918311	0.00179731120026014	-0.0469844668779873	0.998894003157813	0.885147772984985	0.464868175518303	0.0202731193950311	-0.465306554490876	0.884132365238642	0.0424237090004408	25.5418478507535	-87.3050258165443	-87.8093151373948
27641	1651212415052	9.73467999086496	0.213408897148138	0.332954871789623	0.0514371194457141	-0.0640607283804308	-0.0703238267655664	0.00309348387823151	0.00458499888976862	-0.00299942917865727	0.6103515625	0.3603515625	-0.17822265625	0	0	0	-0.351577514102422	-0.5959590662879	-0.379397738959149	0.614233993327869	0.00178029396387855	-0.047026362456285	0.998892062130605	0.885129590585487	0.464901214500493	0.0203093236208389	-0.465341206453256	0.884112765426502	0.0424520857736313	25.5667224113211	-87.3026615735373	-87.8319683416905
27642	1651212415051	9.73307972340975	0.189302344232884	0.38256532848683	0.00523802027909571	-0.0298164461132587	-0.0702997731438657	0.00765373831234336	0.0122255282123892	-0.00292164856788605	0.6162109375	0.355224609375	-0.164794921875	0	0	0	-0.351498249132247	-0.596084401002777	-0.379302275271455	0.614216697682523	0.00162634171011677	-0.0469023353063607	0.998898155947568	0.88499282845644	0.465157529661725	0.0204001514619567	-0.465601813348392	0.883984526754745	0.0422647354762523	25.7654642193117	-87.3100910418965	-88.0140605787773
27643	1651212415051	9.70936881828652	0.213989065638011	0.358203445475192	0.0383266127280735	-0.0395719731739144	-0.0945132040564491	0.00311643135895772	0.00611099452558022	-0.00452523741253209	0.613525390625	0.3564453125	-0.16259765625	0	0	0	-0.351462772561829	-0.596088155042096	-0.37931291175951	0.614226787021035	0.00160125278206372	-0.046962710806554	0.998895359776603	0.884973893455996	0.465191268951349	0.02045216841243	-0.465637889234612	0.883963566605058	0.0423056618433242	25.8008918386526	-87.306679459703	-88.0471847414219
27644	1651212415054	9.73280823191212	0.238816804599727	0.383578090723968	0.0491756594813757	-0.00778964495802142	-0.0695234628706913	0.00308433352868757	-0.00304546720086927	-0.00147280466604117	0.61328125	0.3583984375	-0.1708984375	0	0	0	-0.351490442396876	-0.596035563929167	-0.379359375258739	0.614233294309734	0.00165614186987884	-0.0470287094854471	0.998892165190137	0.885031925684384	0.465081866613895	0.0204290936246803	-0.46552738664175	0.884017623031955	0.0423921508705774	25.7297638589235	-87.3027870518054	-87.9831310666605
27645	1651212415054	9.75742552123372	0.190404378424449	0.384274493285517	0.00557935958167641	-0.0307230264152164	-0.0458916506641529	0.00465560080995552	9.96433136037618E-06	-0.0044983234840964	0.62451171875	0.359130859375	-0.1708984375	0	0	0	-0.351461963927949	-0.596060075038578	-0.379355130730751	0.614228426275737	0.00160414346651871	-0.0470365207125537	0.998891882259034	0.88500629908095	0.465128345400327	0.0204810373807947	-0.46557628516794	0.88399275337777	0.0423737497138282	25.7964558170423	-87.3024425881332	-88.0467296444451
27646	1651212415055	9.73280674072352	0.23950522219054	0.383186520093798	0.0487093103712966	-0.00680602640155334	-0.0695203835253721	0.00616536156084708	-0.00456475564718153	-0.00294571380654059	0.62255859375	0.348876953125	-0.167236328125	0	0	0	-0.351443432376899	-0.596130054368252	-0.379297499038389	0.614206707339861	0.00152473100425837	-0.046922151072814	0.998897385587762	0.884946120873637	0.465241842124736	0.0205034506141247	-0.465690925771662	0.883939104279861	0.0422329442360994	25.895866286587	-87.3091507017026	-88.1388337850367
27647	1651212415055	9.73472915494451	0.190971476175491	0.333506421762513	0.028086826963057	-0.0726037377255948	-0.0706861286577585	0.00160920171990897	-0.0137317613762503	-0.00302250496726678	0.6162109375	0.361328125	-0.171630859375	0	0	0	-0.351454816968067	-0.59618847435876	-0.379273478657069	0.614158320841688	0.00142186285827903	-0.0468013033151641	0.998903206679213	0.884934547852082	0.465262280034616	0.0205391527289338	-0.465713242590163	0.883934753692258	0.0420776293434323	26.0181709622128	-87.3162643762567	-88.2598414049737
27648	1651212415056	9.73654771665708	0.16677165581836	0.283375729389811	0.0302277566220001	-0.12623229195344	-0.0714539919854236	0.00310877637587772	-0.0137280628433694	-0.00147077074436888	0.61083984375	0.35546875	-0.169921875	0	0	0	-0.351505943003957	-0.596231324030096	-0.37918522451503	0.614141958986442	0.00145354750961046	-0.0465894056013553	0.998913066530492	0.884904820808142	0.46532427508477	0.0204151200668378	-0.4657696268652	0.883913313794145	0.041903560556436	25.975018227435	-87.3283568048605	-88.2130029243776
27649	1651212415056	9.75929726678181	0.167052815211342	0.332480114319933	0.00714919403167862	-0.0832275788161994	-0.0466567014395665	0.00612158921165337	0.00306602051088015	-0.00142243037531818	0.61376953125	0.353271484375	-0.17138671875	0	0	0	-0.351476726022516	-0.59624355717173	-0.379171861847884	0.61415505434581	0.0014446394280235	-0.0466091640657015	0.998912157720598	0.884872097612656	0.465385620494605	0.0204351438319282	-0.465831819311973	0.883879974918512	0.0419154631913914	25.9907306833947	-87.3272399247904	-88.224699938295
27650	1651212415058	9.70963826780644	0.166916773162667	0.355952712691604	-0.00400839221010845	-0.0596940438788322	-0.0952772505764354	0.00149757041880824	0.0122122980196324	2.30001372754069E-05	0.615234375	0.3583984375	-0.17236328125	0	0	0	-0.351467506514143	-0.596251091152989	-0.379141544840575	0.6141717326119	0.00147265054954518	-0.0465902704720217	0.998912998212409	0.884841807527533	0.465444561681266	0.0204043047600945	-0.46588926468826	0.883849934490397	0.0419104563272031	25.9593549594774	-87.3282728292731	-88.1895666858081
27651	1651212415058	9.73222844975622	0.191630520456729	0.406226260972499	-0.0054829109588558	-0.00532255290410996	-0.0701027855557097	0.0168308391938166	0.00156431323559741	-0.00276474039014538	0.6142578125	0.351806640625	-0.17626953125	0	0	0	-0.351404337914311	-0.596290832062423	-0.379097350516095	0.61419657580044	0.00144488485996172	-0.0466022190734713	0.998912481394226	0.884758959254547	0.465600380253364	0.0204418670070234	-0.466046667541515	0.883767231280584	0.0419044697866174	26.0040772632315	-87.3276376493567	-88.2241340797224
27652	1651212415059	9.73212051467703	0.216298231477914	0.405963815339786	0.0155046995305753	0.00821585270929306	-0.0697179312294356	0.00919413627011007	-0.00608349947633104	-0.00136700659063052	0.61328125	0.354248046875	-0.173095703125	0	0	0	-0.351390344244669	-0.596421299659263	-0.378955665332892	0.614165338485064	0.00134847404972166	-0.0463294973357734	0.998925302159451	0.884636240544259	0.465834859367436	0.020410921435347	-0.466279855380282	0.883658000288989	0.0416129185687366	26.1277119633291	-87.3434394404604	-88.3328102093663
27653	1651212415059	9.75737169341094	0.216558533148448	0.381866677657034	0.0265041885087299	-0.013570433687779	-0.0454904521534729	0.00156233257356761	-0.0045751940158585	-0.0014978546103866	0.612548828125	0.357421875	-0.17724609375	0	0	0	-0.3513896198385	-0.596449354127644	-0.378941492129167	0.614147253167668	0.00130302700727356	-0.0462795294051074	0.998927678702848	0.884623976604434	0.465857361225349	0.0204288768343233	-0.466303251261639	0.883648756096107	0.0415470060609418	26.1835831753525	-87.3463788972225	-88.3872301552316
27654	1651212415062	9.73547745813629	0.21654903308762	0.307535418005623	0.0595869450763269	-0.0758742801817654	-0.0704245169072788	2.95732550330809E-05	-0.00152657109509769	-0.00152506488680494	0.615234375	0.34814453125	-0.16796875	0	0	0	-0.351377652165698	-0.596571646081507	-0.378844445612999	0.614095190241954	0.00115831423956056	-0.046049215104153	0.99893850065778	0.884536992499136	0.466021263173402	0.0204570567494345	-0.466468613315736	0.883574361363297	0.0412720333002451	26.3659542078924	-87.3598055161411	-88.5590954069184
27655	1651212415062	9.75987681044298	0.216886915534948	0.308218563864246	0.0592086705012741	-0.0760302974430985	-0.0460119966436032	5.55817067052067E-05	-0.00152704498734471	-0.00305072633057895	0.619140625	0.358642578125	-0.177978515625	0	0	0	-0.351371158761261	-0.59659106442342	-0.378844194598095	0.61408019578897	0.00111235613890259	-0.0460316471584828	0.998939362585987	0.884531221610769	0.466030770020178	0.0204899826783964	-0.466479668002349	0.883570262545247	0.0412348212817982	26.4232272433808	-87.3608778309045	-88.6157151722421
27656	1651212415063	9.73463097623137	0.217081825524194	0.332012167870159	0.0487372473474872	-0.0521362268569823	-0.0702388349913381	-0.00301366539449343	0.00609622545804378	-0.00310569930464856	0.617919921875	0.35693359375	-0.173828125	0	0	0	-0.351397336029845	-0.596611564067962	-0.378764026146371	0.614094753559171	0.00118490823554093	-0.0458985740707085	0.998945402357281	0.884489431103033	0.466115449457039	0.0203674751625372	-0.466558723270187	0.883532517044924	0.0411491077030158	26.3339190339069	-87.3684040890533	-88.5211922925437
27657	1651212415063	9.75816130957213	0.217504718545208	0.358069288893983	0.0369980374716033	-0.030669765073401	-0.0456548302744615	-0.00302450055627045	0.0106745239243401	-0.00310742250816669	0.61328125	0.349365234375	-0.1611328125	0	0	0	-0.351377383514396	-0.596587907461652	-0.378793665139591	0.614110871321474	0.00119645584128528	-0.0459876195794497	0.998941293239415	0.884497611420265	0.466098587209385	0.0203980977853458	-0.466543185445104	0.883536782396087	0.0412336060502085	26.3214158507762	-87.3632813154603	-88.5096769551951
27658	1651212415064	9.71015728338692	0.217558262551643	0.332959144645906	0.0501289170636245	-0.0512586243265715	-0.0946521988055231	0.00765869206432593	0.00917400313884997	-0.00292401585477285	0.61572265625	0.362060546875	-0.172607421875	0	0	0	-0.351384074245748	-0.596534368548377	-0.378783136108785	0.614165543894024	0.00134016588036645	-0.0460457479159856	0.998938433064957	0.884496455308558	0.466105136332105	0.0202983356811802	-0.46654498657901	0.883530299980531	0.0413519590140966	26.144924261244	-87.3597214431051	-88.3328715169616
27659	1651212415065	9.73272657500086	0.242419132337481	0.383390299896588	0.0486419172131892	0.00317879478780106	-0.0695181882401563	-0.00454284812243017	0.00761850234670292	-0.00313294424242887	0.617431640625	0.35498046875	-0.16943359375	0	0	0	-0.351374784339989	-0.596516704358613	-0.378811812858223	0.614170328809714	0.00133886372041153	-0.0461080946218586	0.998935559009829	0.884511808018694	0.466074742738186	0.0203272146895304	-0.466515882815836	0.883543082023664	0.0414071647023294	26.146909371923	-87.3561491191901	-88.3367412666737
27660	1651212415066	9.73280924323479	0.218372076322759	0.384081902386162	0.0263145245827705	-0.00758414623155748	-0.0698935625215355	6.40325236955278E-05	0.00610305723860912	-0.00457927560070164	0.616943359375	0.3662109375	-0.1767578125	0	0	0	-0.351339753282786	-0.596549362548987	-0.378816138186014	0.614155981209515	0.00125438298446245	-0.0461213823733325	0.998935055251992	0.884487405809191	0.466117422426051	0.020410229685675	-0.466562381132744	0.883519873346869	0.0413784716111753	26.2551518788612	-87.3555234670869	-88.442086205844
27661	1651212415066	9.75730179036485	0.19444479080044	0.385391370330506	0.00435811138726223	-0.0190876875169124	-0.0458613592689101	-0.00453177736006639	0.00304010521354108	-0.00313135749566503	0.615234375	0.35986328125	-0.166748046875	0	0	0	-0.35133904704073	-0.596545902011717	-0.378836771587015	0.614147019296737	0.00123137457310893	-0.0461432106826301	0.998934075815095	0.884502685598026	0.466087149036079	0.0204393902379255	-0.466533474561621	0.883534704248406	0.0413877216350777	26.2825341867776	-87.3543074590521	-88.4713715321457
27662	1651212415067	9.71005568204394	0.21887762397911	0.335050787202834	0.0470259573558202	-0.0501392047634122	-0.0946308480946332	-0.00757559127057528	-1.96063880526436E-05	-0.00318291486545763	0.616455078125	0.365478515625	-0.1728515625	0	0	0	-0.351294938001549	-0.59662062111432	-0.378885918548075	0.614069346020164	0.000978590374288046	-0.0461448482285291	0.998934279791641	0.884504064647733	0.466074654520938	0.020663398433634	-0.466531458727617	0.883541209788855	0.0412714019913005	26.5958040990972	-87.3545606576167	-88.7851147560218
27663	1651212415068	9.71101654734713	0.19473712221198	0.310532305008117	0.0366833858426103	-0.0829244380736824	-0.095178777111677	-0.0075680619199058	-0.00307180268660937	-0.00318194741822443	0.61474609375	0.3544921875	-0.173583984375	0	0	0	-0.351314589626165	-0.596630702552478	-0.378905569236602	0.614036182556877	0.000924748746446824	-0.0461133177159792	0.998935787109953	0.884533599418356	0.466017257434571	0.0206936529681883	-0.466475568856251	0.883573130930534	0.0412197277750725	26.6581494368824	-87.356432461361	-88.8511540271386
27664	1651212415069	9.73553604729655	0.17073307252234	0.311248828582761	0.0132427479211054	-0.0935792923138376	-0.0711394724589258	-0.00452434451322191	-1.19937146195042E-05	-0.00313020604852304	0.609619140625	0.353271484375	-0.1767578125	0	0	0	-0.351286255655736	-0.596718843225703	-0.378889811573382	0.613976464868677	0.000738265650530395	-0.0460205979372101	0.998940218195929	0.884497110401128	0.466080954546519	0.0208183933352206	-0.466545085341046	0.883544366953073	0.0410491774535026	26.8921812397012	-87.3619427159778	-89.0809359324657
27665	1651212415070	9.73371576582115	0.195528802963744	0.360264011474862	0.0119618700413321	-0.0388121391137065	-0.0704291647957937	-0.00298383632060857	0.00456987599840019	-0.00463074151231071	0.611572265625	0.35888671875	-0.169677734375	0	0	0	-0.351272863771975	-0.596717219066913	-0.378913627515373	0.613971007890135	0.000706046704384122	-0.0460628307704747	0.998938294950926	0.884505096385207	0.466063676121155	0.0208658637259915	-0.466529994712717	0.883551280584125	0.0410718712929726	26.93206991679	-87.3595496629802	-89.1218444902525
27666	1651212415071	9.75907046129467	0.171603757859228	0.336791774124373	7.8247039545648E-05	-0.0705709133806839	-0.0465544249609362	0.00463730457205282	-0.00304109749138792	-0.0029715777286284	0.611083984375	0.357421875	-0.171142578125	0	0	0	-0.351246136473128	-0.596833011026142	-0.378850156127945	0.613912915456256	0.000525832302599755	-0.0458914292540167	0.998946294963555	0.884432586224243	0.466197421629064	0.0209514794492033	-0.466667680394825	0.88348963818906	0.0408330171243382	27.1624241249601	-87.3695182054866	-89.3435233165626
27667	1651212415072	9.71003379785989	0.220706110085323	0.33448520902611	0.0436768371103378	-0.0469799318718815	-0.0945994323772474	0.00015477853082519	-0.00915795255277084	-0.00762585893536365	0.609619140625	0.356201171875	-0.167236328125	0	0	0	-0.351240094006217	-0.596885376202069	-0.378849369182247	0.613865945878114	0.000402006292656354	-0.0458253014204715	0.998949388177731	0.884425604013075	0.466207103665435	0.0210306314216352	-0.466681035994658	0.883487961571412	0.0407164880772364	27.3169815142365	-87.3733826888408	-89.4973808714
27668	1651212415073	9.76064835378579	0.197119373051664	0.286637768813724	0.0433592931541596	-0.101980074792629	-0.0464704108660552	-0.00295685765030238	-0.00611308603729798	-0.00462783251810575	0.6181640625	0.357666015625	-0.168212890625	0	0	0	-0.35124736502807	-0.596933167773442	-0.378884537007567	0.613793604878189	0.000234601657049527	-0.0457714070483953	0.998951912385613	0.884456216161517	0.466143592354798	0.0211507210235135	-0.46662313129046	0.883524266561691	0.0405921635456017	27.5219602726649	-87.3765405037293	-89.7063326653839
27669	1651212415074	9.71004060906902	0.221734652998111	0.333605940527155	0.0426022280733608	-0.046570226897312	-0.0945926900950198	-0.00450629272234473	0.00303953538682704	-0.00465632078265267	0.614990234375	0.35498046875	-0.1728515625	0	0	0	-0.351241240801158	-0.596934153279995	-0.378910217231722	0.613780298385153	0.000193327850608799	-0.045799467038031	0.998950635138381	0.884471037736647	0.466113276075745	0.0211989922165022	-0.466595055727556	0.883538806552926	0.0405984148167166	27.5719001724636	-87.3749421774069	-89.7581455674335
27670	1651212415076	9.7337130729755	0.197823103728209	0.35908228759091	0.00965200316575838	-0.0358427141213202	-0.0704152251651173	4.84350471466139E-05	0.00152567823588888	-0.0030516660898351	0.61328125	0.359375	-0.17822265625	0	0	0	-0.351253027188906	-0.596945946209156	-0.378883299728845	0.613778700658199	0.000205964982075119	-0.0457428574690995	0.998953226417027	0.884459140165547	0.466137512154424	0.0211624464584338	-0.466617602492714	0.883528952979497	0.0405536963901703	27.5572492872655	-87.3781858773441	-89.7420177683792
27671	1651212415076	9.70930741052185	0.198136192545849	0.358171637009319	0.00978636980614542	-0.0353258577105553	-0.0948248634179123	-0.00293833355843783	-0.00306110181359728	-0.00615439339552836	0.617919921875	0.3564453125	-0.16796875	0	0	0	-0.351249327361144	-0.596971126897948	-0.378897951792243	0.61374728170981	0.000123631555674547	-0.0457237623619511	0.998954114196797	0.884466589469664	0.466120504311975	0.0212256347808766	-0.466603511374635	0.883538914262082	0.0404987673570762	27.659289743672	-87.3792981013052	-89.8450794788882
27672	1651212415078	9.73538797397201	0.198773356810612	0.309765141955772	0.031518825350656	-0.07754149827097	-0.0707040870623778	0.00314619479710875	-0.006096791676387	-0.00452326511170358	0.615478515625	0.365478515625	-0.168701171875	0	0	0	-0.351231554302744	-0.597072143558198	-0.378832542123025	0.613699564671105	-1.84791691503761E-05	-0.0455575783426627	0.998961714338479	0.884399886393931	0.46624460058137	0.021279412001293	-0.46672994397716	0.883482019898691	0.0402825012977939	27.8454549418567	-87.3888390485021	-90.0232404438884
27673	1651212415079	9.73635028330939	0.174954089829568	0.285219489141019	0.0211630129021376	-0.110308823860486	-0.0712367529710107	0.00775083289655033	0.00307172720106648	-0.00749821260194311	0.610107421875	0.354736328125	-0.16650390625	0	0	0	-0.351179431739744	-0.597101438669766	-0.378829899185395	0.613702522517734	-8.44411566413572E-05	-0.0455982416243678	0.99895985566511	0.884357217316495	0.466321828412268	0.021360349399393	-0.466810780777304	0.883439161859494	0.0402857573228929	27.9334686352662	-87.3865025209202	-90.1061031344602
27674	1651212415080	9.78331201730553	0.200254608101523	0.33619435503767	0.0184292190941201	-0.0570798735933804	-0.0217361941433829	0.00310903608864334	0.00763804171638452	-0.00452666424327497	0.612548828125	0.354736328125	-0.175048828125	0	0	0	-0.351127861678589	-0.597092676956194	-0.378918014713395	0.613686155949413	-0.000197053498109084	-0.045761729971748	0.998952363849204	0.884385229506038	0.466260725757362	0.0215337281437546	-0.466757674817962	0.883462958864836	0.0403791197566164	28.0704957672868	-87.3771056907078	-90.246718469883
27675	1651212415081	9.75718051904394	0.200803804731848	0.385201072767662	-0.00420258319193696	-0.0133715013969873	-0.0458517924913817	-0.00750855886262344	0.0137121273269968	-0.00928904999803748	0.609130859375	0.349365234375	-0.181884765625	0	0	0	-0.35109680271444	-0.597063382156416	-0.378985823682957	0.61369055578442	-0.000229873729413826	-0.0459059525548456	0.998945739606562	0.884414130526795	0.466201561142097	0.0216275313710468	-0.466702895729823	0.883486699338878	0.0404927056232798	28.1070904574522	-87.3688249750807	-90.2869058084876
27676	1651212415083	9.75894233780372	0.177343384039608	0.337530341437652	-0.00382640719108432	-0.0642303519689837	-0.0465114151745904	0.00931268937014085	0.00918067809698579	-0.0105237989960559	0.611083984375	0.355712890625	-0.173095703125	0	0	0	-0.351037363006876	-0.597218858127111	-0.378820091093225	0.613675601482289	-0.000350051837059079	-0.0456530283205841	0.998957295618222	0.884237560700258	0.466536216714599	0.0216308747046057	-0.467037272292661	0.88332313424861	0.0402048105410575	28.2810103558772	-87.3832877141732	-90.4393158694078
27677	1651212415083	9.78472464580037	0.227202078036574	0.289824405535919	0.0617029614084455	-0.0847297687116957	-0.0215960581719106	0.0138715704345711	-0.00301443387060448	-0.00738966596665323	0.61474609375	0.357177734375	-0.172607421875	0	0	0	-0.350978311715408	-0.597279097089346	-0.378787467910536	0.613670888212454	-0.000444531331879244	-0.0456376655141668	0.998957960015492	0.884165701991454	0.466668557718653	0.0217133290573253	-0.467173216070714	0.883254018232133	0.0401438097710755	28.4084502123741	-87.3841216589176	-90.5580689424865
27678	1651212415085	9.78372251894679	0.252243105528709	0.314253059188162	0.0712271266757518	-0.0503781888878278	-0.0210584576279835	0.0122711215375276	0.00461247070633413	-0.00436751337025445	0.616943359375	0.35498046875	-0.16845703125	0	0	0	-0.350923407627356	-0.597358846240264	-0.37871694815131	0.613668187199453	-0.00052823599708357	-0.0455586822694892	0.99896152450262	0.884067489865406	0.466852470324326	0.021758775589533	-0.46735895661666	0.883160901207669	0.0400303415954101	28.5266047606516	-87.3886003111477	-90.6642935124819
27679	1651212415086	9.75844074057994	0.252500978085935	0.338609371866249	0.0599636333886485	-0.0282494106352726	-0.045334345507273	0.00306864592338794	0.012216744002581	-0.00300364456730214	0.615234375	0.360595703125	-0.17919921875	0	0	0	-0.350881782502528	-0.597344511350902	-0.378729545917533	0.613698167274353	-0.000513068383896864	-0.0456566426226649	0.998957060010719	0.884045870266289	0.466891811513895	0.0217930173769963	-0.467399867379051	0.883135044784035	0.0401230189336026	28.508817361557	-87.3829920457994	-90.6438365586732
27680	1651212415087	9.68590638160117	0.27662218509085	0.312823019487948	0.0932283324562891	-0.0360986117547819	-0.11829899743354	0.00301560394047286	0.012217790196288	4.76627907591159E-05	0.61279296875	0.3603515625	-0.169189453125	0	0	0	-0.350846981981276	-0.597381318912923	-0.378668443721015	0.613719940020195	-0.000508460912477221	-0.0456138834708179	0.998959015726977	0.88397161480119	0.467033209929069	0.0217753312058976	-0.467540293122718	0.883062486157158	0.0400839100969745	28.5127421939423	-87.3854473240674	-90.6386533125288
27681	1651212415088	9.63566587076781	0.227695139699612	0.360620981972286	0.0276720888937067	-0.0148606021322169	-0.167638748685258	0.00310004992078254	0.00153398944999635	-0.00299878014683139	0.61279296875	0.353515625	-0.170654296875	0	0	0	-0.3508255627493	-0.597400105017255	-0.378661830364814	0.613717978612145	-0.000543334499718134	-0.0456166901597981	0.998958869206579	0.883949602276477	0.467073285492811	0.0218093240199944	-0.467581870288915	0.88304114488387	0.0400690780940179	28.5591490646266	-87.3852632971204	-90.682410353572
27682	1651212415089	9.68447484969813	0.228207205804343	0.361877540555107	0.0267424656810372	-0.0150894399667548	-0.118815892984781	5.80033962449931E-05	-0.0106832881798623	-0.0015206230317454	0.61181640625	0.352294921875	-0.176513671875	0	0	0	-0.350853286167137	-0.597449456600298	-0.37865123961787	0.61366062048137	-0.000645228912280998	-0.0454924989659149	0.998964471949572	0.883960919633854	0.467050420643143	0.0218402641269448	-0.467560345024813	0.883059645275957	0.0399122367874603	28.6877970431914	-87.392309480068	-90.8125826390888
27683	1651212415089	9.70902599459229	0.204300914256224	0.362312891561742	0.00470845005272648	-0.0265317096905256	-0.094793087545062	-0.00752652327582301	0.00150127761029237	-0.00623604160813752	0.60400390625	0.35986328125	-0.1728515625	0	0	0	-0.350854847248959	-0.597453851235802	-0.378686335413978	0.61363379240077	-0.000708889971517634	-0.0455103048335785	0.998963617770419	0.883988623688137	0.466995071065284	0.0219024380077636	-0.467507872302662	0.88308800000605	0.0398995436108363	28.7641251769406	-87.3912340092184	-90.8923939152292
27684	1651212415090	9.73426175964423	0.205018348477737	0.338767920736515	0.0139643070264327	-0.0466501457720238	-0.0704967990387644	0.00163640718594737	-0.00152355072443767	-0.0060754044531265	0.61767578125	0.359130859375	-0.17724609375	0	0	0	-0.350816432004408	-0.597587857932828	-0.37863786869978	0.613555170684299	-0.000955767124514312	-0.0453431640569633	0.998971012583702	0.883917724573569	0.46712239084437	0.0220483141424633	-0.467641468107661	0.883029257411748	0.0396331661739034	29.0876112418717	-87.400559330365	-91.207531840503
27685	1651212415092	9.78204814958287	0.230415146440965	0.364842535283875	0.0234079138053215	-0.0139909096147896	-0.0211643194020414	0.00012813439752218	0.00152353682249864	-0.00762894841766836	0.61328125	0.353515625	-0.181640625	0	0	0	-0.350790174807196	-0.597609887443054	-0.378654090240353	0.613538715675945	-0.00103299525089726	-0.0453665346577044	0.998969874647861	0.883909242188334	0.467134666405975	0.022128149850884	-0.467657336620368	0.883021563142673	0.0396173513780754	29.1854078331185	-87.3991221470352	-91.3043985605281
27686	1651212415093	9.80656618027586	0.206970463245369	0.366014923523482	0.000456419144568079	-0.0224167393372623	0.00286362329455692	-0.00290588352464323	0.00456590345527827	-0.00920905915648078	0.612060546875	0.3603515625	-0.17724609375	0	0	0	-0.350749728408087	-0.59775919079549	-0.378521494793366	0.6134982117501	-0.00118914440216636	-0.045116772679497	0.998981012211232	0.883772267979321	0.467392212002098	0.0221607425523743	-0.467915766229647	0.882898067153153	0.0393171556823481	29.4073703172754	-87.4132229135958	-91.5097973731908
27687	1651212415094	9.75757423966435	0.231895289514684	0.364970695215567	0.0224496524280077	-0.0101837612466585	-0.0455677113985988	-0.00447226386302654	0.00913997678872517	-0.00771195278594823	0.61083984375	0.35498046875	-0.179443359375	0	0	0	-0.350723068325506	-0.597750194048704	-0.378564010704478	0.613495985853549	-0.00123200937184753	-0.0452054376137772	0.998976951967889	0.883784566209491	0.467365238287365	0.0222390325890381	-0.467892426400352	0.882907810844791	0.0393760697181564	29.4571306852125	-87.4080735433908	-91.5611278649535
27688	1651212415096	9.75737008451554	0.257122450808286	0.365775685012793	0.0419960517908116	0.00378043770763517	-0.0451699342350302	-0.00138955030099729	0.0076230221174721	-0.00918367463221197	0.60205078125	0.353515625	-0.16748046875	0	0	0	-0.350646974775559	-0.597901186968476	-0.378486373277882	0.613440245619239	-0.00147552827071379	-0.0450530627238132	0.998983505547277	0.883662032424661	0.46758952864741	0.0223929710045551	-0.468123098412629	0.882796836332402	0.0391217394048715	29.7864770078867	-87.4163901494013	-91.8758177529449
27689	1651212415096	9.7349518778956	0.208853292370802	0.31675942099257	0.0217522675715757	-0.0616344333896152	-0.0705637595739734	-0.00143329740157683	0.00457169869286866	-0.0061311532556683	0.6171875	0.35302734375	-0.172119140625	0	0	0	-0.35062428611512	-0.597910173577707	-0.37850632665221	0.613432143763912	-0.00152722996694815	-0.045092239229635	0.998981660257027	0.88365955031624	0.467591141341025	0.0224571519631885	-0.468127617967076	0.882793981912345	0.039132068637076	29.8506965958784	-87.4140457405988	-91.939810421936
27690	1651212415098	9.73476064486181	0.23393238903816	0.31733857027771	0.0436889360037492	-0.0495808172536326	-0.0701709584868819	-0.00294196415314374	0.00761858154797177	-0.00768475384678269	0.61181640625	0.354736328125	-0.168212890625	0	0	0	-0.350649665720012	-0.597880637243872	-0.378552228092773	0.613418100601298	-0.00152609157028089	-0.0451282862900531	0.998980034245451	0.883714868650178	0.467486045072884	0.0224683908794895	-0.468023185292266	0.882847798569288	0.0391671110786122	29.8409333602946	-87.4119816804769	-91.9368184654082
27691	1651212415098	9.73299911136812	0.234771846999099	0.366883416806438	0.0206896320554345	-0.00611660462747771	-0.0699707295835452	-0.00138951652843809	0.00762315950835768	-0.00918359851807421	0.6171875	0.358642578125	-0.177490234375	0	0	0	-0.350612072819859	-0.597885560257886	-0.378586593931305	0.61341358162627	-0.00158990453878541	-0.0452085258960238	0.998976306720968	0.883712108260344	0.46748673057691	0.0225625009378047	-0.468028184960708	0.882843330337166	0.0392080624561514	29.9185178042989	-87.4072561554228	-92.014161939956
27692	1651212415101	9.78362668970177	0.211319828122051	0.320798110910773	0.021190669521351	-0.0600792473479494	-0.0217292880702722	-0.00606209149414592	0.0121875500313589	-0.00468894865718344	0.615966796875	0.35986328125	-0.176513671875	0	0	0	-0.35060737319742	-0.597883045338142	-0.378587336959642	0.613418260447633	-0.00158501521800875	-0.045220363320012	0.998975778719367	0.883709179341132	0.467492196306822	0.0225639699620253	-0.46803373177046	0.882839829829528	0.039220667913589	29.9121688637146	-87.4065874833857	-92.0074478077347
27693	1651212415100	9.73478943204595	0.211514464904671	0.319969765996171	0.0216038287138978	-0.059247825236379	-0.0705486225208904	0.00313889179784565	0.00611321690563056	-0.00605075702038303	0.609375	0.35693359375	-0.17578125	0	0	0	-0.350568212367433	-0.597895767876898	-0.378595624912906	0.613423126421888	-0.00162799289659862	-0.0452721227141305	0.998973365282621	0.883685124820762	0.467534562548617	0.022628146035146	-0.468078999539227	0.882814741453398	0.0392451584647937	29.9670781597675	-87.4035332486811	-92.059478130143
27694	1651212415101	9.73391218656971	0.212053736193031	0.344434308465368	0.00866515500244618	-0.0358363948263773	-0.0704448649710496	0.00619886294732008	-0.00455894054748553	-0.00446728490850082	0.6005859375	0.35498046875	-0.18115234375	0	0	0	-0.350513534671852	-0.598048084846078	-0.378494109354147	0.613368534739103	-0.00183860520770002	-0.045064858277609	0.998982371255524	0.88356065077013	0.467764942392112	0.0227274081137432	-0.468313138766738	0.882703300785334	0.0389575004475662	30.2588506998681	-87.4149488000672	-92.336319919243
27695	1651212415102	9.75899949554616	0.237070662683293	0.320874341699814	0.0411607276964683	-0.0459599498702751	-0.0457314676307252	6.55152692934962E-05	0.00457709886178903	-0.00457872225698788	0.61669921875	0.35986328125	-0.173828125	0	0	0	-0.350491044048943	-0.598057754665639	-0.378504013565221	0.613365846653361	-0.00187673240137493	-0.0450950958156012	0.998980935858575	0.883550643152907	0.467781479513001	0.0227760490144971	-0.468331868293817	0.882692992924499	0.0389659002515513	30.3068123001259	-87.4131259854667	-92.3831156944185
27696	1651212415104	9.73387502013157	0.212802140415903	0.345022593995534	0.0062541438640526	-0.0332996797224018	-0.0704340179303031	1.15200457557432E-06	0.00763013937744896	-0.00152861057042747	0.60888671875	0.3642578125	-0.171630859375	0	0	0	-0.350431453730175	-0.59819068575299	-0.378424260117414	0.613319475534172	-0.00207403433408831	-0.0449402742566981	0.998987522510323	0.88343960072178	0.467985751182289	0.0228868645054702	-0.468540468111479	0.882592606155344	0.0387313994298484	30.5793677437061	-87.4215009958749	-92.6423771444244
27697	1651212415105	9.73368196326224	0.237592532100735	0.345517103555571	0.0276212373674678	-0.0215611353651411	-0.070040442834177	0.00620042695587086	0.00307139406468884	-0.00599551701115978	0.59912109375	0.355224609375	-0.17333984375	0	0	0	-0.350388626370609	-0.598219989670686	-0.378417083772201	0.613319790303448	-0.00213329066450427	-0.0449624120365131	0.998986401596538	0.88340033382912	0.468056642438922	0.0229527701901632	-0.468614232884085	0.882553885591504	0.038721308937044	30.6581244623881	-87.4200738215577	-92.7164236122341
27698	1651212415106	9.75839932082397	0.18938364966199	0.346567940917759	-0.0188024194556689	-0.0443860628769263	-0.0464184147355304	-0.00147144606125505	-6.15615059167848E-06	-0.00307838269133867	0.612060546875	0.35107421875	-0.17333984375	0	0	0	-0.350326136478432	-0.598326104517671	-0.378468081138693	0.613220500564031	-0.00246443157619045	-0.0449502272270225	0.998986187917153	0.883387317426487	0.468067019318583	0.0232403278000504	-0.468637145334258	0.882549002887917	0.0385549415056084	31.0809285941963	-87.4198018493644	-93.1381444290944
27699	1651212415107	9.71115196349002	0.213807277938275	0.296306265352794	0.0260154863054413	-0.0752991487116016	-0.0949902787078969	0.00921404196677967	0.00613475004362899	-0.00441693120577314	0.609130859375	0.36279296875	-0.1640625	0	0	0	-0.350272567392844	-0.598349578114507	-0.378452888432228	0.613237573978895	-0.00249761278501068	-0.044992176485784	0.998984217085259	0.883333948184156	0.468165079538658	0.0232936533405884	-0.468737557611683	0.882494851177974	0.0385738218044347	31.1266050023581	-87.4172947140064	-93.1773512363673
27700	1651212415108	9.75904804583769	0.214773045261836	0.323015809662193	0.0139030271071153	-0.0544919553243039	-0.0460951879675111	0.0123195764107983	0.0061443602768376	-0.00741395927385839	0.61181640625	0.35205078125	-0.173828125	0	0	0	-0.350229725310494	-0.598340993329074	-0.378497818145272	0.613242690025884	-0.00254508527750813	-0.0451084368653686	0.998978854363041	0.883335643807968	0.468157082336409	0.0233898832109907	-0.468734106844481	0.882493158716726	0.0386543904218259	31.1782534059258	-87.4104849663503	-93.2292895383066
27701	1651212415109	9.78340266425881	0.21548294260532	0.324835542079904	0.0133553930809691	-0.0544289616390171	-0.0216824244311802	0.00916005238414491	0.0137660155399744	-0.00289535647964752	0.61669921875	0.361083984375	-0.175048828125	0	0	0	-0.350166405870521	-0.598338025347499	-0.37849177408718	0.613285473960794	-0.00252883125681019	-0.0452112624594395	0.998974247295344	0.883282765785834	0.46825493029612	0.0234281010562889	-0.468833830560683	0.882435981814092	0.0387501912459546	31.1568713779304	-87.4046490304628	-93.2014266387651
27702	1651212415111	9.75877372052559	0.239961054099919	0.325558653714	0.0351308636500805	-0.0411878068395551	-0.0456866272791174	0.00758567867147174	0.0198657816472158	-0.00140046199347956	0.615966796875	0.36376953125	-0.174072265625	0	0	0	-0.350116209383097	-0.598347247774129	-0.378428899975314	0.61334393179668	-0.0024557225108012	-0.0452319982617296	0.998973491019757	0.883196279403677	0.46842041518137	0.0233804766592829	-0.468997123098269	0.882347086454397	0.0387984220166734	31.0737601394498	-87.4036922819591	-93.1076348703574
27703	1651212415111	9.73324334333845	0.264538433997739	0.351185730965634	0.0453778923022221	-0.0076199928531917	-0.0696272530733015	0.0106756845823712	0.0244535333706632	-0.00439965355090777	0.60888671875	0.359130859375	-0.169677734375	0	0	0	-0.350023646563577	-0.598317173194433	-0.378441205299645	0.61341850415382	-0.00240237121605147	-0.0454353586039004	0.998964392158737	0.883135993656408	0.468531401955375	0.0234337809633659	-0.469110909403148	0.882277707737346	0.039000014213917	31.0002248211056	-87.3922089991007	-93.0266664090604
27704	1651212415113	9.683658229277	0.240111458514887	0.3757617276041	0.0115012154518748	0.00306676292431765	-0.118774569661459	0.00149916326264137	0.0152658336381363	-0.00150808090111814	0.617919921875	0.356201171875	-0.1708984375	0	0	0	-0.349946613775078	-0.598330502491282	-0.378484588829992	0.613422687316078	-0.00249994838655529	-0.0455746006452996	0.998957809936979	0.883109533705958	0.468573567051098	0.0235873639615706	-0.469160209028547	0.88224813291785	0.0390759545917739	31.1163822471924	-87.3839332586575	-93.139755128271
27705	1651212415114	9.68432980130644	0.26471839619265	0.352295403109193	0.0442613053215357	-0.00677557334805776	-0.118440274825971	-0.00453762131725652	0.00456036430649392	-0.00313754377960849	0.61083984375	0.361083984375	-0.1796875	0	0	0	-0.349941906887884	-0.598330592011737	-0.378504105096048	0.613413243166461	-0.00252970982335138	-0.0455969646816845	0.998956714467662	0.883120757953459	0.468550608458222	0.023623170514077	-0.469138921258849	0.882259170609888	0.0390823289331123	31.1507099225353	-87.3825584775587	-93.1755021593828
27706	1651212415115	9.68554317493536	0.216307307149923	0.328333511096162	0.0116902074744463	-0.049668479815685	-0.119301230941483	0.00162584853212408	0.00305458034874358	-0.00607673755240057	0.60986328125	0.35791015625	-0.175537109375	0	0	0	-0.349897904658684	-0.598419074943859	-0.378443548298746	0.613389393297481	-0.00264981701121991	-0.0454953561153392	0.998961035797565	0.883037677837917	0.468703874133033	0.0236883492735145	-0.46929461747225	0.882183003092115	0.0389321341175959	31.3185210754384	-87.3879858165626	-93.3333512398819
27707	1651212415116	9.70884736992062	0.241447720684431	0.354024825563828	0.0212735765469429	-0.0165885588076377	-0.0944251694762901	0.00616391321373297	0.00612419535544276	-0.00446970678433755	0.617919921875	0.35546875	-0.170654296875	0	0	0	-0.349853447821329	-0.598437294624021	-0.378437554483555	0.613400673953915	-0.00268435648082255	-0.0455370002812029	0.998959046125352	0.882998403597533	0.46877516480807	0.0237416112211301	-0.469368313240777	0.882142973935947	0.0389507389012215	31.3635257931969	-87.3854855054926	-93.3736195544389
27708	1651212415117	9.73428103119066	0.217638534197066	0.33113527073292	0.0108107628371953	-0.0486774631589283	-0.0704721169206088	0.00311268342429476	0.00611308563153388	-0.00452539450395879	0.614990234375	0.362548828125	-0.17578125	0	0	0	-0.349839496720564	-0.59846373277248	-0.378400776206057	0.613405526268704	-0.00269197375463323	-0.045493752381056	0.998960996121268	0.882958756695594	0.468850358201912	0.0237313208336489	-0.469442847694876	0.882105243215474	0.0389069741806646	31.3811159305155	-87.3879359341821	-93.386379188353
27709	1651212415118	9.78197150578027	0.242964514431495	0.357872722497157	0.0200662700112257	-0.0158257499293386	-0.0211901315603846	0.00314058030705494	0.00611222825639972	-0.00605102971458953	0.615478515625	0.361572265625	-0.169189453125	0	0	0	-0.349799715372863	-0.598479079743	-0.378408372239521	0.613408553945959	-0.00274021014198406	-0.0455422413315479	0.99895865555231	0.882933488334406	0.468894525888201	0.0237987136147584	-0.469490091935939	0.882079263925062	0.0389259004700713	31.4409919977487	-87.3849949744514	-93.4432522227426
27710	1651212415119	9.73331447806993	0.218719028762647	0.356930755812828	-0.00199305746672821	-0.0266042769011626	-0.070411629749616	0.00462143620797241	0.0106971390409447	-0.00450074028262068	0.608642578125	0.35888671875	-0.17578125	0	0	0	-0.349713443467218	-0.59851465410801	-0.378420773923839	0.613415384661286	-0.00284414663829621	-0.045641007893221	0.998953857407033	0.882875490508032	0.468996450642367	0.0239415443332919	-0.469598529693292	0.882019970115956	0.0389614325525411	31.5704517422299	-87.3789763427136	-93.5658098312864
27711	1651212415120	9.73505756228503	0.219113720580483	0.30931535297847	0.0206202059553498	-0.0694251405631771	-0.0705219278792359	0.00461015892185126	0.0137494076594365	-0.00450300061327248	0.614013671875	0.353759765625	-0.175537109375	0	0	0	-0.349659190431294	-0.598506725454337	-0.378432849190671	0.613446598153654	-0.00284344352128382	-0.0457499337511275	0.998948876765327	0.88284344211132	0.469054058400726	0.0239947289804511	-0.469658782042855	0.881983692513403	0.0390563002657188	31.5650087992273	-87.3727433677457	-93.5564646616676
27712	1651212415122	9.75651759814112	0.244253134292677	0.384628211801428	0.00680315007908667	0.00838981853551399	-0.0455425748503142	0.00156461396919856	0.0122118745416425	-0.00455808401894615	0.61328125	0.355224609375	-0.177734375	0	0	0	-0.349621879938835	-0.598565494325787	-0.378376840279976	0.613445072366143	-0.00289936851546474	-0.0456836295490456	0.99895175041312	0.882770003119844	0.469191015615553	0.0240190020074954	-0.469796461517114	0.881914279766958	0.0389677801411221	31.648894361245	-87.3763377601263	-93.6314774983335
27713	1651212415122	9.73333493819774	0.195741430910627	0.360510862757168	-0.0248200909188524	-0.0354711722367132	-0.070807797402427	0.00770097584866438	0.0107077881189936	-0.00596967875181463	0.61376953125	0.359619140625	-0.178466796875	0	0	0	-0.349559572691473	-0.598575723547759	-0.378378373247862	0.613469652857689	-0.0029261803248434	-0.0457715502767576	0.998947647604202	0.882723046864133	0.469275823596114	0.0240878376590861	-0.469884517731334	0.881864596507565	0.0390304166380626	31.6810397454338	-87.3712074182137	-93.6579475915591
