// Start Time : 24/05/2022 10:06:15																																
// Update Rate : 100Hz																																
// Filter Profile : 46.1 human																																
// Firmware Version : 4.4.0																																
PacketCounter	Time_Of_Arrival	Acc_X	Acc_Y	Acc_Z	FreeAcc_X	FreeAcc_Y	FreeAcc_Z	Gyr_X	Gyr_Y	Gyr_Z	Mag_X	Mag_Y	Mag_Z	VelInc_X	VelInc_Y	VelInc_Z	OriInc_q0	OriInc_q1	OriInc_q2	OriInc_q3	Mat[1][1]	Mat[2][1]	Mat[3][1]	Mat[1][2]	Mat[2][2]	Mat[3][2]	Mat[1][3]	Mat[2][3]	Mat[3][3]	Euler_X	Euler_Y	Euler_Z
5547	1653386807228	5.24600009006465	-0.669568173731929	8.25314759642624	-1.04083408558608E-15	8.67361737988403E-16	-0.0104792726752585	0.0183480260307467	-0.00616983565073167	-0.00605743608313619	0.59521484375	-0.396240234375	0.3173828125	0	0	0	0.0783429283432686	-0.269950295652126	0.382167923150709	0.880305005080969	0.562149032784006	0.630551277724899	0.535157501208292	-0.715146064398974	0.69562012818655	-0.068401343820028	-0.415396884334325	-0.344264031553144	0.841978446911862	-4.64444262247193	-32.3545933867173	48.2823598046681
5548	1653386807228	5.22367300306082	-0.662784442286731	8.30226820217391	-0.0328805015319131	-0.0218843411284416	0.018494653666389	0.0183719134035768	-0.0060800239911834	-0.00453421667696167	0.59228515625	-0.406005859375	0.31689453125	0	0	0	0.0790543261360333	-0.269425094185399	0.384569711410615	0.879355826277351	0.55903251137749	0.63374879414752	0.534644851410299	-0.718945671207376	0.691713101169467	-0.0681916968750119	-0.413037253858719	-0.346259225995615	0.842321064284733	-4.62839441647701	-32.3198293173652	48.5843465984092
5549	1653386807229	5.223258431892	-0.66389466254951	8.27795915286379	-0.0212306144376012	-0.0159634216022865	-0.00212740467918415	0.0182923700502834	-0.00151030097986115	-0.00480170907460227	0.59375	-0.40771484375	0.311767578125	0	0	0	0.0791441258757642	-0.269394661996304	0.384572642764529	0.879355790260327	0.559060797050005	0.633710350302821	0.534660843078009	-0.718994370459999	0.691680179552933	-0.0680119435132605	-0.412914180488684	-0.346395324929042	0.842325446854516	-4.61622284991247	-32.3209135507716	48.5811841527983
5550	1653386807231	5.22443390492476	-0.65902281826077	8.30208887131585	-0.0330265507182492	-0.0217843037778481	0.0184943862938685	0.0229593760491765	-0.0076226130699207	-0.00604814195538239	0.590576171875	-0.409423828125	0.304443359375	0	0	0	0.0792615774068059	-0.269385903513937	0.384579335220552	0.879344967721021	0.559059939818597	0.633651902944032	0.534731006755205	-0.719059709518721	0.691632674536607	-0.0678039649297452	-0.412801547764638	-0.346597041834965	0.84229767466993	-4.60231839340188	-32.325670794218	48.5786060129281
5551	1653386807231	5.22583587996773	-0.681285901437436	8.30475766855809	-0.0163065118980068	-0.0389946511893395	0.0229989034567559	0.0167937694344142	-0.00467078408114235	-0.00611975492491798	0.590087890625	-0.40625	0.316650390625	0	0	0	0.0793526389529279	-0.269371720535352	0.384573195667293	0.879343784899442	0.559084666700141	0.63359338513036	0.534774492454383	-0.719094812665444	0.691613231730905	-0.0676297870201011	-0.412706900667341	-0.346742786534607	0.842284069734061	-4.59062017473444	-32.3286193406562	48.5747236601582
5552	1653386807232	5.24990591968019	-0.654535769346439	8.30084198546948	-0.019568747072635	-0.0054964520151953	0.0307619038077203	0.0199513211165811	-0.00748901993999041	-0.00294792532573855	0.594482421875	-0.405029296875	0.314697265625	0	0	0	0.079458299577297	-0.269364229143487	0.384584289253413	0.879331686649393	0.559075673034765	0.633547856226742	0.534837831207951	-0.719160750685505	0.691562606175464	-0.0674461000596877	-0.412604176535073	-0.346926902402077	0.842258581372439	-4.57834277992356	-32.3329141946224	48.5731382624336
5553	1653386807233	5.22613111686541	-0.680566245875128	8.28015619483689	-0.00464332943145417	-0.0330585519164699	0.00237701569811755	0.0198740542556087	-0.0045332093191525	-0.00465065602224267	0.595703125	-0.40576171875	0.316650390625	0	0	0	0.0795606591606109	-0.269344094746494	0.38458880561049	0.879326623467195	0.559090418448577	0.633499964283408	0.534879144528851	-0.719216739159604	0.691523104226052	-0.067253835832537	-0.412486589008201	-0.347093058954634	0.842247720278241	-4.56540546693239	-32.3357156648964	48.5702397002999
5554	1653386807233	5.25162775162888	-0.674953461635673	8.30346684496029	-0.00282605856813806	-0.0226759955891884	0.0352665030783008	0.0213755673796708	-0.00298630128092654	-0.00476756774679448	0.595458984375	-0.40087890625	0.30810546875	0	0	0	0.0796658691728115	-0.269312609993458	0.38459576935059	0.879323695566701	0.559113624592279	0.633458300100704	0.534904231455323	-0.719278392718013	0.691478886973137	-0.0670488078893585	-0.41234760647332	-0.347257153855638	0.842248134774904	-4.5515438528567	-32.3374168601871	48.5671902693257
5555	1653386807234	5.22759361883873	-0.673714321246807	8.30426908915374	-0.0162708344109358	-0.0389485606978336	0.0229991451642757	0.0198503575380247	-0.00462420996262641	-0.00617373386908903	0.593017578125	-0.40478515625	0.318603515625	0	0	0	0.0797703487362217	-0.269292308357432	0.384593511426525	0.879321428768026	0.559138967256283	0.633399549225659	0.534947311738557	-0.719325714624277	0.691449044862234	-0.0668485948945617	-0.412230677625829	-0.347423702990795	0.842236688244055	-4.53807085622502	-32.3403382960504	48.563265275029
5556	1653386807234	5.25141916053138	-0.646559111683466	8.30050993472467	-0.0195127968293433	-0.00539935893170851	0.0307620686142709	0.0243812782358682	-0.00150644297502615	-0.00643533571116016	0.595947265625	-0.412109375	0.317626953125	0	0	0	0.0798867931600504	-0.269246694965948	0.38459821160606	0.879322769611897	0.559180865758669	0.633353419174902	0.534958134613211	-0.719390439293989	0.691404631816048	-0.0666110422956752	-0.412060863492017	-0.347596147163308	0.842248635057034	-4.52194753289297	-32.3410722506668	48.559064837318
5557	1653386807235	5.22733868750161	-0.672374561397363	8.28006317245882	-0.00458754034763156	-0.032961738693018	0.00237736753578766	0.0198719237843198	-0.0029187448295698	-0.00321744741577436	0.59326171875	-0.411865234375	0.3115234375	0	0	0	0.0799841060552566	-0.269220027468878	0.384609650155982	0.879317085353794	0.5591919876331	0.633321026689662	0.534984857841506	-0.719454319606741	0.691355919570869	-0.0664264591373037	-0.411934221649701	-0.347752023181852	0.842246239176397	-4.50948147662059	-32.3428845152779	48.5570455069376
5558	1653386807236	5.22759049169469	-0.643336897058907	8.30133215228425	-0.0329070840196979	-0.0215785835796642	0.0184952405906973	0.0198508651240644	-0.00462473636263608	-0.00617326748429883	0.58447265625	-0.40283203125	0.31298828125	0	0	0	0.0800853945053893	-0.269195629124347	0.384608448394401	0.879315861491714	0.559220109367997	0.633267341958729	0.5350190117061	-0.719501894588928	0.691325342021135	-0.0662291111393189	-0.411812934427015	-0.34791054178896	0.842240085694527	-4.49617187533493	-32.3452007493626	48.5532060980123
5559	1653386807236	5.22882551598729	-0.692819388457798	8.28287338268627	0.0121830005504545	-0.0500787216274173	0.00688237788530088	0.0198452090647061	-0.00139536254543375	-0.00330837745690652	0.598388671875	-0.404296875	0.30859375	0	0	0	0.0801797814268252	-0.269162274608632	0.384620053399519	0.879312394488333	0.559238168900917	0.633239615552989	0.535032952011979	-0.719565104938858	0.691277234346596	-0.0660442656742703	-0.41167794475619	-0.348056568058162	0.842245745155708	-4.48364429300963	-32.3461461648821	48.5510433654166
5560	1653386807237	5.25252904015938	-0.638819885127622	8.30040690229466	-0.0193942580768696	-0.0051503640231606	0.0307624363116385	0.019875254210665	-0.00453339515905959	-0.00464987511957038	0.594482421875	-0.4072265625	0.3046875	0	0	0	0.0802765221994282	-0.269136046860558	0.384626381152204	0.879308828106255	0.559256670404061	0.633200133258453	0.535060340382316	-0.719621356620325	0.691236453810648	-0.0658579381639231	-0.411554467482113	-0.348209356802423	0.842242936527672	-4.47106101342995	-32.3480036414471	48.5483303293353
5561	1653386807237	5.2285781683981	-0.664786858303274	8.27989325299161	-0.00446934328958235	-0.0327134604300109	0.00237825271693559	0.0213765429123719	-0.00298632765492391	-0.00476809436402339	0.5947265625	-0.40283203125	0.307373046875	0	0	0	0.0803826639725604	-0.269106150924194	0.384632983026564	0.879305393612212	0.559278695805704	0.633156774467446	0.535088627578508	-0.719682651678201	0.691192191401524	-0.0656523831935584	-0.411417332268957	-0.34837602312952	0.842241013734878	-4.45717244803076	-32.3499221163302	48.5452640030694
5562	1653386807238	5.22965174204365	-0.687093301732775	8.28282873823521	0.0123412628315486	-0.0497337384514905	0.00688393357215666	0.0198455307464878	-0.00139521721552229	-0.00330894194629974	0.594482421875	-0.40673828125	0.310302734375	0	0	0	0.0804703178341518	-0.269065017580311	0.384646799288788	0.879303920188617	0.559301712222797	0.633139382039792	0.535085149873288	-0.719746371970749	0.691142735489124	-0.0654742637649086	-0.411274549102657	-0.348505727486483	0.842257088524356	-4.44504386650625	-32.3496862515906	48.5433131346159
5563	1653386807239	5.22993362434467	-0.685201345389487	8.28280749009545	0.0123412631523413	-0.0497337350736062	0.00688393358886863	0.0198515803147361	-0.00462582895144704	-0.00617260378516242	0.583251953125	-0.412109375	0.318359375	0	0	0	0.0805747958009781	-0.269044690731974	0.384644504785772	0.879301576029905	0.559327118654089	0.633080596504611	0.53512814602437	-0.719793480572876	0.691112614439478	-0.065274033791507	-0.411157536308043	-0.348672213535858	0.842245313341134	-4.43156620461571	-32.3526023774803	48.5393820398623
5564	1653386807240	5.2293942974594	-0.631773804922902	8.30108410985253	-0.0326889693606044	-0.0209342985893239	0.0184973612851174	0.0213799487032994	-0.00460181112290864	-0.00619991790347387	0.59375	-0.40673828125	0.314208984375	0	0	0	0.0806737817279003	-0.269012789715705	0.384647989551143	0.879300735838061	0.559356086207275	0.633037962342826	0.535148303795988	-0.719847078660979	0.691075330151965	-0.0650774261830172	-0.411024271991489	-0.348823488727745	0.842247719822186	-4.4182585348469	-32.353969569428	48.535995066182
5565	1653386807240	5.23075810188737	-0.681447623776939	8.28259652276535	0.0124008612540029	-0.0494351886748362	0.00688536603120404	0.0153397784446675	-0.00442079473391959	-0.00152140067987305	0.59033203125	-0.406494140625	0.318359375	0	0	0	0.0807517711059922	-0.269002108648367	0.384660149598214	0.879291525216215	0.559348869707623	0.633012025851017	0.535186525507505	-0.719901612669426	0.69103144154865	-0.0649400867504351	-0.410938572091698	-0.348957478669229	0.842234034011955	-4.40904240460287	-32.3565619968609	48.5351970141538
5566	1653386807241	5.20664535435328	-0.680428961863765	8.28344448588477	-0.00096117666372187	-0.0653324383236431	-0.00537772564082672	0.0228538931670624	-0.00153190188671727	-0.0064109268933446	0.597900390625	-0.405517578125	0.307861328125	0	0	0	0.0808485710206526	-0.268951193508457	0.384666881597771	0.87929526001005	0.559393291424446	0.632982892004619	0.535174554644364	-0.71996017068245	0.69098979753153	-0.0647337032637021	-0.410775483859763	-0.349092764371885	0.84225752814859	-4.39496307604954	-32.3557500525954	48.5316307534539
5567	1653386807242	5.20691867888752	-0.651173344804977	8.30466541488603	-0.0293306583524885	-0.0540408667615217	0.0107395079519836	0.0183268995154078	-0.00626642532944934	-0.00757622911638568	0.5947265625	-0.402099609375	0.310791015625	0	0	0	0.0809513848374592	-0.268940430054098	0.384655682860754	0.879293991801457	0.559422101450487	0.632908661200174	0.53523222902449	-0.719993062206818	0.690973757871649	-0.0645387969114771	-0.410678588171784	-0.349259062173819	0.842235836750429	-4.3818943300686	-32.359661983113	48.5268322285885
5568	1653386807243	5.23266583035536	-0.672651626321932	8.30657945619254	0.000955073359694244	-0.0544536076933735	0.0275132306557246	0.0214047835412855	-0.00450914577642078	-0.0046770088704092	0.589599609375	-0.40576171875	0.31103515625	0	0	0	0.0810394130633206	-0.268901607802824	0.384668651607169	0.879292083054392	0.559443907583557	0.632888942978535	0.535232753223448	-0.720055456851031	0.69092528400215	-0.0643614091331191	-0.410539466223032	-0.349390666420929	0.842249077702817	-4.36982877948461	-32.3596975391893	48.5248382239737
5569	1653386807243	5.2582447443776	-0.666905028145142	8.32982115566894	0.00275142331646535	-0.0440960962151618	0.0604007170912588	0.0198523462959246	-0.00462650247189748	-0.00617265076263122	0.580078125	-0.40869140625	0.3076171875	0	0	0	0.0811438907564828	-0.268881265742505	0.38466632562171	0.879289685972889	0.559469365730803	0.632830121212767	0.535275692045331	-0.720102409428265	0.690894973851186	-0.0641611645995953	-0.410422402829549	-0.34955710948714	0.842237067851217	-4.35634743846071	-32.3626100991872	48.5209018426681
5570	1653386807244	5.23260289247362	-0.671595166411131	8.28223601757493	0.0127091587882306	-0.0478929094886767	0.00689261510884265	0.0213258893643614	-0.00155615527097526	-0.00638490142733002	0.598388671875	-0.4033203125	0.310546875	0	0	0	0.0812224833891244	-0.268827173214866	0.384674767871843	0.879295275829543	0.559514547808097	0.632815791019096	0.535245406732256	-0.720155033463054	0.690856462309695	-0.0639849690377432	-0.410268446957511	-0.349659152778546	0.842269718266816	-4.34426239450099	-32.3605558227501	48.517961964366
5571	1653386807245	5.23200498177825	-0.645420577967919	8.27926081239582	-0.00401126159308238	-0.0306834185224026	0.0023850067770006	0.019901435265351	-0.00443980655851793	-0.00312630075305757	0.588134765625	-0.400146484375	0.316162109375	0	0	0	0.0813227106725798	-0.26880714224272	0.384685979699681	0.879287230676451	0.559518834603598	0.632778688629725	0.535284788631134	-0.720219190451036	0.69080662750272	-0.0638006356110344	-0.410149962123473	-0.349824719844614	0.842258674016332	-4.3318513586687	-32.3632271368212	48.5160770765158
5572	1653386807246	5.23416808867845	-0.6919032891048	8.28508032094924	0.0295391478906974	-0.0643676307148383	0.0114047351710465	0.0213810927075538	-0.0046026117231094	-0.00619996808435504	0.58056640625	-0.408447265625	0.3125	0	0	0	0.0814031330827388	-0.26876445188223	0.384694905925664	0.879288933561434	0.559550997518579	0.632759410266829	0.535273957796135	-0.720272484044743	0.690766718558317	-0.0636308829122322	-0.410012475302861	-0.349938379219756	0.842278398657517	-4.32026861878888	-32.36249246245	48.5135764861684
5573	1653386807247	5.23513808607174	-0.659765174713377	8.33052536950567	-0.0104779823058879	-0.0589873566626948	0.0481454749726939	0.0182939208118651	-0.00151163934566332	-0.00480744067827917	0.59326171875	-0.412109375	0.31494140625	0	0	0	0.0814929424040033	-0.26873393961445	0.384697724902002	0.879288707133703	0.559579460309041	0.632720891406714	0.535289735729852	-0.720320569258719	0.690733121587123	-0.0634510224133871	-0.409889137576292	-0.350074318281137	0.84228194007527	-4.3080848438565	-32.3635627091157	48.5103993333526
5574	1653386807247	5.25906435598537	-0.687297619581622	8.2841941329356	0.04302259503801	-0.0471841077548091	0.0236702322306801	0.0213782615278678	-0.00298587105289426	-0.00476973849301419	0.58984375	-0.39990234375	0.32421875	0	0	0	0.0815595950594675	-0.26868447270572	0.384717772112611	0.879288873124921	0.559601779895116	0.632728519038766	0.535257385874523	-0.720383706209346	0.69068053654889	-0.0633064946164646	-0.409747683051783	-0.350164272345921	0.84231337316117	-4.29814896876763	-32.3613683717457	48.509608029428
5575	1653386807248	5.21149816070794	-0.683758093760132	8.31008161837495	0.00448280183542159	-0.0856507612127043	0.0197761209632006	0.0213848238273992	-0.00621996984919056	-0.00762953874619514	0.591796875	-0.40673828125	0.3134765625	0	0	0	0.0816757979387669	-0.268667548450169	0.384710459471858	0.879286457767771	0.559631221565456	0.632654121550604	0.535314541493307	-0.720428667150283	0.690653852808035	-0.0630855859090154	-0.409628406482293	-0.350351278128754	0.842293624881683	-4.28330649399455	-32.3652453559242	48.5047686700862
5576	1653386807249	5.23630845585916	-0.680875565091201	8.30910292897763	0.0179550860519594	-0.0682912977513398	0.032043352006438	0.0213785349036014	-0.00298565120887531	-0.00477016979665261	0.595703125	-0.401611328125	0.310302734375	0	0	0	0.0817341402026032	-0.268615221638832	0.384731472071899	0.879287829681869	0.559655114202622	0.632669333804858	0.535271582666003	-0.720489470548785	0.690602449445462	-0.0629537897847333	-0.409488798351288	-0.350425128783376	0.842330786058525	-4.27420328969862	-32.3623313540413	48.5042384427573
5577	1653386807249	5.25937692464443	-0.656828794163171	8.28096272050803	0.0263304230194564	-0.0288937562070646	0.0191631636363905	0.0213819355028259	-0.00460302972217831	-0.00619974795000797	0.5966796875	-0.399658203125	0.312744140625	0	0	0	0.0818453383637395	-0.268591705192056	0.384731070312495	0.879284845784545	0.559680998876451	0.632610441670216	0.535314121415149	-0.720542357642766	0.690566688248653	-0.0627404169885064	-0.409360342900069	-0.350601879873885	0.842319672980298	-4.25982590258747	-32.3652168605448	48.5002764511093
5578	1653386807250	5.23534884066821	-0.655387816788034	8.2817990783005	0.0128163146319986	-0.0440982487087071	0.00691025026871195	0.024410995130075	-0.00303097046382454	-0.00634894071858407	0.590576171875	-0.403564453125	0.315673828125	0	0	0	0.0819169833956489	-0.268537752258108	0.38474741249489	0.879287502482554	0.559713808381301	0.632611577652848	0.535278473812346	-0.720602788024178	0.690518072819689	-0.0625812511952712	-0.409209084208895	-0.350695570158731	0.842354166887041	-4.24888544527107	-32.3627987909567	48.498660683189
5579	1653386807251	5.23654521890554	-0.650241075442439	8.30591926569421	0.00116880674418482	-0.0500077546351332	0.0275368056511223	0.0199063615015947	-0.00605607081044413	-0.00455504220055977	0.5986328125	-0.407470703125	0.314453125	0	0	0	0.0820223450253832	-0.268524207105792	0.384751538627375	0.879280011508626	0.559722007444147	0.632558704298682	0.535332382729334	-0.720658644950277	0.690477176880809	-0.0623889867295317	-0.409099488927968	-0.350871420641066	0.842334170229485	-4.23597963715107	-32.3664555980211	48.4958674999816
5580	1653386807251	5.23532657048905	-0.654304582202409	8.25742891116284	0.0243482210970808	-0.0369448341739281	-0.0137112478510648	0.0213266112521535	-0.00155746177085408	-0.00638773206746216	0.593994140625	-0.402587890625	0.31005859375	0	0	0	0.0820698681056978	-0.268468080969415	0.384770561443754	0.879284391591237	0.559753009093715	0.632579218051081	0.535275724931006	-0.72071177803408	0.690432303590743	-0.062271720398075	-0.408963448016429	-0.350922736579241	0.842378852499426	-4.22782313531481	-32.3626123298736	48.4952147264612
5581	1653386807251	5.21380004987012	-0.671257866937825	8.30965682398281	0.00432615346122878	-0.0822457700944878	0.0198052624524205	0.0215123076588405	-0.00736423138852959	-0.00144249035974202	0.589599609375	-0.405517578125	0.312744140625	0	0	0	0.0821806239545871	-0.2684584860602	0.38478997371878	0.879268481428853	0.559733434775532	0.632543219940857	0.535338730993039	-0.720791563502181	0.690366042343871	-0.062082602736525	-0.408849610466325	-0.351117932446226	0.842352772617399	-4.21515971782126	-32.3668862299398	48.494590910755
5582	1653386807252	5.26135809782528	-0.646489006982433	8.28051787211549	0.025952226124976	-0.0253022315130689	0.0191740679541628	0.0213300036289557	-0.00317619736447341	-0.0078170991829206	0.5966796875	-0.41015625	0.317138671875	0	0	0	0.0822301198744272	-0.268412226791321	0.384799806301473	0.879273673531006	0.559767971158546	0.632545539351808	0.535299877742538	-0.720831817691057	0.690334632911572	-0.0619643866027298	-0.408731340943232	-0.35117550491026	0.842386167788724	-4.2069959758894	-32.3642506674376	48.492940742055
5583	1653386807252	5.21478156647006	-0.694470909696661	8.28824091947169	0.0325010785901573	-0.0922837385081278	0.00370715188283555	0.0214848650802039	-0.00584070649310056	-0.00153656761795089	0.59619140625	-0.400634765625	0.310546875	0	0	0	0.0823379242119333	-0.268396021122411	0.384819375905526	0.879259967250761	0.559755247546679	0.632514201220379	0.535350210701837	-0.720910886204226	0.690269028328303	-0.0617750975955451	-0.408609296267467	-0.351360859779866	0.842368084164256	-4.1942800804756	-32.3676649565846	48.4921782875249
5584	1653386807253	5.23874099965354	-0.667581543193993	8.28418548988503	0.0289599591342409	-0.0573395767611989	0.0114499935414187	0.0183013497689948	-0.00474936278764672	-0.00766685952175475	0.595703125	-0.403076171875	0.319091796875	0	0	0	0.0823682501984755	-0.268361816765172	0.384831627512853	0.879262204992087	0.55977310753661	0.632526824181226	0.535316621047786	-0.720944797249351	0.690240179650101	-0.0617016508343917	-0.408524989930725	-0.351394807997797	0.842394813323474	-4.18917865272773	-32.3653864195526	48.4918384947077
5585	1653386807253	5.23917651816521	-0.665702635124186	8.28406126223261	0.0289579953303039	-0.0573424323210349	0.0114499826630201	0.018326214187002	-0.00465374664967319	-0.00614398700321077	0.5888671875	-0.406494140625	0.31591796875	0	0	0	0.0824660710348893	-0.268344635418631	0.384827145050803	0.879260241454234	0.55979845014818	0.632467761418497	0.535359903222094	-0.720985072483554	0.690214831120233	-0.061514324815863	-0.408419172502441	-0.351550874935538	0.842381007540221	-4.17657359887764	-32.3683224544246	48.4878958369386
5586	1653386807254	5.23966470681841	-0.663799855113728	8.28390518701303	0.0286723056199681	-0.0557071695414188	0.0114602293685628	0.0198829082181534	-0.0061518396479825	-0.00607723748652399	0.593017578125	-0.41015625	0.309814453125	0	0	0	0.0824954093515708	-0.268311349225933	0.384850527633745	0.879257413214415	0.559798182513174	0.632496449626768	0.535326289345555	-0.72103426797903	0.690169157631889	-0.0614501281823925	-0.4083326820803	-0.351588929096498	0.842407054624952	-4.17210175827102	-32.3660422577091	48.4891992242296
5587	1653386807255	5.24184657584529	-0.683039295150803	8.31099261291383	0.0337419939890374	-0.0788095022334616	0.0366144740372913	0.0183264253095962	-0.00465387231052062	-0.00614415995676282	0.593994140625	-0.410400390625	0.30859375	0	0	0	0.0825932173598913	-0.268294045039433	0.384846103468124	0.879255447801106	0.559823564083562	0.632437529322139	0.535369357174733	-0.721074602835364	0.690143674183088	-0.0612627630040433	-0.408226645679333	-0.351744908264464	0.842393331685042	-4.15949300221906	-32.3689637734965	48.4852608785512
5588	1653386807255	5.215390071357	-0.663834407121234	8.26033302939266	0.0261910651827202	-0.0645627085942657	-0.0214046672749077	0.0214082495783519	-0.00450797620289691	-0.00467767357900157	0.59423828125	-0.406982421875	0.306884765625	0	0	0	0.0826214132395334	-0.268271148287176	0.384882533300322	0.879243839120473	0.559792053114014	0.632481309573019	0.535350586355517	-0.721141075184534	0.690078275269258	-0.061217021187736	-0.40815243102558	-0.351794495468882	0.842408586141964	-4.15632320589624	-32.3676904391849	48.4888299042496
5589	1653386807255	5.24183956060899	-0.654900291022928	8.30770322636015	0.0163234174305922	-0.0600590688068372	0.0320998562217714	0.0198833968633012	-0.00615209150146672	-0.00607704679455635	0.590087890625	-0.40283203125	0.316650390625	0	0	0	0.0827286490408052	-0.268257752047956	0.384879976110769	0.879238962445953	0.559810364910304	0.632417738880409	0.535406536090459	-0.721188144567012	0.690046749233715	-0.0610175713051054	-0.408044134224454	-0.351970577493877	0.842387498188122	-4.14293215156347	-32.3714858894707	48.4850414891054
5590	1653386807256	5.24243755999033	-0.680214649118456	8.28639519236298	0.0441925391526597	-0.0697711101761992	0.0160138491423663	0.0198551960694877	-0.00462927326395672	-0.00617255930894413	0.59521484375	-0.401123046875	0.318603515625	0	0	0	0.0827512877812596	-0.268228736819416	0.384900105294442	0.879236872554336	0.559810507377175	0.632444182866346	0.535375150141122	-0.721229276433335	0.69000826662974	-0.0609665711522997	-0.407971232620092	-0.351998505026854	0.842411138229607	-4.13936565812285	-32.3693567478667	48.4862232577729
5591	1653386807257	5.21831127022026	-0.651522774740504	8.30839577501655	0.00236723323474435	-0.0747483790954989	0.0198657839658463	0.0243873816542755	-0.00312791928720793	-0.00787601407616787	0.58984375	-0.401611328125	0.323486328125	0	0	0	0.0828748591298861	-0.268192726974533	0.384896940501432	0.8792376039017	0.559854012781202	0.6323788584958	0.535406820745062	-0.721284596366498	0.689972205833677	-0.0607197350243632	-0.407813701850741	-0.352186505284571	0.842408837844331	-4.12267567757068	-32.371505199932	48.4810761212728
5592	1653386807258	5.24316644180402	-0.675850893727859	8.28629109010228	0.0440043987534238	-0.0677323204665753	0.0160289545846801	0.0198805496528843	-0.0045325867201905	-0.00464955163117857	0.5888671875	-0.40625	0.313232421875	0	0	0	0.0828826055307654	-0.268140150008889	0.384929514926154	0.879238649168903	0.559860256983852	0.632441504897532	0.535326288849072	-0.72133812201812	0.689919484478294	-0.0606829354973573	-0.407710444277979	-0.352177296003234	0.842462667307284	-4.11992336059536	-32.3660422240306	48.4835758761117
5593	1653386807258	5.24345908275285	-0.646531645374252	8.30733669685483	0.0156301884578306	-0.0564140783466138	0.0321225430585201	0.0229376427731839	-0.00448239004158548	-0.00470635706749708	0.587646484375	-0.396484375	0.309326171875	0	0	0	0.0829983024338006	-0.268113787322014	0.384937776629928	0.879232157603531	0.559875810342107	0.632393365365227	0.535366891426629	-0.721405322192524	0.68986837983263	-0.0604646972985292	-0.407570163414926	-0.352363803403733	0.842452557681906	-4.10520643920755	-32.3687965063763	48.4806213131026
5594	1653386807259	5.24308257932602	-0.64753160812116	8.28303021447627	0.0267711712768044	-0.0489853938764615	0.0115014097213493	0.0198308269747495	-0.00472688097592094	-0.00769520206121255	0.594970703125	-0.39794921875	0.31787109375	0	0	0	0.083021861732666	-0.268087081388438	0.384939085835195	0.879237503444567	0.559902433977986	0.632391584409252	0.535341151410839	-0.721419938822632	0.689858541341613	-0.0604025231854835	-0.407507713172005	-0.352386260950081	0.842473374534142	-4.10089859646033	-32.3670504185494	48.4791890131383
5595	1653386807260	5.22004704056245	-0.643200415360941	8.3079538269509	0.00167123197818662	-0.0711608519083002	0.0198925452447334	0.0214667651401855	-0.0075528825965653	-0.00448552670352621	0.59326171875	-0.40625	0.318115234375	0	0	0	0.0831366561280382	-0.268077203755139	0.384945086960025	0.879227040792088	0.559903785704328	0.632334174741918	0.535407547768445	-0.721482343959346	0.689811152866374	-0.0601980127254361	-0.407395358477351	-0.352581997320654	0.842445818469348	-4.08719416646329	-32.3715545199223	48.4765386760265
5596	1653386807261	5.22087823919086	-0.695897314528793	8.26548215536722	0.0580656585011614	-0.0918122662672035	-0.0122671413142363	0.0183561882708175	-0.00617798210758704	-0.00604775951479678	0.592529296875	-0.404541015625	0.305908203125	0	0	0	0.0831418977454824	-0.268042905593123	0.384971075672123	0.879225623202785	0.55990054331409	0.632381676149286	0.535354833047398	-0.721524059542188	0.689769391470257	-0.0601765576658638	-0.407325929813398	-0.352578505104	0.842480851200952	-4.08557307014024	-32.367978515531	48.4788394877191
5597	1653386807262	5.22124325723028	-0.666656667848187	8.28645653754002	0.0296931834002987	-0.0804876383688473	0.00381985368628968	0.0214097747120332	-0.0045071582997131	-0.00467874277906209	0.59228515625	-0.40576171875	0.310791015625	0	0	0	0.083250945250969	-0.268019467009331	0.384977365425612	0.879219695826253	0.559915986827978	0.632333616310623	0.535395447662736	-0.721585112207374	0.689723416449549	-0.0599711150624478	-0.407196529375096	-0.352754598105668	0.842469690837709	-4.07172568387281	-32.3707336734915	48.4758938799292
5598	1653386807263	5.22246185097429	-0.661542261783853	8.31055569026	0.0170643608346684	-0.0847710752717309	0.0244669096378516	0.0198562506062328	-0.00463019880215215	-0.00617294867563241	0.5927734375	-0.401611328125	0.322021484375	0	0	0	0.0832640824449511	-0.268012047219709	0.384997947584014	0.879211701170883	0.559892245802394	0.632357846493395	0.535391657638208	-0.721620955277163	0.689687345861394	-0.0599546650690397	-0.407165654243118	-0.352781687360472	0.842473270239402	-4.07059533354516	-32.3704765675099	48.47818932269
5599	1653386807264	5.22313923774093	-0.659575045768274	8.31028634643263	0.0170557496076263	-0.0847701669715956	0.0244669323990294	0.0199715662033257	-0.0107213096572388	-0.0057854291310921	0.59423828125	-0.40771484375	0.31494140625	0	0	0	0.0833800612281069	-0.268018690006799	0.384994863699548	0.879200035328481	0.559889873464011	0.632280165965765	0.535485874060892	-0.721669825097941	0.689653440629127	-0.059756132501313	-0.407082292829792	-0.352987143611083	0.842427494393273	-4.05738086247015	-32.3768681957855	48.474816298151
5600	1653386807266	5.24740163710255	-0.659889025140086	8.28489658259059	0.0416076992816258	-0.0602469047959096	0.016088126130068	0.0198310850672897	-0.00472832684324009	-0.00769639623429614	0.595947265625	-0.408935546875	0.313232421875	0	0	0	0.0833740561383382	-0.267975368388929	0.385030485343653	0.879198210903486	0.559881454585698	0.63235184089938	0.535410035507525	-0.721720614530381	0.689600584238145	-0.0597527303166796	-0.407003822307472	-0.352962014287055	0.842475937399718	-4.05691811876162	-32.3717232839789	48.4784673435436
5601	1653386807267	5.24702590296621	-0.660953141937379	8.26058917052919	0.0532612008239876	-0.0543736026649019	-0.00454382185774094	0.0213850780107835	-0.00460477956587848	-0.00620247513520253	0.587158203125	-0.4033203125	0.31982421875	0	0	0	0.0834850126007923	-0.267951985502693	0.385030128097745	0.879194965063634	0.559907067844398	0.632293150270487	0.535452563257393	-0.721773049814886	0.68956410625616	-0.0595399691305125	-0.406875582873693	-0.353138380078075	0.84246397227242	-4.04257787610557	-32.3746083441108	48.4745269658916
5602	1653386807267	5.22571686040961	-0.677798573468668	8.31282944895361	0.032417836187012	-0.0973435689466232	0.0290672629333173	0.0184367143394706	-0.00750461010167865	-0.00290467523569887	0.59521484375	-0.408203125	0.311767578125	0	0	0	0.083470310884018	-0.267938807296918	0.385084386069973	0.879176613855454	0.559837622298834	0.632384502101277	0.535417293483231	-0.721844244273144	0.689485445612075	-0.0595878116635632	-0.406844839795864	-0.353128392785455	0.842483005490461	-4.04572435299784	-32.3722156547071	48.4821624314539
5603	1653386807268	5.20025460262077	-0.655543518337653	8.28619131989422	0.0139157873037558	-0.090578428002346	-0.00835397174446584	0.0245003273795457	-0.00759960211871245	-0.00606574763138801	0.58837890625	-0.404541015625	0.313720703125	0	0	0	0.0836003593908784	-0.267922536808659	0.3850878053898	0.879167717969556	0.55984979282016	0.63231669343267	0.535484648412631	-0.721910374897149	0.689436724099567	-0.0593499290540026	-0.406710732702103	-0.353344877802456	0.842456988359457	-4.02975062112193	-32.3767850450854	48.4784948920093
5604	1653386807269	5.25143533377194	-0.672931585846327	8.31139372870424	0.0448249598259188	-0.0789638412213495	0.0413184652878353	0.0168576966409457	-0.00772732056705649	-0.0059210243642079	0.593505859375	-0.40380859375	0.3056640625	0	0	0	0.0835871032480672	-0.267926606256586	0.385121042540838	0.879153179157468	0.559794232504172	0.632370360020286	0.535479360034427	-0.72195119562058	0.68938995752571	-0.0593966127377271	-0.40671475065097	-0.353340082966134	0.84245705966085	-4.03290956188225	-32.37642627064	48.4837305268261
5605	1653386807270	5.24954489145376	-0.653054316137325	8.25961693457201	0.0514184279493429	-0.0500332286814053	-0.00451088675705158	0.024526191172134	-0.00750071602901167	-0.00454344932624867	0.590087890625	-0.408447265625	0.3115234375	0	0	0	0.083714776025006	-0.267910706055048	0.38513142210398	0.879141329687289	0.559795282578503	0.6323137315615	0.535545130200644	-0.722026070569899	0.689331247966498	-0.0591674234215294	-0.406580367234137	-0.353555901457919	0.842431379712338	-4.01752118605093	-32.3808883551907	48.4811305973147
5606	1653386807271	5.22837203282928	-0.669966518387974	8.31179473493802	0.0300597455243676	-0.0935588396380324	0.0291114542296427	0.0138518396001792	-0.00758100813236455	-0.00281722094978523	0.5947265625	-0.405517578125	0.311767578125	0	0	0	0.0836921155208458	-0.267942220772899	0.385163820923256	0.879119688767537	0.559711594758169	0.632360894161462	0.535576913457427	-0.722059499336812	0.689288921702886	-0.0592525259811398	-0.406636213476788	-0.353554072177071	0.842405192253865	-4.02340542254031	-32.3830447245835	48.4875029618706
5607	1653386807271	5.25248429028831	-0.643192051194357	8.30745504570493	0.0267511902977448	-0.0600383131386921	0.0367682519890966	0.0229722893525339	-0.00762547346562984	-0.00603750322758971	0.5849609375	-0.41162109375	0.30859375	0	0	0	0.0838148745186869	-0.26792981433196	0.385165610732385	0.879110990552733	0.559722133802381	0.632293635619494	0.535645303616854	-0.722119650691688	0.689245038237131	-0.059029546418816	-0.406514874287061	-0.353759855863519	0.842377362802917	-4.00844594820654	-32.3876849033775	48.4839428799203
5608	1653386807272	5.22976626944522	-0.66634117005651	8.31120901228879	0.0286131604126561	-0.0914651668666408	0.0291354465154967	0.015384348773707	-0.00917724531861941	-0.00427056761503398	0.595458984375	-0.40185546875	0.311767578125	0	0	0	0.083787819680506	-0.267961054183832	0.385208661168192	0.879085184765894	0.559622321603398	0.632358709174219	0.535672773337174	-0.722166199131632	0.689187777268392	-0.0591285759648041	-0.406569597971856	-0.35375509974468	0.842352949427753	-4.01526463615315	-32.3895487534369	48.4919405061627
5609	1653386807272	5.23049156035499	-0.664644992493671	8.31088841175828	0.0285738968693992	-0.0914440225428039	0.0291357570706516	0.019941015388145	-0.00757754544537521	-0.00445682512483374	0.59375	-0.40380859375	0.3193359375	0	0	0	0.0838945320649823	-0.267955365928881	0.38521375950037	0.879074506996482	0.559620562723022	0.632303211364289	0.535740118598539	-0.722223171519907	0.689144133962378	-0.0589410989460731	-0.406470806205434	-0.353939276604973	0.842323258719034	-4.00271564080052	-32.394118364579	48.4895341807631
5610	1653386807273	5.23032125024325	-0.666165010191474	8.28641763128316	0.0395639411230346	-0.0834451032335014	0.00852563652004079	0.0153810885335022	-0.0075552087625192	-0.00284616331239028	0.592041015625	-0.408203125	0.31640625	0	0	0	0.0838725543592054	-0.267945585536097	0.385254974825522	0.879061523551774	0.559567535127809	0.632379088875677	0.535705946937083	-0.722272211628419	0.689087997994897	-0.0589964687822732	-0.406456671664251	-0.353913010459002	0.842341115633961	-4.00637893377606	-32.3917996691322	48.495640805595
5611	1653386807274	5.23084700860122	-0.664507824576411	8.28621882328086	0.0395266370490808	-0.0834253623112904	0.00852595443279114	0.0198825644637552	-0.00453236704268984	-0.00465435059405637	0.59619140625	-0.402587890625	0.310791015625	0	0	0	0.0839734904764486	-0.267926481947201	0.385260321107946	0.879055366941355	0.559579770502396	0.632332862118616	0.535747731613829	-0.722327749639343	0.689045875754007	-0.0588081899683602	-0.406341115991782	-0.354077579904844	0.842327706337196	-3.99369795502179	-32.3946349487967	48.4929403871541
5612	1653386807274	5.2061728260328	-0.666758227284737	8.26277273770158	0.0366900698181571	-0.0917385504397076	-0.0243037896503608	0.0168841940183163	-0.00762922372261156	-0.00439791330866271	0.5888671875	-0.40771484375	0.312744140625	0	0	0	0.083953978347259	-0.267930614219954	0.38530687623455	0.879035566180208	0.559503594180182	0.632409214238351	0.535737168624588	-0.72238457817751	0.688980681292082	-0.0588739502462625	-0.406344988046806	-0.354068081804517	0.842329830966772	-3.9981392463462	-32.3939181937032	48.5002447102721
5613	1653386807275	5.25725390533148	-0.684212381394652	8.28804406152204	0.0685534726014892	-0.0821129861666589	0.0253559923785875	0.0213595931771674	-0.00470645249932375	-0.00772958537235001	0.58984375	-0.40869140625	0.31640625	0	0	0	0.084065709055222	-0.267908330641443	0.385300691608274	0.879034390669753	0.559537006838202	0.63234130979068	0.535782424040536	-0.722428924899375	0.688952667214457	-0.0586572314963765	-0.406220120682468	-0.354243828838688	0.842316165867917	-3.983533725968	-32.3969890547975	48.4954933831777
5614	1653386807276	5.23412736969304	-0.652331491387696	8.33403474954099	0.0138092148384918	-0.0903127438353133	0.0498383500892423	0.0230251621911141	-0.00742565651427169	-0.00299315932568627	0.59912109375	-0.406005859375	0.307373046875	0	0	0	0.0840491206500671	-0.267898517031332	0.385375307348341	0.879006258439913	0.55943251411717	0.632461344454912	0.535749857600381	-0.722527883574674	0.688843235608245	-0.0587235405426681	-0.406188034788871	-0.354242352813789	0.842332259780727	-3.98794643722095	-32.3947792089979	48.5062009742082
5615	1653386807277	5.23386427237424	-0.653560841604028	8.30964404168615	0.0254344457655421	-0.0844403736007827	0.0292069524188179	0.021493174435111	-0.00582868931974348	-0.00154023283368186	0.587158203125	-0.404296875	0.31689453125	0	0	0	0.0841548002076821	-0.26788349773257	0.385396621944374	0.878991379388009	0.559415750872859	0.63243325220749	0.535800521815362	-0.722607981129968	0.688774826791741	-0.0585401023682064	-0.406068618933584	-0.354425478034898	0.842312802489139	-3.97562060141414	-32.3982171304746	48.5057900190282
5616	1653386807278	5.23456350390624	-0.679168204491049	8.28840155266636	0.0526207782284542	-0.0937664757430875	0.0131949617360778	0.0168587865281798	-0.00773021561313202	-0.00591966991118056	0.5927734375	-0.409912109375	0.32177734375	0	0	0	0.0841397085665985	-0.267896402041723	0.385430410151399	0.878974075923717	0.559349833407247	0.632485226803789	0.535807989621511	-0.722648127579112	0.688727816745704	-0.0585975950624175	-0.406087980090138	-0.354424085405684	0.842304054430855	-3.97955374870922	-32.3987238844422	48.5114771966033
5617	1653386807279	5.23612940214005	-0.674160680747227	8.31227338253258	0.0408878604824815	-0.099567947158133	0.0338270759050339	0.0199719145340763	-0.00910048338758729	-0.00435703514481644	0.600341796875	-0.4052734375	0.31298828125	0	0	0	0.0842485677115756	-0.267897846102536	0.385436016709522	0.878960749928725	0.559339642153438	0.632426240938775	0.535888248133614	-0.722706280247394	0.68868251172329	-0.058412588861269	-0.405998518724685	-0.354617325886019	0.84226584578434	-3.96720893982415	-32.4041702845721	48.50934344093
5618	1653386807281	5.21151918378131	-0.676275111712132	8.28881307019482	0.0379966121137503	-0.10736352897923	0.00101384272599425	0.0198570707681532	-0.00463346873501528	-0.00617872513869287	0.60400390625	-0.400390625	0.31201171875	0	0	0	0.0842225684384176	-0.26787197826254	0.385517663183995	0.878935318212041	0.559241469269732	0.632568447890071	0.535822860452014	-0.722811911977876	0.688565380677577	-0.0584863782023841	-0.405945709365083	-0.354591138166608	0.8423023244547	-3.97203298046091	-32.3997330048547	48.5207268300104
5619	1653386807282	5.23549575266268	-0.649396699130113	8.28448076839468	0.0346429781240991	-0.0738088251083719	0.00862137331592016	0.0184140495251953	-0.00760378146108493	-0.00442667278221429	0.5966796875	-0.401611328125	0.312744140625	0	0	0	0.0843216259396194	-0.267869766334107	0.385521708280246	0.878924720398562	0.559237601457583	0.632514690840867	0.535890353511286	-0.722863547790299	0.688525751687159	-0.0583144968224465	-0.405859084402446	-0.354763942832575	0.84227130336602	-3.96054245936617	-32.4043131614323	48.5185071587057
5620	1653386807283	5.2369265588724	-0.644218934656347	8.30844410066963	0.0219740494000144	-0.0781992757666686	0.0292668544316665	0.0229705653624171	-0.00600324210317258	-0.00461641559512012	0.5859375	-0.411376953125	0.31787109375	0	0	0	0.0843585761217859	-0.267866010794107	0.385558107798876	0.878906352466807	0.559185491543604	0.632545349855	0.535908542966012	-0.722932530903055	0.688457152290511	-0.0582692476538335	-0.405808011021519	-0.354842401407803	0.842262861791912	-3.9575185806912	-32.4055475584905	48.5225346735347
5621	1653386807284	5.23841660888627	-0.666343366470217	8.31146259505697	0.0386294115311282	-0.0953590781006655	0.0338778555719124	0.0198870756031371	-0.00615653777790119	-0.00607909659053169	0.5849609375	-0.4072265625	0.312744140625	0	0	0	0.0844638977534807	-0.267854421029865	0.385556790577495	0.87890034722409	0.559199940748673	0.632483937364964	0.535965945972308	-0.722980051087702	0.688423622431741	-0.0580754837016678	-0.405703428622317	-0.355016879955405	0.84223971822209	-3.94450821486437	-32.4094432286375	48.5190394940452
5622	1653386807285	5.23726093670083	-0.671026075617813	8.26290694137203	0.0607290161533973	-0.0806321102121386	-0.00735108782998672	0.0184374407593618	-0.00587865347843976	-0.00148150152274672	0.597412109375	-0.400634765625	0.3076171875	0	0	0	0.0844006729504783	-0.267838411434807	0.385639610690314	0.878874964049044	0.559089352053405	0.632646513628505	0.535889433758683	-0.723069482296844	0.688317234144259	-0.0582229246171283	-0.405696463124192	-0.354933478237395	0.842278223531172	-3.95431051514288	-32.4042507444017	48.5319698191451
5623	1653386807286	5.23876109209185	-0.66603150146758	8.28681538148219	0.0489773916562358	-0.0864077326813236	0.0132812649101854	0.0183918137097963	-0.00932966740300066	-0.00737078974142288	0.59375	-0.40869140625	0.311279296875	0	0	0	0.0845064009713625	-0.267842870587215	0.385630393171933	0.878867489859836	0.559098793075322	0.632567157283029	0.535973255963939	-0.723104905359684	0.688295736113855	-0.0580368459881132	-0.405620309435413	-0.355116559983274	0.842237729740936	-3.9419014803536	-32.4099393352158	48.5279232886329
5624	1653386807287	5.21504715784955	-0.664940929970374	8.28751102816669	0.0339045631491822	-0.101195195776406	0.00109437688521119	0.0214688940451844	-0.00592754161203616	-0.00306469567909305	0.593017578125	-0.40576171875	0.31103515625	0	0	0	0.0845167920391608	-0.267869943981884	0.385680016597225	0.878836463610902	0.558993235817413	0.632620307045281	0.536020624066194	-0.723178340441515	0.688215673321947	-0.0580712916187935	-0.405634873040564	-0.35517704614453	0.842205209949103	-3.94438548516067	-32.4131541282643	48.5356801288393
5625	1653386807287	5.23918465757638	-0.665303284925013	8.26215014974441	0.0589214895805016	-0.0789937539483845	-0.00732672380533294	0.0214196145722899	-0.00775545201431926	-0.00753153951003056	0.601806640625	-0.40869140625	0.316162109375	0	0	0	0.0846328104575215	-0.267862415706029	0.385674652623353	0.878829947128594	0.559009577151972	0.632544971033357	0.53609248481282	-0.723224767261925	0.688184699435834	-0.0578597915770945	-0.405529565717849	-0.355371184936006	0.842174027292383	-3.93020989406421	-32.4180314143787	48.5314631892694
5626	1653386807288	5.24237521555343	-0.681049630462553	8.31354734138137	0.0506495471003048	-0.105579132746065	0.0385908960386452	0.018381858925946	-0.00445704061640336	-0.00310537161095358	0.59765625	-0.3994140625	0.30810546875	0	0	0	0.0846080939552466	-0.267870494373362	0.385764567636481	0.878790399946238	0.558862193200819	0.632684373445143	0.536081647334711	-0.723340421268262	0.688054337586997	-0.0579643294377806	-0.405526428201941	-0.355375452340261	0.842173737362862	-3.93728981676769	-32.4172958431919	48.5452244441089
5627	1653386807289	5.21748246059512	-0.683223886905386	8.29028031898179	0.0488300449534412	-0.11606521092409	0.00575497765550104	0.0229117042614927	-0.00295801430606361	-0.0048198189671754	0.590087890625	-0.415283203125	0.3154296875	0	0	0	0.0847175337993912	-0.267840614565401	0.385775219293105	0.878784287999924	0.55887777073717	0.632644810194424	0.536112097895499	-0.7234079954636	0.688000839292611	-0.0577556683971204	-0.405384397177774	-0.355549418881151	0.842168689312355	-3.92318407118143	-32.4193626266408	48.5426542497939
5628	1653386807290	5.24294428763837	-0.649780620770068	8.33437774960551	0.0203746409431476	-0.091938591954217	0.0546154134419652	0.016826869305826	-0.00458553717099615	-0.00459736282097701	0.5966796875	-0.412841796875	0.31640625	0	0	0	0.0846806206144994	-0.267859556329457	0.385842741171118	0.878752427968701	0.558753274337088	0.632755464301432	0.536111276522199	-0.723485518171444	0.687909143155802	-0.0578767289922988	-0.405417665394319	-0.35552993285985	0.842160901150659	-3.93141786833206	-32.4193068766113	48.5539596115498
5629	1653386807290	5.24353459934177	-0.675163329326394	8.31329631200426	0.0486744460218716	-0.103254531489755	0.0386254919920574	0.0260031435194116	-0.00605278892937039	-0.00620071556538748	0.589599609375	-0.3994140625	0.316650390625	0	0	0	0.0848109782376599	-0.267837275309996	0.38585046287703	0.878743257284214	0.558765228504199	0.632695902491265	0.536169109876179	-0.723558067801466	0.687853036535906	-0.057636122768125	-0.40527168903596	-0.355744423848212	0.842140583849777	-3.91521919922679	-32.4232323515978	48.5506753496487
5630	1653386807291	5.21866644132498	-0.677175436090448	8.29003134693305	0.0459308561977729	-0.111106271418683	0.00582633593397652	0.016740230946638	-0.00164334551520825	-0.00632287264380769	0.599609375	-0.406005859375	0.307373046875	0	0	0	0.0847639856992607	-0.267800265467258	0.385913722641581	0.878731291818471	0.558707232985166	0.632829292309974	0.536072116981024	-0.723628563799273	0.687771330810585	-0.0577260614353586	-0.405225775912466	-0.355665128048134	0.842196169088084	-3.92105168295089	-32.4166489953003	48.5596187554469
5631	1653386807292	5.22066611381195	-0.66851216720693	8.33836975555641	0.0224287110539624	-0.122662337166241	0.0470856446327144	0.0259735026116296	-0.00453014280670667	-0.0063021957713861	0.59814453125	-0.406005859375	0.31787109375	0	0	0	0.0848911080828492	-0.267771124404994	0.3859220197586	0.878724256731766	0.558725639200656	0.632775305010934	0.536116660315773	-0.723700854864256	0.687715388867818	-0.057485794620338	-0.405071268752258	-0.355869298033289	0.842184249406703	-3.90483720861923	-32.4196722977489	48.5562569965647
5632	1653386807293	5.21928148207286	-0.64534710828636	8.31085061368472	0.015694391931706	-0.097768412635863	0.0218337071728509	0.0198318573736845	-0.00473872612589949	-0.00770279220308946	0.590576171875	-0.40087890625	0.306396484375	0	0	0	0.0848921017532979	-0.26778605085687	0.385991037732916	0.878689297087575	0.558603099512697	0.632866545900369	0.536136654496729	-0.72379822861019	0.687608499699549	-0.0575384688855012	-0.405066292692394	-0.35591359375707	0.842167924052779	-3.90847965823969	-32.4210294014349	48.5665908562473
5633	1653386807294	5.21975846193429	-0.670776988441485	8.28986403144776	0.0439874599541468	-0.109082789264685	0.00585792394078055	0.0213838975229546	-0.00298373848881087	-0.00479050648730808	0.592041015625	-0.40771484375	0.32177734375	0	0	0	0.0849939162859102	-0.267760296830288	0.386000321845199	0.878683224587304	0.558616349953517	0.632828022474386	0.536168320153072	-0.723860007488321	0.687559571459572	-0.0573456646429006	-0.404937603988091	-0.356076578372528	0.842160915271479	-3.89545553811018	-32.4231787474988	48.5641861732332
5634	1653386807295	5.26885846616853	-0.666935770469695	8.28787247897465	0.0697542387275098	-0.0740398242699891	0.030287548687653	0.0244720668972816	-0.00445324407001855	-0.00474948057380884	0.589599609375	-0.40234375	0.3212890625	0	0	0	0.0849916489023236	-0.267731277176733	0.386046644943512	0.878671935802002	0.558575902298347	0.632906860224817	0.536117400997163	-0.723926551064719	0.687488815089445	-0.057353969265021	-0.404874437369327	-0.356073075937056	0.842192765676359	-3.89587104122497	-32.4197225710843	48.5697855991701
5635	1653386807296	5.21979557617955	-0.669963986596977	8.26546021823029	0.0545233305292624	-0.100900157075724	-0.0147387853683725	0.0153065803201236	-0.00786404383884778	-0.00740611768487519	0.587890625	-0.40966796875	0.31689453125	0	0	0	0.0850793533688841	-0.267737604764358	0.38603458943588	0.878666816480769	0.558587741508233	0.632833682930399	0.536191444155424	-0.723949452073941	0.687477598778809	-0.05719914351775	-0.404817151166515	-0.356224761809269	0.842156157250754	-3.88555486040361	-32.4247483504613	48.5658962746812
5636	1653386807297	5.21949916273466	-0.671271750328127	8.24109517587903	0.0656672175383234	-0.0918296822904928	-0.0353318081477685	0.0244456251337203	-0.00455634681884621	-0.00627259886920273	0.59716796875	-0.408935546875	0.314697265625	0	0	0	0.0850505430075042	-0.2676660151519	0.38610260145069	0.878661533595184	0.558559370971425	0.632976727964859	0.536052134549343	-0.724037287698155	0.687382372574277	-0.057231808436023	-0.404699190909378	-0.35615437064433	0.842242618933663	-3.88736911442117	-32.4152927549392	48.5737646499528
5637	1653386807299	5.22066813806616	-0.638347330224012	8.28606294966634	0.0254207850354213	-0.0861677243071057	0.00126346896014695	0.0183036163504187	-0.00476655542960085	-0.00767226769558414	0.5908203125	-0.407958984375	0.311279296875	0	0	0	0.085145283744738	-0.267652059352526	0.38609563156165	0.878659671926162	0.558585076826725	0.632914700843299	0.536098585525945	-0.724071942997036	0.687360887890078	-0.0570511276265566	-0.404601697118263	-0.356306035951402	0.84222531156076	-3.87521353069228	-32.4184454901756	48.5696708576581
5638	1653386807300	5.24658325764934	-0.659728571811803	8.28816087634386	0.0535348584946743	-0.0845028380861984	0.0181560049525249	0.0199206073377507	-0.00768082587980996	-0.00597509196714587	0.594482421875	-0.40673828125	0.308349609375	0	0	0	0.0851213284736446	-0.267682049696739	0.386187815149479	0.87861234406256	0.558410583400448	0.633047859676296	0.536123146026762	-0.724189666391234	0.687226661737907	-0.0571737919743402	-0.40463186656333	-0.356328391734132	0.842201359418068	-3.88363018089449	-32.4201125127084	48.584531405578
5639	1653386807301	5.22293230980411	-0.658592675438197	8.28884187651172	0.0400002762682556	-0.100783531091366	0.00596367270818376	0.0215071679142129	-0.00907252070847116	-0.00438063754616447	0.5947265625	-0.4091796875	0.31201171875	0	0	0	0.0852333940088064	-0.267682787138598	0.386198271431806	0.87859665897301	0.558393641225594	0.632993997031155	0.536204383758046	-0.724256046893393	0.687172327377649	-0.0569857089518144	-0.404536426020177	-0.356528809788085	0.842162388030903	-3.87107179773848	-32.4256266722112	48.5829752528627
5640	1653386807301	5.22445079927234	-0.653379257606959	8.3127482092813	0.0258994559405749	-0.104561782310491	0.02661998996353	0.0183882626990094	-0.00608130187426646	-0.00452513739241108	0.592529296875	-0.404296875	0.3154296875	0	0	0	0.0852085144878194	-0.267736649116296	0.386284532418536	0.878544737502279	0.55820269346834	0.633109601979375	0.536266710589244	-0.72436337055996	0.687047538145943	-0.0571260686430677	-0.404607785881222	-0.356564036617709	0.842113191557512	-3.88080342740915	-32.4298574483483	48.5978869915909
5641	1653386807302	5.24955533236869	-0.678224957656347	8.29064675586779	0.0675560774366939	-0.0994713306452844	0.0228698269974341	0.0183921058825968	-0.00770802223103736	-0.00594428008558275	0.597412109375	-0.405029296875	0.31005859375	0	0	0	0.0853056912321679	-0.267737750245945	0.386284850895146	0.878534831469736	0.558201022124309	0.633050285053607	0.536338471017066	-0.724408500468311	0.687013906024634	-0.0569580317253899	-0.404529286144565	-0.356734116005638	0.842078872273284	-3.86957995386808	-32.4347288275297	48.5953090317803
5642	1653386807302	5.22388859597458	-0.628775869544941	8.28476500897777	0.0191806430178092	-0.0796473461651802	0.00133273216680152	0.0214500427020983	-0.0076544775094759	-0.00600630199088149	0.58935546875	-0.410888671875	0.314453125	0	0	0	0.0853148926448817	-0.267758006731663	0.386338265224663	0.878504276453608	0.558096789308571	0.63311214511683	0.536373923181423	-0.724487127513308	0.686928227832381	-0.0569913315740299	-0.404532292692415	-0.356789323708866	0.842054037848159	-3.87194922307599	-32.4371355565714	48.6033939751221
5643	1653386807303	5.22745438851099	-0.699447610033694	8.29443564156081	0.069171984926838	-0.131031146837338	0.015395604354218	0.0153038037175707	-0.00623953062000172	-0.00598567062723162	0.588134765625	-0.41015625	0.3212890625	0	0	0	0.08539548149412	-0.267759086341213	0.386334948778403	0.878497575850096	0.558100758068216	0.633057799730928	0.53643393446306	-0.724519464141063	0.686905838185553	-0.0568499388508965	-0.404468898587309	-0.356928832775441	0.842025366844213	-3.86250333248639	-32.4412096685032	48.6007520789833
5644	1653386807304	5.22603492241341	-0.621734428082993	8.30840630734498	0.00593335498818535	-0.081483386774113	0.0219928508707063	0.0230373436188333	-0.00904508049211849	-0.00441162217587549	0.59716796875	-0.406005859375	0.3134765625	0	0	0	0.0853384149103425	-0.267731597938151	0.386462463573435	0.878455411876338	0.557933111428471	0.633284504847382	0.536340730405543	-0.724675665605202	0.686728238378683	-0.0570044409933832	-0.404420354150731	-0.356868410669138	0.842074292812149	-3.87274428492862	-32.4348822079512	48.6194665576634
5645	1653386807304	5.25398911169739	-0.691473778902761	8.31711257336792	0.0693069672602289	-0.116442199655898	0.0482728671304127	0.0152458036702804	-0.00482257626101222	-0.00761183753875013	0.591796875	-0.40380859375	0.320068359375	0	0	0	0.0854171329226201	-0.267725412227872	0.386453967098081	0.878453384286754	0.557952869923143	0.63322691629064	0.536388168614461	-0.724700264782765	0.686714489434869	-0.056857156312966	-0.404349009110099	-0.356997034280755	0.842054034101391	-3.86286110205577	-32.4381026495412	48.6158756184532
5646	1653386807305	5.20404412037873	-0.670515417480657	8.29135241758282	0.0366198913424997	-0.123880846050799	-0.00139269032793621	0.0230961629707761	-0.0104618938601943	-0.00278536017268387	0.5927734375	-0.4091796875	0.3134765625	0	0	0	0.0854268389582414	-0.267716412121321	0.386537784929637	0.878418305073488	0.557832927005154	0.633343398119972	0.536375396160851	-0.724824065419037	0.686581592014585	-0.056884019690402	-0.404292591743013	-0.357046016032339	0.84206035573298	-3.8646517383148	-32.4372355536157	48.6272127928041
5647	1653386807305	5.20679722987137	-0.689518507479634	8.31842972114909	0.0414472362150012	-0.146676292111627	0.0239387924082539	0.0169806413360078	-0.0105698293944565	-0.00266018165811413	0.58984375	-0.406494140625	0.318603515625	0	0	0	0.0855174782301928	-0.267734071430814	0.386551167260822	0.878398214366084	0.557793324168752	0.633299824915932	0.536468022601743	-0.724883595416194	0.686529912012889	-0.0567490353051635	-0.404240498477411	-0.357222636003131	0.842010455824457	-3.8557365052994	-32.443523963583	48.6272751866919
5648	1653386807306	5.22909739053955	-0.641968873884407	8.28625864097159	0.0317159559234189	-0.0871800607236322	0.00612413526222966	0.0199491916269515	-0.0075766899776699	-0.00445375126678639	0.596435546875	-0.41015625	0.3056640625	0	0	0	0.0854762419499716	-0.267724686137948	0.386649556633846	0.878361784715898	0.557651225574374	0.633468189152417	0.536416968362632	-0.725004589345647	0.68639186483392	-0.056873133530377	-0.404219564151896	-0.357189391250317	0.842034608988894	-3.86403217080034	-32.4400578365362	48.6420694252111
5649	1653386807307	5.23092430694371	-0.69178398430702	8.26845326209289	0.0767022948381798	-0.115567736780384	-0.00507735565110678	0.0199804368688054	-0.00909901065595002	-0.00434941162247841	0.593994140625	-0.40576171875	0.321044921875	0	0	0	0.0855787722227215	-0.267729271853201	0.386661018099307	0.878345357943112	0.557628588150724	0.633419935943608	0.536497476626149	-0.725067705436729	0.686339061654517	-0.056705511018893	-0.404137575844844	-0.357376380300086	0.841994621475613	-3.85286045266953	-32.4455236895204	48.6410583314924
5650	1653386807308	5.23147933194502	-0.634955667272582	8.30975503232628	0.0177467704207349	-0.0904594099741896	0.0267778298601922	0.0169226906303426	-0.00915313672482148	-0.00428639120905139	0.59228515625	-0.402587890625	0.317138671875	0	0	0	0.0855514887331693	-0.267775579844778	0.386770143760188	0.878285851821635	0.557410189469034	0.633572291338969	0.536544529674458	-0.725206689347403	0.686179597342524	-0.0568578747108234	-0.404189483289554	-0.357412523337306	0.841954363228663	-3.86336567002061	-32.4487183603558	48.6590236384053
5651	1653386807309	5.23236961064959	-0.660777415637153	8.2885766478441	0.0459945040367025	-0.101690919474767	0.0108743402084457	0.0200083353189996	-0.00899324725016667	-0.00282740843770956	0.593017578125	-0.407470703125	0.313232421875	0	0	0	0.0856513245131217	-0.267780899439205	0.386788767580993	0.878266297758177	0.557375678337414	0.633535500403047	0.536623818821871	-0.725278655268179	0.68611659976465	-0.0566999447951926	-0.404107937821431	-0.357598631508087	0.841914481009356	-3.85284900125449	-32.4541019602048	48.6591328791309
5652	1653386807310	5.20892358290852	-0.687550062767404	8.26838636101659	0.0599572796216762	-0.127118977155205	-0.0171746836885998	0.0170093959183865	-0.0104637584927039	-0.00113705303719431	0.595458984375	-0.40673828125	0.31201171875	0	0	0	0.085626147151914	-0.26779554833464	0.38686018659962	0.878232829744013	0.557249480632514	0.633646030728703	0.536624378943552	-0.72536723484202	0.686014717896052	-0.0567994845719671	-0.404122989883568	-0.357598258625178	0.841907414432137	-3.8596247554979	-32.4541399926698	48.6705236959944
5653	1653386807311	5.23505706604984	-0.681640200529983	8.2911225555706	0.0613896448887893	-0.116315622811379	0.0156324692769871	0.0215964829481062	-0.0103825421042672	-0.00123239572443931	0.590576171875	-0.406005859375	0.31640625	0	0	0	0.0857331573838255	-0.267804579505543	0.386887741222915	0.878207497469869	0.55719716577458	0.633615965716578	0.536714194373341	-0.72545489436801	0.685935402832861	-0.0566376145156245	-0.404037763940793	-0.357803620900584	0.841861065841719	-3.84886975510376	-32.4602387005939	48.67184308505
5654	1653386807312	5.23488735076113	-0.655672981354523	8.28739215541138	0.0430860951454596	-0.0967505897162007	0.0109374255413286	0.018451861167776	-0.00912702863909384	-0.00431824721932599	0.593505859375	-0.40771484375	0.320556640625	0	0	0	0.0857096757406111	-0.267826721822382	0.386968847841318	0.878167301465204	0.557047915756479	0.633736094755683	0.536727288066461	-0.725557460683952	0.685817924569605	-0.0567463266202684	-0.404059390185672	-0.357816065238629	0.841845397124631	-3.85630669123143	-32.4611278318662	48.6848407327062
5655	1653386807313	5.23481928952588	-0.684973984607853	8.24211184218671	0.083056482860578	-0.102215745976435	-0.0255742382413651	0.0169195985936978	-0.00752558267375214	-0.00286940339695883	0.581787109375	-0.401123046875	0.3095703125	0	0	0	0.0857923031207603	-0.267831806223241	0.386984650477919	0.878150718609804	0.557018007739358	0.633705882806526	0.536793995076768	-0.725617512826066	0.685765122039437	-0.0566164505629698	-0.403992777329236	-0.357970741109713	0.841811608600863	-3.84766121799979	-32.4656577282602	48.6850117043454
5656	1653386807315	5.23631336071554	-0.652301204362776	8.28675732336811	0.0419842903261153	-0.0938308074031887	0.0109705185223898	0.0199811278315123	-0.00910007946248855	-0.00435024044114898	0.587158203125	-0.408447265625	0.31201171875	0	0	0	0.085756784424857	-0.267817777511065	0.387011875015081	0.878146468746219	0.55699089329269	0.633771839992371	0.536744259048661	-0.725640605637013	0.68573516504484	-0.0566832856464203	-0.403988683306549	-0.357911355301296	0.841838823948284	-3.85206551088869	-32.4622802647107	48.6893516260557
5657	1653386807316	5.23792482420765	-0.646881209859279	8.31062075571134	0.030030828298384	-0.0993935231525023	0.0315976685359161	0.0230079840536686	-0.00752360883513317	-0.0045199321754893	0.588134765625	-0.40673828125	0.309326171875	0	0	0	0.085867763922745	-0.267810054568959	0.387029393991424	0.878130257978456	0.556972045716804	0.63373194209814	0.536810921884566	-0.725716944265599	0.685669950611078	-0.0564945628782425	-0.403877527346892	-0.358106889620295	0.841809003581358	-3.83941436270865	-32.4668072191911	48.6885244117658
5658	1653386807317	5.23983086403951	-0.696876152948581	8.29284298986694	0.0728658985488435	-0.125230886668974	0.0205072491683751	0.0123397744347129	-0.0108652011803532	-0.00560587429492589	0.59423828125	-0.40185546875	0.3134765625	0	0	0	0.0857883915609592	-0.267882749590186	0.38708270404266	0.878092343991455	0.556811625406047	0.633826257394202	0.536865988166819	-0.725751178251279	0.685614664208811	-0.0567252984894657	-0.404037177843272	-0.358045817821543	0.84175836869077	-3.85527934312092	-32.4705468440031	48.7009360951898
5659	1653386807318	5.23878708717262	-0.674275422009477	8.2649208237406	0.0676314555001025	-0.102150380061079	-0.0048616872373568	0.0260978141275688	-0.00899107770242487	-0.00447947460038535	0.591064453125	-0.40771484375	0.318603515625	0	0	0	0.0859146413681532	-0.267876119252415	0.387104898058239	0.878072239073852	0.556784365267172	0.633783167755579	0.536945124629823	-0.725841090622235	0.685536944595804	-0.0565137926401634	-0.403913210675707	-0.358270838701608	0.841722118265695	-3.84111258623397	-32.4759213789721	48.7003955558364
5660	1653386807318	5.24039429974012	-0.668884412560056	8.28878942815584	0.0549210338412369	-0.105461620625763	0.0157932044506932	0.016920506880372	-0.00752535080657168	-0.0028696238463717	0.59326171875	-0.4033203125	0.31689453125	0	0	0	0.0858870369640984	-0.26786849075643	0.387174614438124	0.87804652865101	0.556684579189124	0.633901790444147	0.536908557730953	-0.725927514312606	0.685438469632434	-0.0565981299325911	-0.403895436043722	-0.358249388582381	0.8417397770828	-3.84674714005838	-32.4734379064384	48.7108039744319
5661	1653386807319	5.21578449177215	-0.671319235229381	8.26539447299332	0.0530606479561832	-0.11593316801721	-0.0169961250895536	0.0214230973563359	-0.0077653884863024	-0.00753310780666841	0.59619140625	-0.410400390625	0.31396484375	0	0	0	0.085994196459356	-0.267864055006923	0.387178050475614	0.878035878219371	0.556684010530303	0.633842930811908	0.536978632237511	-0.725981947494568	0.685396310810426	-0.0564101856002261	-0.40379837088811	-0.358434144840065	0.841707692421116	-3.83415719221809	-32.4781971372588	48.7081950996715
5662	1653386807320	5.2660550905697	-0.636678681152113	8.30793930693993	0.0379684020094836	-0.0749702920293338	0.0438581319316658	0.0185098844023	-0.00891249943829324	-0.00127359824962238	0.6005859375	-0.401123046875	0.309814453125	0	0	0	0.0859731665966063	-0.267883713019961	0.387300643978976	0.877977871075041	0.556473054944219	0.634021167557343	0.53698686968144	-0.726144411909273	0.685213651597645	-0.0565379935720838	-0.40379701853033	-0.358468144684357	0.841693861847983	-3.84288115887195	-32.4787566139811	48.7269489235424
5663	1653386807321	5.2192321002682	-0.688333842913284	8.29227901542369	0.0562177927291338	-0.136126497078069	0.00843208397310846	0.0231005005583411	-0.0104602930806948	-0.00278683202407025	0.588134765625	-0.406005859375	0.3134765625	0	0	0	0.0860861256267355	-0.267890083049801	0.387326403515049	0.877953495077186	0.556426321087336	0.633985900716264	0.537076928283276	-0.726232378090591	0.68513487222935	-0.0563625750667622	-0.403703210557084	-0.358681034553346	0.841648164756298	-3.83120092598451	-32.4848735066249	48.7277545148923
5664	1653386807322	5.24406066693152	-0.630319391018482	8.33248785754341	0.0107824020456284	-0.0954988935417278	0.0523312446973634	0.0183300901921827	-0.0046693419597474	-0.00615960960028845	0.596435546875	-0.40234375	0.318115234375	0	0	0	0.0860883703214744	-0.267926216766503	0.38736069109311	0.877927121041633	0.556334474730114	0.63401824993649	0.537133885520397	-0.726279575407796	0.685080974982522	-0.0564095387542743	-0.403744883029174	-0.358726799200266	0.841608669729163	-3.83456312925479	-32.4887423279042	48.7338929623174
5665	1653386807322	5.22001585817164	-0.715724599238589	8.24668079047167	0.0943462681814774	-0.140173712150288	-0.0280043822551725	0.0155256105164419	-0.0169011233737105	-0.00524076044837465	0.591064453125	-0.402099609375	0.3212890625	0	0	0	0.0861836457524786	-0.267975164442714	0.387362660641849	0.877901964678961	0.556278960764736	0.633942728355912	0.537280499343841	-0.726323034927084	0.685045096690558	-0.0562855615103403	-0.403743194053863	-0.358928729227526	0.841523380893424	-3.82654719347141	-32.4987018396672	48.7333438191611
5666	1653386807323	5.21979164388469	-0.662365689819198	8.26358698540318	0.0493882389954254	-0.109277989909775	-0.0169004174272267	0.019973356909937	-0.0042099538568703	-0.00010533809786492	0.594482421875	-0.400634765625	0.3134765625	0	0	0	0.0861803896565435	-0.267895467708908	0.387424727321144	0.877899219432282	0.556268198082326	0.634065059819242	0.537147271908426	-0.726414402996744	0.684950042197568	-0.0562632634356894	-0.403593616055961	-0.358894050675087	0.841609917639343	-3.82464363667331	-32.4896516226765	48.7393740681845
5667	1653386807323	5.27124423202854	-0.679538248620081	8.28871181027772	0.0808156355316336	-0.0990491030014541	0.0328288314843572	0.0184919157577672	-0.0139108676992472	-0.00704107447004514	0.58544921875	-0.406005859375	0.30908203125	0	0	0	0.0862854704497511	-0.267923900838495	0.387424221440367	0.877880443790654	0.55623851200162	0.633988415249471	0.537268468361664	-0.726460174563799	0.684914580461182	-0.0561037631930143	-0.403552143519221	-0.359097071557466	0.841543201897499	-3.81413469111606	-32.4978845306654	48.7374562806264
5668	1653386807324	5.22430205032542	-0.648263499201096	8.33522456538328	0.0120969245916985	-0.124353479158119	0.0449967225151333	0.0215122641430095	-0.00907310531753869	-0.00438415646198555	0.594482421875	-0.40625	0.31298828125	0	0	0	0.0862779369669168	-0.2679655314597	0.387444399210208	0.877859572518802	0.556162622940323	0.634004522865782	0.537328020700459	-0.726482575796127	0.684885910226748	-0.0561636629637317	-0.403616406887486	-0.359123314418059	0.841501183084507	-3.81838494347134	-32.5019302133392	48.7420534442843
5669	1653386807325	5.27412591197309	-0.727562415510056	8.27059370998016	0.123963025458915	-0.12547775880758	0.021811087971269	0.0169538803747234	-0.00904713657041122	-0.00276323316596724	0.601806640625	-0.4052734375	0.318603515625	0	0	0	0.0863606301027838	-0.267977928670304	0.387463041681564	0.877839428736653	0.556120442152887	0.633975184785408	0.537406288478265	-0.726546155879834	0.684828465798241	-0.0560415543027125	-0.403560078793621	-0.359284619081773	0.841459342627647	-3.81029654599973	-32.5072476044541	48.7428933471332
5670	1653386807326	5.22375934948996	-0.623945420282698	8.30705296788237	0.0053059534986551	-0.0993488717597517	0.0196165335426457	0.0198012414626914	-0.00486035769013916	-0.00923967183430624	0.5888671875	-0.40087890625	0.314697265625	0	0	0	0.0863765816286412	-0.267981152656983	0.387560168602686	0.877793998429838	0.555966435066584	0.634101388244962	0.53741674006786	-0.726690571874615	0.684672403717616	-0.0560759514951525	-0.40351224991058	-0.359359331329178	0.841450375933571	-3.81266884322863	-32.5079576929984	48.7564135740147
5671	1653386807327	5.25010331639083	-0.700647709911988	8.26766188456167	0.0920773810789055	-0.122613278496389	0.00490972316958604	0.0154604680168165	-0.0122271605555064	-0.00403666305379391	0.5888671875	-0.40283203125	0.31689453125	0	0	0	0.086460465320656	-0.268010145934391	0.387569842783343	0.877772616671115	0.555920357282242	0.634051826229206	0.537522872085078	-0.726740953941784	0.684628409802861	-0.0559600424820365	-0.403484996279873	-0.359530558014494	0.841390299225524	-3.80508209926563	-32.5151686965544	48.7565475764043
5672	1653386807328	5.22645876085791	-0.672228996357461	8.28904791614279	0.0498344083573562	-0.125222104944683	0.00861163516295704	0.0215390070766218	-0.00733291703702713	-0.00144843349325975	0.6005859375	-0.40380859375	0.3134765625	0	0	0	0.0864429332610369	-0.267973379898037	0.387587596790154	0.877777729137441	0.55593224496091	0.634102711116078	0.537450547276642	-0.72676033109312	0.684606948207322	-0.0559709533211257	-0.403433712228094	-0.359481679952535	0.8414357739105	-3.80561673905917	-32.5102546175864	48.758219500098
5673	1653386807329	5.25157993484636	-0.697193482486836	8.26701605832469	0.0913940292831764	-0.119954783155342	0.00494895069308043	0.0168647372391397	-0.00774286699109982	-0.0059147006725195	0.58544921875	-0.40673828125	0.30712890625	0	0	0	0.0865265464363945	-0.267978677844864	0.387593343848336	0.877765335831152	0.555917656049969	0.634057464232893	0.53751901523803	-0.726806542282922	0.684569113132512	-0.0558334974697902	-0.403370561378309	-0.359633509833997	0.841401169964618	-3.79645377829053	-32.5149066379081	48.7569381318933
5674	1653386807330	5.22681627740077	-0.644501613740373	8.28501948732573	0.0301791073036446	-0.106092981472513	0.0038482682254628	0.0199843287574444	-0.00910051150620692	-0.00435144944901951	0.586181640625	-0.410400390625	0.308837890625	0	0	0	0.0865145601485875	-0.268060251133752	0.387663321065747	0.877710705269499	0.555721702524771	0.634130264439154	0.537635747570136	-0.72689472331978	0.684464760765144	-0.0559647431922622	-0.403481660739161	-0.359703765608651	0.841317865288813	-3.80572745786482	-32.5228385112386	48.7702115954866
5675	1653386807332	5.25381379781558	-0.662414773429997	8.31127328768103	0.0481928368511004	-0.112237283046182	0.0414334181078608	0.0183619581610901	-0.00619348504557745	-0.00605626384136089	0.59521484375	-0.407470703125	0.31298828125	0	0	0	0.0866013468491885	-0.268056746515318	0.38767137000008	0.877699661760098	0.555712979059767	0.634089910085813	0.537692357051767	-0.726946211206765	0.684422231212335	-0.0558159066437118	-0.403400905944259	-0.359855797993718	0.841291574743059	-3.79575413316354	-32.526685334636	48.7688500398186
5676	1653386807333	5.25526730529066	-0.684520546148437	8.31462239373285	0.0618381587195332	-0.126446220859256	0.0462951083774978	0.0228852592398175	-0.00306639043070848	-0.0063731157617612	0.595947265625	-0.405029296875	0.3125	0	0	0	0.086547589887896	-0.268097930028873	0.38780072077226	0.877635240613859	0.555468201765499	0.634288698374514	0.537710818137191	-0.727101617166245	0.684240231306225	-0.0560227112538693	-0.403457947178679	-0.359851570757122	0.84126602919766	-3.80989186073953	-32.5279398692021	48.7902635129765
5677	1653386807334	5.22848068211083	-0.666260164430444	8.26380360029438	0.0549957977523326	-0.114116701412939	-0.0119059983455543	0.0184237940384102	-0.00760605050092927	-0.00442556683945707	0.593505859375	-0.4111328125	0.31689453125	0	0	0	0.0866340674120263	-0.268102050817417	0.387816342440117	0.877618546549418	0.55543954976773	0.634256087273178	0.537778878639485	-0.727163171848452	0.684186045800037	-0.0558853848497965	-0.403386450021715	-0.360012042145024	0.841231657422288	-3.80073504976571	-32.5325651144145	48.7902682854226
5678	1653386807334	5.22995317547026	-0.660767105188099	8.28776538503096	0.0411155753151945	-0.11713778527329	0.0087517527237182	0.022917737731303	-0.00458857636466028	-0.00626526418110289	0.59521484375	-0.404052734375	0.3173828125	0	0	0	0.0866190257937316	-0.268108637903357	0.387960454405408	0.877554322232932	0.555208888198312	0.63446612919369	0.537769301254329	-0.727359365281983	0.683967660376188	-0.0560052970362124	-0.40335027482597	-0.360056898927793	0.841229805304303	-3.80887459493196	-32.5319142415396	48.8114651814679
5679	1653386807335	5.25671743945714	-0.678413968539742	8.31420618849294	0.0590677216705252	-0.123222959771602	0.0463529088527395	0.0198595384703257	-0.00464425387434247	-0.00619815234306951	0.59814453125	-0.404296875	0.319580078125	0	0	0	0.0867077911192328	-0.268096568520142	0.387972083628049	0.877544102157982	0.555203784546071	0.63443310505342	0.537813529801916	-0.72741735010553	0.683918842569068	-0.0558481471889207	-0.403252720252659	-0.360207790020237	0.841211977813897	-3.7982985483925	-32.53492002431	48.8102482008783
5680	1653386807336	5.23098365050536	-0.684281508443733	8.26684121151325	0.0688204223663651	-0.126117968922358	-0.00700266614527045	0.019833517935045	-0.00638649965528069	-0.00913317199632839	0.6025390625	-0.411376953125	0.31982421875	0	0	0	0.0867313263831118	-0.268055289264939	0.388045503778219	0.877521923326377	0.555134097789197	0.634539292063317	0.537760188466531	-0.727534455191145	0.68379672804267	-0.055818018845747	-0.403137383507781	-0.360252580207171	0.841248077841832	-3.79609304707513	-32.5312949467779	48.8185644035944
5681	1653386807336	5.25670399450314	-0.65029422116314	8.31040293291283	0.041530897875656	-0.103676884100501	0.0415575301471254	0.0168014469401129	-0.00469988482070802	-0.00613105797336088	0.5888671875	-0.407470703125	0.317138671875	0	0	0	0.0868067461500149	-0.268049048979072	0.38805338096629	0.877512888614688	0.555128561724094	0.634506755035891	0.537804293188483	-0.727580618037808	0.683758324686957	-0.0556866023115718	-0.4030616878517	-0.360382756572938	0.841228592328524	-3.78726912910623	-32.5342922935216	48.8173915843068
5682	1653386807337	5.25826915596964	-0.700126315140082	8.29311722584939	0.0852924404017439	-0.128853036575975	0.0306599529164	0.0229184887393976	-0.00458810273626156	-0.00626597746934801	0.588134765625	-0.395751953125	0.32177734375	0	0	0	0.0867879961708405	-0.268011141228836	0.388243430569058	0.877442254805316	0.554874133594373	0.634802082466309	0.537718338876714	-0.727842682061152	0.683469764681239	-0.0558042197024681	-0.402938861414388	-0.360410039903178	0.841275743795735	-3.7950328908505	-32.5284509507659	48.8436192535328
5683	1653386807338	5.23224235543315	-0.650636712654187	8.28712194764933	0.0381697433725649	-0.11084285144973	0.00883670346309451	0.0198602173260789	-0.00464415257330448	-0.00619850895086635	0.596435546875	-0.412353515625	0.31689453125	0	0	0	0.0868761742699073	-0.267998519835469	0.388255944811859	0.877431846372397	0.554868229368498	0.634770888816051	0.537761254414214	-0.727901633269264	0.683419703324951	-0.0556481930629693	-0.402840489923004	-0.360559881044629	0.841258647420445	-3.78452967527932	-32.5313673871574	48.8425262285468
5684	1653386807338	5.23469414471001	-0.696713920059488	8.29405216128964	0.0715703847390406	-0.142204369535381	0.0185582063422434	0.0243861117282647	-0.00314889021598948	-0.00793130922532267	0.58935546875	-0.407470703125	0.315673828125	0	0	0	0.0868785168791416	-0.267906753868219	0.388314517997839	0.877433718094296	0.554875612687799	0.634889819757725	0.537613217110911	-0.727991185509629	0.683327916833973	-0.0556038838178397	-0.402668459485747	-0.360524444168973	0.841356189073349	-3.78108789811247	-32.5213075291201	48.8474671685008
5685	1653386807339	5.28366831224446	-0.665084736815684	8.31250156392016	0.0693471466234345	-0.097547622133146	0.0586269336336862	0.0167106189421491	-0.00340031372730079	-0.00928406117250729	0.588623046875	-0.413330078125	0.30615234375	0	0	0	0.0869543949951262	-0.267892685057434	0.388310358726279	0.877432338012236	0.554897149197173	0.63484323915756	0.537645994599408	-0.728021024568716	0.6833079969938	-0.0554578130675708	-0.402584825345872	-0.360644205471623	0.8413448849675	-3.77123424736817	-32.5235348225236	48.8442822738847
5686	1653386807340	5.23540869701564	-0.692379919769724	8.29396408104413	0.0677217279482731	-0.138515948812369	0.0186381298766634	0.0259780088641981	-0.00453124996884253	-0.00633381416537871	0.5927734375	-0.4111328125	0.312744140625	0	0	0	0.0868927311207162	-0.267942959054566	0.388474821166025	0.877350293378587	0.554587768026217	0.635092405646777	0.537670943835995	-0.728221587634047	0.683073933196816	-0.0557074599203818	-0.402648391105004	-0.36064891248529	0.841312447942933	-3.78830700570576	-32.5252302081551	48.8712545163699
5687	1653386807341	5.25816544324773	-0.641080069157516	8.28573601290141	0.0471775688508497	-0.0875334347248761	0.0210718708702444	0.0183941338828037	-0.00608294067199034	-0.00453252969623002	0.587158203125	-0.41015625	0.317626953125	0	0	0	0.0869734163527178	-0.267940347645399	0.388493861252134	0.877334665176868	0.554560979746142	0.635070888542908	0.537723987068013	-0.728285638196729	0.683016289234689	-0.0555767742538	-0.402569433687386	-0.3607959467142	0.841287189903199	-3.77955884108329	-32.5288347828094	48.8716639481334
5688	1653386807341	5.23620719675314	-0.660590708935672	8.31435337403786	0.036402856272582	-0.122923849489818	0.0344585227411809	0.021328145676205	-0.0032055450107172	-0.00786437007877344	0.591796875	-0.412841796875	0.30810546875	0	0	0	0.0868966680388101	-0.267932588263216	0.388664961068999	0.877268855749228	0.554303352367615	0.635362432975462	0.53764521044786	-0.728492229691814	0.682777034241973	-0.0558085368952227	-0.402550450046541	-0.360735499050533	0.841322194460654	-3.79511669541114	-32.5234815372727	48.8978813000108
5689	1653386807342	5.23762076446386	-0.682684910280271	8.31780691125894	0.0527825736331392	-0.139659004971132	0.0393353146340516	0.0198909959896654	-0.00453264555996961	-0.00467652151269454	0.596923828125	-0.404052734375	0.309814453125	0	0	0	0.0869798783024606	-0.267920384045222	0.388687386861885	0.877254400888379	0.554281566215081	0.635348076590782	0.537684635196647	-0.728562806186789	0.682713232129937	-0.0556675858640011	-0.402452708768854	-0.360881509982278	0.8413063371671	-3.78563073080552	-32.5261605963545	48.8983555416453
5690	1653386807342	5.23614185433838	-0.687853052237635	8.26944346985387	0.0724499168948695	-0.126459353834007	-0.00183738194851379	0.0214204671745308	-0.00450438694050603	-0.00471059799838866	0.594482421875	-0.40283203125	0.319091796875	0	0	0	0.0869622500717312	-0.268026824058963	0.38884672683926	0.877153014971574	0.55391968922252	0.635539726218274	0.537831046231089	-0.728772589017264	0.682471580177712	-0.0558843068026375	-0.40257110103521	-0.361001106159161	0.841198377294655	-3.80081187118343	-32.5361104728732	48.9254507640522
5691	1653386807343	5.23726600780186	-0.654516351663263	8.31416688532842	0.0317078563678557	-0.120386621878709	0.0345061056440006	0.0213250821940758	-0.0015726161222578	-0.00645360776515069	0.592041015625	-0.406494140625	0.3173828125	0	0	0	0.0870475154984058	-0.267999560583072	0.388864909695204	0.877144827027199	0.553920635070042	0.635524296096254	0.537848304928966	-0.728839079709937	0.68241362410659	-0.055724693998988	-0.402449407915048	-0.361137805698974	0.841197931145671	-3.78998994886038	-32.5372834209792	48.9247132789757
5692	1653386807343	5.23577861203005	-0.687437961182604	8.24527419132113	0.0833575353720714	-0.117885934054239	-0.0224039507589513	0.0183622752595919	-0.00456105365712788	-0.00464220375829792	0.594482421875	-0.40234375	0.3134765625	0	0	0	0.0870303146328831	-0.267949443835799	0.388940138219407	0.877128490453283	0.553857328859909	0.635661503820688	0.537751347584167	-0.72894040143163	0.68230258643354	-0.0557590504473877	-0.402353017173799	-0.361106124437848	0.841257639765974	-3.7920514329358	-32.5306941344826	48.9340830502453
5693	1653386807344	5.26343477835326	-0.673877203487978	8.31645454071603	0.0608527768761595	-0.118039040110933	0.0515731588387211	0.0182439500449245	-0.00500977880485135	-0.0107293454577287	0.591796875	-0.404541015625	0.318359375	0	0	0	0.0871142913465865	-0.267940926244163	0.388934337035884	0.877125328422945	0.553875483035755	0.635605348390103	0.537799024162191	-0.728971284040136	0.682282363435279	-0.0556025502116949	-0.402272067557249	-0.361243155842522	0.841237520573203	-3.78152929133446	-32.5339342064477	48.9306457761078
5694	1653386807345	5.2383926806701	-0.676105569334668	8.29342255695587	0.0584194483977212	-0.12689942515395	0.0188546092108339	0.0243212944371662	-0.000105846369817009	-0.00815561848111464	0.591552734375	-0.406982421875	0.309326171875	0	0	0	0.0871292619780903	-0.267892783624804	0.388975748121155	0.877120183077835	0.553862647710684	0.63567435775676	0.537730674558781	-0.729039559862701	0.682212718161483	-0.055561923418115	-0.402165995114094	-0.361253260288752	0.841283896377815	-3.77856656973595	-32.5292892442622	48.9343843670433
5695	1653386807346	5.23952982077014	-0.670201556403173	8.31761979141227	0.0462228861533898	-0.132204294452492	0.0394711288071985	0.021329274082215	-0.00320657598671447	-0.00786490976526803	0.596435546875	-0.40478515625	0.318115234375	0	0	0	0.0872192883650416	-0.26787153318804	0.388987589154961	0.877112474502555	0.553866994381799	0.635644604753156	0.537761368064569	-0.72909886274481	0.682162902441013	-0.0553951521116911	-0.402052485228853	-0.361399655480545	0.841275274889169	-3.7672962575991	-32.531375110687	48.9328333704656
5696	1653386807347	5.23788225694589	-0.675117407530838	8.26939083019235	0.0676549427294325	-0.1188218420652	-0.00170767247464632	0.0243845699075814	-0.00151500702825234	-0.0065230155532586	0.59521484375	-0.40283203125	0.3115234375	0	0	0	0.087223992286459	-0.267878766241825	0.389096783260831	0.877061363316412	0.553689319705663	0.635792599496784	0.537769381490804	-0.729254421258317	0.681991336851371	-0.0554599453198244	-0.402015082203489	-0.361463119674472	0.841265883532739	-3.77173196571831	-32.5319196943387	48.9485441707937
5697	1653386807348	5.23693510513778	-0.648653757205829	8.26594542683114	0.0504866234135787	-0.101388391355522	-0.00660425802345088	0.0227924177782746	-0.000134788662285637	-0.00812212646599111	0.589111328125	-0.399658203125	0.317138671875	0	0	0	0.0873143538290109	-0.267841593195538	0.389111073688464	0.877057385182355	0.553706906574974	0.635772650392603	0.53777485867595	-0.729318312946207	0.681937551896866	-0.0552808620971704	-0.401874930808667	-0.361599657529807	0.841274169139797	-3.75955089894079	-32.5322919197292	48.9467524950581
5698	1653386807348	5.23912799719596	-0.666970657782224	8.29369773820176	0.0544352859207255	-0.122672615527549	0.0189311241284216	0.0213597006492657	-0.00309401406164679	-0.00634277985329989	0.592529296875	-0.405029296875	0.314453125	0	0	0	0.0873273989307708	-0.267830082663754	0.389099675203289	0.877064658376455	0.553736979154044	0.635753338464247	0.537766725029468	-0.729308956362003	0.681950736305363	-0.0552416457280315	-0.401850474788225	-0.361608746968515	0.841281944432626	-3.75685688313346	-32.5317391637761	48.9443493962959
5699	1653386807349	5.21524861240388	-0.69348811340901	8.27417382788632	0.0693114572273033	-0.150226501153668	-0.00889605972556318	0.0213636865645415	-0.00472900259248181	-0.00775265330280347	0.5859375	-0.40673828125	0.307373046875	0	0	0	0.0874199179263187	-0.267816083975664	0.389111621196952	0.877054416420769	0.55373338282684	0.635719211541863	0.537810770457172	-0.729369051863865	0.681899808398471	-0.0550766510359414	-0.401746346500315	-0.361764751437617	0.841264606227392	-3.74574494292432	-32.5347324956331	48.9430103973906
5700	1653386807350	5.23994191766825	-0.662587373512106	8.29353488917708	0.0511564885948283	-0.11986006183526	0.0189834221031369	0.022893304952735	-0.00470028132781466	-0.00778702278317767	0.59228515625	-0.406494140625	0.31298828125	0	0	0	0.0873811741210813	-0.26786660714187	0.389178552301497	0.877013150195614	0.553575070413628	0.635816419005235	0.537858831609101	-0.729442413564783	0.681809169675464	-0.055226999187332	-0.401831316237711	-0.361764754322216	0.841224022375048	-3.75612152492892	-32.5379988503486	48.9554629325856
5701	1653386807350	5.24038315432509	-0.688092057925243	8.27297095596504	0.0792831723347789	-0.130889519000345	0.00330552907166037	0.0212969198541386	-0.00168574307339859	-0.00797716473670785	0.58984375	-0.412841796875	0.307373046875	0	0	0	0.087466938754337	-0.267840024105397	0.389191398823895	0.877007018896466	0.553583553137441	0.635792882956605	0.537877922652953	-0.729501470894153	0.681759179412891	-0.0550638288673288	-0.401712401674375	-0.361900305703092	0.841222512224331	-3.74506225001284	-32.5392963578594	48.9539777338458
5702	1653386807351	5.24164037155857	-0.65450851348363	8.31753970442501	0.0349585861897816	-0.122283463980847	0.0396456667982505	0.0229908894650799	-0.00763002771094056	-0.00604040483244238	0.58837890625	-0.401611328125	0.314697265625	0	0	0	0.0874188403354394	-0.267936920008986	0.389362619822175	0.876906211367965	0.553213114362621	0.636023529932668	0.537986356211009	-0.729714469253607	0.681509393279239	-0.0553329940821043	-0.401835841431716	-0.361965490405029	0.84113550650101	-3.76370468665315	-32.5466663135074	48.9832617872736
5703	1653386807351	5.24129248660696	-0.656016207483515	8.29320384394137	0.0463052552852238	-0.116238034740013	0.0190509568502577	0.0214577337575075	-0.00602344908480862	-0.00459692138847741	0.59912109375	-0.409912109375	0.320068359375	0	0	0	0.087508062969513	-0.267931643374299	0.389389459892951	0.876887006357345	0.553176966006046	0.636008757345421	0.538040988085741	-0.729793473825114	0.681436374879199	-0.0551901490645659	-0.401742118581832	-0.362128882542431	0.841109946788142	-3.7541300561268	-32.5503797335476	48.9844567292842
5704	1653386807352	5.21840312840089	-0.679104473157679	8.29780077641984	0.0487218843604082	-0.147253899230703	0.0118917121119591	0.0198609654568064	-0.0030090970663784	-0.00478790748020349	0.599365234375	-0.400146484375	0.30712890625	0	0	0	0.0874915761657776	-0.267895981463543	0.389502131052099	0.876849506541223	0.553039666043117	0.636192219486129	0.537965229032723	-0.729946786153022	0.681266628011802	-0.0552582205857352	-0.401652607570013	-0.362126002135639	0.841153934431426	-3.75855113606565	-32.5452303049947	48.9996816025427
5705	1653386807352	5.24122430959394	-0.683470240221619	8.24839665786044	0.0851388264816653	-0.119022588933831	-0.0171681882356935	0.0213945539916812	-0.00461602176323897	-0.00623124510054923	0.6025390625	-0.40869140625	0.315673828125	0	0	0	0.087579648730125	-0.267883777194722	0.389522754894738	0.876835281260631	0.553020610670205	0.636172254476662	0.538008426335532	-0.730016922905513	0.681203657095044	-0.0551078019150198	-0.401551362151245	-0.362279505622966	0.841136174088393	-3.74842809239606	-32.5481664383481	48.9997688026886
5706	1653386807353	5.24260055415364	-0.677728664565892	8.27242153132913	0.0703654809736527	-0.124410269897313	0.00345776269128173	0.0213947475423052	-0.00461607660192147	-0.00623129861137106	0.595947265625	-0.400390625	0.307861328125	0	0	0	0.0876563952292517	-0.267977789202064	0.389654403765342	0.876740387170605	0.552714700241299	0.636271571634001	0.538205302154828	-0.73023143964583	0.680971604003377	-0.0551336475652225	-0.401582500477735	-0.362541255130317	0.841008521739575	-3.75074869177681	-32.5615493621054	49.0198934429136
5707	1653386807354	5.24092815744295	-0.682810749423129	8.22421555637666	0.0935262794638829	-0.11272298789091	-0.0377282372339138	0.0243522471660781	6.91650073635165E-06	-0.00664012559987282	0.593505859375	-0.408203125	0.319091796875	0	0	0	0.0877490479205576	-0.267940638004016	0.389678560874926	0.876731736786962	0.552716867400895	0.636264051160878	0.53821196724979	-0.730310194697194	0.680901447566964	-0.0549566940650431	-0.401436276402479	-0.362686194804214	0.841015838190073	-3.73871228874501	-32.5620024666806	49.0194469397286
5708	1653386807354	5.24391554973186	-0.669463208707644	8.29668723414343	0.0560187277114616	-0.128073483588138	0.0240961035514005	0.0227971645171644	-0.00177330155262856	-0.00953540036830102	0.59228515625	-0.40625	0.317138671875	0	0	0	0.0877688373105002	-0.267954689010643	0.389747657499131	0.876694746937788	0.552594096222299	0.636343304908871	0.538244334032339	-0.730415590934314	0.680786789342206	-0.0549764674857066	-0.401413539059579	-0.362762381945518	0.840993831668745	-3.74015124953907	-32.5642028485516	49.0292813554642
5709	1653386807355	5.21888977760684	-0.643941454108243	8.29408372530262	0.025519219285775	-0.127185908044371	0.00701059644619661	0.0245526410711862	-0.00748599138133316	-0.00455116556944848	0.598388671875	-0.402587890625	0.318603515625	0	0	0	0.0878739303940238	-0.267951400846942	0.389777985653839	0.876671740756427	0.552550337367595	0.636322804889359	0.53831348919816	-0.73050657587738	0.680702588513484	-0.054809931499215	-0.401308194876287	-0.362956297601767	0.840960438282536	-3.72900115953704	-32.5689043855833	49.0306138063747
5710	1653386807356	5.24367528162473	-0.641012487774483	8.29287083021827	0.0379528860962267	-0.108497626445397	0.0191752118579416	0.0167390616407716	-0.00166071853451184	-0.00635422436339874	0.59716796875	-0.40478515625	0.306884765625	0	0	0	0.0878656705888419	-0.267910875982432	0.389864506490256	0.876646481223423	0.552458858218871	0.636466357984697	0.538237666026076	-0.730627033089658	0.680570581022165	-0.0548436210124367	-0.401214840819859	-0.362952144780615	0.841006772924598	-3.73108176535193	-32.5637495349444	49.0417082344448
5711	1653386807356	5.22172751033182	-0.688100819568553	8.30125287030259	0.0577532106322519	-0.158734832222315	0.0169712009609686	0.0243910453142844	-0.00315135169301237	-0.00793555050188625	0.59716796875	-0.40625	0.306396484375	0	0	0	0.087966039034696	-0.267887206205029	0.389881861107913	0.876635930764443	0.55245715826139	0.636438943525162	0.53827182672914	-0.730698849276871	0.680508220711153	-0.0546603440347475	-0.401086374676586	-0.363117106054116	0.840996841456422	-3.71869203236026	-32.5660719192128	49.040573792927
5712	1653386807357	5.26961430941767	-0.659879618900886	8.29543275337698	0.062923573456341	-0.108061363862462	0.0363148041335162	0.0213579270459322	-0.00145764690565435	-0.00493706459434653	0.592529296875	-0.40087890625	0.313232421875	0	0	0	0.0879873845151551	-0.268033041149878	0.39001967535006	0.876527901357375	0.552085883383563	0.636559202536503	0.538510500394078	-0.730893307554186	0.680285746012033	-0.0548295243947426	-0.401243255820072	-0.363323114374716	0.84083301803626	-3.73089410137377	-32.5822996088252	49.0649990830979
5713	1653386807358	5.24342137532095	-0.638318941714816	8.26880280764323	0.0442407033238397	-0.101551354185908	-0.00138019259902578	0.0213623643416949	-0.00309481520248035	-0.00634444961049241	0.593994140625	-0.406494140625	0.314453125	0	0	0	0.088071789564908	-0.268017580826743	0.390039664321061	0.876515257429629	0.552071273248189	0.636541857603744	0.538545980184141	-0.730961009516819	0.680224840278297	-0.0546824399100642	-0.401140015231934	-0.363467509121158	0.84081987250123	-3.72097185054238	-32.5847121702153	49.0649768360894
5714	1653386807358	5.24691550398894	-0.680860774285744	8.30014846879688	0.0642064729228278	-0.139444318344367	0.0291920724613099	0.0198972285561313	-0.00453006103727071	-0.00467381736833644	0.58984375	-0.3984375	0.311279296875	0	0	0	0.0880652896039475	-0.268035778896848	0.390098833473786	0.876484013613782	0.551959442707102	0.636621485552775	0.538566484047273	-0.731040079523857	0.680134809778728	-0.0547452523695403	-0.401149817071149	-0.363496526338052	0.840802651996265	-3.72531009855957	-32.586106425333	49.0742694100409
5715	1653386807359	5.22301535098887	-0.679903616230988	8.30111809839826	0.0504458544115204	-0.15561613628743	0.0170612857829422	0.0199317045802693	-0.00605164540617964	-0.00455935017072855	0.5947265625	-0.4052734375	0.3095703125	0	0	0	0.0881465308541059	-0.268037140341791	0.390123583437965	0.876464414646312	0.551919362085833	0.636605788272987	0.538626111595137	-0.731111964517723	0.680067557487815	-0.0546206242329144	-0.401073949657421	-0.363649814505502	0.840772560991562	-3.71698584336598	-32.5901611998024	49.075629495939
5716	1653386807359	5.22136829043488	-0.65759738499583	8.27324453503532	0.0431783373732265	-0.131810884551094	-0.00848124930534233	0.0198631743804676	-0.003008641287095	-0.00478872348727149	0.59326171875	-0.4091796875	0.306640625	0	0	0	0.0881412437727708	-0.268094589142104	0.390130279077984	0.87644439513608	0.551847313238522	0.636594611870078	0.538713136102517	-0.731115374013018	0.680058972985446	-0.054681835592677	-0.40116686397711	-0.363685431932549	0.840712824837831	-3.72140329765817	-32.5960793432898	49.0788338201918
5717	1653386807360	5.24711365837695	-0.651020873670901	8.29613285158747	0.043972529378903	-0.120511626265467	0.0242528750754065	0.0199020546448916	-0.00616789457075595	-0.00608063296307123	0.59326171875	-0.4111328125	0.321533203125	0	0	0	0.0882243926841785	-0.268096563956415	0.390148193848214	0.87642745037296	0.55181723846348	0.636567860532473	0.53877555092232	-0.731178486675552	0.680001686744968	-0.0545502213272203	-0.401093201085968	-0.36383933949081	0.840681377860544	-3.71260977572336	-32.6003241338456	49.0791876258067
5718	1653386807360	5.22225151544975	-0.653780016756986	8.27298960851316	0.0396355152787183	-0.128137532820063	-0.00841758924715918	0.0199279976652325	-0.00441377832484943	-0.00315268678260514	0.596923828125	-0.413818359375	0.3154296875	0	0	0	0.0881613795473895	-0.268131398894146	0.390364007340489	0.876327031339581	0.551442989400286	0.636895395336068	0.538771644429242	-0.731450731441985	0.679687025858751	-0.0548212946971281	-0.401111526778103	-0.363854094767392	0.840666248166738	-3.73107361726016	-32.600058449939	49.1130113271618
5719	1653386807361	5.24910885006554	-0.671264078972817	8.29954331292186	0.0571635137927857	-0.133833658634142	0.0293133937439087	0.0198076258928908	-0.00487976208512217	-0.00923860126867093	0.59326171875	-0.41064453125	0.316650390625	0	0	0	0.0882448914036228	-0.268127018429414	0.390369391601321	0.876317567569046	0.551439280177935	0.636853432155594	0.538825042317524	-0.731496790650318	0.679649154483955	-0.0546760649418983	-0.401032624040897	-0.363998259282768	0.840641482258631	-3.72132657930994	-32.6036901538241	49.1113338677104
5720	1653386807362	5.25065853314166	-0.693322696889124	8.30310466984418	0.071072382962192	-0.147181617066065	0.0343906056403309	0.0198681351616617	-0.00464653915213345	-0.00619574043013611	0.595703125	-0.402587890625	0.314208984375	0	0	0	0.0881910823522969	-0.268143745667829	0.390636022524574	0.876199042774493	0.551004859130814	0.637254043705644	0.538795813824715	-0.731845592331423	0.679251661799422	-0.0549473286683856	-0.400993359295761	-0.364039096421702	0.840642529305513	-3.73973224534282	-32.6017022436616	49.1515052743316
5721	1653386807364	5.2235430205301	-0.647672948051766	8.27265462042744	0.0355944519328048	-0.123684482254788	-0.00834489745171574	0.0229275938516261	-0.00458736446455648	-0.00626598346581485	0.60009765625	-0.4140625	0.31396484375	0	0	0	0.0882827345539604	-0.268133660331749	0.390659702832568	0.876182341501781	0.550978673559736	0.63723512079636	0.538844970382023	-0.731921411836558	0.679182310724889	-0.0547944859778813	-0.400890942997636	-0.364201578280558	0.840620997953547	-3.72945437435174	-32.6050455415776	49.1520106985059
5722	1653386807365	5.25046813649991	-0.66500812334105	8.29918712195482	0.0509407090384431	-0.127735440685583	0.0294286042397669	0.0199031649015506	-0.00616818557531348	-0.00608018214365073	0.595703125	-0.3994140625	0.315185546875	0	0	0	0.088298018971929	-0.268187585310487	0.390869546976499	0.87607070272744	0.550592832663435	0.637497852397352	0.538928586000427	-0.732219582380477	0.678848914184039	-0.0549421048897047	-0.400876559302506	-0.364363335010419	0.840557757861927	-3.7397537735302	-32.6107327994052	49.1835516640405
5723	1653386807366	5.22864980993814	-0.684327072604104	8.32796766778609	0.0420614820655441	-0.166542907812854	0.0429009912365981	0.0214285557379296	-0.00449998092728149	-0.00470973766854508	0.599609375	-0.403564453125	0.312744140625	0	0	0	0.088380409161428	-0.268181394818695	0.390898270018311	0.876051474084856	0.550554563939581	0.637490048526406	0.538976910595527	-0.732297974140641	0.6787748915463	-0.0548117111192681	-0.400785914416676	-0.364514862023635	0.840535285499115	-3.7310028025888	-32.6140198432336	49.1851747316062
5724	1653386807367	5.2513710763628	-0.660906709780515	8.29894345940541	0.048976795159662	-0.126763866002048	0.0294511346565258	0.0213681794829162	-0.00473460568979368	-0.00775260707790611	0.591064453125	-0.40576171875	0.310302734375	0	0	0	0.0884531029221375	-0.268203210927633	0.390938437195751	0.876019534345266	0.550468351942103	0.637492602979317	0.539061939536451	-0.732386227860236	0.678686373812779	-0.0547285961953725	-0.400743068250469	-0.364675180328352	0.840486172463107	-3.72557823458525	-32.6198038133342	49.1897268177842
5725	1653386807368	5.22561606512525	-0.66725337335363	8.25167805430094	0.0589262403998897	-0.131681369612212	-0.0238330686407675	0.0214986389190009	-0.00754259821730433	-0.00447776107084396	0.58740234375	-0.40869140625	0.3173828125	0	0	0	0.0885416853815429	-0.268210683997495	0.390966433858929	0.875995802806739	0.550416553170454	0.637474258200532	0.539136520862423	-0.73246556219443	0.678611235090854	-0.0545984597553974	-0.400669212936499	-0.364847038826063	0.840446797878783	-3.71691786584168	-32.6248774072732	49.1915783112628
5726	1653386807369	5.27794583916268	-0.68009287234729	8.30114753016716	0.0761079374435773	-0.12348053754732	0.0466862890630182	0.016809681722858	-0.00470685926852182	-0.00612561120909554	0.587890625	-0.399658203125	0.317626953125	0	0	0	0.0884517141381669	-0.268225778573812	0.391046170174493	0.875964678949074	0.550275649000669	0.637635206040532	0.539090024146747	-0.732535325604125	0.678518374115764	-0.0548161721516517	-0.40073520791035	-0.36473848166179	0.840462451948985	-3.73162804204178	-32.6217143102213	49.2059888365641
5727	1653386807369	5.22859472081409	-0.655944393679013	8.29953337633518	0.0323583934687871	-0.139247137253578	0.0173829741588296	0.0214034409504432	-0.00625651491575436	-0.00763682520217178	0.593505859375	-0.407470703125	0.320556640625	0	0	0	0.0885407804940036	-0.26822655471607	0.391061638817454	0.87594853740392	0.550250619981109	0.637601764106301	0.539155122037192	-0.732597718121414	0.67846264966984	-0.0546718977746039	-0.400655511148546	-0.3649005664719	0.840430091069319	-3.72197706708111	-32.6261428466871	49.2057915173733
5728	1653386807370	5.22810823623795	-0.65747850666793	8.27530125334541	0.0443421359122649	-0.130735202857279	-0.00315392822353289	0.0244889726822299	-0.00443958955804286	-0.00478154072123493	0.597412109375	-0.406005859375	0.318115234375	0	0	0	0.0885269598022184	-0.26813554537088	0.391080778045768	0.875969252736621	0.550318308703555	0.637675024515628	0.538999371256268	-0.732623923102003	0.678437604862587	-0.054631525760752	-0.400514601986356	-0.364819105060728	0.840532613393674	-3.71878394725319	-32.6155476607159	49.2055615847094
5729	1653386807371	5.22969019499283	-0.679498788393968	8.27889645486866	0.0605017183601121	-0.147297611120341	0.0019011308380481	0.0199350521780426	-0.00605078554369485	-0.00455848397598538	0.596435546875	-0.409423828125	0.3203125	0	0	0	0.0886048510132148	-0.268138914350832	0.391108376467747	0.875948024054194	0.550271520935041	0.637664402002132	0.539059703249186	-0.732698036229734	0.678366836467378	-0.0545162625858725	-0.400443305541406	-0.36496923925244	0.840501405975366	-3.71109729742369	-32.6196516883593	49.207499015019
5730	1653386807372	5.2299479865262	-0.649538374092467	8.29918454085011	0.0307720182777232	-0.133217227333764	0.017471634573937	0.0244543271411358	-0.00291827937913976	-0.0048988032750093	0.58935546875	-0.41064453125	0.31396484375	0	0	0	0.0886258595766146	-0.268083049524097	0.391304104516308	0.875875580982171	0.5500251526931	0.637949238363873	0.538974118744013	-0.732985601171847	0.678053109605992	-0.054553542766633	-0.400255468269552	-0.36505444775348	0.840553871144333	-3.71339683377996	-32.6138299379282	49.23284441976
5731	1653386807372	5.23049904035484	-0.675457744846361	8.27871615644756	0.058814863689338	-0.144147292125659	0.0019581587458859	0.0168760150994494	-0.00611091543659249	-0.00448701831456897	0.59033203125	-0.41162109375	0.31201171875	0	0	0	0.0886900888318851	-0.268092487674943	0.391328282156225	0.87585538862298	0.549977187273837	0.637939676200104	0.539034380172607	-0.733048262388311	0.677992487455301	-0.0544649608799342	-0.400206619745148	-0.365183729763364	0.840520972390506	-3.7075287022416	-32.6179290867433	49.2348908348928
5732	1653386807375	5.2307558477544	-0.6454885752967	8.29899138137685	0.0267578093873578	-0.128985985844908	0.0175398113558316	0.0275141867187927	-0.00285825323439485	-0.00497064847870263	0.58984375	-0.40869140625	0.31640625	0	0	0	0.088622803649129	-0.268114434224485	0.391533381402479	0.875763815238671	0.549632522816051	0.638259430061118	0.539007411638208	-0.733303641500213	0.677695219841818	-0.0547262127876322	-0.400212267709762	-0.365176791351268	0.840521297667705	-3.72526119814541	-32.6160945893462	49.2668502318341
5733	1653386807374	5.23126386004763	-0.671273709484245	8.27857322297938	0.0547876157173607	-0.139893345998311	0.00204302129758815	0.0152503319229523	-0.00485748269750848	-0.00761081299543682	0.593505859375	-0.403564453125	0.31494140625	0	0	0	0.0886804930619414	-0.268120703716865	0.391543361550163	0.875751594012059	0.549610168528743	0.638235293593338	0.539058784050157	-0.733343598416244	0.677659132352579	-0.0546375969554526	-0.400169750620563	-0.365285929582535	0.840494116777328	-3.71936592521768	-32.6195891592898	49.2669311264512
5734	1653386807374	5.25695246294985	-0.664625922050477	8.30146865202187	0.0544685755579815	-0.126197615323553	0.0347877229633102	0.0245163012061879	-0.0026800994583937	-0.00185728996973033	0.59423828125	-0.406005859375	0.31103515625	0	0	0	0.0886565650070243	-0.268096901207832	0.391651688004801	0.875712864086684	0.549466013691495	0.63841174215391	0.538996797094368	-0.733485943554366	0.67749793752829	-0.0547258188890309	-0.400106823743534	-0.365276596738585	0.840528130087827	-3.72520426449117	-32.6153725599339	49.2821935435016
5735	1653386807375	5.2562549837663	-0.666395597090403	8.27735727412464	0.0657043802853634	-0.120115309404526	0.0142245599436759	0.0182748767489659	-0.00327687385418055	-0.00779958310367615	0.588134765625	-0.406982421875	0.316162109375	0	0	0	0.0887241887906811	-0.268090248611994	0.391666106937188	0.87570160305852	0.549450558551652	0.638393095755589	0.539034636177373	-0.733537455078754	0.677451358000205	-0.054611899255233	-0.400033605718149	-0.365395556671498	0.84051127384519	-3.71754582900157	-32.617946501295	49.2821629502475
5736	1653386807376	5.23114033623192	-0.641083238557898	8.27467145435244	0.0334835800512656	-0.117238135602125	-0.0029402614836318	0.0244295787830026	-0.0046776160970218	-0.00782481097789225	0.59521484375	-0.40673828125	0.3115234375	0	0	0	0.0887058266981162	-0.268107514139693	0.391753195616703	0.875659220756419	0.549295589171871	0.638519198633642	0.539043215978625	-0.733649993376595	0.67732142006781	-0.0547118007000974	-0.400040051663391	-0.365416101032203	0.840499274343276	-3.72438022761772	-32.6185301384496	49.2957486808125
5737	1653386807377	5.23480791371952	-0.683264613347038	8.30619335760535	0.0545092099383028	-0.156306454742005	0.0278161423096943	0.0198710515280415	-0.00464886616566974	-0.0061962713256538	0.597900390625	-0.40869140625	0.3095703125	0	0	0	0.0887804085863054	-0.268104771885471	0.391776659966372	0.875642003931448	0.549261759995666	0.638507296869186	0.53909178332754	-0.733717101636908	0.677258175513684	-0.0545946743319416	-0.39996341554197	-0.365554093869402	0.840475740686976	-3.7165332575757	-32.6218339824369	49.2969652557715
5738	1653386807378	5.23514407321004	-0.653187494337721	8.32638820961843	0.0221066528597011	-0.143499543798842	0.0433283986254924	0.0244961568673808	-0.00607945741617063	-0.00618568265249212	0.5986328125	-0.40869140625	0.314697265625	0	0	0	0.0888170901100372	-0.26820485692858	0.391972309645846	0.875520066986021	0.548847726381642	0.638716895704042	0.539265148501082	-0.734001595487144	0.676938465950573	-0.054735465091772	-0.400009788715264	-0.365780043822345	0.840355358448611	-3.72662288951241	-32.6336283218276	49.327620098273
5739	1653386807378	5.23268876279423	-0.662415496915314	8.25397814890034	0.0571233642371348	-0.126209763868154	-0.0183630412750482	0.0214012410245216	-0.0046188444302237	-0.00623229937186563	0.5966796875	-0.401123046875	0.3125	0	0	0	0.0888978923379269	-0.268200063114876	0.391997729730797	0.875501953606588	0.548813012062155	0.638704715705697	0.539314902377608	-0.734074397048943	0.676869889247551	-0.0546070748826495	-0.399923814480328	-0.365928188536102	0.840331781766102	-3.71801010337614	-32.6370134531514	49.3288713950108
5740	1653386807379	5.2115688200601	-0.649640026530386	8.32738854705511	0.00611525481747054	-0.158590510269729	0.0312291805459779	0.0243592941279916	-0.00163573836829068	-0.00806236789295081	0.58544921875	-0.408203125	0.314697265625	0	0	0	0.0889611267520723	-0.268222675214906	0.392129375508844	0.875429647253624	0.548582298727206	0.638840578943837	0.539388706053324	-0.734286144574129	0.676640941580091	-0.0545975646349622	-0.399851621741911	-0.366114395882369	0.840285028855122	-3.71757065044209	-32.6420351095688	49.3468027946216
5741	1653386807380	5.23649590384224	-0.674565241807695	8.30584040389163	0.0472372429498914	-0.152830164031343	0.027908339680577	0.0185055893823325	-0.00736169731490381	-0.001359235688082	0.5869140625	-0.414306640625	0.310302734375	0	0	0	0.0890280326720193	-0.268238286569781	0.392170821107148	0.875399496280871	0.548500537380507	0.638850824625264	0.539459715241941	-0.734373732387748	0.676552112941391	-0.0545202682809657	-0.399802928543781	-0.366260648104816	0.840244462033315	-3.71250096669749	-32.646866893155	49.3514778805015
5742	1653386807381	5.2555246659172	-0.578729172067904	8.26550374247579	0.0017359059681539	-0.0584245340791328	-0.0009290154978423	0.0334934629607914	0.00334988911623504	-0.00559332888334636	0.595458984375	-0.39794921875	0.3203125	0	0	0	0.0889347132946166	-0.268211681115091	0.392331473710578	0.875345146568316	0.548277017699006	0.639144244792623	0.539339360895858	-0.734557560641574	0.676333263014581	-0.0547586289487759	-0.399771812372239	-0.366152907524325	0.840306221769242	-3.72841292667741	-32.6386775975054	49.3760218281884
5743	1653386807382	5.17055156404535	-0.845983483836059	8.31197734797109	0.133403291780112	-0.311043191506511	0.00692131929267781	-0.00161734454783779	-0.00203360977216238	-0.00592960898161154	0.596923828125	-0.412841796875	0.310546875	0	0	0	0.0889079518317998	-0.268241767335186	0.392329606488472	0.875339482846838	0.548247668258993	0.639145537439219	0.539367663305939	-0.734540841957273	0.676345711947349	-0.0548290928899333	-0.399842776282475	-0.36612765519961	0.84028346071594	-3.73329796280677	-32.6406033168192	49.3775948009381
5744	1653386807382	5.27901844903002	-0.550179407478157	8.26062907325466	-0.0043235563804268	-0.0227095186293532	0.00607989114967466	0.0397919423801704	-0.00413329730942059	-0.00514260754060505	0.591796875	-0.397705078125	0.309326171875	0	0	0	0.0890210682780277	-0.268211454276869	0.392481555090049	0.875269155238217	0.548041689417568	0.639301057972237	0.539392680647333	-0.734806938708758	0.676066956633472	-0.0547013068748723	-0.399636171393183	-0.366370887795324	0.840275730394651	-3.72465573760092	-32.6423055518705	49.3951223890701
5745	1653386807383	5.19137462494351	-0.772497829879503	8.2752002810522	0.105707413063942	-0.235798664644047	-0.0168061918339806	0.00614434458608583	-0.00808785717868564	-0.00715319994110413	0.595947265625	-0.4072265625	0.30810546875	0	0	0	0.0890416920728463	-0.268252496964485	0.392482044347435	0.87525426009245	0.547996885474354	0.639271850184805	0.539472812171016	-0.734814475114741	0.676058843875325	-0.0547003361946527	-0.399683750823393	-0.366436817445048	0.840224349890247	-3.7248169502326	-32.6477580954477	49.3961435229988
5746	1653386807384	5.28319200282493	-0.590266370014874	8.29204130489438	0.0136243811144814	-0.0612072431111918	0.0369089928050599	0.0335346038059107	0.000188254139761437	-0.00687911744221326	0.601806640625	-0.400146484375	0.31787109375	0	0	0	0.0891175720375092	-0.268306944881319	0.392525123685083	0.875210528363663	0.547870821208926	0.639262514815617	0.539611897959514	-0.734905968770117	0.675964171260299	-0.0546411588313424	-0.399688354013364	-0.366627708069083	0.840138883365184	-3.72117604609016	-32.6572229670265	49.4022436134822
5747	1653386807385	5.21420229829411	-0.719310608956475	8.26632170991663	0.0814625376692107	-0.184250309652579	-0.0148915114887789	0.0077055751189022	-0.00793721149355147	-0.00566688792200955	0.59326171875	-0.413818359375	0.312744140625	0	0	0	0.0891426206052513	-0.268345883642655	0.392533965348472	0.875192073759512	0.547815145559695	0.63924311971567	0.539691393475556	-0.734927340901823	0.675941358478866	-0.0546359176066476	-0.399725368084621	-0.366703577558117	0.840088159847341	-3.72104413808665	-32.6626331347977	49.4042617528851
5748	1653386807385	5.21176486059909	-0.613195222511535	8.29927544431102	-0.0116159875734455	-0.125895381598651	0.00568769767489918	0.0334271233523504	0.00475215194062913	-0.00723970948955645	0.598388671875	-0.40576171875	0.305908203125	0	0	0	0.0892156773716927	-0.268298194933807	0.392730663068594	0.875111003125931	0.547557409761927	0.639493038635295	0.539656869271399	-0.735238659429783	0.675606378393625	-0.0545906141543193	-0.399505940750204	-0.366885097831525	0.840113283012742	-3.7178564782603	-32.6602835062434	49.4286484885734
5749	1653386807386	5.26207752223164	-0.688937774597724	8.26038141055784	0.0880845426165388	-0.131712487653004	0.00428207285050064	0.0137899833273774	-0.00629419819599251	-0.00593002613392565	0.587646484375	-0.40625	0.314208984375	0	0	0	0.0892642861768769	-0.268318222587694	0.392747299915703	0.87509243914551	0.547509779672612	0.639477916087014	0.539723110492648	-0.735282854517169	0.675562891244515	-0.0545335110407829	-0.399489880993164	-0.366991518717207	0.840074437281427	-3.71414965669258	-32.664791767861	49.4304414625254
5750	1653386807386	5.2154408891631	-0.653181205566504	8.33109265029935	0.00606453346995768	-0.163241955561749	0.0365709269487997	0.0274465360674842	0.00018793509940902	-0.00521514170382339	0.59423828125	-0.405029296875	0.319580078125	0	0	0	0.0892724783822719	-0.268368421477956	0.392863483716733	0.875024055737252	0.547273347030764	0.639614169536013	0.539801442901463	-0.735445825955514	0.675377415530877	-0.0546331737632375	-0.399513855472318	-0.367095438162324	0.840017629913834	-3.72116932492018	-32.670123228049	49.4486971538155
5751	1653386807387	5.21590790090546	-0.679165485820845	8.31081160545032	0.0340373783442116	-0.174093201453382	0.0211869176138837	0.0122295457353263	-0.00644719336019451	-0.0074140716662398	0.591064453125	-0.41015625	0.311767578125	0	0	0	0.0893160991462286	-0.268392335165777	0.392871612735269	0.875008619822885	0.547234900662099	0.639588582418649	0.5398707333585	-0.735475608089667	0.675349060680179	-0.0545827458409166	-0.399511693699292	-0.367192172408538	0.839976377715124	-3.71792629102783	-32.6748395401161	49.4495532784579
5752	1653386807388	5.23860731534565	-0.656157258630767	8.28158487981137	0.040462956408323	-0.132100291907593	0.00765422595411103	0.0260871249109844	-0.00416180963560134	-0.00177669355286772	0.591552734375	-0.40625	0.3095703125	0	0	0	0.0893033401308637	-0.268375283979874	0.39301960678418	0.874948689394642	0.547020591263861	0.639810361188489	0.539825133213703	-0.735677598260376	0.67512100424936	-0.054681816348599	-0.399433278722719	-0.367225177972852	0.839999240780388	-3.72455444873326	-32.6717357006676	49.4704507931427
5753	1653386807389	5.24014510688797	-0.678358479550022	8.28533585827661	0.0564954913716466	-0.148525725004681	0.0128319330589424	0.0153154638665556	-0.00462142786582396	-0.004564640930351	0.601318359375	-0.4130859375	0.31591796875	0	0	0	0.0893525768234384	-0.26838646733649	0.393045655736311	0.874928530608338	0.546967633314906	0.639811671188612	0.539877239302351	-0.735735760952832	0.675062459043651	-0.0546220325976463	-0.399398670705161	-0.367330507582445	0.839969642331302	-3.72062456110388	-32.6752823853332	49.4732485964128
5754	1653386807389	5.24149853604242	-0.672487989553583	8.30934715195052	0.0413115191842024	-0.151950752058407	0.0334286699422215	0.0243974204904063	-0.0031598499627628	-0.00794556271895496	0.596435546875	-0.40380859375	0.305419921875	0	0	0	0.0893738186184612	-0.268434073762355	0.393280202643935	0.874806350455486	0.546547660503383	0.640106081123767	0.53995357180655	-0.736069994001572	0.674686005507799	-0.0547700456678187	-0.399357757817227	-0.367509182035365	0.839910937177802	-3.73093817646886	-32.6804783341623	49.5080014168625
5755	1653386807390	5.23989178618942	-0.678083911083121	8.26113153380741	0.064406363183254	-0.140268629248873	-0.00765120010822251	0.0198748972297075	-0.00465120278326129	-0.00619458963536617	0.594482421875	-0.40380859375	0.312744140625	0	0	0	0.0894447264773983	-0.268436401155836	0.393305503572565	0.874787014249421	0.546505358788068	0.640096653360296	0.540007562144155	-0.73613753527214	0.674620843529829	-0.0546648574365676	-0.399291149387741	-0.367645198298645	0.839883078879772	-3.72391609713918	-32.6841536356153	49.5097746592562
5756	1653386807391	5.24230631616119	-0.668134224281022	8.30918878070093	0.0374067182864406	-0.150861899902032	0.0334610226082272	0.0229041009746959	-0.0047119400304695	-0.00778851720281834	0.59765625	-0.408935546875	0.31982421875	0	0	0	0.0894957868916248	-0.268530534457507	0.393384079015126	0.874717567315323	0.546280636882774	0.640135226261973	0.5401891871053	-0.736264632204786	0.67447894101214	-0.0547041999803867	-0.399364316296916	-0.367838347959637	0.83976371238523	-3.72711688217932	-32.6965185600098	49.5231158070533
5757	1653386807392	5.21725031335411	-0.670990859833065	8.28624797424116	0.035495400201016	-0.161463285554398	0.00079848550198669	0.0183035965349632	-0.00151752563399125	-0.0048795060188507	0.592041015625	-0.412353515625	0.314208984375	0	0	0	0.0895517626529096	-0.26852375856628	0.393414141978447	0.874700397726306	0.546240607953601	0.640145461131812	0.54021753656728	-0.736332564706991	0.674411589394239	-0.0546201633351781	-0.399293817100272	-0.367944012973545	0.83975094578239	-3.72146380004322	-32.698448729846	49.5256412796123
5758	1653386807392	5.19411187185608	-0.665957530679557	8.31151003757401	0.00853188145268252	-0.180515329429604	0.00926955069992452	0.0243982249948685	-0.00316023579298996	-0.00794618410196733	0.595947265625	-0.40185546875	0.31298828125	0	0	0	0.0895430482062426	-0.268494556743687	0.393635196897059	0.874610797601286	0.545924009525648	0.640471544968926	0.540151067673255	-0.73663882911938	0.674066748563495	-0.0547471817965556	-0.399161886027546	-0.368008449041805	0.839785431033891	-3.72994086899912	-32.6939232686843	49.5564483841186
5759	1653386807393	5.24314400898598	-0.661871207041844	8.30916146553482	0.0337857854280206	-0.146598052848826	0.0335385199682854	0.018340402178276	-0.00303846392366562	-0.00475820799620307	0.591064453125	-0.40380859375	0.311767578125	0	0	0	0.0896014407982472	-0.268494450991071	0.393665775667139	0.874591086544033	0.545875973710788	0.640478177641576	0.540191748632119	-0.736708136262113	0.673997677750537	-0.054664909696145	-0.399099665861178	-0.368123395550744	0.839764623187764	-3.72444345822758	-32.6966929595513	49.5592303107794
5760	1653386807394	5.24261786754134	-0.69192673018729	8.26485509420559	0.0727548434723805	-0.151203248830222	-0.00231130324415396	0.0198395199054561	-0.00313057677660218	-0.00631576633649819	0.5849609375	-0.404052734375	0.317626953125	0	0	0	0.0896137860342536	-0.268523397571082	0.393678432070498	0.874575237719434	0.545824954158794	0.640476020035888	0.540245858083651	-0.736729613216391	0.673973322950243	-0.0546757438123616	-0.399129798972186	-0.368171736707745	0.839729108618979	-3.72533663769946	-32.7003770386894	49.5617788275167
5761	1653386807395	5.24264346092307	-0.633838887405798	8.30517010051877	0.014352762235355	-0.128029894253556	0.0283651490115755	0.0213752377089467	-0.00474376183568255	-0.0077515678949768	0.59423828125	-0.407470703125	0.320068359375	0	0	0	0.0896927619541186	-0.26852376162537	0.393699115305162	0.874557719366501	0.545791992100989	0.640455925134806	0.540302979186821	-0.736794476456761	0.673912430121949	-0.0545521401040918	-0.399055135064369	-0.368318129457198	0.839700395791207	-3.71706526456216	-32.7042663332146	49.5625995511857
5762	1653386807395	5.24336454831428	-0.687718657040668	8.26473264775463	0.0716891522616095	-0.147389885163279	-0.00224542541452699	0.0213699655885559	-0.00309942529364994	-0.00635263435236508	0.59130859375	-0.40673828125	0.3125	0	0	0	0.0896365178383127	-0.268439497653239	0.393706051105919	0.874586231364342	0.545871562844521	0.640535819364321	0.540127856149781	-0.736783746643929	0.673921679984811	-0.0545827805061611	-0.398966098257752	-0.368162237821491	0.839811061538998	-3.718658463754	-32.6923429918177	49.5620044045635
5763	1653386807396	5.22016980997925	-0.654759211952304	8.31009435418694	0.0170794150585962	-0.157803081711985	0.021505884736202	0.0199079147402548	-0.00452798555191726	-0.00467299894994299	0.591552734375	-0.40771484375	0.312255859375	0	0	0	0.0897041614540845	-0.268442581137076	0.393738943786318	0.874563541543048	0.545816449556998	0.64053861696342	0.540180232488734	-0.736860283521305	0.673845615127709	-0.0544886184635036	-0.39890014535206	-0.368296574993238	0.839783488100568	-3.7123828195491	-32.6959088946519	49.5649838673745
5764	1653386807397	5.24396632992979	-0.655671530600185	8.28474462093319	0.0394435328676194	-0.133110797863376	0.0131361033547535	0.0213758273378854	-0.00474435545291279	-0.00775157629582936	0.598388671875	-0.399658203125	0.31103515625	0	0	0	0.0896716135401329	-0.268482812585153	0.393826174402349	0.874515251683517	0.545635847403953	0.640663418029446	0.540214685867201	-0.736964566078661	0.67371989216144	-0.0546327305785546	-0.398954571815215	-0.36830950531422	0.839751962142949	-3.72231315104016	-32.6982546383736	49.5798542807272
5765	1653386807398	5.2214732632003	-0.706744210163574	8.26948525280278	0.0711975235114027	-0.177530179907785	-0.00906199223759962	0.016791230390804	-0.00648310479321431	-0.00903989165714788	0.599609375	-0.41064453125	0.3193359375	0	0	0	0.0897348209733345	-0.268499021449828	0.393835306341473	0.874499679167629	0.545604053918806	0.640630274838375	0.540286097644454	-0.737005121323639	0.673682826767603	-0.0545426444274661	-0.398923134814333	-0.368434933032849	0.839711874770738	-3.71636940143582	-32.7031168754032	49.5800391479749
5766	1653386807399	5.22075248325355	-0.65247781172876	8.28552059680366	0.023963387072851	-0.148286621231423	0.00104137019873463	0.0260716264871728	-0.00756781970939875	-0.00609640360349112	0.593505859375	-0.395263671875	0.315185546875	0	0	0	0.0898368663829079	-0.268518220439991	0.39399999655332	0.874409117888317	0.545323936015449	0.64078870788629	0.540381010634199	-0.737280049850465	0.673386680308967	-0.0544840056802617	-0.398798110453292	-0.368700706031178	0.839654605460481	-3.71263761316785	-32.709579657263	49.6015557234188
5767	1653386807399	5.24677017654293	-0.673422769037123	8.28812779242372	0.0529687585337227	-0.14793486626615	0.0184095826451607	0.0183416867128665	-0.00303793373117005	-0.00475950329500912	0.5966796875	-0.41015625	0.310546875	0	0	0	0.0898943869153443	-0.268518526031412	0.394031225575352	0.874389040216435	0.545274388899008	0.640796553746264	0.540421703411072	-0.737349786838287	0.673316784945401	-0.0544040344121833	-0.39873692161668	-0.368814701195194	0.839633600758064	-3.70729591806161	-32.712350638879	49.6044714537849
5768	1653386807400	5.22066363545893	-0.652314436562067	8.26120262920576	0.0334070902690442	-0.141285756816824	-0.019463497957787	0.0213821282083183	-0.00639010834529072	-0.00915017267320744	0.59423828125	-0.40771484375	0.3134765625	0	0	0	0.0899436396451523	-0.268556344254228	0.394054510431876	0.874361866995858	0.545197065538198	0.640782604774665	0.540516246885081	-0.737402344982752	0.673262368991355	-0.0543651001478725	-0.398745459337755	-0.368938254886025	0.839575263296375	-3.70490688046294	-32.7187889252874	49.6078662165142
5769	1653386807400	5.24877739285068	-0.665198084850677	8.31190236443573	0.0384433499877551	-0.152064528172422	0.0389760292853385	0.022975263038056	-0.00610954074958217	-0.00614548543272679	0.588623046875	-0.409912109375	0.3046875	0	0	0	0.0900293538550549	-0.268560650815342	0.394084300230294	0.874338296421975	0.545145482291279	0.640769307692406	0.540584033668035	-0.737482675147599	0.673184559512882	-0.054238848536713	-0.398667414011416	-0.369103296047112	0.839539784556162	-3.69648265968417	-32.7234054022815	49.6099550204478
5770	1653386807401	5.22384571644154	-0.667973485552675	8.28891784560267	0.0334933701689058	-0.160836559905409	0.00637171156869876	0.0213397200893068	-0.00322421363878247	-0.00787580503187849	0.5947265625	-0.40673828125	0.31396484375	0	0	0	0.0899802421990099	-0.268649174543994	0.394214489524514	0.874257463954163	0.544845114531515	0.640943684147309	0.540680122551972	-0.737636155315439	0.672996984525468	-0.0544789977063098	-0.398794061568873	-0.369142591109861	0.839462354061276	-3.71314511727299	-32.7299497442	49.6332328050894
