// Start Time : 21/06/2022 10:07:39																																
// Update Rate : 100Hz																																
// Filter Profile : 46.1 human																																
// Firmware Version : 4.4.0																																
PacketCounter	Time_Of_Arrival	Acc_X	Acc_Y	Acc_Z	FreeAcc_X	FreeAcc_Y	FreeAcc_Z	Gyr_X	Gyr_Y	Gyr_Z	Mag_X	Mag_Y	Mag_Z	VelInc_X	VelInc_Y	VelInc_Z	OriInc_q0	OriInc_q1	OriInc_q2	OriInc_q3	Mat[1][1]	Mat[2][1]	Mat[3][1]	Mat[1][2]	Mat[2][2]	Mat[3][2]	Mat[1][3]	Mat[2][3]	Mat[3][3]	Euler_X	Euler_Y	Euler_Z
9648	1655806090349	5.98685047362656	1.21279646356524	8.00973816277895	1.82145964977565E-15	4.79759461324836E-16	0.260502754759651	0.00767769104715862	-0.00615918662788101	-0.0111554289421846	0.48876953125	-0.327880859375	0.38671875	0	0	0	0.221424709296972	-0.231046747297403	0.506747689232625	0.800496894518296	0.37964836004137	0.708980985361402	0.594317326950741	-0.913618820778755	0.388355755140293	0.120334773728338	-0.145491487849757	-0.588664394919031	0.795176997352083	8.60532256149781	-36.4639811734048	61.8316387651103
9649	1655806090349	5.99490355034385	1.16229188128937	7.97959402483606	2.68882138776405E-15	-1.49077798716757E-15	0.235382688546212	-0.00119185725549195	-0.00805768721329858	-0.00866311625511115	0.484130859375	-0.327880859375	0.381591796875	0	0	0	0.220395434136258	-0.233116280132743	0.507817839720673	0.799502153974829	0.375555683197003	0.709247385838874	0.596595402680205	-0.914758440895216	0.387093788546639	0.115652037074854	-0.148912469690707	-0.58917446019777	0.794165305097925	8.2855777023316	-36.6264484958251	62.0982003663927
9650	1655806090350	5.97601485610075	1.21695396190564	7.96154052094554	-0.0278149359537228	0.020990519665412	0.216203082897088	0.00804818454709336	-0.00274384326715312	-0.0109545010605405	0.482421875	-0.32568359375	0.391845703125	0	0	0	0.220911044663585	-0.232082960528191	0.507191459070221	0.800057893920392	0.377788646557381	0.709025682598463	0.595447999365289	-0.914104439634064	0.387910268383727	0.118062259523344	-0.147271219094687	-0.588904241025863	0.794671619556226	8.45047045893652	-36.5445755500478	61.9500650757493
9651	1655806090350	5.96996240229113	1.19926035674853	8.01213975310757	-0.0205487639650708	-0.0206732741738895	0.250722110495166	0.000737608647733891	-0.00544564952874368	-0.0119803503617302	0.4873046875	-0.321044921875	0.378662109375	0	0	0	0.22094170694249	-0.232089640696059	0.50713837401081	0.800081139898063	0.37789013657449	0.708947133971126	0.595477124593245	-0.914060259487352	0.38799086347802	0.118139459468437	-0.147285052553295	-0.588945711497848	0.794638321629825	8.45626549757758	-36.5466527069204	61.9410428124701
9652	1655806090351	5.98001337321345	1.18310495693585	7.98341212572799	0.00293315467445199	-0.00351794007352157	0.231970194128666	0.00182963870012632	-0.00350486846936042	-0.0103193090627446	0.489013671875	-0.322021484375	0.38916015625	0	0	0	0.220972575379721	-0.232083130149468	0.507094337031616	0.800102415307281	0.377985508100983	0.708886793752651	0.595488429198024	-0.91402282163791	0.388052908561039	0.118225300517237	-0.14727266274063	-0.588977464594704	0.794617083260158	8.46254385509557	-36.547458945261	61.9330161382953
9653	1655806090352	6.01373718857052	1.18192544736289	7.97482465843327	0.0184942394388906	0.0243716615162477	0.245089480186317	-0.00048999532666387	-0.00603562961750322	-0.0102420514060083	0.491455078125	-0.322265625	0.384765625	0	0	0	0.220997802966452	-0.232097201646032	0.507046125540638	0.80012191986366	0.378070231124617	0.708811495577143	0.595524276646279	-0.913983382130882	0.388128395316457	0.118282399103448	-0.147299957657747	-0.589018346477227	0.794581720144165	8.4669430828322	-36.5500156216317	61.9251573245867
9654	1655806090352	5.95493747264265	1.21986664341005	8.01608033553683	-0.0436333352432629	-0.0275184903298254	0.247344325629783	0.0103670484625855	-0.000212178913844359	-0.0110338042839152	0.486328125	-0.327392578125	0.39404296875	0	0	0	0.221052723751395	-0.23205985346715	0.507013761975882	0.800138089893212	0.378170539151736	0.708767120749382	0.595513401916629	-0.913956971478434	0.388145476978306	0.118430329676362	-0.147206309659788	-0.589060486916169	0.794567835461788	8.47752452553813	-36.5492400159463	61.9173555376996
9655	1655806090352	5.9469757453524	1.18771015952868	7.9909780417503	-0.0126317305796239	-0.0314125699901672	0.218850887541093	0.000406648322665455	-0.00405424813722068	-0.0102008796366341	0.49267578125	-0.333251953125	0.385498046875	0	0	0	0.221076464173897	-0.232063767357876	0.506968941463256	0.800158795027376	0.37825780054259	0.708703640334381	0.595533530966543	-0.913918988935793	0.388215378759986	0.118494309385801	-0.147217926867823	-0.589090799343392	0.794543209736074	8.48229680648742	-36.5506756628746	61.9097331891476
9656	1655806090353	5.98060900465202	1.18659123268758	7.98244847376532	0.00294966464059708	-0.00350266339625087	0.231970194632728	0.0034478713309544	-0.00299734271730326	-0.00881924071121666	0.486328125	-0.334716796875	0.39306640625	0	0	0	0.221107792519064	-0.232055948771364	0.506934354843087	0.800174318887448	0.37833519303929	0.708652947066923	0.595544693806676	-0.913890461361937	0.388257807934339	0.118575289203475	-0.147196149200952	-0.589123819915123	0.794522761454337	8.48822452130226	-36.5514718320233	61.9031610299331
9657	1655806090353	5.9987074611118	1.20351887622691	7.97861622283655	-0.00467983589494837	0.0175435857073602	0.241711476430913	-0.00191248214451782	-0.00658568782910304	-0.0101234305807335	0.48388671875	-0.337158203125	0.386474609375	0	0	0	0.22112857907838	-0.232075952486099	0.506884351603198	0.800194450050894	0.378418012754951	0.708574838718023	0.595585011193466	-0.913849341164075	0.388340811229164	0.118620386055098	-0.147238545485141	-0.589163060849542	0.794485807584892	8.49179493135212	-36.5543474641814	61.8953261468
9658	1655806090354	5.9398172184085	1.24130771491683	8.01995363791489	-0.0667827091796753	-0.0343301226541902	0.243966710851325	0.00769432947962999	0.0021470048004086	-0.0122156310851846	0.48583984375	-0.3349609375	0.38720703125	0	0	0	0.221168169424167	-0.232033236860884	0.506846679603093	0.80021975806696	0.378534040734361	0.708540722173886	0.595551865941687	-0.91381418714223	0.388382168417765	0.118755726736444	-0.147158456715554	-0.589176829378433	0.794490435650848	8.501293401417	-36.5519833757585	61.8868800508159
9659	1655806090355	5.99072210837959	1.17158964426713	7.95350762194978	0.0263425328585245	0.013660811380096	0.213217913350331	-0.0123602618154828	-0.00418937490422173	-0.00714719051559837	0.49658203125	-0.3173828125	0.382568359375	0	0	0	0.221137622955878	-0.232073418440877	0.50679910885611	0.800246676612432	0.378593183431636	0.708488276933968	0.595576664171991	-0.91376893335501	0.388505629952153	0.118700092378773	-0.147287263177601	-0.589158498998884	0.794480160333179	8.49747719007384	-36.5537521052206	61.8813966847797
9660	1655806090356	5.94161704645837	1.1923780869166	7.96644670751812	-0.0123581421020202	-0.0210453928799255	0.19672099845557	0.0178109379988646	0.00114375039416916	-0.0134124724913915	0.48681640625	-0.329345703125	0.38427734375	0	0	0	0.221221773411203	-0.232006157651182	0.506767116624459	0.800263181265307	0.378720464640134	0.708444502545246	0.59554781208244	-0.9137437570969	0.388496032953868	0.118925097206387	-0.14711613109786	-0.589217463414423	0.794468139561475	8.51347589522885	-36.5516942388025	61.8719185084733
9661	1655806090356	6.00675312440817	1.23973582890743	8.00302583481701	-0.0356089943024497	0.021476155927329	0.270205143469065	-0.0118330566472708	-0.00562398289386264	-0.00730742207858615	0.479736328125	-0.328857421875	0.390869140625	0	0	0	0.221197152080319	-0.232050560519967	0.506717928440378	0.800288259485929	0.378778956718923	0.708382971752414	0.595583803740618	-0.913698664255048	0.388617521817297	0.118874609042993	-0.147245553024417	-0.589211326323417	0.794448714547851	8.51011956515634	-36.5542613412161	61.866170175988
9662	1655806090357	5.95750680046642	1.17538932564127	7.96133012508005	0.0109260166855809	-0.0141761951244238	0.200098677102385	0.00791163177544605	-0.00138950256177092	-0.00755803144992861	0.484375	-0.3291015625	0.384033203125	0	0	0	0.221242434097545	-0.232023325538238	0.50669459275574	0.800298413988722	0.378851532156542	0.708346947299188	0.595580488963971	-0.913680568537135	0.388624750053375	0.11899000934368	-0.147171108782593	-0.5892498671174	0.79443392352154	8.51841608976616	-36.5540249114465	61.8603936876641
9663	1655806090359	5.96381891911573	1.25942560445418	8.0393518871175	-0.0744478705005273	-0.0235395471892988	0.275839344290933	-0.0020471430009301	-0.0052352555427782	-0.00672349985827217	0.487548828125	-0.327880859375	0.390869140625	0	0	0	0.221255305674246	-0.232042022838647	0.506659522025865	0.800311638106349	0.378905256754943	0.708289966684529	0.595614077652216	-0.913652081454269	0.388684436903037	0.119013791485067	-0.147209647977816	-0.58927899301044	0.79440517869589	8.52039741885833	-36.5564206918026	61.8550977403343
9664	1655806090360	5.9856989207134	1.17561860716983	7.92881605073877	0.0268258257299917	0.0240866468551032	0.191086667581729	-0.00346982972935567	-0.00578473892068868	-0.00660438970846331	0.485107421875	-0.334716796875	0.39111328125	0	0	0	0.221265141398346	-0.232058724037806	0.506621674047822	0.800328035985806	0.378966455965857	0.708234045983179	0.595641638372415	-0.913620071530959	0.388752433173906	0.11903743359605	-0.147250772997783	-0.589301350593789	0.794380971599831	8.5223210253696	-36.5583865707655	61.8493670355696
9665	1655806090360	5.99361654309446	1.18937985765439	8.0280002640713	0.00291221079097622	-0.023990588190255	0.276230709614373	0.00578886859312367	-0.00396156114407767	-0.00586059189574295	0.4853515625	-0.323974609375	0.38720703125	0	0	0	0.221305141240882	-0.232053428856015	0.506600555523923	0.800331879759498	0.379014166598037	0.708187916082512	0.595666128827806	-0.913606383476158	0.388759823206411	0.119118327440136	-0.147212898856081	-0.58935191131889	0.794350481233039	8.52834990530839	-36.5601334927419	61.8448138982946
9666	1655806090360	6.00154418154345	1.13846630029097	7.9980716808275	0.0572223249596664	-0.0209787242069263	0.251112823903316	-0.00399696585028686	-0.00435208384432065	-0.00644388405775922	0.487548828125	-0.333740234375	0.3876953125	0	0	0	0.221308132983836	-0.232067530855843	0.506564735786196	0.800349636006379	0.379073659160667	0.708140939840548	0.595684119523332	-0.913574667760049	0.388829757466141	0.119133312452638	-0.14725653587416	-0.589362222262818	0.794334742795362	8.52957349739238	-36.5614168072907	61.8394911047702
9667	1655806090361	5.95702371386267	1.22790054550246	8.01330316072395	-0.0431697649022185	-0.027306032421606	0.247346904510303	0.00896530403836974	-0.00425453233663835	-0.00788056544240779	0.480712890625	-0.3271484375	0.382568359375	0	0	0	0.22136392949414	-0.232053127959019	0.506538893773586	0.800354737362115	0.379139389798134	0.708085222066879	0.595708520498067	-0.913557991092539	0.388832719627091	0.119251469837332	-0.147190760628725	-0.58942720876958	0.794298713046697	8.53829015429669	-36.5631574147438	61.8334814976128
9668	1655806090361	5.99842683153141	1.17534571350016	7.97503289965865	0.0266790073052342	0.00365517662412472	0.235346605445413	-0.00561547012695355	-0.0048616544754279	-0.00794466866607878	0.48388671875	-0.330078125	0.38623046875	0	0	0	0.221360523955885	-0.232071100547721	0.506495553606965	0.800377896309562	0.379210516933888	0.708032930547654	0.595725400756788	-0.913518452196704	0.3889235452207	0.119258179883396	-0.147252916245732	-0.589430102075779	0.794285045449091	8.53890826946522	-36.5643615659902	61.8272476590004
9669	1655806090362	5.98291099546872	1.19391695784077	7.97963061674041	0.00348819925853599	-0.00318830112277345	0.231970126754568	0.00434234285123162	-0.00101390713991185	-0.00878085364461453	0.4853515625	-0.32958984375	0.3916015625	0	0	0	0.221390657342363	-0.232054443083126	0.506464329550804	0.800394149890884	0.37928923667607	0.707992801614966	0.595722979079267	-0.913491544388524	0.388960119468342	0.119344978083888	-0.14721709572042	-0.589454169825411	0.794273824573793	8.54515025975386	-36.5641888147593	61.8209459148323
9670	1655806090362	5.95541163331721	1.1950896123125	8.01142844778206	-0.0122008905823899	-0.0412677471334362	0.240983647634698	-0.000428481078401763	-0.00472697105083201	-0.00522316010697786	0.4921875	-0.324951171875	0.385009765625	0	0	0	0.221403594110938	-0.232063554201343	0.506438513289625	0.800404265095578	0.379333078136868	0.707951682166688	0.595743931189034	-0.913470502016031	0.389000961543505	0.119372919310902	-0.147234703034941	-0.58947660482464	0.794253910652398	8.54733245082065	-36.5656834537813	61.8168038959467
9671	1655806090363	5.9832919594294	1.19499199705725	7.97918403735287	0.0035411789158322	-0.00306973509990241	0.23197014515123	0.00364299357142103	-0.00303711782466701	-0.00720203127126953	0.484130859375	-0.322265625	0.379150390625	0	0	0	0.221434220650212	-0.232058507513852	0.506410555956281	0.800414944782721	0.379394395812988	0.707905764853106	0.59575944853056	-0.91344854387943	0.389030469482167	0.11944476338054	-0.147212941381681	-0.589512274598438	0.794231470030954	8.55263864707637	-36.5667904169934	61.8114011818445
9672	1655806090363	5.96178400497487	1.19503820893003	8.03452591423029	-0.0123163709777346	-0.0514091531934105	0.263115179435589	0.00185281270908009	-0.00700268811243521	-0.00728434405762874	0.4833984375	-0.330322265625	0.3818359375	0	0	0	0.221462731554129	-0.232067160626865	0.506376552399785	0.800426060714465	0.379455240276586	0.707845523558191	0.595792275382343	-0.913422432743937	0.389074091424584	0.119502346178995	-0.147218137424667	-0.589555821072751	0.794198182982338	8.557054072571	-36.5691322439411	61.8055452750092
9673	1655806090364	5.97588159897648	1.16307457104047	7.95366875423284	0.0346054735082573	-0.00680028383745042	0.203474885389363	0.00291922774428128	-0.00156374906331548	-0.00866214300694976	0.48193359375	-0.337646484375	0.391845703125	0	0	0	0.22148844395974	-0.232056445893744	0.506343518025868	0.800442950412236	0.379532095344704	0.707802556757807	0.595794368260031	-0.913393841205139	0.389118221890962	0.119577172741865	-0.147197416593431	-0.589578281519535	0.794185350222914	8.56246899453312	-36.5692815496509	61.7992647541365
9674	1655806090364	5.98009727876453	1.21265498785227	8.03040491566598	-0.0199404905963663	-0.0300835788264764	0.272856549538101	0.0020491317935806	-0.00704324385307525	-0.00566423431022737	0.491943359375	-0.334228515625	0.388916015625	0	0	0	0.221510264734058	-0.232065758556728	0.506319455311264	0.800449433441141	0.379572185757592	0.707756347061035	0.595823723087646	-0.913376137515478	0.389147623581506	0.119616714877872	-0.147203896743639	-0.589614348753222	0.794157372645877	8.56555573943661	-36.5713757508823	61.7951862419721
9675	1655806090365	5.96089834756698	1.18237144381523	7.95775680165541	0.0114184871566525	-0.0133660642151689	0.200099241821686	0.00112916391719095	-0.00552959125336746	-0.00874450506552192	0.477294921875	-0.3291015625	0.391845703125	0	0	0	0.22153889701389	-0.232075354969978	0.506279669906064	0.800463892105843	0.379643850910731	0.707689753805827	0.595857163105319	-0.913344626462451	0.389202825899352	0.119677707298081	-0.147214604499136	-0.589657843728214	0.794123093450856	8.57022290700552	-36.5737614626394	61.7884349817856
9676	1655806090365	5.99280781897994	1.23101532415844	8.00250053757433	-0.0273471730472378	0.00161070263616761	0.260465504215604	-0.00198583286791463	-0.00392546179031928	-0.00170233917204072	0.48876953125	-0.330078125	0.388916015625	0	0	0	0.221530639981657	-0.232083710735779	0.506270444646272	0.800469589452401	0.379654776177555	0.707680884018541	0.595860736515092	-0.913335495893001	0.389228824853968	0.119662834015771	-0.147243074089944	-0.589651327733209	0.794122653520857	8.56917830809951	-36.5740164048333	61.7874489717247
9677	1655806090366	5.97127083749285	1.16606549840677	7.92881474899876	0.0348314874704757	0.00412299758485059	0.18134371691759	0.00364243454569255	-0.00303697358436408	-0.00720316444038432	0.488037109375	-0.3291015625	0.384521484375	0	0	0	0.221561217832974	-0.232078638691847	0.50624253214518	0.800480250138968	0.379716008220351	0.707635045881949	0.59587615738579	-0.913313549168286	0.389258250799211	0.119734602727733	-0.147221309622052	-0.5896869135604	0.794100264430618	8.57447952503997	-36.5751166047409	61.7820533091949
9678	1655806090367	5.93215992032386	1.23426183532192	8.04235896070024	-0.0586197906355502	-0.0642029569315968	0.256369343073507	-0.000624664447122485	-0.00468731432053378	-0.00684403054928839	0.492431640625	-0.33251953125	0.387451171875	0	0	0	0.221568317223808	-0.232083432547468	0.506211466821458	0.800496540903246	0.379774462390905	0.707596385102135	0.595884815636452	-0.913285727522406	0.389314863322155	0.119762753393198	-0.147243124184348	-0.589695932652449	0.794089522279189	8.57657977995216	-36.5757343333199	61.7770742856478
9679	1655806090367	5.97757022867538	1.16551345633309	7.95204266195991	0.034682831430852	-0.00591050527899018	0.203475182398733	-0.00413203357346527	-0.00300262839634335	-0.00304225801483321	0.486328125	-0.3310546875	0.385009765625	0	0	0	0.221562891296259	-0.232102530608933	0.506191187805591	0.800505329072416	0.379797793345789	0.707566871217956	0.595904991525077	-0.91326810225353	0.389360733176814	0.119748039091457	-0.1472922590495	-0.589701061737934	0.794076600970743	8.57567917845384	-36.5771738145175	61.7746117735741
9680	1655806090368	5.95034149175122	1.25089088747652	8.03847476589786	-0.0662018912110902	-0.0427825656816858	0.266109956113407	0.00512602296611368	-0.00117478411230419	-0.00230134575632214	0.487060546875	-0.330078125	0.38916015625	0	0	0	0.221575348618702	-0.232080653297349	0.506190004263136	0.800508972362998	0.379820499898323	0.707572576942177	0.595883743876601	-0.913265983590242	0.389352088937174	0.119792295483506	-0.147246837228975	-0.589699923011413	0.794085870499153	8.57870277108925	-36.5756578676415	61.7733769096448
9681	1655806090369	5.95251477272624	1.20047206859584	7.98494463217273	-0.0118328399524934	-0.0295336250057743	0.218857569418569	-0.0138919104656632	-0.00689446718199173	-0.000583257649430493	0.48583984375	-0.336181640625	0.38134765625	0	0	0	0.221537859212527	-0.23214280718517	0.506163903939424	0.800517830130298	0.37981563884198	0.70752961907296	0.595937847955247	-0.913243301214515	0.389438158568664	0.119685393584441	-0.147399977197666	-0.589694631809652	0.794061388015439	8.57142128467904	-36.5795180667685	61.7722328666779
9682	1655806090370	6.00778289387366	1.17928688890876	7.99529772040101	0.0268809204947516	-0.00462177697920029	0.257477209269499	0.00668309514459669	-0.00197635474702336	-0.00582311075362495	0.48583984375	-0.32421875	0.388916015625	0	0	0	0.221560832203639	-0.232109686126867	0.506150431235374	0.800529594830549	0.379873669132664	0.707523968838735	0.595907567512254	-0.913229629721912	0.389445077186951	0.119767171014555	-0.147335124453292	-0.58969684192264	0.794071782478636	8.57708019507946	-36.5773576043943	61.7683942718916
9683	1655806090370	5.93722393201882	1.21855043294749	7.98944626837019	-0.0348862587301255	-0.0358994240369445	0.21548490351185	-0.00978581876692622	-0.000395486273319498	-0.000579864474913841	0.48583984375	-0.333984375	0.388427734375	0	0	0	0.221523277122353	-0.232135497508442	0.506136332539112	0.800541417650167	0.379878247360731	0.707519362061239	0.595910118634176	-0.91321302663923	0.389506901153661	0.119692697897948	-0.147426202415164	-0.589661535342208	0.794081096978963	8.57172702805193	-36.577539620632	61.7679510041977
9684	1655806090372	5.99821325963177	1.19573964773489	8.0236211460032	0.00374689722445727	-0.0212190463087035	0.276236643952041	-0.00483017366098398	-0.00502624749174289	-0.00146318533760082	0.487548828125	-0.3291015625	0.385009765625	0	0	0	0.221502664851423	-0.232142713395707	0.506123494214751	0.800553145446852	0.37989753844226	0.707517051270362	0.595900564227962	-0.913197969842319	0.389551156135139	0.119663547622675	-0.147469753378039	-0.58963507266399	0.794092660161994	8.56954751117338	-36.5768579395917	61.7666603872743
9685	1655806090372	5.95128501797583	1.1655292990603	7.983125467255	0.0193607470546762	-0.0427118830200647	0.212498171034992	0.00099375437797064	-0.00417698561364279	-0.00534427727323661	0.482666015625	-0.326904296875	0.38818359375	0	0	0	0.221523381646062	-0.232151014077528	0.506098655470431	0.800560709114488	0.379940115187595	0.707471641628561	0.595927332115776	-0.913179152392627	0.389583084630231	0.119703198810553	-0.147476589690436	-0.589668463173489	0.794066596093738	8.57262209359349	-36.5787677711737	61.7624513133842
9686	1655806090374	5.97729314135164	1.21537069873796	8.00424266379751	-0.0190908445562983	-0.0171753233411084	0.250731559767763	-0.000759791419150852	-0.00333499257731108	-0.00344308696487646	0.494873046875	-0.3271484375	0.39111328125	0	0	0	0.221513696761342	-0.232140961973793	0.50608427245364	0.800575396259513	0.379978565897904	0.707472428607462	0.595901881368428	-0.913162039233658	0.389620782644389	0.119711051428851	-0.147483489112509	-0.589642610817632	0.794084511842012	8.57298555794912	-36.5769519136436	61.7600610092038
9687	1655806090375	5.96749277656691	1.14749079236903	7.97793108124018	0.0427268882613498	-0.0352838790556209	0.21587279974019	-0.0100178708038232	-0.00516386308393005	-0.0041837089781108	0.481689453125	-0.33251953125	0.392822265625	0	0	0	0.221491520860747	-0.232182304767797	0.506050188748323	0.800591087889	0.380009167641	0.707425718672963	0.595937819800721	-0.913131365872854	0.389709425309159	0.11965647698466	-0.147594516049784	-0.589640073591718	0.794065767079014	8.56933457830864	-36.5795160579589	61.7565605458986
9688	1655806090377	5.96008628629147	1.19896409278049	8.00737218361013	-0.01126383741043	-0.0374953055090253	0.24099951827856	0.00922269816894231	-0.00297916247823387	-0.00124352498785463	0.4814453125	-0.33642578125	0.383056640625	0	0	0	0.221514151363252	-0.232142418652766	0.506061422746318	0.800589292094164	0.380023467740033	0.707449050658719	0.595901002423152	-0.913140374111841	0.389666634307582	0.119727069931111	-0.147501936033829	-0.589640360583872	0.794082756415724	8.57413433068514	-36.5768892035015	61.7564494967445
9689	1655806090377	5.97079178344091	1.26659158123146	8.03304793495271	-0.0730764940583631	-0.019382584631416	0.275858214081738	-0.00996444298185382	-0.0121579397322255	0.00189388650096085	0.490234375	-0.3251953125	0.38720703125	0	0	0	0.221502876510622	-0.232218191966307	0.506043995370527	0.800581452300048	0.379988372138666	0.707384878485645	0.595999555980754	-0.913132868480176	0.389711900893908	0.119636945810324	-0.147638753518755	-0.589687432451724	0.794022374034839	8.56841787809062	-36.5839210252836	61.7564887177416
9690	1655806090378	5.9788510455409	1.12987614720798	7.94842703924904	0.066454373708735	-0.0167728867575865	0.197111575742731	-0.0103493540437572	-0.00377169536109797	-0.00240174739985574	0.488037109375	-0.333984375	0.389892578125	0	0	0	0.22145197811879	-0.232234729209637	0.506023017504876	0.800603995550523	0.380015472608373	0.70739041896716	0.595975700621846	-0.913105779652583	0.38979945428507	0.119558440120764	-0.147736507821471	-0.589622913897117	0.794052103872403	8.56256281552553	-36.5822188805124	61.7549723365008
9691	1655806090378	5.94791796865983	1.25106758057037	8.01242981651072	-0.0651105159461968	-0.0294914523997308	0.243993029834701	0.0161370987056901	-0.000186289245752121	-0.00346443999858205	0.481201171875	-0.329345703125	0.384765625	0	0	0	0.221521079123114	-0.232190681897927	0.506027711728225	0.800594687533588	0.380046884405744	0.707375934676068	0.595972862381036	-0.91311645634151	0.389728732934456	0.119707359354496	-0.147589643308091	-0.589687037136194	0.794031797487813	8.5732857533954	-36.5820163668057	61.7525088286564
9692	1655806090379	5.9932358766899	1.16202138206572	7.99655436594013	0.0354298129421941	-0.0224104059979813	0.247744723690992	-0.0268884385330457	-0.0118101635280406	-0.00112377470125359	0.486083984375	-0.326416015625	0.395263671875	0	0	0	0.221419095305328	-0.232279252582942	0.50598857881611	0.800621940219809	0.380043813854324	0.707348991471411	0.596006798464109	-0.913073239331862	0.389898284683645	0.119484673564311	-0.147864665038941	-0.589607269175956	0.794039866107358	8.55748795784384	-36.5844378036057	61.7517919476189
9693	1655806090380	5.98578624398114	1.12829374477182	7.97133259001127	0.0664272112000776	-0.0263167641712616	0.21924773271965	0.0136862437159947	-0.00136797519179474	1.56538238051E-05	0.4853515625	-0.327392578125	0.384765625	0	0	0	0.221477248161049	-0.232249969705559	0.506003145753136	0.80060514400465	0.380041536119395	0.707341274393243	0.596017409446867	-0.913093611096739	0.389817290069879	0.119593217771294	-0.147744672317911	-0.589670078859627	0.794015560237552	8.56540494179762	-36.5851949432283	61.7516745004512
9694	1655806090380	5.95907133825234	1.2336616374097	7.98305704655012	-0.0413813738021774	-0.0107973777578472	0.225231894172014	-0.00876593533034967	-0.00807038457658309	-0.0028852835359	0.48974609375	-0.331787109375	0.389404296875	0	0	0	0.221439671683474	-0.232272306486058	0.505979820556044	0.800623799692737	0.380067993659441	0.707330366423986	0.596013483849315	-0.91306757958173	0.389897785989577	0.119529542779963	-0.14783746247974	-0.589629942603779	0.794028094888724	8.56077891435285	-36.5849148339585	61.7496430939093
9695	1655806090381	5.97116978229439	1.14663764460076	7.97530206929914	0.0434543344205769	-0.0323603692167235	0.215879533826563	0.00349805384034904	-0.00998872293660762	-0.00275050610132815	0.483154296875	-0.330810546875	0.380126953125	0	0	0	0.221482172304725	-0.232299993673495	0.50596192142343	0.800615322336505	0.380078494017611	0.707261119170474	0.596088959548014	-0.913062348071192	0.389896362841383	0.119574139251689	-0.147842777706679	-0.589713943834457	0.793964720580949	8.564599026173	-36.5903005470384	61.7466441360905
9696	1655806090382	5.95426989912944	1.21521766564623	8.03295377289059	-0.0341998089643071	-0.0517741093059007	0.25977907413157	0.0002951532715022	-0.00620035320658606	-0.00376673405194125	0.489501953125	-0.328125	0.386962890625	0	0	0	0.221474229063077	-0.232307764724522	0.50594766539644	0.800624274044639	0.380100124657177	0.707247598429748	0.596091209254887	-0.913048330820669	0.389932251481616	0.119564145294769	-0.147873732695126	-0.589706430158119	0.793964536619224	8.56389576965012	-36.5904610849504	61.7448277528255
9697	1655806090382	5.99812760021819	1.19644086428211	7.99571183349923	0.00473531256663922	-0.00673249333338054	0.254106832082671	-0.0082381171615383	-0.00950364319627146	-0.00304642869635684	0.480224609375	-0.321044921875	0.386474609375	0	0	0	0.221468810903733	-0.232363019506055	0.505915482160479	0.800630075548781	0.380113904152718	0.70717997815087	0.596162644227491	-0.913024624662897	0.390002181414434	0.119517083511767	-0.147984643220011	-0.58974127971045	0.793917985925831	8.56106938106348	-36.5955588211031	61.7416770898846
9698	1655806090384	5.97134059330786	1.19661249805131	8.02719138945869	-0.0107175026488071	-0.044215821600428	0.263151141285132	-0.00394362537092089	-0.0113494397944917	-0.000369160087465788	0.482177734375	-0.331787109375	0.390380859375	0	0	0	0.221459788655337	-0.23239013343129	0.505896111114082	0.800636941848282	0.380127901286872	0.707148090920076	0.596191543190047	-0.913008370261192	0.390049373536765	0.119487246334407	-0.148048959794522	-0.589748305391096	0.793900775785042	8.55914657911895	-36.5976212019781	61.7397198070788
9699	1655806090384	5.98566314315696	1.14412124317424	8.02057344157685	0.0433020525664973	-0.0515754414075717	0.260159298635731	0.0029700284511842	-0.00855587265858804	-0.00259057298767376	0.47802734375	-0.329833984375	0.392578125	0	0	0	0.221496495725255	-0.232413542335793	0.50587971650094	0.800630351756221	0.380139315543715	0.707087740364026	0.596255841233318	-0.913002881109912	0.390050029628722	0.119527040754942	-0.148053503379543	-0.589820228386183	0.793846495440721	8.56253166246617	-36.6022100438955	61.7369628828613
9700	1655806090385	5.97065601116658	1.16244795017791	8.02484960703173	0.0201449221883278	-0.0572182712114276	0.256798714888456	-0.00202178286032653	-0.00873429229914874	-0.0036888579451179	0.48193359375	-0.330322265625	0.39013671875	0	0	0	0.22147172130616	-0.232413677664911	0.505881139460941	0.800636266873827	0.380136310343942	0.707107459464685	0.596234371977575	-0.912999688454857	0.390069098798774	0.119489192162503	-0.148080905046631	-0.589783976496235	0.793868318191915	8.55962866461031	-36.6006777892988	61.7378181917831
9701	1655806090386	6.01663432231612	1.17843255935441	7.98876502477781	0.0282682604238641	0.00203903875291591	0.257474264554663	0.00244211047870789	-0.00712312039628916	-0.00242932190487408	0.478271484375	-0.33251953125	0.38916015625	0	0	0	0.221502276833888	-0.232432450573073	0.505866732635055	0.800631467087782	0.38014800946746	0.707057014576981	0.596286733908625	-0.912994282625045	0.390071180341076	0.119523697070081	-0.148084201695887	-0.589843074389119	0.793823794555999	8.56253690760148	-36.6044148986374	61.735377933332
9702	1655806090386	5.96607570485136	1.16401916013556	8.0001744339878	0.0202004813010433	-0.0457738294622526	0.234664901597613	-0.00291611570696772	-0.010717873641633	-0.00373049549526014	0.485107421875	-0.336181640625	0.39306640625	0	0	0	0.221476604936666	-0.232451324771012	0.50586446376312	0.800634522975109	0.380135051827705	0.707060046823462	0.596291399030668	-0.912990167716718	0.390098515534758	0.119465902374598	-0.148142823061217	-0.589821361399858	0.793828990155859	8.55840270568526	-36.6047478605955	61.7362949736888
9703	1655806090387	5.97639771119146	1.14754713972318	7.97125432326074	0.0435793144152894	-0.0286188920794755	0.215890366627097	0.00740514208076014	-0.00344695762296024	-0.00436990465955952	0.4873046875	-0.3330078125	0.38623046875	0	0	0	0.221519722507529	-0.232440398321777	0.505852483689303	0.800633335874522	0.380169451946755	0.707024457881598	0.596311666633931	-0.912984988024716	0.390084554571102	0.1195510431848	-0.148086459367535	-0.589873254388006	0.793800947536402	8.56470974804615	-36.6061944291205	61.7329295920846
9704	1655806090388	5.99671562783959	1.19867761789729	7.96854692479575	0.00480942936778809	0.00774316960853002	0.231967102535098	-0.00559163295066501	-0.00836274988156238	-0.00490672828239112	0.4833984375	-0.32861328125	0.384765625	0	0	0	0.221476057299655	-0.232463923269535	0.505847271085713	0.80064187921709	0.380158125426546	0.707034633057511	0.596306823145103	-0.912975405818096	0.390133788756274	0.11946353101243	-0.148174586361689	-0.589828495859521	0.793817760842271	8.55835461128607	-36.605848730204	61.7339855394459
9705	1655806090388	5.99875490110397	1.12900492888908	7.98939053888622	0.0662820856877562	-0.030929990645509	0.241402532585406	0.00538988610316961	-0.00387552960282423	-0.00911150657511673	0.48583984375	-0.33154296875	0.38916015625	0	0	0	0.221517475061941	-0.232454566659616	0.505813709552512	0.800654341092334	0.380234731335633	0.70697838732836	0.596324667389092	-0.912949382020584	0.390164998941818	0.119560442743268	-0.148138364221945	-0.589875269401357	0.793789765362545	8.56549202176049	-36.6071223519959	61.7272686301138
9706	1655806090389	5.96983938070375	1.2003325108869	7.99989826980571	-0.0111743733619086	-0.0295702108782674	0.241026051195258	-0.000100776940342993	-0.00611940624383028	-0.00700919813545219	0.484375	-0.32470703125	0.398681640625	0	0	0	0.221500724237412	-0.23245985036853	0.505792928456088	0.800670569368425	0.380271862980912	0.706966973593418	0.59631452143411	-0.912927074444417	0.390221885372234	0.119545125048649	-0.148180521565369	-0.5898513189141	0.793799694257885	8.56430537749341	-36.6063981882039	61.7245486784029
9707	1655806090389	5.96821332569035	1.16624769161037	7.99825523990207	0.0196541464762123	-0.0437517237281951	0.234674994007948	0.000822794593570116	-0.00763331521970573	-0.00393026787190697	0.488037109375	-0.328857421875	0.384765625	0	0	0	0.221527291100174	-0.232482798056399	0.50577069351732	0.800670602360731	0.380295508373754	0.706908882708189	0.596368307222146	-0.91291402063148	0.390243329753657	0.119574807201371	-0.148200260611154	-0.589906751216698	0.793754815811373	8.56687743869727	-36.6102372064933	61.7210981075498
9708	1655806090390	5.96848498797064	1.16664609923681	7.99799441472528	0.0198834716971934	-0.0426921811090533	0.23467910075799	0.00115883010176855	-0.000719600054242664	-0.00676468622522354	0.4833984375	-0.335693359375	0.387939453125	0	0	0	0.221506239766735	-0.232438159569654	0.505756863027886	0.800698122403485	0.380364994952128	0.706944135829061	0.59628219781574	-0.912890146647358	0.390289962489187	0.119604871699915	-0.148168993953634	-0.589833649427609	0.793814975440547	8.56835965695368	-36.6040911472059	61.7179226297047
9709	1655806090390	6.00436768996451	1.19959714109155	7.99055370398938	0.00464143209708947	-0.000548200977736854	0.254109112164553	-0.00364092498684704	-0.00924564992343999	-0.00518920043921218	0.484130859375	-0.33154296875	0.38427734375	0	0	0	0.221520679982211	-0.232476977965291	0.505722586827416	0.800704507436377	0.380398239777424	0.706871793092033	0.596346750896735	-0.912865626048355	0.390346507025611	0.1196074965554	-0.148234705631248	-0.589882931253109	0.79376608611269	8.56906482360875	-36.6086985777086	61.7133864325933
9710	1655806090391	5.98118102736153	1.18470346579852	7.97008221127702	0.0118324973469236	-0.0104094572451932	0.222252141852532	0.000792828379464208	-0.00413585541108206	-0.00696839448202503	0.48681640625	-0.3291015625	0.38623046875	0	0	0	0.221492834064661	-0.232482737818362	0.505718488491925	0.800713126826285	0.380401174027842	0.706884343487463	0.596330002373299	-0.912857385369465	0.390379469710894	0.119562801927127	-0.148277917353406	-0.589846077006994	0.793785402148967	8.56570491480305	-36.607503137252	61.7136265068009
9711	1655806090392	5.98739271423749	1.18373925809801	7.99345956288743	0.0116655643247305	-0.0206553601346113	0.244396866441029	-0.00489515600034131	-0.00634001572289713	-0.00648586337639941	0.4921875	-0.33251953125	0.38916015625	0	0	0	0.22149608455012	-0.232511844777521	0.505681029492488	0.800727433636776	0.380449876899143	0.706824419509153	0.596369961645433	-0.912826272428138	0.390452361880767	0.119562324612236	-0.148344489389993	-0.589869640757413	0.79375545313424	8.56598962147946	-36.6103552957587	61.7085384027296
9712	1655806090393	6.00131535727377	1.13140618791754	7.98712762082016	0.0654371247150179	-0.0272883148727869	0.241418611093247	0.000990708657899574	-0.0041762935781254	-0.00534818288866911	0.490234375	-0.330078125	0.39306640625	0	0	0	0.221482235939805	-0.232511499803112	0.505667492391959	0.800739913305463	0.380477579194671	0.706821954322435	0.596355210103825	-0.912810621754878	0.390492012602265	0.119552318694813	-0.148369742675643	-0.589846346925745	0.793768043244824	8.56514954451096	-36.6093023680297	61.7067138933116
9713	1655806090394	6.01936066717051	1.14815750552133	7.98328379849962	0.0578154323224701	-0.00620010159740584	0.251129389991084	0.000990691812545297	-0.00417632006902379	-0.00534827259124785	0.48681640625	-0.333251953125	0.382080078125	0	0	0	0.221502344892642	-0.232518443301952	0.505643695801556	0.800747361923623	0.380519252841161	0.706778950128475	0.596379588745704	-0.912792471817152	0.390522328206409	0.119591866638913	-0.148374531544798	-0.589877806691807	0.793743769462995	8.56819898515502	-36.6110424615788	61.7026397201473
9714	1655806090394	5.99202065250001	1.14925566086867	8.01509044977242	0.0416093107168378	-0.0436386674695673	0.260203944598937	0.000198306085565029	-0.00401426330240659	-0.0118308608603868	0.48388671875	-0.336669921875	0.39013671875	0	0	0	0.221486571930312	-0.232519916565281	0.50560968954591	0.800772769699572	0.380586660475528	0.706756864518105	0.596362748941131	-0.912757021420369	0.390605080583696	0.119592185656173	-0.148419721452041	-0.589849476967423	0.793756373710068	8.56808746453284	-36.6098404693727	61.6976560016774
9715	1655806090395	5.97077368069884	1.16963399219875	7.99584948599868	0.018605876145773	-0.040189464760831	0.234691870417958	0.00961943833741282	-0.00702913110153643	-0.0114633265782316	0.4765625	-0.325927734375	0.3955078125	0	0	0	0.2215555301299	-0.232509827995764	0.505568248814415	0.800782787492942	0.380679851352213	0.706673026703038	0.596402619129749	-0.91272837951109	0.39062778571917	0.119736536859877	-0.148356853598059	-0.589934883147713	0.793704653908479	8.57882629095094	-36.6126863555323	61.6889618901145
9716	1655806090395	5.98883389194707	1.1870982726944	7.99188164739425	0.0107062769695002	-0.0175787567209168	0.244403781576068	0.00181806646432596	-0.0035040876096944	-0.0103314764297735	0.485107421875	-0.32861328125	0.38232421875	0	0	0	0.22152295070153	-0.232471158435116	0.505574438146642	0.800799119817841	0.380703295977084	0.706731736201362	0.596318080790775	-0.912722524079562	0.390644139610388	0.119727817260207	-0.148332715440724	-0.589853718504739	0.793769485616645	8.57752063787522	-36.6066522351979	61.6894760093839
9717	1655806090396	5.98312184115419	1.18883185393503	7.96801048436645	0.0108967649318018	-0.00726539359505762	0.222255970443076	-0.00115769679516886	-0.00325506823267924	-0.0066862653807635	0.49267578125	-0.326416015625	0.387939453125	0	0	0	0.221533298295451	-0.23247779853806	0.505544378350231	0.800813306864787	0.380757909410752	0.706690183805899	0.596332456381118	-0.912696477768306	0.390695758529635	0.119757938092979	-0.148352802098518	-0.589869314661594	0.793754141866473	8.57980982161775	-36.6076782930403	61.6846376543138
9718	1655806090397	6.00475179977363	1.16999481216334	7.98674647385954	0.0336432957586119	-0.0103319584793514	0.247770511676892	0.000959062816868073	-0.000679308804696735	-0.00838672354701294	0.48876953125	-0.3271484375	0.38525390625	0	0	0	0.221523610416882	-0.232475156212356	0.50550163037685	0.800843738477274	0.380846806860774	0.706658159081928	0.596313638873783	-0.912653102827487	0.390790783428431	0.11977845167956	-0.148391453942983	-0.589844733629396	0.79376518354382	8.58114000512376	-36.6063351961078	61.6779676609707
9719	1655806090397	5.96551624013713	1.17329707246596	7.97135710478128	0.0182805061578631	-0.0279430029650936	0.212552242464906	-0.00257941122640074	-0.00380670533965168	-0.00656553367996211	0.479248046875	-0.32763671875	0.39111328125	0	0	0	0.221529802071568	-0.232487936039056	0.505469437911976	0.800858635295508	0.380900013866502	0.706613115550026	0.596333031425549	-0.912625141369064	0.390850388262166	0.119797017226686	-0.148426853290082	-0.589859202630594	0.793747812780863	8.582635294061	-36.6077193371237	61.6730992998243
9720	1655806090398	5.97735028120337	1.17134572801712	8.01856985015364	0.0177949431589308	-0.0476383979575315	0.256853020963803	0.00238064639562914	-0.000127701363095051	-0.00850794601649248	0.487060546875	-0.335693359375	0.3876953125	0	0	0	0.221512870592811	-0.232456526622266	0.505449289999377	0.800885151960985	0.380969956939675	0.706629437859182	0.596269007630112	-0.912597887859711	0.390906126801716	0.119822765378184	-0.148414914962671	-0.589802710725966	0.793792022784889	8.58398150683764	-36.6031497408968	61.6692579003033
9721	1655806090399	5.97137871919037	1.17307377310157	7.99489367885725	0.0179938248955483	-0.0373328976546783	0.234704005352366	-0.00261166665527425	-0.000309719487654179	-0.00960375148876658	0.478759765625	-0.336669921875	0.387451171875	0	0	0	0.221513679300696	-0.232451703261043	0.505408825889388	0.80091186421904	0.381056248728301	0.706593385773518	0.596256591146992	-0.912558313969786	0.390987217191557	0.119859582835175	-0.148436716851779	-0.589792152519782	0.793795791067417	8.58653960888207	-36.6022635655685	61.6626158144381
9722	1655806090400	5.99308587523401	1.15443638368392	8.01354936105153	0.0398246332940393	-0.039513924361553	0.260228183707596	0.00449579246821607	-0.0058575009449802	-0.00915736491023476	0.48486328125	-0.334716796875	0.385986328125	0	0	0	0.221486676638607	-0.232461622406849	0.505428961704813	0.800903746307604	0.38100631755594	0.706625593457672	0.59625033052658	-0.912574202229319	0.390970433483159	0.119793345255543	-0.148467206506976	-0.589764691052783	0.793810492359121	8.58170856242468	-36.60181674344	61.6668434622167
9723	1655806090401	5.97173014273301	1.17428977500511	7.99445266686808	0.0168227863284504	-0.0360564741515852	0.234710696017833	-0.00168636261238082	-0.00182314145523829	-0.00652458839468898	0.484375	-0.32373046875	0.38623046875	0	0	0	0.221490733143769	-0.232464129563147	0.505400835984622	0.800919645522527	0.381060846904987	0.706593615834045	0.596253379880252	-0.912548217780323	0.391023700234962	0.119817428116759	-0.148486973105422	-0.589767689787368	0.793804567195768	8.58347122096422	-36.6020343762918	61.6623347607818
9724	1655806090403	5.99550735415022	1.18989114845032	8.01436181827581	0.00853540052125762	-0.0245175153711477	0.266562150488559	0.00221476372052532	-0.00358451766627503	-0.00709132546994431	0.4853515625	-0.32177734375	0.38818359375	0	0	0	0.221475240998362	-0.232465526782863	0.505383398434355	0.800934527329934	0.381094798889016	0.706587309554741	0.596239153558313	-0.912528743826924	0.391072676423318	0.119805899039902	-0.148519513699032	-0.589742770817325	0.793816992964567	8.58252525686985	-36.6010190467041	61.6599883697172
9725	1655806090403	5.99363537738652	1.15609119130559	8.01289979390777	0.0393643805996768	-0.0386753239322019	0.260233247607326	0.00201629844916058	-0.00354432604808647	-0.00871233622398779	0.490234375	-0.333984375	0.388916015625	0	0	0	0.221500959746661	-0.232463171607125	0.505348953089487	0.800949832566949	0.381166618915431	0.706536687496354	0.596253232986001	-0.912499949963277	0.391119520885335	0.119872272437968	-0.148512120520834	-0.589772354052058	0.793796397355329	8.58742865739995	-36.6020238924118	61.6537618468954
9726	1655806090405	5.98213447415181	1.15891803790746	7.96530386056325	0.0396289545686477	-0.0174415263410302	0.215932423187928	-0.00367021390861597	-0.00575192652683297	-0.00822818099992332	0.4873046875	-0.32763671875	0.382080078125	0	0	0	0.221478843541124	-0.232473280113742	0.505311159616188	0.800976858507277	0.381233612001002	0.70650926392848	0.59624289770521	-0.912460916863694	0.391215507662059	0.119856171142682	-0.148579972664338	-0.589741542158897	0.793806591793688	8.58618375780748	-36.6012862643805	61.6486246001353
9727	1655806090406	6.00593348746029	1.17467409393318	7.98517094626437	0.0318195596085247	-0.00659107557999757	0.247779591481429	0.00413173068530924	-0.000967674719864172	-0.0104135721976783	0.48974609375	-0.3359375	0.386474609375	0	0	0	0.221508727435495	-0.232453199876653	0.505275054962174	0.800997198727926	0.381325257400154	0.706466982237627	0.596234392732226	-0.912428632209572	0.39126200500576	0.11995013365162	-0.148543055013943	-0.589761347026857	0.793798787074025	8.59289777096378	-36.6006792705375	61.6414355052393
9728	1655806090408	5.97255758029991	1.17700289969111	7.99343549089332	0.0152748078667658	-0.0341270055817782	0.234719907513023	-0.00115747498856804	-0.00325612960632153	-0.00668734295672613	0.491455078125	-0.330810546875	0.385498046875	0	0	0	0.221478366136794	-0.232493435699705	0.505254257345306	0.801007035627258	0.381329875581982	0.706439897275829	0.596263530266229	-0.912408962381031	0.391330937535639	0.119874862645378	-0.148651980664238	-0.58974805541383	0.793788271379847	8.58769804887106	-36.6027588153608	61.6402272671805
9729	1655806090409	5.97070849078239	1.14278494099749	7.99202701786646	0.0461002906805074	-0.0482934190127015	0.228396028724012	-0.000760344532501947	-0.00333647578397465	-0.00344552339905373	0.488525390625	-0.337646484375	0.38818359375	0	0	0	0.221486440836274	-0.232503506029061	0.505237633686188	0.801012365520692	0.381354106382751	0.706410436153437	0.596282937235776	-0.912395932282765	0.391357380065721	0.119887713390316	-0.148669796188995	-0.589765798229776	0.793771752419747	8.58878100294918	-36.6041439212298	61.6377066219806
9730	1655806090410	5.9727615648259	1.17764454058803	7.99318856772958	0.0141535427979798	-0.0334088786499749	0.234723963101715	0.00347018070651401	0.00181691055560689	-0.00684738329367241	0.483642578125	-0.3330078125	0.38037109375	0	0	0	0.221451769903128	-0.232504853978841	0.505248332656447	0.801014811867378	0.381331230448316	0.706445573408855	0.596255938750976	-0.912400019107586	0.391366471909304	0.119826915998624	-0.148703388721477	-0.589717675227984	0.7938012129661	8.5841765200648	-36.6022170037721	61.6403346041389
9731	1655806090411	5.98833614492575	1.16000178673376	7.98840173148318	0.0373294410098091	-0.0265106222113803	0.238095684756349	-0.003836003113737	-0.000903693525183652	-0.00786260932979237	0.485107421875	-0.327880859375	0.389892578125	0	0	0	0.221446280620706	-0.232508566816807	0.50521317841422	0.80103742453936	0.381398821426792	0.706413011892477	0.596251285653335	-0.912365641228609	0.391442378311714	0.119840732504354	-0.148740968531757	-0.589706300704571	0.7938026223121	8.58513654567472	-36.6018849109209	61.6349857132424
9732	1655806090412	5.99034006386178	1.19465008045152	7.98962721377348	0.0057127695668231	-0.011543239500112	0.244416596154966	-0.000595823125455706	0.000120401644863436	-0.00486302891768804	0.483154296875	-0.331787109375	0.390869140625	0	0	0	0.221399552681244	-0.232516168962636	0.505212921701572	0.801048296290084	0.381392269833401	0.70644194878659	0.596221191761859	-0.912357851984527	0.391484283636613	0.119763122820456	-0.148805532267809	-0.589643815078334	0.793836938486968	8.57929415354231	-36.5997371361768	61.6363782870376
9733	1655806090413	5.97654531396571	1.14224841846215	8.01563638722206	0.0439743540420148	-0.0570325148558363	0.250565863890847	-0.0153400047316599	-0.00396970692072781	-0.0034892911400101	0.489013671875	-0.326904296875	0.376708984375	0	0	0	0.221350416961925	-0.23256623533286	0.505178671103052	0.801068941700049	0.38141491289131	0.706408620535531	0.596246195004382	-0.912323153184306	0.391597006346673	0.11965888510332	-0.148960157048655	-0.589608891938896	0.793833878187765	8.5719705570897	-36.6015215915504	61.6338262553607
9734	1655806090414	5.98437390812313	1.19548119010146	7.96607513124458	0.00514575419231517	-0.000819777959284892	0.22226316403408	0.00809700694941595	0.00689146983711843	-0.0070069210502389	0.48095703125	-0.32958984375	0.391845703125	0	0	0	0.221334832097536	-0.232532662173756	0.505169398031519	0.801088841774253	0.381464880629718	0.70643598045889	0.596181809819154	-0.912306291416575	0.391629542785658	0.119680958632662	-0.148935474242677	-0.589554498524593	0.793878906245484	8.57304927925165	-36.5969265716479	61.6316161188863
9735	1655806090415	5.99002809709873	1.19445434137812	7.98989037313554	0.00493199643642559	-0.0110370997554656	0.244417577548496	-0.0108768110374247	-0.00235364518584631	-0.00223205311797777	0.4765625	-0.33251953125	0.3837890625	0	0	0	0.221297998361361	-0.232566717441139	0.505147060619813	0.801103217448958	0.381478338171634	0.706416772984439	0.596195958013857	-0.912282969205223	0.391707286136837	0.119604289577821	-0.149043824440699	-0.58952586443138	0.793879835719817	8.56762892765941	-36.5979362717129	61.6301197315723
9736	1655806090417	5.93876412286802	1.17928878185531	8.00201682312414	-0.00360580488781084	-0.058430092637204	0.221677963368149	-0.00320836275422704	0.00378464800294877	-0.00101246420349525	0.485107421875	-0.332763671875	0.391357421875	0	0	0	0.221205268168488	-0.232534681733834	0.505200840649756	0.801104214027259	0.381399464795449	0.706561251486453	0.596075201758673	-0.912312838012079	0.391680679882575	0.119463511605298	-0.149062852019174	-0.589370378373923	0.793991702250904	8.55650610045462	-36.5893188056136	61.6399708591434
9737	1655806090417	5.9758471228724	1.14171781316252	8.01623250330241	0.0425486964783726	-0.0549056120718959	0.250583821971826	-0.00915910825584655	0.000304030370265131	-0.00717532965655909	0.485595703125	-0.33056640625	0.39208984375	0	0	0	0.221173714200491	-0.232547838762796	0.505164415702728	0.801132076465069	0.381460831588948	0.70653989615945	0.596061246096792	-0.912273773073309	0.391782202508962	0.119428927650783	-0.149144885685219	-0.589328500016943	0.794007381667024	8.55389927406611	-36.5883229569705	61.6353935870996
9738	1655806090419	5.99131741127213	1.12384192682132	8.011559425265	0.0654630159764915	-0.0465580055785249	0.253967311724056	0.00456047634799604	0.00376288795645805	-0.00518464043297943	0.485595703125	-0.327392578125	0.399169921875	0	0	0	0.221132150446424	-0.232479460604338	0.505207360222771	0.80113631525028	0.381437647147711	0.706662559896258	0.595930656854709	-0.912297292128507	0.391732190431359	0.119413323188175	-0.149060296905019	-0.589214661579901	0.794107744872112	8.55173319936942	-36.5790049874886	61.6410070486407
9739	1655806090419	5.95198426970311	1.21156932175891	8.05098311449344	-0.0351369103063319	-0.0631215670004236	0.272307786456137	-0.00667852724594306	-0.00200838880317018	-0.00762176735578423	0.4873046875	-0.32861328125	0.387939453125	0	0	0	0.221116643168408	-0.232494575520078	0.505169910824311	0.801159824046008	0.381499267102993	0.706626833550959	0.595933576252945	-0.912260513926413	0.391821582623384	0.119401013903665	-0.149127676608322	-0.589198069834119	0.794107404935347	8.55086831341758	-36.5792132838099	61.6359273678347
9740	1655806090421	5.96161730515753	1.1103495826606	7.96788653969598	0.0740233697678523	-0.0456790974021823	0.199974968247794	0.00224704447064773	0.00122600269436843	-0.00510533637601557	0.485107421875	-0.326904296875	0.378662109375	0	0	0	0.221093720867059	-0.232414635770697	0.505184721968545	0.801180004969106	0.381543667538276	0.70671696290114	0.595798257893753	-0.912258629327162	0.391811926565446	0.119447090459336	-0.149025578272888	-0.589096383072297	0.794202007345467	8.55311540188108	-36.5695590365444	61.6361947485226
9741	1655806090421	5.96756463500317	1.19436991727518	8.04612702605629	-0.0113958202897582	-0.0547957834142681	0.275690842259181	0.00271053176440759	-0.00151746793192014	-0.0102940627110212	0.474853515625	-0.3310546875	0.388916015625	0	0	0	0.22111788800893	-0.23240013222195	0.505148180630659	0.801200582720224	0.381630988297511	0.706674380542861	0.595792840386176	-0.912225686182516	0.391864390416011	0.119526553504755	-0.149003645055757	-0.589112569385725	0.794194116291381	8.55880496398898	-36.5691725512363	61.6292699763753
9742	1655806090422	5.97340831222524	1.12883897835375	7.94055193222153	0.0657876391726595	-0.0133362179852378	0.187499807085697	-0.00843090769726735	-0.00116993204384756	-0.00571734837081056	0.482666015625	-0.335205078125	0.38525390625	0	0	0	0.221035958979894	-0.232426615391671	0.505135078597869	0.80122376753647	0.381632841654993	0.706703181926934	0.595757489944258	-0.91220174122913	0.391963314415525	0.119384854361599	-0.1491454238952	-0.589012200898032	0.794241946590822	8.54830126244599	-36.5666506961169	61.6301299461102
9743	1655806090424	5.98709350910191	1.16132031513306	7.98914155043219	0.0345627201747785	-0.0195356987917048	0.238121557090434	0.00806471441197888	0.00208542449739862	-0.00899443207357592	0.48291015625	-0.322509765625	0.392578125	0	0	0	0.221070582120944	-0.232385655781511	0.505114293271587	0.801239199890051	0.381712915439484	0.706687479987558	0.595724815510924	-0.912182008788263	0.391974696906904	0.119498200102562	-0.149061172106287	-0.589023465248692	0.794249409415408	8.55621787059525	-36.5643198172321	61.6245716512045
9744	1655806090427	5.99283837959855	1.16061271829075	8.0128422684196	0.0341946631198443	-0.0285047688832511	0.260286039422155	-0.00700950494841653	-0.000617864665909809	-0.00583851248317158	0.483642578125	-0.330078125	0.38623046875	0	0	0	0.221000710640975	-0.232369173804567	0.50511678479064	0.801261684273205	0.381723201576298	0.706753946388297	0.595639367942472	-0.912168956555759	0.3920314392379	0.119411663354286	-0.149114694360808	-0.588905943180766	0.794326505923134	8.54929574257478	-36.5582246213487	61.6261792580057
9745	1655806090427	5.97498343957774	1.14445845390341	8.01648549714132	0.0418359505704333	-0.0494843016077502	0.250614928853681	0.00346944526499102	0.00181940854093454	-0.00684788297838867	0.4853515625	-0.329345703125	0.39306640625	0	0	0	0.221014940491686	-0.232342766568358	0.505099294180156	0.80127644288443	0.381783083684138	0.706745886034665	0.595610551942883	-0.912150776941783	0.392054198196328	0.119475795879899	-0.149072590160404	-0.588900465486069	0.794338469805636	8.55369248910782	-36.5561692100449	61.6221479008991
9746	1655806090428	5.95329265000362	1.16402764604631	7.99766303804216	0.0185844478734131	-0.0448798704151562	0.225086705223807	-0.00505828287565413	-0.00149750883273964	-0.00612227250561608	0.487548828125	-0.33056640625	0.388427734375	0	0	0	0.220956058060597	-0.232327870513457	0.505106159472927	0.801292673529164	0.381783056490385	0.706807228987688	0.595537772796661	-0.912144230772752	0.392092376137665	0.11940046416453	-0.1491127091996	-0.588801417818833	0.79440436197801	8.54768035672404	-36.5509782026806	61.6242290555695
9747	1655806090429	5.97470816430295	1.14503372972591	8.01660851554789	0.0415749850144062	-0.0481495885623016	0.25062248504879	0.000789537779626471	0.00417112913430583	-0.00802314750659829	0.489013671875	-0.329833984375	0.39306640625	0	0	0	0.220954839612852	-0.232297097501471	0.505083722930068	0.80131607382802	0.381856982646989	0.706809075783586	0.595488182245198	-0.912117747467461	0.392138783365522	0.119450363479958	-0.149085410280896	-0.588768294807525	0.794434034688102	8.55088509376993	-36.5474413326283	61.6196527332993
9748	1655806090430	5.943052502749	1.18148473714318	8.02636742962885	-0.00498305620358162	-0.0609135826567297	0.243883527447169	-0.00383548126181595	-0.000904635271589936	-0.00786481884296657	0.487060546875	-0.33447265625	0.392578125	0	0	0	0.220912511606005	-0.232279726679555	0.505078059407041	0.801336349291117	0.381884564958578	0.706847820832686	0.59542450170486	-0.912101812096434	0.392187632243089	0.119411663944361	-0.149112251062074	-0.588689238307991	0.794487581579195	8.54758809209792	-36.5428997814604	61.619235476434
9749	1655806090430	5.98049647902594	1.16427965962709	7.96575195421103	0.0341169736121648	-0.00552709580630375	0.215966333290691	-0.00290822986110631	-0.00241718764814317	-0.00478487540036315	0.482666015625	-0.32958984375	0.38818359375	0	0	0	0.220909429306333	-0.232287975990796	0.505057053075385	0.801348047600079	0.381919338697815	0.706823758395518	0.59543076280644	-0.912082175238918	0.392232794364717	0.11941331850464	-0.149143301358354	-0.588688040979669	0.7944826405073	8.54775715234702	-36.5433462971451	61.6162379354575
9750	1655806090431	5.97448260406492	1.14575702222496	8.01667327659854	0.0407720094027471	-0.0456066534980945	0.25063761617559	-0.000102043428327198	0.00218635635991286	-0.00806507891106125	0.481201171875	-0.337646484375	0.396728515625	0	0	0	0.220850330783277	-0.232247297263312	0.505090998433157	0.801354732692458	0.381888552431367	0.70693033922129	0.595323969793211	-0.912097908917788	0.392216429389427	0.119346877063491	-0.149125913474737	-0.588570954096005	0.794572648613608	8.54211791617434	-36.5357306173731	61.6217822894182
9751	1655806090432	5.95270663427359	1.16516772677379	7.99793321452334	0.0177815282716922	-0.042135122410777	0.225100056441072	-0.0037697770087218	0.000406328586712533	-0.00283834482157514	0.484130859375	-0.326171875	0.385009765625	0	0	0	0.220834023694641	-0.232248261188792	0.505080384768639	0.801365636944573	0.381909100193493	0.706931492467851	0.595309418829044	-0.91208476452547	0.392252277801596	0.119329513868014	-0.149153684198259	-0.588545678360343	0.794586158307234	8.54075042256639	-36.5346930093905	61.6205322307881
9752	1655806090433	5.96049051545293	1.19842770967016	8.02291718734384	-0.0137915039268253	-0.0363735458903902	0.253561349018554	-0.00274584170044693	0.00103997726890601	-0.00620206383814105	0.489501953125	-0.3330078125	0.394775390625	0	0	0	0.220756279741776	-0.23220679934754	0.505130836009902	0.80136727273035	0.381845681697417	0.707068422541098	0.595187467285962	-0.91211285915993	0.392219006933015	0.119224086306318	-0.149144250724365	-0.588403345032744	0.794693334582684	8.5321819063911	-36.5259973703301	61.6291510431332
9753	1655806090433	5.97400931824661	1.16579479190119	7.94249142605074	0.0331436664624098	0.0081930735684396	0.193803992320044	-0.00678161616757976	0.00414885806683143	-0.00222958782203404	0.49169921875	-0.32568359375	0.385986328125	0	0	0	0.220717223374962	-0.232200536553163	0.50512398306691	0.80138416496752	0.381865345110086	0.707095407361905	0.595142792186593	-0.912098038138668	0.392267338072534	0.119178455708573	-0.149184540176074	-0.588338695284602	0.79473363626014	8.52853827170654	-36.5228120993903	61.6288316967134
9754	1655806090435	5.98966916965009	1.2117961278746	8.06699812333287	-0.0218146230070141	-0.0351497754141214	0.307556405862929	-0.00710586053637614	-0.00276586820846229	0.000603889100983637	0.484130859375	-0.331298828125	0.390380859375	0	0	0	0.220677370707813	-0.232217185867603	0.505121723950685	0.801391739811627	0.381854445161639	0.707110598326114	0.595131737050867	-0.912090910367835	0.39230708410115	0.119102153584339	-0.149256001335527	-0.58829393461002	0.794753353290435	8.5229498859735	-36.5220239042037	61.630030131621
9755	1655806090435	5.96197012287853	0.957522615833473	7.93524713797968	0.218198423043441	-0.0763974715247934	0.15609576860939	-0.0240709681140302	0.0010488296243411	-0.005440362561856	0.48779296875	-0.332763671875	0.384033203125	0	0	0	0.220580952060173	-0.232263340024381	0.505078198895593	0.801432341167569	0.381899507762205	0.707106269484681	0.595107964680732	-0.912037744169696	0.392480113177222	0.118939118755134	-0.149465444771822	-0.58818371655109	0.794795568937893	8.5110086481148	-36.520329038803	61.6270566110613
9756	1655806090437	5.94598227542224	1.25004054325516	8.02970458020744	-0.0688940893479846	-0.0274708387810424	0.256471499940172	0.0367226402598517	0.00961635981025576	-0.006748773641332	0.481689453125	-0.324951171875	0.383056640625	0	0	0	0.220655031939529	-0.232141928651154	0.505146366914455	0.801404161353692	0.381874545910498	0.707206231713839	0.595005190742705	-0.912099370437935	0.392277009745784	0.11913641790665	-0.149152839840121	-0.588199025373231	0.794842963683776	8.52441878871169	-36.5130021363357	61.6320087215332
9757	1655806090437	5.95581135924166	1.12900043805502	8.02100933751779	0.0468065594489645	-0.0630547589968814	0.241006201740447	-0.0381410656516491	-0.0141430942069241	-0.00659029884471334	0.47998046875	-0.333251953125	0.38623046875	0	0	0	0.22054162500026	-0.232283489358956	0.505065344712557	0.80144542533092	0.381906756283228	0.707108263618216	0.595100943561725	-0.912020976434035	0.392540778425262	0.118867471654778	-0.14954921614483	-0.588140834151244	0.794811544426945	8.50578830080297	-36.51982847101	61.6266694720896
9758	1655806090439	5.97779191881188	1.12974923607522	7.96504707535753	0.0618571628717235	-0.0136925345305115	0.209702078368258	0.027105750060214	0.0043543611761817	-0.00768874223644911	0.485595703125	-0.328857421875	0.38427734375	0	0	0	0.220588785690708	-0.232198454206148	0.505094464730841	0.801438735768393	0.381926919125082	0.707163788409809	0.595022020440849	-0.912045288620184	0.392440338651529	0.119012487180125	-0.149349321904553	-0.588141102934458	0.794848930983549	8.51561841278517	-36.5142019023247	61.6272858041186
9759	1655806090440	5.95019349786332	1.21589844147514	8.05165414121341	-0.039114279861357	-0.0506704295374331	0.272363389471305	-0.00898930902722076	-0.00455035782686682	-0.00754577102211856	0.4912109375	-0.32861328125	0.383544921875	0	0	0	0.220568708238715	-0.232226979104792	0.50505436276692	0.801461269040412	0.381981441651925	0.707119011436498	0.59504023552915	-0.912007030633791	0.392539071192009	0.118980055733095	-0.149443481985841	-0.588129051529326	0.794840150243534	8.51342454683715	-36.5155004518285	61.6223488561403
9760	1655806090442	6.00351015414475	1.09607037247211	7.93144350112977	0.107598633866899	0.0101782109664071	0.1942911715234	-0.00115481034175746	-0.00325549480858254	-0.00669107574251969	0.47900390625	-0.333984375	0.37841796875	0	0	0	0.220559697323126	-0.232283614713727	0.504994888576063	0.801484812559979	0.382048969695148	0.707026659719505	0.595106618347297	-0.91195627473703	0.392667164857561	0.118946419073815	-0.149580539251048	-0.588154571595431	0.794795484504511	8.51152428152612	-36.5202330522633	61.6149836475657
9761	1655806090443	5.97015417863274	1.18252953642107	7.99441516282217	0.00680973951989053	-0.0165831833890823	0.234773483268567	-0.00241455301021545	-0.000351531386713084	-0.00798700229346433	0.491455078125	-0.3369140625	0.385009765625	0	0	0	0.220556119786117	-0.232278891382912	0.504964800061249	0.801506123084484	0.382114134634056	0.707003696399175	0.595092061273522	-0.911925820365719	0.392731097447989	0.118968833093415	-0.149599753553195	-0.588139488875897	0.794803029285635	8.51302504853945	-36.5191952165642	61.6101180629442
9762	1655806090445	5.97409369673169	1.14722065783653	8.01675378310281	0.0346902345219505	-0.0405292865774345	0.250682148483305	0.0020847632119882	-0.00222923497015175	-0.0036896905797529	0.482666015625	-0.340576171875	0.385009765625	0	0	0	0.220490417476553	-0.232373263435073	0.505003571238843	0.801472417041013	0.381948118953098	0.707020709979902	0.595178418701238	-0.911965021440655	0.39271073767406	0.118735319868358	-0.149784625702826	-0.588132631448903	0.794773284483099	8.49687307214141	-36.5253522085383	61.6211080763436
9763	1655806090445	5.96239098873729	1.14980924195314	7.96934118084142	0.0350478806626604	-0.0199682265463096	0.206341501622823	-0.00343823917520568	-0.000986010943744772	-0.00462318226776319	0.48291015625	-0.32568359375	0.380615234375	0	0	0	0.220479607628913	-0.232378726876135	0.504985383952874	0.801485266183475	0.381979778578791	0.707007148706553	0.595174210155924	-0.91194623079838	0.392757009227539	0.118726592788925	-0.149818292906861	-0.588118035245025	0.794777739830454	8.49621073191081	-36.52505214216	61.6186624744681
9764	1655806090447	5.95653130233139	1.13125603209038	8.02015683681471	0.0402607855506813	-0.0606657511715476	0.241049245153446	6.75447409224406E-05	-0.00266158066654234	-0.00843385009062313	0.478515625	-0.33056640625	0.379638671875	0	0	0	0.220416562859723	-0.232437029749138	0.504998393989855	0.801477503169098	0.381899298538131	0.70702376148153	0.595206121000609	-0.911955646196043	0.392786321769546	0.118557179461676	-0.149966079988914	-0.588078486370024	0.794779132037008	8.48424924417284	-36.5273273924247	61.6242741192863
9765	1655806090448	5.99011938938507	1.13008621711365	8.01157688801353	0.0557021778478483	-0.0325833505898901	0.254080985737124	-0.00135347514201896	-0.00321528450308394	-0.00831320886321527	0.48095703125	-0.330078125	0.380615234375	0	0	0	0.220423310011766	-0.232442871540919	0.504965793670849	0.801494493490528	0.381959717384363	0.706982951789141	0.595215826549639	-0.911926260323897	0.392846223251653	0.118584740201189	-0.149990899815052	-0.588087536644355	0.794767751746537	8.48631258926174	-36.5280194134839	61.6191008529837
9766	1655806090449	5.96861907826654	1.14978362549391	7.9925838806487	0.0308790742692034	-0.0285905779352172	0.22852980586466	0.00168723325989122	-0.00214825349657857	-0.00693332135171532	0.484130859375	-0.343017578125	0.391357421875	0	0	0	0.220368199181253	-0.23249961182542	0.504958860843682	0.801497558415552	0.381920958712961	0.706975546596403	0.595249492070754	-0.911917629669635	0.392908811290126	0.118443668924488	-0.150141992771797	-0.588054625460337	0.794763574581281	8.47640771463846	-36.5304198665882	61.6212813498341
9767	1655806090449	5.98444720459302	1.13230237134715	7.98760499811338	0.0539661608811894	-0.0215829708606857	0.231921760003249	0.00168721329297283	-0.00214828488982493	-0.00693342786556868	0.48046875	-0.32666015625	0.382080078125	0	0	0	0.220382217300755	-0.232495750113707	0.504936830706406	0.801508703304486	0.38196904635047	0.706946671014214	0.59525293109067	-0.911898386706459	0.392940950587546	0.118485196009943	-0.150136537699095	-0.588067864870439	0.794754808953335	8.47942856195366	-36.5306650832653	61.6172859388297
9768	1655806090450	5.95704499053251	1.1332935168422	8.01948763026352	0.0364057752757813	-0.0580191346726123	0.241079565364792	0.0022180182791452	-0.00358001191015637	-0.00709651357382727	0.485107421875	-0.330078125	0.387939453125	0	0	0	0.220309027258877	-0.232510758042372	0.505007423344101	0.801479994928234	0.381812499523828	0.707058256338022	0.595220830744022	-0.911955132064179	0.3928628697512	0.118307238462653	-0.150190053962219	-0.587985873737701	0.794805359805618	8.46634701078438	-36.5283762229095	61.6308883888358
9769	1655806090451	5.95329182806066	1.16944935693537	7.99687266607974	0.00566143622334064	-0.0334710856876693	0.225146838845559	0.000266221742845063	-0.00270222938991202	-0.00681276416276159	0.490234375	-0.3349609375	0.386474609375	0	0	0	0.220317681078848	-0.232513056772828	0.504984432965707	0.801491434948932	0.381856801784919	0.707027920631627	0.595228445538275	-0.911934870586602	0.392901683732685	0.118334520441914	-0.15020044853059	-0.587996416968113	0.79479559566839	8.46837359379153	-36.5289191766717	61.6270811233855
9770	1655806090452	5.96912427146626	1.1518239107507	7.99191280430883	0.0277324255805613	-0.0258820139422947	0.228546336332096	-0.0037032115805471	-0.00225762995811748	-0.0112732709013382	0.48828125	-0.332763671875	0.39013671875	0	0	0	0.220271524296713	-0.232540234275947	0.504973156890392	0.8015033411328	0.381854300526079	0.707031361131498	0.595225963434291	-0.911919328588609	0.392965132808308	0.118243572947749	-0.150301135445611	-0.587949877773173	0.79481099005378	8.46179786001049	-36.5287421960679	61.6273546218897
9771	1655806090453	5.95753442148302	1.13462122388033	8.01893629872591	0.0350773193241269	-0.0570310646427756	0.241089941559615	0.00152716917366286	-0.00560571323800842	-0.00551740261940307	0.4814453125	-0.323974609375	0.386474609375	0	0	0	0.220290854788141	-0.232552713765266	0.504953709241261	0.801506660072524	0.381881973687805	0.706989049773086	0.595258466275999	-0.911905994167695	0.392987381640405	0.118272463711744	-0.150311729327201	-0.587985885351313	0.794782349234241	8.46413599563252	-36.5310597670419	61.6241847372866
9772	1655806090454	5.99324041280594	1.16782844076918	8.01149305937539	0.019862543311693	-0.0139003899166164	0.260355236992947	-0.00277454104439899	-0.00377006194912077	-0.00819305317488503	0.48779296875	-0.335205078125	0.388916015625	0	0	0	0.220265410635271	-0.23253386388903	0.504929271441357	0.801534516951213	0.381948865973077	0.706998145326304	0.595204743165784	-0.911874813390799	0.393059159438752	0.118274350071342	-0.150330929902588	-0.587926967987069	0.794822302045026	8.46384973188276	-36.5272291511154	61.6202965100554
9773	1655806090454	5.9305174664969	1.13575589450409	8.05052103341925	0.0193952770060472	-0.0940926014518763	0.250246512360771	0.000797149340748961	-0.00413377899559924	-0.00697643749326501	0.482421875	-0.33251953125	0.385498046875	0	0	0	0.220279883712507	-0.232540227545467	0.504904821909932	0.801544094992163	0.381992326770404	0.706959088505562	0.595223243386814	-0.911854825634343	0.393095787287407	0.118306715719163	-0.150341741561998	-0.58794944442212	0.794803630809414	8.46632829466081	-36.5285482499265	61.6162464095227
9774	1655806090455	5.98007110152813	1.1366745177241	7.96235044513663	0.0495362915696539	-0.00620551057040392	0.209777980218032	0.00185936609966622	-0.0069970087550074	-0.00730282439225044	0.48876953125	-0.333251953125	0.3955078125	0	0	0	0.220235556976184	-0.23257012065146	0.504947631283686	0.801520634846384	0.381878057282321	0.70701147186597	0.595234347140851	-0.91189231209674	0.39304837820877	0.118175223825964	-0.150404655862582	-0.587918149947227	0.794814876847111	8.45693662489326	-36.5293399782294	61.6251902546822
9775	1655806090456	5.92131881311401	1.17403763701933	8.00376179842303	-0.0126405624707423	-0.0580131655274813	0.212134748121459	0.00985273127389831	-0.00224032183060016	-0.00786621160992016	0.48388671875	-0.33544921875	0.391357421875	0	0	0	0.220281983440966	-0.232545289137469	0.504932717510956	0.801524476892806	0.381931278573946	0.706980789475955	0.595236643494693	-0.911882939600173	0.393037597116631	0.118283353515754	-0.150326321424492	-0.587962252669966	0.794797072542571	8.46474949371772	-36.5295037156063	61.620811621953
9776	1655806090458	6.04376975379774	1.15013689194062	7.99694875985826	0.0563151381519019	0.024814852704965	0.276780900901013	-0.0176725685734417	-0.0113394786279038	-0.00540255728193214	0.47802734375	-0.335205078125	0.39013671875	0	0	0	0.220170048206701	-0.23256919730174	0.5049927444963	0.801510478000867	0.381787792945038	0.707104409293763	0.595181850794761	-0.911923494819034	0.393014955757507	0.11804568669784	-0.150444743195621	-0.587828715620669	0.794873436678167	8.44718705101762	-36.5255969153011	61.6340019751473
9777	1655806090459	5.97744012776259	1.06926716611722	7.9586910308478	0.110544896677762	-0.032038999330372	0.197339542945951	0.016730419951419	-0.00423638788023286	-0.0120851603977274	0.486328125	-0.329345703125	0.38916015625	0	0	0	0.2202534634215	-0.232529688894246	0.504967463121544	0.801514951090852	0.381875609942674	0.707047004358108	0.595193709777863	-0.911908881667235	0.392992546078852	0.118233033721009	-0.150310379107109	-0.587912742126487	0.794836711267157	8.46078472519943	-36.526442461553	61.6265477925276
9778	1655806090460	5.95395001643528	1.22428191768714	8.04760579787288	-0.0528742939740277	-0.0387321827666374	0.272353550466608	-0.00115518605025535	-0.0032570812134797	-0.00669268659197481	0.4873046875	-0.334716796875	0.391845703125	0	0	0	0.220182788315177	-0.232496957074635	0.505028148131954	0.801505629596698	0.38178346909089	0.707182151098138	0.595092251585532	-0.911949464232087	0.392932218648327	0.118120473394391	-0.150298228252155	-0.58779050410526	0.794929409361579	8.45187484053749	-36.5192087846269	61.6369064830793
9779	1655806090460	5.96222224936649	1.08855747207203	7.96295875894096	0.0865765882317682	-0.0366918231126018	0.193956525623328	-0.00630649745575306	-0.0069063303936848	-0.00637119186090117	0.481201171875	-0.326171875	0.383056640625	0	0	0	0.220173371564066	-0.232532092966244	0.504996813502722	0.801517766831745	0.38181408818567	0.707133086621244	0.595130909858039	-0.911922586242151	0.393003809612417	0.118089806213549	-0.150383505626022	-0.587801670153836	0.7949050243897	8.44996765987486	-36.521964928371	61.6333237096393
9780	1655806090461	5.98598249193917	1.1889422487589	8.03743059481839	-0.00723442210471175	-0.0236374586463883	0.279153372824059	0.0107411639697894	-0.000252725143842873	-0.00782625066507684	0.482421875	-0.339111328125	0.382080078125	0	0	0	0.220173778385979	-0.232486937249691	0.505017900564487	0.801517467949974	0.381813488235391	0.707186283060422	0.59506808119131	-0.911936392659016	0.392960854841359	0.118126128804803	-0.150301283911959	-0.587766388638831	0.794946662639	8.45209286117149	-36.5174856048704	61.6351632056195
9781	1655806090461	5.97645549333987	1.12169177438302	8.0110202732303	0.0545843506868176	-0.0416059542044675	0.244546251566829	-0.0107675277391533	-0.00853053000779422	-0.00762918184904451	0.484619140625	-0.3330078125	0.385498046875	0	0	0	0.220151828949254	-0.232538306537192	0.504974812872422	0.801535742539019	0.381852748714555	0.707123256228547	0.595117785652451	-0.911898190168247	0.393067221149522	0.118067143717749	-0.150433271143767	-0.587771095034903	0.794918216406227	8.44823125920889	-36.521029226377	61.6305653657879
9782	1655806090462	5.97685632393122	1.12214439783603	8.01065784141884	0.0517343302861106	-0.0404026595003048	0.244566221797058	0.0103831965429958	-0.00366949783315718	-0.00803237305454605	0.48486328125	-0.33544921875	0.3935546875	0	0	0	0.22010840351869	-0.232586821595373	0.505053972314056	0.80148371547425	0.381647710939909	0.70719644052891	0.595162346958851	-0.911973696452285	0.392945551500492	0.117888805809243	-0.150495852811572	-0.587764398427818	0.794911322241232	8.43572624086619	-36.5242063106549	61.6459078575535
9783	1655806090463	5.96330941289586	1.17538110865558	8.0164285509953	-0.00245094809005961	-0.0329315246643902	0.24736314016007	-0.00204448164176485	-0.00524366929985759	-0.00673507023358471	0.482666015625	-0.33056640625	0.3916015625	0	0	0	0.220111071989717	-0.232604882574771	0.505028873272693	0.801493556899137	0.381681611526584	0.707156955845037	0.595187522737541	-0.911952596059338	0.392993906296905	0.117890848474913	-0.150537736010296	-0.587779575532767	0.79489216917983	8.43607064272615	-36.5260013240301	61.6424437056638
9784	1655806090464	5.98141161972387	1.10766617654683	7.9578698924709	0.0749695744629589	-0.0105050940765863	0.203607946743707	0.0013281729710087	-0.00556580499624284	-0.00714135304254392	0.489990234375	-0.3291015625	0.38916015625	0	0	0	0.220059932225008	-0.232542128037213	0.505106318061191	0.801477006764209	0.381583532285181	0.707315789924092	0.595061661689629	-0.912008609665405	0.392882467367583	0.117828955402886	-0.150447013213752	-0.58766294775085	0.794995569834098	8.43062445883737	-36.5170279458285	61.6539752655701
9785	1655806090464	5.97977987720779	1.158289384092	8.01092069025245	0.020344311508916	-0.0233924895442239	0.250775801364233	0.001328142845576	-0.00556585255400066	-0.00714151397940789	0.482666015625	-0.336181640625	0.38232421875	0	0	0	0.220076868661417	-0.232551675738023	0.505083976751938	0.801483665722559	0.38161978907977	0.707274625172964	0.595087339110113	-0.911991603566521	0.392912696617266	0.117859780506814	-0.150458139051624	-0.587692281235164	0.794971779983246	8.43304700245431	-36.5188585564421	61.6503069102378
9786	1655806090465	5.97404585614232	1.15996882237085	7.9870558784903	0.0190937912312709	-0.0125966956415899	0.228591934035432	-0.000466559672588234	-0.00123165779856096	-0.00827347460404723	0.48095703125	-0.3388671875	0.39013671875	0	0	0	0.220033199669026	-0.232585750921811	0.505097038481154	0.801477536322208	0.381561700371411	0.707294686065538	0.595100744305642	-0.912001033956535	0.392924745521957	0.117746585592604	-0.150548274224212	-0.587660081526691	0.794978519023095	8.4249936398876	-36.5198142651767	61.6546307580291
9787	1655806090465	5.96247395579734	1.14279594702855	8.01410274564528	0.026417038433159	-0.0436379502240333	0.241183479602075	0.00152794022787956	-0.00560580577138176	-0.00551977621601254	0.488037109375	-0.33642578125	0.38525390625	0	0	0	0.220048843411805	-0.23259719979097	0.505081515816909	0.801479701266738	0.381582410058986	0.70725967523492	0.595129075176278	-0.91199065441423	0.392942337786441	0.117768270073186	-0.150558661639509	-0.587690455053953	0.794954098325053	8.42677807417725	-36.5218341224109	61.6521461382076
9788	1655806090465	5.96281574703906	1.14320115991163	8.01379064658337	0.0239118190642209	-0.0417450737640604	0.241197787729991	-0.000624018041901793	-0.00468940110639344	-0.00685698534874203	0.4873046875	-0.331787109375	0.385498046875	0	0	0	0.219954994235049	-0.232636562425581	0.505195904430735	0.801421941601476	0.381314655938441	0.707411017741627	0.595120815586469	-0.912089312730348	0.392793797314943	0.117499439973092	-0.150639366599939	-0.587607594206085	0.795000060667737	8.40733835819586	-36.5212452472323	61.6740700047982
9789	1655806090466	6.00240721457914	1.14083295277109	8.0287750047134	0.038948149685239	-0.0236747621763733	0.276393012538334	-0.00135560720641731	-0.00321814526124116	-0.00831572165750216	0.4912109375	-0.3271484375	0.391357421875	0	0	0	0.219955232862709	-0.232643090992542	0.50516933386285	0.801436729801119	0.381362272676001	0.707380387347374	0.59512671304158	-0.912064648360034	0.392847279321752	0.117512094447273	-0.150668159181969	-0.587608715665261	0.794993775499494	8.4082963943985	-36.5216657113513	61.6700454174959
9790	1655806090467	5.96330939526982	1.14403400896313	8.0133044566818	0.0238257339519436	-0.0413336188884212	0.241199692099372	0.00132828876077549	-0.00556583850114761	-0.00714235158099664	0.479248046875	-0.330810546875	0.386474609375	0	0	0	0.21997735584252	-0.232647362725005	0.505131348854522	0.801453359802081	0.381435050043022	0.707324129969663	0.595146937958464	-0.912032736753592	0.392904566641889	0.117568229559274	-0.15067710406173	-0.58763813412219	0.794970335067267	8.41250004031957	-36.5231076814982	61.6635746363496
9791	1655806090467	5.97936967219718	1.1265782812532	8.0081594763084	0.0468119122229533	-0.0341757228612519	0.244613425461043	0.000596514007617176	-0.00409465136485539	-0.0086010973135994	0.482421875	-0.3310546875	0.381103515625	0	0	0	0.219988333840672	-0.232652056005919	0.505104613392748	0.80146583416861	0.381484700731163	0.707286704299767	0.595159592906667	-0.912009656961162	0.392948925006735	0.117599013370158	-0.150691103644638	-0.587653520585749	0.794956307620448	8.4148175737098	-36.5240099514105	61.6591922669945
9792	1655806090468	5.96386947429255	1.14522802677843	8.01271706411169	0.0222495452878237	-0.0399340600627095	0.241208960263183	0.00254880295247773	-0.00497094009854808	-0.00888646584560833	0.48828125	-0.323486328125	0.382568359375	0	0	0	0.219944035213089	-0.232678115027384	0.505112140991707	0.801465683098323	0.381445239620156	0.707307767192553	0.595159853854582	-0.912012421292145	0.392972692793916	0.117498111164126	-0.150774243755228	-0.587612274537713	0.794971032322974	8.40754724043338	-36.5240285565324	61.6623814479241
9793	1655806090469	5.9583429329578	1.14704728880557	7.98867412726326	0.0222927442897049	-0.0295182025138033	0.219018073773915	0.000240105433633511	-0.0075126510451826	-0.00880688188965688	0.489990234375	-0.329833984375	0.38134765625	0	0	0	0.219961917186361	-0.232697378349775	0.505080854177914	0.801474900318002	0.381490521704101	0.707250131577436	0.595199322272491	-0.911988377441663	0.393020171461218	0.11752593005766	-0.150805110196095	-0.587649892545123	0.794937370193684	8.40986036591598	-36.5268426360002	61.6575890754986
9794	1655806090470	5.98628156017171	1.12736380610578	8.03080153754646	0.044568448246275	-0.0442616350256841	0.26681381156892	0.00343684624512105	-0.00298443709476998	-0.00884512125164925	0.48486328125	-0.328857421875	0.386962890625	0	0	0	0.220013980699639	-0.232761862733143	0.504958866258468	0.801518750211533	0.381676917287919	0.707046270833477	0.59532201513976	-0.911889726733405	0.393220783367322	0.117620329051004	-0.15092997411935	-0.587760994306753	0.794831527107392	8.41762332501695	-36.5355912330835	61.6389894034376
9795	1655806090470	5.95892158749666	1.14834639472339	7.98805585547156	0.0216862503668555	-0.0306086082994195	0.219016135437833	0.00152843147513516	-0.00560586477149249	-0.00552096350508027	0.48193359375	-0.33251953125	0.3857421875	0	0	0	0.220029045208216	-0.232774537267325	0.504943446052667	0.801520648737886	0.381696262176881	0.707010878544727	0.595351644878564	-0.911879515279582	0.393238671106437	0.117639692110778	-0.150942747602105	-0.58779160011509	0.794806468129488	8.41925083688127	-36.5377041256741	61.6365765869543
9796	1655806090471	5.98693468295361	1.1286549639983	8.03013328090803	0.0436064137286385	-0.0428092251380399	0.266824292728925	0.00288059348560483	-0.00636265958737789	-0.0106731839601827	0.4833984375	-0.33984375	0.398681640625	0	0	0	0.220007410039676	-0.23277453705086	0.50494386612944	0.801526323015436	0.381695413918024	0.707027354656369	0.595332621953111	-0.911875846735347	0.393256863171776	0.117607311460599	-0.150967053142874	-0.587759610160406	0.794825508856783	8.41676786948697	-36.5363475968475	61.6371879675921
9797	1655806090472	5.96555501988301	1.14850187619594	8.01099355905251	0.0204894713330666	-0.0393299823660108	0.241215082538011	0.000796137741666588	-0.00413500082161313	-0.00697983142450363	0.489013671875	-0.33154296875	0.388671875	0	0	0	0.220017206669255	-0.232781456756599	0.504923705587823	0.801534324714291	0.381729689851473	0.706995511021173	0.595348462063864	-0.911859214541121	0.393288960609839	0.117628934870984	-0.150980848925775	-0.587776437821679	0.794810444319467	8.41845048301433	-36.5374771568287	61.6339583969562
9798	1655806090474	5.94816220864637	1.13265032684554	8.01431543233473	0.0275339546433276	-0.0577841247422883	0.231648608569168	0.00254840975748318	-0.00497117209207584	-0.00888779213775261	0.486083984375	-0.331298828125	0.38818359375	0	0	0	0.219960026388126	-0.232715379140826	0.505036140675055	0.801498369127924	0.381564097846775	0.707195124329957	0.595217519364402	-0.911947448076913	0.393112166806762	0.117535850932806	-0.150866468045033	-0.587654558760866	0.794922278205353	8.41071751959797	-36.528140114499	61.6511098310949
9799	1655806090475	5.96015827440285	1.15093103620347	7.9867611313026	0.0198523829578954	-0.0262812494722119	0.219032202445595	0.000595871222459956	-0.00409550680574932	-0.00860236913686981	0.47900390625	-0.328857421875	0.39013671875	0	0	0	0.219970130622279	-0.232720197509659	0.505010185348424	0.801510551396195	0.381612044730832	0.707158999749335	0.595229700527345	-0.911924968727904	0.393155708656737	0.117564621214162	-0.150881074780649	-0.587668901528862	0.794908902610165	8.4128863573539	-36.5290086608784	61.6468780012248
9800	1655806090476	5.97024862917341	1.13459295335902	7.95800245902205	0.0432457191455646	-0.00735324773904891	0.200256696382519	0.000996362032087952	-0.00417478517445271	-0.00535794536604427	0.4755859375	-0.33203125	0.381591796875	0	0	0	0.219928106958919	-0.232671755434916	0.505043546796518	0.801515126389698	0.381589740124055	0.707257967054606	0.595126405287013	-0.911942201917045	0.393125287217318	0.117532671683206	-0.150833320571906	-0.587570146100095	0.794990963984601	8.40977701134124	-36.521643769669	61.65162837676
9801	1655806090476	5.96067989120717	1.15180959293943	7.98624518531725	0.019669067433758	-0.0241864093247391	0.219037832913072	0.000996345076907638	-0.00417481205380981	-0.00535803610304001	0.487060546875	-0.330322265625	0.39013671875	0	0	0	0.219935957347631	-0.232678789800957	0.505031480068353	0.801518533523905	0.381607569833462	0.707235317796864	0.59514188888581	-0.911933047354311	0.3931427576111	0.117545264817518	-0.150843560647712	-0.587585719192281	0.794977510884686	8.4108054902157	-36.5227476966839	61.6497428484801
9802	1655806090477	5.94927326285211	1.13465906683918	8.01320651837749	0.0260756828944848	-0.0538708550954491	0.231674250523371	-0.000492359653640972	-0.00604294995139224	-0.0102668069187438	0.49267578125	-0.329833984375	0.37939453125	0	0	0	0.219881112523452	-0.232687454311001	0.505049097207323	0.801519965048771	0.381563916032667	0.707286716834748	0.595108795239105	-0.91194102213136	0.393155411531034	0.117441025786881	-0.15090576574746	-0.587515380711848	0.79501768992343	8.40303471344452	-36.5203882533349	61.6542219760005
9803	1655806090478	5.96130438266472	1.15300878030783	7.98560599594166	0.0183873102370956	-0.0223499100372554	0.219044523831434	0.00396823743729388	-0.00441544200233629	-0.00901096705436566	0.48291015625	-0.321533203125	0.384033203125	0	0	0	0.219905200786559	-0.232683843619136	0.505026125842092	0.801528878957319	0.381613682271106	0.707249274279031	0.595121383866579	-0.911922823682449	0.393180629767901	0.11749789794863	-0.150889897443526	-0.587543578304709	0.794999863171298	8.40723165866299	-36.5212857631506	61.6498318298538
9804	1655806090479	5.96563669307504	1.1179911657392	8.0077334040078	0.0488144681340889	-0.047924952585771	0.235090501508356	-0.000624096013030083	-0.00469118535801896	-0.0068586379740025	0.481201171875	-0.337158203125	0.38427734375	0	0	0	0.219942430575582	-0.232761346365149	0.504892245184677	0.801580503519867	0.381811952781317	0.707035367709629	0.595248369608038	-0.911811752764012	0.393418295969761	0.1175643309753	-0.151059459269315	-0.587641926009333	0.794894965741577	8.41301127670153	-36.5303398304135	61.6301472226001
9805	1655806090479	5.95008667663559	1.136517521755	8.01233915433789	0.0254660865358951	-0.0546014046720843	0.231671869849716	0.00363598029024252	-0.00302374823693963	-0.00722524721712636	0.4853515625	-0.330322265625	0.38916015625	0	0	0	0.219960242410302	-0.232755510671837	0.504876740958566	0.801587076024651	0.381848697381898	0.707011423976243	0.595253239113263	-0.911799258175086	0.393433936395716	0.117608887774408	-0.151041997798985	-0.587660262446982	0.794884728021387	8.41626098648476	-36.5306870466179	61.6270306041491
9806	1655806090481	5.98380811195686	1.13575563874577	8.00354659830213	0.0392003379705209	-0.0248346094248253	0.244673377294447	0.00308074037553431	-0.006402468719524	-0.00905322344898485	0.481689453125	-0.331298828125	0.382080078125	0	0	0	0.219905859877466	-0.232769516149806	0.504942646262188	0.801556416684863	0.381702552674249	0.707105275134213	0.595235492187194	-0.911854797542952	0.393348673554583	0.117463395195066	-0.151076104926837	-0.587604417010474	0.794919530285875	8.40563541664781	-36.5294216236543	61.6393794408369
9807	1655806090481	5.95081550096233	1.13795569118242	8.01159372366691	0.0235728314779528	-0.0525937190041515	0.23168720467849	0.00186128184726595	-0.00699789607004346	-0.00730879169104475	0.4833984375	-0.330810546875	0.38671875	0	0	0	0.219925983372226	-0.232784106893081	0.504921015098905	0.801560284649409	0.381732656178965	0.70705871793252	0.595271491508012	-0.911839812420066	0.393374660698502	0.117492692564593	-0.151090488424294	-0.587643042769979	0.7948882428315	8.40802816521954	-36.5319885330074	61.6359135682832
9808	1655806090483	5.96110905521753	1.12178447389644	7.98265991721365	0.0456033362578026	-0.0343871556630951	0.212920785023474	0.00328119981566612	-0.00644197211791958	-0.0074313059566265	0.478271484375	-0.331787109375	0.385498046875	0	0	0	0.219891422573214	-0.232814047232506	0.504939163150884	0.801549638641572	0.381668121855413	0.707079983437171	0.595287612656145	-0.911855231601103	0.393368407590428	0.117393920249178	-0.151160449063442	-0.587621640966585	0.794890763379898	8.40103446445797	-36.5331380691441	61.6406832268166
9809	1655806090483	5.9577165681108	1.13795804196644	8.03436854630585	0.0217500906678836	-0.0613579059763853	0.253899707935782	-0.000978633550692154	-0.00811013978840054	-0.00706441964182503	0.4794921875	-0.333251953125	0.388671875	0	0	0	0.21990225491551	-0.23284072532028	0.504914329787165	0.801554561144142	0.381693432415808	0.707028366987695	0.595332690119864	-0.911837169124065	0.393409035717303	0.117398073322325	-0.151205491482458	-0.587656548411312	0.7948563898308	8.40168555777491	-36.5363524577905	61.6373465992074
9810	1655806090485	5.96808963312256	1.12156647391296	8.00540532888059	0.0438955171043011	-0.0416162945390029	0.235141304701834	0.00206190279453972	-0.00703737184722051	-0.0056869892968137	0.486572265625	-0.32470703125	0.3818359375	0	0	0	0.219820066249072	-0.232819251863365	0.505010924192089	0.801522489318104	0.381518324816871	0.70719853944523	0.595242802254225	-0.911911912919886	0.393286209841813	0.117228922297595	-0.151196663004586	-0.58753398451051	0.794948668872074	8.38879251255484	-36.5299428565794	61.6540978271979
9811	1655806090486	5.98631599979281	1.13869951821236	8.00125257330893	0.0359322818212059	-0.0202289497601258	0.244695902315746	0.00434666416591786	-0.00930413965127302	-0.00776003644036863	0.490966796875	-0.329345703125	0.39453125	0	0	0	0.219855190566133	-0.232836127101521	0.504989175282003	0.801521656566743	0.381546541528733	0.707139058451439	0.59529537933691	-0.91189998282978	0.393299256058263	0.117277945493022	-0.151197413875073	-0.587596840696433	0.794902066194987	8.39273562128631	-36.5336918869273	61.6503132268223
9812	1655806090487	5.94749652592747	1.1422508177612	7.98554266662762	0.0216639555541816	-0.0381374237986678	0.209508985805385	0.005032656241414	-0.00727771645029556	-0.00934141499597149	0.485107421875	-0.33544921875	0.390380859375	0	0	0	0.219918978905197	-0.232815290066482	0.504906205418618	0.801562478636773	0.381733528882064	0.707026737258995	0.595308916217577	-0.911828740718747	0.393410732894135	0.117457834319232	-0.151155087663336	-0.58765737300284	0.794865366857111	8.40580773157927	-36.5346571691503	61.634775415282
9813	1655806090488	5.90653721431203	1.19585185685019	8.0233084827253	-0.0482459559813054	-0.0688284664562204	0.221437285299649	0.00328077798050772	-0.00644219627179066	-0.00743258439504946	0.476806640625	-0.330078125	0.387451171875	0	0	0	0.219942806280109	-0.232823397932793	0.504887222911801	0.801565542847912	0.381764315030874	0.706984738802527	0.595339052027775	-0.911816064838563	0.393428108212079	0.117498032200463	-0.151153801379004	-0.587696267445172	0.794836854681317	8.40894066979108	-36.5368061241656	61.6314207835376
9814	1655806090489	6.00375108793339	1.12246167194627	7.99491343143437	0.0588664183805384	-0.0103818183769058	0.2481284575318	-0.012870140927505	-0.0111304578028166	-0.00591950432566943	0.48046875	-0.331298828125	0.380859375	0	0	0	0.219823736687582	-0.232840131357372	0.504965758846653	0.801543873041654	0.381590111243812	0.707136844747118	0.595270081393334	-0.911871995650337	0.393374214362266	0.117244151340446	-0.151256241357528	-0.587549325823765	0.794925996036381	8.39010266753406	-36.5318879840474	61.6475041190854
9815	1655806090491	5.96897937299427	1.1742529483157	8.0562550198873	-0.0112861350792209	-0.0512030749821346	0.282265853069493	0.0106290613979205	-0.00719617860802849	-0.00338502629827342	0.4833984375	-0.33154296875	0.3876953125	0	0	0	0.219873466890863	-0.232836666026447	0.504971618391687	0.801527547954506	0.381581503145139	0.707108116195124	0.595309724822701	-0.911886536109304	0.393318646352546	0.11731746542598	-0.15119028315362	-0.587621097683179	0.794885491022163	8.39569604613025	-36.5347148292075	61.6470714541599
9816	1655806090493	5.95372988617822	1.12797892762117	7.931427589245	0.0424793600216564	-0.00641778840910583	0.168541714337335	-0.00678879824005203	-0.00898399748040573	-0.00316491382226791	0.478271484375	-0.32568359375	0.38623046875	0	0	0	0.219792477678934	-0.23290527008561	0.505006028525593	0.801508149100751	0.381448092638313	0.707151241663344	0.595343996389132	-0.911914547169734	0.393320355817126	0.117093793004192	-0.151357891379379	-0.58756805487865	0.794892803844209	8.3798406833229	-36.5371587074188	61.6569042076432
9817	1655806090494	6.01345670760735	1.1561641952683	8.01830674588556	0.0257755510816057	-0.0044569730119386	0.276462057697406	-0.00273080935150206	-0.00727564280112997	-0.0051560503903126	0.486083984375	-0.337646484375	0.3857421875	0	0	0	0.219790427280413	-0.23293409670902	0.504989564795788	0.80151070742293	0.381454492075426	0.707115717353635	0.595382089709569	-0.911902455929046	0.393355415046507	0.117070185462247	-0.151414600835105	-0.587587337955	0.794867749332493	8.37843552216158	-36.539875202518	61.6552998503397
9818	1655806090495	5.97268017810803	1.12478112306816	8.00152976843371	0.0403907085997723	-0.0349082857313616	0.235181548870313	0.00490097224777493	-0.00592450343169804	-0.00593463266134318	0.489501953125	-0.3310546875	0.3828125	0	0	0	0.219752920933926	-0.23293110015625	0.505043377932734	0.80148795544743	0.381348577972586	0.707197789511763	0.595352457446816	-0.911946948054518	0.393279680294603	0.116978019308865	-0.151413427450596	-0.587539257902866	0.794903512642014	8.37156160997292	-36.5377620706175	61.6647258360404
9819	1655806090496	5.95741987312355	1.14332465275997	8.00591902771531	0.0170128686669228	-0.0415400013847642	0.231752254224736	0.00299735497361683	-0.00854688921144659	-0.00260820107903468	0.4814453125	-0.3408203125	0.37939453125	0	0	0	0.219773585289584	-0.232953290864037	0.505042889766051	0.801476147481217	0.381328887544744	0.707165699328557	0.595403185427354	-0.911953619081344	0.393262501411437	0.116983766515091	-0.151422838991766	-0.587589379309031	0.794864670969154	8.37237038494509	-36.5413796126754	61.6648756141591
9820	1655806090497	6.03694069114399	1.13792708369758	8.03566063911216	0.043679346093135	-0.00526825360829945	0.30212539550066	-0.0130718516299986	-0.0110933093702023	-0.00754057485693174	0.47998046875	-0.33642578125	0.39404296875	0	0	0	0.219664698602842	-0.23314300360306	0.505080681204989	0.801427018219482	0.381075690688895	0.707144033361104	0.595590995606693	-0.911997183832414	0.393281851322454	0.116578394662692	-0.151797413178645	-0.587602502974735	0.794783520117332	8.3446075360001	-36.5547743107656	61.6800380199253
9821	1655806090498	5.96666299905479	1.09202784854523	7.97524115947714	0.0674624443134027	-0.0378353582446846	0.206897507945122	0.00598867195770621	-0.00397576606411628	-0.0042717876203479	0.485595703125	-0.328369140625	0.384765625	0	0	0	0.219686996711043	-0.233138757864534	0.505082306266885	0.801421117112338	0.381076366955013	0.707132145179762	0.595604677451274	-0.912002359308572	0.393258974744413	0.116615073633606	-0.151764617628637	-0.58763211964327	0.794767886114928	8.34735789272416	-36.555750196188	61.6795932917385
9822	1655806090499	5.98684900032535	1.12349911360899	8.0470095281741	0.0353871593605537	-0.0518041157060443	0.279638315848869	-0.000778108401891306	-0.00815057051786153	-0.00544384440828726	0.476806640625	-0.32958984375	0.392822265625	0	0	0	0.219630964732538	-0.233105946631766	0.505156242839285	0.80139941807819	0.380957575930812	0.707269270212682	0.595517845873438	-0.912058405987188	0.393158819302305	0.11651440628922	-0.151726034051612	-0.58753410302521	0.794847713951126	8.33942763800636	-36.5495569661649	61.6916912543514
9823	1655806090500	5.97355509300412	1.09172239042158	7.99808003598553	0.066545178973109	-0.0453419742947752	0.229126134358825	0.00152795233204213	-0.00560637072800118	-0.00552565531965301	0.485595703125	-0.333984375	0.387939453125	0	0	0	0.219640503273209	-0.233117564264399	0.505146502917999	0.801399563977321	0.380966423642299	0.707244256092592	0.595541892969111	-0.912052492640021	0.393170119823215	0.116522562395972	-0.151739364458668	-0.587556651823664	0.79482850110665	8.34020195579289	-36.5512720666376	61.6902896296092
9824	1655806090501	5.99343619679634	1.14305818489933	7.9952985584985	0.027858622371075	-0.00739099138759202	0.244739134625743	0.000108291103009589	-0.00616308115244543	-0.0054026754070538	0.47900390625	-0.34716796875	0.383056640625	0	0	0	0.219576799707551	-0.233045402732845	0.505230595067606	0.801384998052066	0.380863772145438	0.707425711450924	0.59539201358878	-0.912111166325466	0.393056149675646	0.116447771410858	-0.151644344871635	-0.587414441412798	0.794951738590553	8.33364998095331	-36.5405829057551	61.7028712544275
9825	1655806090501	6.0096510814604	1.12565202731588	7.99003062966543	0.0507462435667702	-5.66078160102214E-05	0.24817804846378	0.00307728638400036	-0.00640237063541858	-0.00905887002746243	0.483642578125	-0.334716796875	0.39501953125	0	0	0	0.219598181566783	-0.233051570705324	0.505208409870059	0.801391331773005	0.380902855976696	0.707383878541034	0.595416713478082	-0.91209468309372	0.393082202498258	0.116488931453955	-0.151645320999239	-0.587447385268981	0.794927208088687	8.3368078722764	-36.5423443611669	61.6990028372335
9826	1655806090502	5.98433161726371	1.16135126366937	8.02306614398026	0.000862518544059686	-0.0205851693970545	0.263528565587411	0.00518126953195747	-0.00381884998160634	-0.0107636216685565	0.477783203125	-0.337890625	0.387451171875	0	0	0	0.219472385567015	-0.233032797913536	0.505443731597984	0.801282859705871	0.380444698569789	0.707718269203598	0.595312256522244	-0.912295325497358	0.392717012323658	0.116148987542941	-0.15158849034743	-0.587288855391488	0.795055174140226	8.31150016782498	-36.5348953600514	61.7390730288025
9827	1655806090503	5.97685302817833	1.1286865125855	7.99786310940348	0.031758502901433	-0.0241974738292041	0.235244043395937	-0.00131101648530342	-0.00672027585662585	-0.00527963571223116	0.475341796875	-0.33056640625	0.38330078125	0	0	0	0.219471066714583	-0.233055622656729	0.505432660730893	0.80128356596759	0.380445804429148	0.707691837277267	0.59534297118836	-0.912287701710482	0.392740552683306	0.116129271012172	-0.151631590376365	-0.587304964842915	0.795035055246495	8.31031633461023	-36.5370856000445	61.7381111080634
9828	1655806090505	5.97710501548464	1.12916736957183	7.9976069157857	0.0297521617375442	-0.021252551712406	0.235256844936353	0.00289642515266182	-0.00155285210888861	-0.00868908876752648	0.479248046875	-0.3349609375	0.385009765625	0	0	0	0.219356636498691	-0.233024123626475	0.505555386064227	0.801246638341494	0.380227018859127	0.707918331195279	0.595213449518064	-0.912379883122314	0.392592835290862	0.115904333620425	-0.151625733314678	-0.587130736749468	0.795164847664189	8.29310872882995	-36.5278499267851	61.7594980768177
9829	1655806090506	5.98328099042167	1.12865468907957	8.02101226501119	0.0291991032147013	-0.0309433513380181	0.257483463335362	0.00132628809024477	-0.00556759366311378	-0.00714909680930042	0.488525390625	-0.33154296875	0.390869140625	0	0	0	0.219364077240066	-0.233033451626333	0.505542264557257	0.801250167417176	0.380244858338875	0.707893312061765	0.595231808999715	-0.912369984390077	0.392612840725869	0.115914489522293	-0.151640559517892	-0.587147524933375	0.795149624079464	8.29398186991408	-36.5291590010481	61.7575333647279
9830	1655806090509	5.9952547867321	1.14675216168389	7.99340590792381	0.0207388942786386	0.00187507640625608	0.244758876831023	-0.000626768038741438	-0.00469374140044865	-0.00686127938356283	0.488037109375	-0.337158203125	0.390625	0	0	0	0.219312136250019	-0.233024712932394	0.50560242226198	0.801228968934004	0.380131347531188	0.707996319774502	0.595181795596846	-0.912416910143504	0.392536754992543	0.115802754993591	-0.151642806319011	-0.587074192215674	0.795203340112458	8.28554608140581	-36.5255929797079	61.768138572455
9831	1655806090510	5.95432375868759	1.11546029367982	7.97677322626118	0.0362930906560983	-0.0298034967766366	0.203545896946524	0.00254370103863828	-0.00497160656474468	-0.00889557258775596	0.480712890625	-0.3408203125	0.383056640625	0	0	0	0.219324604631874	-0.233026507850347	0.505584797494916	0.801236155564743	0.380165318362194	0.707968745507565	0.595192898226296	-0.912402532319659	0.392561460690194	0.115832286507069	-0.151644154952463	-0.58709092563693	0.795190728884289	8.28775929071191	-36.5263845975799	61.765074549576
9832	1655806090511	5.96835000953235	1.14831877163686	8.02499690356278	0.00179819665552414	-0.0339023479426718	0.254052949191145	0.00201002557090893	-0.00354080727807495	-0.00873111960900806	0.480712890625	-0.332763671875	0.39111328125	0	0	0	0.219236911007826	-0.233058308184362	0.50575115436333	0.801145911615449	0.379799189692803	0.708170972083852	0.595186063182348	-0.912550906368051	0.392301893423811	0.115542493061827	-0.151668779897313	-0.587020526654652	0.795238003675979	8.26682694843389	-36.5258972577465	61.7948947487147
9833	1655806090512	5.97844380827919	1.13212090428991	7.99618856580247	0.0248658554160602	-0.0163690232132224	0.235279267726716	0.00132637600008399	-0.00556776621714627	-0.00714972711812832	0.484130859375	-0.337890625	0.393310546875	0	0	0	0.21924300430802	-0.23306798532237	0.505739224840415	0.801148959768145	0.379814301351175	0.708147857169506	0.595203922093392	-0.912541958409881	0.392320683039618	0.115549365211522	-0.151684773891703	-0.587035854139732	0.79522363855953	8.26745911888464	-36.5271706077083	61.7931662592998
9834	1655806090513	5.98302958573776	1.09711259188413	8.01821890064963	0.0550477683416746	-0.0374948596009257	0.251491551955356	0.0016579274886705	-0.00695977578286477	-0.00893738673095185	0.489013671875	-0.338134765625	0.38916015625	0	0	0	0.219178248867693	-0.232992308025784	0.505859122845605	0.801112992940437	0.379642264469386	0.708366939672667	0.595052963867366	-0.912634323963601	0.392134886114332	0.115450516740291	-0.151559696991177	-0.586895655011076	0.79535095924822	8.259180129899	-36.5164078650993	61.8113567551504
9835	1655806090513	5.96163698375386	1.11685885931793	7.99906767911084	0.0318577577526532	-0.0339747293194018	0.225808726801693	0.00112409180003962	-0.00552903211241696	-0.00877290470301621	0.4794921875	-0.340576171875	0.3876953125	0	0	0	0.219184675968858	-0.232999844420983	0.505841388639949	0.801120240575054	0.379671124077211	0.708339559119696	0.595067144554345	-0.912619540720526	0.392165134718469	0.115464630975469	-0.151576421111608	-0.586908490394678	0.795338300640448	8.26030556696492	-36.5174188299898	61.8086212264293
9836	1655806090514	5.97952470076681	1.13413710819692	7.99509456489151	0.0213264419568101	-0.0105648574125504	0.235295182493672	0.00720590594063922	-0.00337739254114001	-0.00602191169800745	0.486083984375	-0.3369140625	0.38671875	0	0	0	0.219114887204049	-0.232994992450036	0.506040694177553	0.801014865988806	0.379272298659015	0.708586894683435	0.595027004557604	-0.912797580642626	0.391822964083713	0.115218668581187	-0.151502806056111	-0.586838459458427	0.795403999397529	8.24228004079033	-36.5145572167097	61.8420104066191
9837	1655806090515	5.97965202463754	1.13498120668369	7.99487955003432	0.0209836705384099	-0.0100970559657492	0.235296385141501	-0.000550623348624982	-0.00255159701274242	-0.0133122016448153	0.4814453125	-0.335205078125	0.3916015625	0	0	0	0.219111410752898	-0.232990154046846	0.506006924148717	0.801038557441935	0.379345161661562	0.708560510461959	0.59501197579364	-0.912763715840917	0.391894364782857	0.115244114364777	-0.151524411789799	-0.586822639189499	0.795411555590203	8.24399807236105	-36.5134858310292	61.8365432564845
9838	1655806090515	5.9797812004087	1.13565818740977	7.99468679566502	0.0195773713301318	-0.00799687641426707	0.235301114520443	0.00221188020187621	-0.00357989708377136	-0.007109413880625	0.482421875	-0.3330078125	0.384521484375	0	0	0	0.219049588294823	-0.232964732548248	0.506125812961765	0.800987748164967	0.379128189685031	0.708739492920999	0.594937094960665	-0.912862807928629	0.391707878643322	0.115093143624662	-0.151470491142036	-0.586731002234271	0.795489422513183	8.23255164233059	-36.508147871726	61.8562005063187
9839	1655806090516	5.97014425183452	1.15314525799091	8.02296994727956	-0.00415633354503165	-0.0246263147887872	0.254079217452388	0.00180712541687791	-0.00350254831098382	-0.010355360643667	0.4873046875	-0.33544921875	0.38818359375	0	0	0	0.219053921807843	-0.232960862298651	0.506106212492601	0.801000073441986	0.379171476626927	0.708720245723524	0.594932437016291	-0.91284420778055	0.391743762033996	0.115118535557712	-0.151474234225021	-0.586730294265635	0.795489231955345	8.23434495579106	-36.5078158374008	61.8528325409252
9840	1655806090518	6.00201564234059	1.11760182442534	8.01298037312295	0.0406405960051225	-0.0095395416213763	0.261007957813947	-0.00541829032061234	-0.00493714328310378	-0.00632623097912116	0.48046875	-0.333251953125	0.380859375	0	0	0	0.218993344437304	-0.233003062534479	0.50615800917506	0.800971633511235	0.379027285194986	0.708784174990366	0.594948157708673	-0.912888654704606	0.391691969680207	0.114942181115784	-0.151567216736776	-0.586687646172361	0.795502975883435	8.22176293292152	-36.5089364682322	61.8640453544098
9841	1655806090518	6.00229211192598	1.11802408152461	8.01271437719263	0.0402808335737028	-0.00905358415757133	0.261009851257903	0.00558432317644543	-0.00389514443193668	-0.00752233614007136	0.487060546875	-0.330322265625	0.388427734375	0	0	0	0.219010185213734	-0.232994521356099	0.506153955494424	0.800972075123744	0.379043452710782	0.708774021576951	0.594949953605111	-0.912886714680889	0.391685424219989	0.114979887861921	-0.15153846744712	-0.586704282233599	0.795496183581377	8.22449245186803	-36.5090644876032	61.8626877410224
9842	1655806090520	5.98668381843761	1.13678257060952	8.01732454281169	0.0161238991757639	-0.0155091749381867	0.257548485060589	0.000185145340807402	-0.00402165838732196	-0.0118551785040214	0.490966796875	-0.3330078125	0.388671875	0	0	0	0.218988704151746	-0.233020799849631	0.50613196090468	0.800984202367413	0.379063489976444	0.708749563996832	0.594966323501742	-0.912865255994728	0.391748771209445	0.114934436325978	-0.15161759450855	-0.58669153376386	0.795490508582755	8.22134360983987	-36.510231415359	61.8606059815863
9843	1655806090521	5.97901014028412	1.1042045343418	7.99228831975681	0.0469909638197239	-0.0190099786811194	0.22932104872948	0.00289416466273711	-0.00155275204678303	-0.00869230511608333	0.48583984375	-0.33447265625	0.38720703125	0	0	0	0.218990080163455	-0.233008590003099	0.506122705974448	0.800993226108607	0.379093606963742	0.708748578523478	0.594948308342978	-0.912854857737686	0.391766302574214	0.114957265416498	-0.151604900527422	-0.586681017767134	0.795500683549543	8.22285052364527	-36.5089472060976	61.8586797354861
9844	1655806090522	5.96330919211372	1.12303171243798	7.99695668807655	0.0230626831406787	-0.0255791795944706	0.22585768905525	0.00355766243625124	-0.00433698254727273	-0.0122682189625507	0.48779296875	-0.332275390625	0.38134765625	0	0	0	0.219005184106509	-0.233010193446211	0.50613870013252	0.800978523627692	0.379059731956645	0.708751576937208	0.594966319885401	-0.912873338194731	0.391720691125274	0.1149659452079	-0.151578323061594	-0.586707850921869	0.795485958169267	8.22361303877631	-36.5102311575662	61.8609098840004
9845	1655806090524	5.95179255811464	1.10616934248607	8.0240889783104	0.0302806078988394	-0.0562582964821873	0.238649228918341	0.000940532396272515	-0.000680127611128695	-0.00840398637788073	0.48681640625	-0.334716796875	0.386474609375	0	0	0	0.218996189435935	-0.232999892035057	0.506129230715714	0.800989963195115	0.379088504253542	0.70875669077658	0.594941895669017	-0.912861044755227	0.391747741655319	0.114971387207224	-0.151580404113487	-0.586683611657416	0.795503438648384	8.22381874197206	-36.50849008425	61.8592732190231
9846	1655806090527	5.98885648352403	1.17459248258044	8.01776044664799	-0.0181225726267146	-0.000122730475113169	0.263533331782078	0.00875448569920356	-0.00417076551021666	-0.00955926779460322	0.490478515625	-0.333984375	0.383544921875	0	0	0	0.219023268234867	-0.233046913764656	0.506147772590344	0.800957162561345	0.379007136573206	0.708719974131844	0.595037468310305	-0.912890760950981	0.391686480547103	0.114944158298553	-0.151604910860165	-0.586768863542692	0.795435887912973	8.22258638936118	-36.5153031760226	61.8631537124449
9847	1655806090528	5.97962195274496	1.10733905419533	7.9913968737106	0.0437113105268916	-0.0176716763246908	0.229338304384228	-0.0084582773414783	-0.0060173234856855	-0.00770117887452895	0.486083984375	-0.331787109375	0.382080078125	0	0	0	0.218989246933689	-0.233083154199244	0.506124174433051	0.800970831560307	0.379021126565987	0.708695992914787	0.595057119311393	-0.912866810558872	0.391764059563756	0.114869960451797	-0.151714112055277	-0.586746036425173	0.795431905911894	8.21739169395683	-36.5167041122855	61.8614679720565
9848	1655806090529	5.95407864344293	1.14262597312269	8.02463830399759	-0.00453528879677143	-0.0424303672720996	0.244630643652243	0.00836690372971659	0.000718121081458466	-0.0108125364211074	0.47607421875	-0.335693359375	0.380126953125	0	0	0	0.219018179503205	-0.233127809065755	0.50612051536741	0.800952236785397	0.378986897128857	0.708638261066706	0.595147668026178	-0.912875174399315	0.391746121942659	0.114864667797845	-0.151749292486203	-0.586827735281185	0.795364923374607	8.21770080095384	-36.5231597334309	61.8616788147846
9849	1655806090530	5.97979629735572	1.10858010316049	7.99109434677576	0.0415805038775327	-0.0177937198877178	0.229347137859163	-0.00744442247655221	-0.00538331264262532	-0.011071643927008	0.48193359375	-0.339111328125	0.38330078125	0	0	0	0.218990589696157	-0.233155999396684	0.506084977904626	0.800974029984204	0.379032550169215	0.708603908935317	0.595159496398916	-0.912839788131624	0.391842233527607	0.114818052709093	-0.151848105408113	-0.586805047921101	0.795362803139725	8.21443296211681	-36.5240030705808	61.8576534672435
9850	1655806090531	5.95829565814677	1.12847173561669	7.9719758379456	0.0151608159408688	-0.0128696902548689	0.203636247748673	0.0144861155022626	-0.00543253108980942	-0.00701645475403788	0.487548828125	-0.33544921875	0.384033203125	0	0	0	0.218933272250174	-0.233200405715625	0.506235447934282	0.800881679357617	0.37868648405769	0.708758735557146	0.595195431403384	-0.912980047210705	0.391587787113217	0.114570669802143	-0.151868298822245	-0.586787917185766	0.795371586151799	8.19688591187658	-36.5265652143307	61.8846178993768
9851	1655806090532	5.97232134724471	1.16166620644126	8.02011985346661	-0.0167925530710236	-0.0184764238223152	0.25407923545284	-0.00318789706473874	-0.00370965677446863	-0.0114438371813376	0.478271484375	-0.33251953125	0.38037109375	0	0	0	0.218917899308991	-0.233211379976856	0.506205985592089	0.800901308378361	0.378735904800065	0.708733781540355	0.595193700671289	-0.912950363138292	0.391660907025761	0.114557271063075	-0.15192349673746	-0.586769256872977	0.795374811222858	8.19590755043058	-36.5264418122501	61.8806715147543
9852	1655806090533	5.98057914862726	1.11092153008711	7.99018328253839	0.0353626969659488	-0.0147214735146715	0.229375932413781	0.00221199647300678	-0.00357999169843246	-0.00711178151221748	0.47998046875	-0.331787109375	0.3876953125	0	0	0	0.21887289925538	-0.233273577015625	0.506248032904059	0.800868916501727	0.378592734894211	0.708762098943843	0.595251063154061	-0.912991155428175	0.39161516630463	0.114388424371187	-0.152035164337883	-0.586765582341803	0.795356184475759	8.18418037537979	-36.5305318913818	61.8906268338802
9853	1655806090534	5.97267621757247	1.16288428174656	8.01967905219788	-0.0194397859681351	-0.0173316913563536	0.254076507430151	0.0034279431835723	-0.00298337683100061	-0.00885936208518546	0.486572265625	-0.33349609375	0.38330078125	0	0	0	0.218878771461606	-0.233268268727727	0.506237620511281	0.800875439620484	0.378618772767691	0.708751609598598	0.595246991423967	-0.912981497919001	0.391631109965069	0.114410918032789	-0.152028317643343	-0.586767611238831	0.795355996416454	8.18576983665639	-36.5302415603754	61.8886368245504
9854	1655806090535	5.94150231817186	1.11450144963908	7.97469850399667	0.0190696996648786	-0.0312639695596692	0.194212178526701	-0.00595195335956582	-0.00351151402767605	-0.00616109917116688	0.48486328125	-0.3408203125	0.3896484375	0	0	0	0.21881211359569	-0.233292884319659	0.50625192713991	0.800877440896376	0.378566832785884	0.7087968775037	0.595226124725275	-0.912986113922978	0.391660490421829	0.114273426597577	-0.152129907967775	-0.586693315696997	0.795391378139202	8.17570701842306	-36.528753696531	61.8934242540762
9855	1655806090535	5.99315280364918	1.11014543343851	8.03683102883303	0.0330053416767347	-0.0327781307657592	0.273877590952376	0.00538159355915411	-0.00385502306523017	-0.00914900296849907	0.486572265625	-0.330322265625	0.390869140625	0	0	0	0.21882814070486	-0.233285810598771	0.506241881101878	0.800881472645834	0.378593776783412	0.708780486131429	0.595228506256351	-0.912978486876049	0.391666805308172	0.114312711984319	-0.152108627902533	-0.586708902351912	0.795383950817857	8.17855501730692	-36.5289235060367	61.8911790193423
9856	1655806090536	5.96551945440859	1.13091679505114	7.99419650585005	0.00980071640943134	-0.0178825463078767	0.225896058201464	-0.00257938177242262	-0.00382529208782639	-0.00657461335364017	0.484375	-0.33154296875	0.384765625	0	0	0	0.218770417412034	-0.233255486387477	0.506329278775889	0.800850825054076	0.378445079048859	0.708929641072141	0.595145432775073	-0.913047241554683	0.391540331839305	0.114196774177524	-0.15206596211213	-0.586613102949886	0.795462765071012	8.16957365162212	-36.5230003659404	61.9055406794443
9857	1655806090536	6.00933382564426	1.09331444816086	8.03154085313117	0.0550019527096313	-0.0233376614391695	0.277382413155106	0.00268957974720002	-0.00151444453725869	-0.0103185412206021	0.48388671875	-0.33203125	0.38720703125	0	0	0	0.218770788269944	-0.23324429882636	0.506314376245699	0.800863403878387	0.378485698943858	0.708923231357958	0.595127236593966	-0.913031387812811	0.391570189213353	0.114221152979783	-0.15206005577926	-0.586600919672318	0.795472878529494	8.17119166254513	-36.521703038578	61.9027706657159
9858	1655806090537	5.98940970247942	1.14770370792007	8.0137318545223	0.000699992661751594	-0.00549820399239968	0.257571810921977	0.00449798362271309	-0.00584384053823069	-0.00919042732506652	0.4931640625	-0.3369140625	0.38525390625	0	0	0	0.218771186423112	-0.233241937661583	0.506301959447585	0.80087183267139	0.378513048750813	0.708912725444107	0.595122356855105	-0.913019187147507	0.39159498770112	0.114233661885923	-0.152065235428326	-0.586597062139566	0.79547473301379	8.17205564838729	-36.5213551330807	61.9006977709718
9859	1655806090538	5.98789198169515	1.11382481909934	8.01228289726441	0.0312577111915543	-0.0190236580799258	0.251645422110625	-0.00169582775691346	-0.00183675874622912	-0.0065341286922485	0.489501953125	-0.3349609375	0.394775390625	0	0	0	0.218750345274522	-0.233247212604076	0.506296815764058	0.800879240960759	0.378518544319209	0.708919402437014	0.595110907692687	-0.913011035602859	0.391623641578906	0.114200578912155	-0.152100494653572	-0.586569863021298	0.795488048509413	8.16958600444154	-36.5205388605936	61.900576359216
9860	1655806090539	5.93446658386379	1.16976902574302	8.00306424031667	-0.0385263505592071	-0.0296650394785129	0.218909014136413	0.0131390443767673	-0.00384512285891554	-0.0133491645303711	0.48681640625	-0.333984375	0.389892578125	0	0	0	0.218813572239246	-0.233206618498604	0.506361050974965	0.800833178475939	0.378426318287951	0.708963913290368	0.595116535881028	-0.913079006344426	0.391438213318859	0.114292840225518	-0.151921854254424	-0.586639833974601	0.795470587384694	8.17627396153953	-36.5209401233939	61.9078713200828
9861	1655806090539	6.0041320320282	1.09758825716301	8.00686914826533	0.0531567354538573	-0.0108867825289651	0.25514809518843	-0.0116262789570259	-0.00574959225718661	-0.00566303952936555	0.4794921875	-0.337158203125	0.3828125	0	0	0	0.218761872682097	-0.233253757021262	0.506343489255448	0.800844678314532	0.378417911448168	0.708950920146662	0.595137359874516	-0.913059034931087	0.39151902789848	0.114175520686981	-0.152062760154879	-0.586601605535334	0.795471855792176	8.16798162169602	-36.522424792221	61.9079638698778
9862	1655806090541	5.97260406716131	1.13417193582527	8.0164118436444	0.00530169963758259	-0.0234236298785752	0.248158876346968	0.0170623145952118	-0.000775081550797263	-0.0119352668043282	0.48388671875	-0.327880859375	0.382080078125	0	0	0	0.218761913341853	-0.233204339731386	0.506430364854872	0.800804125085793	0.37828804296682	0.709070595370445	0.595077345669734	-0.913135505607491	0.391343021647947	0.114167367519823	-0.151926643309476	-0.586574402943444	0.79551792240292	8.16693964806358	-36.5181460927344	61.9201494332055
9863	1655806090542	5.96290845000831	1.15214760370692	8.04466084336418	-0.0185303164819899	-0.040049102480734	0.266912929859451	-0.0038686546090188	-0.00574063470560376	-0.00986221176196145	0.482177734375	-0.329345703125	0.39501953125	0	0	0	0.218745676546393	-0.233227303583659	0.506405477654539	0.8008176109807	0.378317034129149	0.709041920982699	0.595093081775355	-0.913111778228692	0.391407642387479	0.114135612061753	-0.151997046509989	-0.586565948355204	0.795510707710714	8.1647717090954	-36.5192679720261	61.9173635718077
9864	1655806090543	5.98491679695579	1.06896128650284	7.93401477349626	0.0840555827096372	0.0085371550430139	0.182479442185443	0.003427271161368	-0.00298322203447264	-0.00886177332213128	0.483642578125	-0.331298828125	0.38818359375	0	0	0	0.218747150804474	-0.233155918354673	0.506333153558053	0.800883723994358	0.378530110688293	0.70902357754019	0.594979429723766	-0.913032348873331	0.391552843245765	0.114272922676394	-0.151943690929094	-0.586491208321375	0.795576003502228	8.1737998058094	-36.5111657048168	61.9033468135624
9865	1655806090543	5.99058663374722	1.15352852498098	8.01201562731608	-0.00233861649888952	-0.000128355976700587	0.257573063850645	0.00889797682088429	-0.000708912148592558	-0.0109839852744908	0.488037109375	-0.331298828125	0.385986328125	0	0	0	0.21877078926615	-0.233124522422182	0.506324203458079	0.800892065013655	0.378577516075942	0.70902040221268	0.594953051566204	-0.91302374528306	0.391550285512815	0.114350402116155	-0.151877269105891	-0.586496754603981	0.79558459761859	8.17917969180611	-36.5092853243485	61.9002591673292
9866	1655806090544	5.96983927477497	1.06915780396889	8.01298062609922	0.067445028616865	-0.048650032676801	0.236343542859462	0.000168857728571788	-0.00883866844141488	-0.0138538812633953	0.4833984375	-0.3330078125	0.384521484375	0	0	0	0.218785170970901	-0.233132144111572	0.506272845380747	0.800918384340912	0.378674418824047	0.708954746699523	0.594969622468648	-0.912978170732575	0.391641709986632	0.114401183405369	-0.151909658330443	-0.586515079201688	0.79556490469035	8.18296257193198	-36.5104665842792	61.8919611522308
9867	1655806090545	5.9734580173747	1.13933150285751	8.01504379750169	0.00502336373852854	-0.0201248833477457	0.248166158502283	0.00990904773735367	-7.37746254578329E-05	-0.0143570525431873	0.489501953125	-0.328369140625	0.380859375	0	0	0	0.218815275067296	-0.233091833912045	0.506252208854015	0.800934937052426	0.378753795987902	0.708942054555475	0.594934219311191	-0.912958269569094	0.391657152855309	0.114507085556657	-0.151831353975921	-0.58652010869188	0.795576144721487	8.19032073590233	-36.5079428853545	61.8865439549532
9868	1655806090546	5.95974160974684	1.10842779964857	7.96637790238028	0.0356125126838855	-0.0145199381498804	0.197748689993507	0.0035562461270217	-0.00433866946420825	-0.0122750105306503	0.483642578125	-0.337158203125	0.396240234375	0	0	0	0.218841891421039	-0.233143738396759	0.50618747400109	0.800953472412749	0.378836476821558	0.708821996618585	0.595024622128421	-0.91290846335346	0.391764935447316	0.114535465649656	-0.151924525232275	-0.586593225722563	0.795504447611291	8.19305145423338	-36.5143873747064	61.8773120258774
9869	1655806090546	5.97200300108617	1.107555712845	8.01329392035942	0.0345958798552184	-0.0340872232799008	0.242262657202538	0.0100979190380646	-0.00492371692726118	-0.0147284437891107	0.472412109375	-0.33544921875	0.390380859375	0	0	0	0.218885613551309	-0.233122379762322	0.506159961582033	0.800965128782454	0.378912098690453	0.708778687372516	0.595028061348781	-0.912887227879784	0.391782362943084	0.114645057724683	-0.151863526364821	-0.586633916862319	0.795486088468437	8.20097100324982	-36.514632554863	61.8711021147409
9870	1655806090548	5.98973533633894	1.12542195070672	8.00928395312146	0.0262517841313425	-0.00872376082552794	0.25167392291155	0.00139831140396513	-0.00343122022888268	-0.0136095362530137	0.48193359375	-0.3388671875	0.383544921875	0	0	0	0.2187709730728	-0.232993059240581	0.506284535358212	0.800955345162022	0.378780407205669	0.709078372957521	0.594754793272844	-0.912966846114603	0.391630461195799	0.1145299950193	-0.151713351464737	-0.586373125976525	0.79570699137299	8.19060832791304	-36.4951538418836	61.889449293358
9871	1655806090548	5.98813328564054	1.09215256047609	8.00786882023778	0.0568276724822171	-0.0221993381282608	0.245780619137134	0.00760736050857008	-0.00262286157574698	-0.0142747382101243	0.489990234375	-0.33203125	0.38623046875	0	0	0	0.218797535735947	-0.232968345343885	0.506259597942478	0.800971040621776	0.378853939117707	0.70905275424605	0.59473850094902	-0.912944353708943	0.391657715693995	0.114616058073565	-0.151665091059077	-0.586385901462043	0.795706776847219	8.19668170205156	-36.4939926700071	61.8839665216094
9872	1655806090549	5.94663238114934	1.14634488416727	8.04586798909273	-0.0148209022453267	-0.0528733534287698	0.257542003074109	0.00935808718298111	-0.00345605498012792	-0.0161890739913686	0.4814453125	-0.33349609375	0.391845703125	0	0	0	0.218805612569924	-0.2329876748108	0.506305203710796	0.800934384322166	0.378743568163254	0.709076471409991	0.594780520249044	-0.912992515042869	0.39155828920654	0.11457213286548	-0.15165083926792	-0.586423621494227	0.795681694588315	8.19383786280637	-36.4969874672871	61.8917013559875
9873	1655806090549	5.99986795865635	1.11267411174181	7.9799852713174	0.0466953539918229	0.0101020785504131	0.232925688642322	-1.99770365511883E-05	-0.00399238907485687	-0.0134854823033889	0.486328125	-0.333251953125	0.388916015625	0	0	0	0.218803878677064	-0.232989071038593	0.506273174806259	0.800954697797596	0.37880713049633	0.709045930594733	0.594776450603239	-0.912961580325173	0.391624670294928	0.11459175566572	-0.151678313332196	-0.586416222425198	0.795681910904893	8.19521996513955	-36.496697410646	61.8866798345818
9874	1655806090550	5.93896378804242	1.1159318296166	8.02061671446633	0.0159062632285668	-0.0543897944124981	0.22940780673728	0.0185445413675178	0.00193095825738042	-0.0185254201052863	0.481689453125	-0.335693359375	0.39013671875	0	0	0	0.218830485054289	-0.23285517389126	0.506304424792036	0.800966613685603	0.378868594856154	0.709154259939378	0.594608125946457	-0.912977502539478	0.391538096493821	0.114760615416496	-0.151428754496961	-0.586343034923951	0.795783373605952	8.20609969720899	-36.4847013268283	61.8864542184382
