// Start Time : 13/05/2022 06:21:37																																
// Update Rate : 100Hz																																
// Filter Profile : 46.1 human																																
// Firmware Version : 4.4.0																																
PacketCounter	Time_Of_Arrival	Acc_X	Acc_Y	Acc_Z	FreeAcc_X	FreeAcc_Y	FreeAcc_Z	Gyr_X	Gyr_Y	Gyr_Z	Mag_X	Mag_Y	Mag_Z	VelInc_X	VelInc_Y	VelInc_Z	OriInc_q0	OriInc_q1	OriInc_q2	OriInc_q3	Mat[1][1]	Mat[2][1]	Mat[3][1]	Mat[1][2]	Mat[2][2]	Mat[3][2]	Mat[1][3]	Mat[2][3]	Mat[3][3]	Euler_X	Euler_Y	Euler_Z
28423	1652422938105	7.85738107445085	-1.78121475902618	5.5142358178306	8.93382590128056E-15	2.76471553983804E-16	-0.0495956494583627	0.0127619236977854	-0.013499127490972	-0.00615288507951675	0.457275390625	-0.5947265625	0.385986328125	0	0	0	-0.284521840770644	0.369626640553111	-0.681209896735678	-0.564248655565321	-0.201341553634424	0.558409832445715	0.804760857527269	-0.979077241117876	-0.0899992025722979	-0.182504519016268	-0.0294844824456071	-0.824668783551493	0.564846937435811	-17.9058719293909	-53.5871663432522	109.827394151875
28424	1652422938106	7.94927269445122	-1.82706406651121	5.41743002306083	0.0166036975341358	0.0803057530331149	-0.0213175546030975	0.00267474331691439	-0.012689373885139	-0.00209444328000564	0.460693359375	-0.599853515625	0.388427734375	0	0	0	-0.287287012006578	0.370718005815201	-0.682626683260911	-0.56040623140445	-0.206822057070786	0.552091557669359	0.807724921405316	-0.978101430420106	-0.0970260319349226	-0.184129142009357	-0.0232858008053636	-0.828118868929564	0.560068665793463	-18.1988860462053	-53.8742419404413	110.53672880222
28425	1652422938105	7.91400132505006	-1.84115224173546	5.43319636983466	0.0381735418403273	0.0481843397325081	-0.0383790893359386	0.0165035792898092	-0.011325110486935	-0.00371840725284374	0.45458984375	-0.6005859375	0.396728515625	0	0	0	-0.28737880057711	0.370688067038622	-0.682630583715724	-0.560374221489497	-0.206788313737802	0.552001379641626	0.807795190735384	-0.978112948016852	-0.0971421776904195	-0.184006679866089	-0.0231009571934733	-0.828165366450023	0.560007563868061	-18.1894330411817	-53.8810715556982	110.53673232974
28426	1652422938105	7.9289382867704	-1.81422656143551	5.41485033610534	0.0102111199319847	0.0682992405317231	-0.04154027641877	0.00878701251437033	-0.0106926308095925	-0.00294980089436607	0.4521484375	-0.604736328125	0.392578125	0	0	0	-0.287443609482436	0.370679870389094	-0.68262712711506	-0.560350613796999	-0.206766721970072	0.551921939532566	0.807854996486599	-0.978120179161057	-0.097207246611303	-0.183933863995164	-0.0229877750922843	-0.828210676017196	0.559945210112067	-18.1846002789262	-53.8868850739363	110.537475881687
28427	1652422938107	7.90405861722558	-1.80727538275947	5.43677288631848	0.0087307706442166	0.0350259772611123	-0.0506392543674678	0.0102966010075259	-0.00816444071336434	0.00100055116130335	0.45263671875	-0.5986328125	0.384765625	0	0	0	-0.287498469310789	0.370669038637134	-0.682637278570386	-0.560317267131572	-0.206778380596319	0.55185334628323	0.80789887084583	-0.978120471199541	-0.097298047900059	-0.183884294313645	-0.0228701801119541	-0.828245720828572	0.559898187879553	-18.1814483664541	-53.8911504687179	110.540876902377
28428	1652422938109	7.90856416494212	-1.8558187023756	5.40213608176842	0.0563060797668866	0.0705753422766371	-0.0574644941876219	0.00796958079078461	-0.00265315616768998	0.0063803219605021	0.450927734375	-0.60791015625	0.38330078125	0	0	0	-0.287518612490673	0.370659575546137	-0.682665673118393	-0.560278596122685	-0.206841884396463	0.551822876177029	0.807903427512864	-0.978108983646657	-0.0973987475655011	-0.18389208814513	-0.022787078992817	-0.828254186406796	0.559889053054792	-18.1824454049385	-53.8915934855257	110.547697929771
28429	1652422938109	7.8870320054534	-1.89124996369046	5.46694859436027	0.0940571552097777	0.00820688366963777	-0.0320578786644798	0.00530361353263457	-0.00578846979626183	0.000432919550553074	0.45751953125	-0.599365234375	0.386962890625	0	0	0	-0.287552425381667	0.370658310427835	-0.682668393090707	-0.560258765788502	-0.20684743602853	0.551774510408849	0.807935039388377	-0.978109295014429	-0.0974450645358536	-0.183865892443327	-0.0227232307298249	-0.82828096021862	0.559852039135807	-18.1811485574795	-53.8946670437396	110.549853960946
28430	1652422938111	7.83417383654034	-1.94324440982828	5.44738055700779	0.156760246404112	-0.000496205132716504	-0.0761654312651174	0.0102531826402348	-0.0134982412110389	-0.00108867018454452	0.45361328125	-0.59326171875	0.39208984375	0	0	0	-0.287628560325693	0.370663569079678	-0.682664816411183	-0.560220562168482	-0.206845466017199	0.551658876965891	0.808014502749091	-0.978112591924175	-0.0975228805614913	-0.183807087149442	-0.0225989094316808	-0.828348822194926	0.559756659684169	-18.1786094789191	-53.9023941028482	110.553621918772
28431	1652422938112	7.91696161258011	-1.83764531302803	5.43006998817018	0.0380879028897993	0.0481909390436578	-0.0383787877831434	0.0266245896564993	-0.0159004082529501	-0.00436928459809671	0.453125	-0.598876953125	0.38916015625	0	0	0	-0.287765505917454	0.370610941229141	-0.682679046000765	-0.560167710598181	-0.206806299214529	0.551531426540503	0.80811152704524	-0.978127606545893	-0.0977193324888861	-0.183622758313696	-0.0223056028386196	-0.828410536869326	0.559677087690644	-18.1639892004065	-53.9118307348857	110.554407112059
28432	1652422938113	7.89911207757721	-1.81323559092124	5.48169803777073	0.0182769988978283	-0.00749328378039572	-0.0283929103213367	0.0189143750737369	-0.00616897037713152	-0.00493120862313258	0.452880859375	-0.604248046875	0.387939453125	0	0	0	-0.287844839203797	0.370564706035864	-0.68269243667861	-0.560141217985354	-0.206774328915249	0.551478069534101	0.808156120885432	-0.978138622428083	-0.0978472291088755	-0.183495926576607	-0.0221181422398215	-0.82843096186626	0.559654294368588	-18.1529568893306	-53.9161686695945	110.553317404689
28433	1652422938113	7.87539500211308	-1.86658565751234	5.41602678790933	0.0776290731586183	0.0383098614730389	-0.0745232346368727	-0.000851202278555747	-0.0131185936210864	-0.000796246259869116	0.454833984375	-0.598876953125	0.388671875	0	0	0	-0.287888709715072	0.370603206169555	-0.682669747435384	-0.56012085332716	-0.20676944097329	0.551370165267445	0.808230993672319	-0.978140080629132	-0.0978357864898002	-0.183494254811305	-0.0220993426695721	-0.82850413380675	0.559546708790875	-18.1560636568935	-53.9234530493501	110.55655804096
28434	1652422938114	7.85861810823035	-1.90345105906554	5.37984665542472	0.118584762478223	0.061681578730826	-0.101565524148922	0.0245721830624485	-0.0100341433712642	-0.00254949209046761	0.457275390625	-0.59765625	0.3828125	0	0	0	-0.287990917183523	0.370554564664353	-0.682695316613059	-0.560069326870165	-0.206767161437988	0.551280714977324	0.808292591977044	-0.978146110754237	-0.0980233274112243	-0.183361973428496	-0.0218523904238818	-0.828541489955284	0.55950109245241	-18.1452151646043	-53.9294469067923	110.559406812707
28435	1652422938114	8.00095549103606	-1.7217531559042	5.4880984072621	-0.0893653441909126	0.0320120235813678	0.0407351722776497	0.0247464272313188	-0.0136217284475821	-0.000908037560423205	0.4501953125	-0.601806640625	0.387451171875	0	0	0	-0.288108392657745	0.370506927759492	-0.682719001836238	-0.560011549072091	-0.206761237972095	0.551168740747834	0.808370465624947	-0.978153362449221	-0.0982233627761986	-0.183216185240875	-0.0215821686011916	-0.828592294332612	0.559436341124786	-18.1336939036327	-53.9370256778355	110.562694309891
28436	1652422938115	7.85973336181314	-1.85492780631852	5.31259369697228	0.0741909700989186	0.111766243628022	-0.147190921705407	-0.00789588917255501	-0.00487859183684466	0.000467188504073487	0.448486328125	-0.598388671875	0.394287109375	0	0	0	-0.288098098931036	0.370562412539612	-0.682699051077531	-0.560004454859946	-0.206788991858677	0.551112366688228	0.808401801166581	-0.978145673040071	-0.0981570178996748	-0.183292777135465	-0.0216646061367466	-0.82863765248771	0.559365967610291	-18.142910826625	-53.9400756844921	110.567150999302
28437	1652422938116	7.92282882163692	-1.76709192795369	5.49102049935743	-0.028340376781086	-0.0100918127965861	-0.0124714749837764	0.025990213634122	-0.00234415204312308	0.00525804935865158	0.45849609375	-0.59912109375	0.390869140625	0	0	0	-0.288169129044452	0.370487829869659	-0.682758545948894	-0.559944719519691	-0.206840928295554	0.551087774511833	0.808405279031149	-0.978140395532268	-0.0984013580009719	-0.18318989975308	-0.0214055368961511	-0.828625028301197	0.559394641968466	-18.1325256795102	-53.9404142119375	110.572725107801
28438	1652422938116	7.88431083280263	-1.84749253541607	5.44353795751421	0.0586577737386449	0.0154053367196668	-0.0554329768850916	-0.0162939903043241	-0.00512376514816448	0.0101314812820455	0.45263671875	-0.594970703125	0.38427734375	0	0	0	-0.288119701544636	0.370591187556258	-0.682748453934855	-0.559914062992739	-0.206966559289586	0.551011676981789	0.808424996623402	-0.978110166396914	-0.0983168275372107	-0.18339657525161	-0.0215718735123132	-0.82868566613206	0.559298418574944	-18.1545599657619	-53.9423335295635	110.586777436341
28439	1652422938117	7.90041544952408	-1.98314797867995	5.39319356565403	0.18815036329033	0.0786367593518278	-0.0456820540753799	0.00555985586453588	-0.00780406832640046	0.00758162439994165	0.4521484375	-0.595703125	0.38916015625	0	0	0	-0.288147858785033	0.370604977250151	-0.682768737697584	-0.559865709914318	-0.207042396679475	0.550939546777307	0.808454736997709	-0.978095669376135	-0.0984046753991044	-0.183426773965109	-0.0215013377460328	-0.828723196041002	0.559245524630031	-18.1589578375642	-53.9452286355109	110.596157757479
28440	1652422938118	7.91018019651547	-1.85424249301043	5.42019662616805	0.0595579541777826	0.0482930329874946	-0.0463258156027901	0.0288051846065407	-0.00576254732762886	4.98127898943833E-05	0.4580078125	-0.5966796875	0.38916015625	0	0	0	-0.288238863966635	0.370552886534217	-0.68281520236303	-0.559796672911082	-0.207092084593813	0.550859870883502	0.808496302495441	-0.978090843100223	-0.0986364865576845	-0.183327974305748	-0.0212407895823692	-0.828748602514518	0.559217831160765	-18.1506581740654	-53.9492752064196	110.60341491351
28441	1652422938118	7.88778601173706	-1.7820537751087	5.50627485086344	-0.00765668621907218	-0.0428843951755544	-0.0295360908974569	0.000877981642959078	-0.00883972116186647	0.00688528396312519	0.447998046875	-0.59716796875	0.389892578125	0	0	0	-0.288258743583478	0.370584554636134	-0.682823359780707	-0.559755521590096	-0.207161305594149	0.550779815594193	0.808533108906837	-0.978076768037612	-0.098681687829076	-0.183378734624013	-0.0212138937874933	-0.828796428093915	0.559147969225625	-18.1574736501717	-53.9528587886412	110.612466631008
28442	1652422938119	7.91155642451566	-1.90786275722474	5.40830874171795	0.111412740954193	0.0623171301853922	-0.0420081438739928	-0.00478703769664269	-0.0140723222753366	0.00583768057819932	0.45556640625	-0.611572265625	0.38720703125	0	0	0	-0.288271554743224	0.370679863613379	-0.682812590125436	-0.559698951404846	-0.20727318904448	0.550626060206797	0.808609155850014	-0.978051902590137	-0.0986670450157637	-0.183519181743135	-0.0212673680351854	-0.828900329381644	0.558991898874981	-18.1752063415402	-53.9602639219911	110.627936140712
28443	1652422938120	7.83967311182473	-1.88402675416069	5.45135272267682	0.102080438128599	-0.016323292662012	-0.0804424569415119	0.0203635279571259	-0.0113420800919064	0.00762287032415978	0.4521484375	-0.60205078125	0.3916015625	0	0	0	-0.28835313375566	0.37065306693665	-0.682855311751377	-0.559622549078105	-0.207350145633229	0.550524513653	0.808658566375826	-0.978040407202318	-0.0988778130675589	-0.183466999655256	-0.0210446901949957	-0.828942662643264	0.558937548447492	-18.1720287694117	-53.9650760174382	110.638435143754
28444	1652422938121	7.92984836791168	-1.81653697793676	5.45246005398319	0.0168226720613593	0.024003022372755	-0.0192833112069302	0.00368443849378794	-0.0213537701809614	0.00301462850246832	0.44482421875	-0.600341796875	0.388671875	0	0	0	-0.288411515316872	0.370745408130224	-0.68284485920709	-0.559544045127306	-0.207458518790394	0.550309059519021	0.808777411895625	-0.978018039341462	-0.0989166078258505	-0.183565300149319	-0.0210161296146126	-0.829081083916113	0.558733280365958	-18.1873341803755	-53.9766526689076	110.655713962326
28445	1652422938121	7.9348121736376	-1.81895815715761	5.35061550065424	0.0202890774542972	0.109858883928088	-0.0717193139217276	0.00537941420144946	-0.0133121036647694	0.00726956850623642	0.454833984375	-0.606201171875	0.3798828125	0	0	0	-0.288458531242876	0.370774776449568	-0.682855972423919	-0.559486784318414	-0.207532427852486	0.550191489455067	0.808838436475955	-0.97800407920126	-0.0990012066436265	-0.183594068936883	-0.0209359130526359	-0.829149013154041	0.55863548180395	-18.1929715640839	-53.9825982768063	110.666493479509
28446	1652422938123	7.97680469200179	-1.72036883593147	5.52707948437975	-0.0895452106424819	-0.0247147999601569	0.0427203122885267	0.00925996887858012	-0.0109612417021911	0.00792104123055859	0.44384765625	-0.59912109375	0.390625	0	0	0	-0.288493264251915	0.370831354916567	-0.682881494110993	-0.559400221391407	-0.207686057577039	0.550043421845887	0.808899706745017	-0.977972814113251	-0.0991109970359756	-0.183701347632357	-0.0208728614117953	-0.829234131202161	0.558511485384035	-18.2066760320145	-53.9885686760001	110.68559389443
28447	1652422938123	7.90354325185248	-1.87732425356888	5.40789830232857	0.0801975215999809	0.0480452473390807	-0.0542568842312754	-0.0307063643707377	-0.0125113398085521	0.0168092036106028	0.453125	-0.6103515625	0.38330078125	0	0	0	-0.288418910962241	0.370995455433834	-0.682853516875099	-0.559363905108389	-0.207853106922498	0.549923009176171	0.808938668825573	-0.977931430088838	-0.0989487874186727	-0.18400884628945	-0.021147198090164	-0.82933335966124	0.558353807693595	-18.2399457583592	-53.9923657289272	110.704970280178
28448	1652422938124	7.90445269023702	-1.93230501175923	5.39617327404235	0.131828414303687	0.0618572497194399	-0.0499184976597018	0.0147436767238532	-0.0112417157399513	0.00865367582783685	0.441162109375	-0.60498046875	0.393310546875	0	0	0	-0.288469650492797	0.371034018075999	-0.682890135136602	-0.55926745078545	-0.208010358473015	0.549772343058115	0.809000656103762	-0.977900557119401	-0.099107351844646	-0.184087569368238	-0.0210283416724246	-0.829414313608544	0.558238036349885	-18.2507656933573	-53.9984074182305	110.724500506386
28449	1652422938125	7.8357238846882	-1.89717646769135	5.49255139469181	0.10924056415498	-0.0602850232659246	-0.058180703104675	-0.00759971720416587	-0.0106510707949479	0.0110420501636426	0.453125	-0.606689453125	0.39306640625	0	0	0	-0.288464252388062	0.371105691769011	-0.68289156528384	-0.559220931917813	-0.208120648798338	0.549673063207481	0.809039751265575	-0.977875966939891	-0.099105029683232	-0.18421939738491	-0.0210805318987102	-0.829480389566619	0.55813788126168	-18.2660278243943	-54.0022183416913	110.737981022571
28450	1652422938126	7.95516188639587	-1.83939457818334	5.3704113295826	0.0286295120832294	0.0990575232349295	-0.0403458485571395	0.00648841701883434	-0.0180395221782135	0.00717115182268837	0.453369140625	-0.603759765625	0.3896484375	0	0	0	-0.288504113517535	0.371197276438981	-0.682904694962343	-0.559123542740005	-0.208292480874656	0.549472302443952	0.809131899790155	-0.977840067160558	-0.0991868918362981	-0.184365841584853	-0.0210486452418617	-0.829603609764807	0.557955916895489	-18.2851481026149	-54.0112021887314	110.760581133873
28451	1652422938127	7.90457947929372	-1.82015380322894	5.49146798688636	0.0173036278583624	-0.0321682220390823	-0.0172688946029957	-0.00309009523266994	-0.00602802023118555	0.0100922029479264	0.450927734375	-0.6025390625	0.3876953125	0	0	0	-0.288497275786916	0.371239191916025	-0.682918547917193	-0.559082320557302	-0.208392561407581	0.549412381976116	0.809146819113391	-0.977818364108553	-0.0992168424515981	-0.18446480690367	-0.0210662564795249	-0.829639712589306	0.55790156849813	-18.2959733216704	-54.0126569025228	110.771777080127
28452	1652422938128	7.89502254741693	-1.84953265562457	5.4073260455751	0.0475742379350706	0.032983465211468	-0.0665099001930311	-0.00908722545394621	-0.0260389466557572	0.0118448367641505	0.452880859375	-0.604248046875	0.400146484375	0	0	0	-0.288518191543037	0.371417414348641	-0.682901487681408	-0.558973984716486	-0.208610675117819	0.549126970085264	0.809284348638886	-0.977769692867107	-0.099194377457488	-0.184734683238926	-0.0211663397273294	-0.829831335998948	0.557612714934612	-18.3298105970631	-54.0260691628715	110.801541610264
28453	1652422938128	7.9031686243213	-1.88831821036853	5.42459682261393	0.0818884454258397	0.0250522033457447	-0.0431051340918636	-0.010234002471496	-0.0108178886244451	0.0178881961794719	0.45849609375	-0.60595703125	0.380859375	0	0	0	-0.288493306569618	0.371508343484981	-0.682916897054978	-0.558907572414593	-0.208787875124309	0.549019509327443	0.809311560265223	-0.977730191048177	-0.0992077524373427	-0.184936463060229	-0.0212437452906079	-0.829900837590965	0.557506325571148	-18.3517581520217	-54.028723428661	110.821422413769
28454	1652422938130	7.88900289139812	-1.86233576006496	5.45165914993946	0.0559893900314563	-0.0101676823308767	-0.0442683520201328	-0.0055153982722884	-0.0202772140491636	0.0126265515291497	0.451171875	-0.607666015625	0.390869140625	0	0	0	-0.28849835787973	0.371669209350211	-0.682917293722494	-0.558797518119429	-0.209028062488532	0.548773064481945	0.809416699105835	-0.97767689076992	-0.0992146651291114	-0.185214328489402	-0.0213346278793987	-0.830062993948299	0.557261392643376	-18.3850145462527	-54.0389804325714	110.851873811917
28455	1652422938130	7.91520902180614	-1.87060430595169	5.42718791464942	0.0574640112389738	0.023100913481646	-0.0351505393829239	-0.0175166499747544	-0.0225124588568836	0.0180876627465703	0.450439453125	-0.6064453125	0.3828125	0	0	0	-0.288492749733566	0.371817934060445	-0.682902769352079	-0.558719218278243	-0.209209536955431	0.548568246510179	0.809508646382262	-0.977635359299584	-0.0991685180751442	-0.185458106509135	-0.0214586554580694	-0.83020388094945	0.557046714524378	-18.414198295011	-54.0479525852677	110.87553878467
28456	1652422938131	7.90504556932285	-1.8405836338824	5.42986025955354	0.026567869833077	0.00915433019676881	-0.0474384927561076	-0.0154217733427744	-0.023043765163966	0.0183419519794549	0.449951171875	-0.60888671875	0.376708984375	0	0	0	-0.288462574003873	0.372028305716938	-0.682900383215063	-0.558597663572955	-0.209515987299792	0.548300631695204	0.80961068937387	-0.977565602372835	-0.0991271799924408	-0.185847505348288	-0.0216458800520762	-0.830385584815504	0.556768566288888	-18.4588391202865	-54.0579121394676	110.912797331589
28457	1652422938131	7.90911932348159	-1.77859553430972	5.49100525719665	-0.0391895333027839	-0.0487638803681038	-0.0216305768679366	-0.0273071281659304	-0.0365639020656874	0.0340475264644452	0.455078125	-0.61376953125	0.380859375	0	0	0	-0.288447852462499	0.372272762500223	-0.682891881053856	-0.558452778219387	-0.209856661817642	0.547963178649034	0.809750910055433	-0.97748829414292	-0.0990869695990021	-0.186275084939588	-0.0218361238391886	-0.830613103255982	0.556421653420449	-18.5091677216645	-54.0716017918917	110.955632945944
28458	1652422938132	7.98936292453097	-1.73730981711535	5.48368293402525	-0.10204820420176	-0.0076479682310554	0.0315225209100696	-0.0333293346292518	-0.0369800117756204	0.0404091238440933	0.451171875	-0.599609375	0.38720703125	0	0	0	-0.28837531508772	0.372617873222863	-0.682897096048351	-0.558253664933476	-0.210385046472802	0.547552020086922	0.809891917183625	-0.977367206478758	-0.099017532286426	-0.186946174071081	-0.0221692562018966	-0.830892480167343	0.555991196405858	-18.584675341547	-54.0853727779439	111.01819412879
28459	1652422938132	7.86887231387607	-1.87447729986157	5.46040369362821	0.0515417330667851	-0.0449065307328651	-0.0533766664227233	-0.0756367862817423	-0.0292076393511083	0.0512751245605488	0.453369140625	-0.60888671875	0.378173828125	0	0	0	-0.288168332421485	0.373031902008398	-0.682856931226854	-0.558133159513803	-0.21089277688112	0.547258230759539	0.809958434442972	-0.977242155326638	-0.0986691526702722	-0.187782236017888	-0.0228474618265915	-0.831127443402798	0.555612424546835	-18.6738869076826	-54.0918705484991	111.074789834178
28460	1652422938133	7.9714218580334	-1.96791244641624	5.2784262659882	0.117329916518747	0.166752401276556	-0.0537708236307424	-0.0497927807346527	-0.0384924927407606	0.0488650418224177	0.44775390625	-0.6005859375	0.3876953125	0	0	0	-0.288051821536235	0.373424225752151	-0.682851114192284	-0.557938035607378	-0.211462593064474	0.546846161662175	0.810088172490992	-0.977108275396835	-0.0985189920879732	-0.188556162320387	-0.0233021433664528	-0.831416432164602	0.555160991462128	-18.75966079258	-54.1045470014506	111.141229427392
28461	1652422938134	7.97169723506277	-1.95368000592394	5.50571419537129	0.092120324188749	-0.0273621221369442	0.0700487386112805	-0.0336223025771775	-0.0268451363436076	0.0498684891539837	0.453125	-0.605224609375	0.3896484375	0	0	0	-0.287956615248364	0.373686102092893	-0.682888482497339	-0.557766084761171	-0.211955964849799	0.546573300174029	0.810143380212084	-0.976994840670126	-0.0985113835856272	-0.189147002640805	-0.0235743561639815	-0.831596738113442	0.55487936967465	-18.8231911468056	-54.1099424162075	111.19582239901
28462	1652422938134	8.01941530029161	-1.96540287355782	5.63369025217558	0.0819821664785263	-0.111922513644111	0.181963111235859	-0.0874196216304616	-0.0492382177071629	0.0557434680903681	0.44677734375	-0.606201171875	0.387939453125	0	0	0	-0.287752093542408	0.37425097510147	-0.682817668069815	-0.557579566043502	-0.212607520385402	0.546067354906936	0.810313819566539	-0.976833361289878	-0.0980824703326786	-0.190200981292309	-0.0243849655872003	-0.831979731074251	0.554269880595121	-18.9399601524512	-54.1266037755624	111.273104350479
28463	1652422938135	8.06034910507319	-1.97019070827762	5.43389348461106	0.0723203796483426	0.0707719970676305	0.105368059170964	-0.121409212130202	-0.0384117486218019	0.0714790547465815	0.447265625	-0.61083984375	0.3857421875	0	0	0	-0.287411087313154	0.374875418129292	-0.682734109265281	-0.557438269064479	-0.213314886143737	0.545677537137208	0.810390513773054	-0.97665094326326	-0.0974619941295721	-0.191452591320336	-0.0254891030142069	-0.832308347407472	0.553726575543719	-19.0729770614305	-54.1341032308006	111.351397049802
28464	1652422938136	8.02040035389421	-1.95544914228391	5.40407826424178	0.0531884256323793	0.0674842934365289	0.0537845181106427	-0.114614058145561	-0.0078575733801405	0.0830273263325988	0.453857421875	-0.611328125	0.385009765625	0	0	0	-0.28691746467524	0.375461900357653	-0.682755641071739	-0.557271445912018	-0.214253808070922	0.545507293543738	0.81025742725241	-0.9764135996748	-0.0969537939018976	-0.192915640159443	-0.0266793571363232	-0.832479281747369	0.553413459688304	-19.2181586333984	-54.1210903834885	111.442947531759
28465	1652422938139	7.98673221755155	-1.93123194505042	5.32827479210067	0.0258430310210868	0.106864496658526	-0.0200392069867998	-0.106772046244187	-0.0107134171291992	0.0910835479198592	0.44970703125	-0.607666015625	0.378662109375	0	0	0	-0.286485525513198	0.375986785406051	-0.682793427326931	-0.557093453982896	-0.215145854401667	0.545329953966619	0.810140421556994	-0.976189041178901	-0.0965616414588615	-0.194244189825561	-0.0276986861781391	-0.832641033522572	0.553119961742902	-19.3502106875791	-54.1096532509601	111.530433273602
28466	1652422938137	7.80896930542842	-2.01988782736832	5.3083914522973	0.13586177372907	0.0313421912487007	-0.157662296097893	-0.133537596029155	-0.000216104752536788	0.0951435188230705	0.450439453125	-0.615478515625	0.378173828125	0	0	0	-0.285907746079105	0.376653473800286	-0.68281194562737	-0.556917200591532	-0.216199984834514	0.545163143084293	0.809972045184283	-0.975915726072714	-0.0959507847189364	-0.195913099398142	-0.0290871477034431	-0.832820865693382	0.552777842812285	-19.5151214842238	-54.0932002457519	111.632212800446
28467	1652422938137	7.93327923508455	-2.05883063437147	5.26930431796431	0.134767716575532	0.132956039589905	-0.0707461392959772	-0.0818831670762138	-0.00844683325084053	0.0962946287700063	0.442138671875	-0.61669921875	0.3857421875	0	0	0	-0.285527327276334	0.377094110360323	-0.682913545066672	-0.556689560953373	-0.217141756207947	0.545000336218895	0.809829668036569	-0.975683030070215	-0.0957935293141935	-0.197145186536558	-0.029867750901796	-0.832945516383168	0.552548354619979	-19.6360260590559	-54.0792928614654	111.723573173104
28468	1652422938140	7.69456641477136	-2.09921957232665	5.29993173062723	0.211844251367485	-0.0222935430517407	-0.238922843980703	-0.0756187592199954	-0.0181231607182667	0.0803620116723409	0.44677734375	-0.6162109375	0.381103515625	0	0	0	-0.285174047126339	0.377610376605229	-0.682981372293429	-0.556437428131704	-0.218106302839518	0.544703437854807	0.809770217685752	-0.975442155188464	-0.0955755841084619	-0.198438679706378	-0.0306959694904807	-0.833164733117935	0.552172332651283	-19.7673292794266	-54.0734871366254	111.821802697259
28469	1652422938141	7.91753041530656	-1.98654368927959	5.45709245257239	0.038747510058523	-0.0461492466052037	0.00616501676528003	-0.0690942901898186	-0.0298452813995114	0.0715551103988952	0.44384765625	-0.60986328125	0.377685546875	0	0	0	-0.284948542683806	0.378031391481572	-0.68300737173797	-0.556235134838202	-0.218813605587806	0.5443864068455	0.809792594465712	-0.975264383211121	-0.0953894836520678	-0.199399672137201	-0.0313047735895889	-0.833393236383903	0.551793190153763	-19.8681670405811	-54.0756722837314	111.897433368296
28470	1652422938142	7.80948311495284	-2.10622612826134	5.3379995164059	0.170888987041238	0.000698034233759359	-0.123041383172184	-0.0875176420073554	-0.0305848468528743	0.0779362367216583	0.4521484375	-0.6142578125	0.383544921875	0	0	0	-0.284611139711018	0.378606794293218	-0.683032107031047	-0.555986092660723	-0.219751927840516	0.544001282247769	0.809797317310425	-0.97502412715228	-0.0950727201657505	-0.200721521893446	-0.032203131545129	-0.833680863876021	0.551306788934818	-20.0057134662184	-54.0761334957298	111.996481680174
28471	1652422938143	7.85306934514835	-2.09073093661379	5.26994179001249	0.139526247529325	0.0751725222355665	-0.12821442239451	-0.0441909888268266	-0.0394608697928407	0.0635634104282498	0.44775390625	-0.616455078125	0.383544921875	0	0	0	-0.284502575509421	0.378957891473589	-0.683069015268821	-0.555757070488609	-0.220384726260851	0.543611877466967	0.809886843397131	-0.97486986200239	-0.0950499901836224	-0.201480151691266	-0.0325472670184762	-0.833937423337587	0.550898402036796	-20.0889894730598	-54.0848771844278	112.068038303027
28472	1652422938144	7.9693476400717	-2.03292962585952	5.32217494764775	0.0455937233964496	0.0835952567051817	-0.0167813011041247	-0.0654510058940291	-0.0434650089645753	0.0657735473581586	0.435302734375	-0.611083984375	0.37939453125	0	0	0	-0.284279366140736	0.379496224445591	-0.683082917346165	-0.555486800606472	-0.221239312677213	0.543121196334723	0.8099830446485	-0.974652980887504	-0.0948340599670527	-0.202627905080392	-0.0332375295895693	-0.834281647384206	0.550335715236325	-20.2131838484205	-54.0942748662189	112.163424661361
28473	1652422938145	7.82210442841936	-2.11093188089071	5.33133477720207	0.145360815350254	-0.00127702896203179	-0.115092675150231	-0.0633465777809376	-0.0297676171271569	0.0686352158978176	0.446533203125	-0.61083984375	0.38427734375	0	0	0	-0.284074846533283	0.379892563443367	-0.683111063501003	-0.555285869377249	-0.221918169674089	0.542807998236123	0.810007285781674	-0.974479684873363	-0.0946784870207604	-0.203532129808956	-0.0337886036647329	-0.834503122310727	0.549966243615038	-20.3085623533394	-54.0966432632974	112.236395310036
28474	1652422938146	7.97683646418575	-2.20644186255609	5.15529545444473	0.19982766969814	0.233638948787851	-0.06687540879199	-0.0515793387260502	-0.0497415613119765	0.0708407259109094	0.446044921875	-0.624267578125	0.378662109375	0	0	0	-0.283909629084221	0.380367918309984	-0.683164443510192	-0.554979199932032	-0.222786820312122	0.542303883356748	0.810106493487988	-0.974264341768447	-0.0946366687266614	-0.204579796878419	-0.0342786384459612	-0.834835552087063	0.549431138467579	-20.4227335227434	-54.1063374227668	112.333616443558
28475	1652422938148	7.79028478552535	-2.18820374887561	5.30595746048108	0.212704744443555	0.00197442915064854	-0.138768350515447	0.00169069919018068	-0.00702937105655164	0.0447396082088838	0.4501953125	-0.608642578125	0.379638671875	0	0	0	-0.283853183332422	0.380444476619679	-0.683282255562301	-0.554810535007513	-0.223225281113455	0.542203635999855	0.810052893939868	-0.974165139078788	-0.0948945409085113	-0.204932447185333	-0.0342455205162011	-0.83487139321832	0.549378741043258	-20.4568133195468	-54.1010996191332	112.37696905659
28476	1652422938148	7.87068426236272	-2.03472142224723	5.40009809981489	0.0350192814216164	-0.0509200447602829	-0.0533329162116267	-0.0225337915241669	-0.0362566827187964	0.0486498420436715	0.440673828125	-0.620361328125	0.3701171875	0	0	0	-0.283756182452919	0.380816021244345	-0.68333909887336	-0.554535177274009	-0.223946332170859	0.54175333585359	0.810155147733276	-0.973988937474411	-0.0949397902586194	-0.205747383709048	-0.0345483716647874	-0.835158523465549	0.548923173766744	-20.5470029137949	-54.111092539198	112.45889186292
28477	1652422938149	7.91320340455411	-2.18061633381808	5.22246390465415	0.169547352931658	0.13148558452424	-0.0863330184449413	-0.0213421649420446	-0.0165783220364394	0.0320114861126284	0.4404296875	-0.615966796875	0.374267578125	0	0	0	-0.283692783871123	0.380979542585523	-0.683364062945106	-0.554424521450787	-0.224263708787036	0.541585293081944	0.810179707989794	-0.973909881218081	-0.0949360762907819	-0.206122984366845	-0.03471789433228	-0.835267928114001	0.548745985021555	-20.5874587624242	-54.1134930893962	112.493835433119
28478	1652422938150	7.89610438442795	-2.10120045603037	5.36239868900285	0.0859906827638662	-0.00434882909174465	-0.039693238878991	0.0152999087900715	-0.00642784589373788	0.0214750377908361	0.445068359375	-0.61279296875	0.371337890625	0	0	0	-0.283645563414266	0.381096966851764	-0.683467948911533	-0.554239893026884	-0.224726670665904	0.541417478027791	0.810163587170792	-0.973803333540337	-0.0951664856678678	-0.206519751092617	-0.0347129813923742	-0.835350497989709	0.548620592423579	-20.6280718886335	-54.1119174047032	112.541918168955
28479	1652422938150	7.90975204111665	-2.18318811852199	5.32182809990639	0.162981394852769	0.0444821201041798	-0.0339450987733283	-0.00182046659209709	-0.00393624458131565	0.0174776796104676	0.447021484375	-0.611328125	0.380615234375	0	0	0	-0.283620406139713	0.381138543323503	-0.683507758737708	-0.554175080421105	-0.224898890922813	0.541368597428016	0.810148462061437	-0.973763271239658	-0.0952467820670015	-0.20667158026812	-0.0347214695301017	-0.835373025794288	0.548585752028766	-20.643159456482	-54.1104390973369	112.559295917649
28480	1652422938151	7.85141060277785	-2.29389266248686	5.3146091906839	0.281001413662729	0.0279411579114378	-0.0622042803374612	0.00995986498526208	-0.00726850058702042	0.0117088061020233	0.442138671875	-0.614990234375	0.37353515625	0	0	0	-0.283610270484986	0.381242398654666	-0.683563895599951	-0.55403957311341	-0.225210731799488	0.541194378222283	0.810178234256473	-0.973691417433462	-0.0953887697846953	-0.206944452004345	-0.0347152689569811	-0.835469704764667	0.54843889588694	-20.6731790474518	-54.1133490409373	112.59397706976
28481	1652422938152	7.88054097219158	-2.28901491266221	5.34500766146753	0.26910273378503	0.017663714611003	-0.0229532613554184	0.0252439971351544	-0.00641587310499244	0.00128052311442	0.447021484375	-0.622802734375	0.379150390625	0	0	0	-0.283699741301223	0.381175205032448	-0.683606714043456	-0.553987166249181	-0.225225352833642	0.541140078567405	0.810210439212569	-0.97369730679999	-0.0956073653993465	-0.206815827275964	-0.0344542475089368	-0.835479890272326	0.54843983970818	-20.6613828563915	-54.1164969933611	112.5973358694
28482	1652422938153	7.88805577704063	-2.27716117168616	5.29796466828282	0.25567140727171	0.05893356463352	-0.0450635457297164	0.036871749967922	-0.00615300002481002	-0.00609480679258169	0.444580078125	-0.618896484375	0.37255859375	0	0	0	-0.283734828571424	0.381202582215934	-0.683681674252188	-0.553857839755991	-0.225472080792743	0.541004011732108	0.810232682673784	-0.973645808996197	-0.0958521693054609	-0.206944920845084	-0.0342954721083086	-0.835539957709506	0.548358276734897	-20.6760042227043	-54.118671374628	112.624714493737
28483	1652422938154	7.87844723429478	-2.18846253214544	5.3149089605809	0.17382396950858	0.03131105058408	-0.0619766065127276	0.0464269395265868	-0.00912007572805309	-0.0103575078977955	0.446533203125	-0.61328125	0.3740234375	0	0	0	-0.283914245258591	0.381054081060834	-0.683728790202133	-0.553809922351392	-0.225374542488778	0.540938212768324	0.81030374895158	-0.973684940076695	-0.0961847144240562	-0.20660623944839	-0.0338223752243466	-0.835544343932848	0.548380977292255	-20.6442395597737	-54.1256191328192	112.618386670377
28484	1652422938155	7.92551202832375	-2.2506000881431	5.35909720577522	0.221986912027621	0.0248616886131786	0.0132460446063849	0.038543166554544	-0.00105003828114303	-0.0145555498276176	0.443115234375	-0.622802734375	0.372314453125	0	0	0	-0.283972618679369	0.381052395823313	-0.683788137572041	-0.553707870987451	-0.225534290893853	0.54082085433099	0.81033763774843	-0.973654641114965	-0.0964133304877163	-0.206642467899405	-0.0336292055555457	-0.835593964330144	0.54831724695539	-20.6497515617365	-54.1289326639	112.637218874455
28485	1652422938158	7.95468326179814	-2.15253319650622	5.18281778140326	0.130685078516146	0.180008503822671	-0.0801388987168519	0.0812127472766012	0.00572045236629638	-0.0281028906466953	0.450439453125	-0.613037109375	0.375	0	0	0	-0.284231412913672	0.380718955904417	-0.683873143882975	-0.55369947047452	-0.225258800618669	0.540895821760036	0.810364228446922	-0.973744968798958	-0.0969399460225745	-0.205969372975346	-0.0328513086886292	-0.835484504265445	0.548531161056296	-20.5807837257794	-54.1315327973481	112.609533403079
28486	1652422938157	7.83739130377811	-1.99118133953567	5.3512828730862	-0.00368091157862335	-0.0391714768236853	-0.116080577405281	0.0719016895433194	0.0104198106710279	-0.0201350857098061	0.443359375	-0.618896484375	0.38134765625	0	0	0	-0.28434279419236	0.380590878670997	-0.683995273055754	-0.553579465750586	-0.225397900980353	0.540854927897388	0.810352844878552	-0.973728023439135	-0.0974007163434686	-0.205832059760124	-0.0323963362583939	-0.835457388156267	0.54859951692664	-20.5658639856301	-54.130419651408	112.623627167423
28487	1652422938157	7.98878735826831	-2.0604628574917	5.43539597055285	0.0317927722361506	-0.0195107527509903	0.067007315939092	0.0613382737858588	-0.0125820370977365	-0.0121484326788992	0.447998046875	-0.60986328125	0.37451171875	0	0	0	-0.284578696972026	0.380399136788677	-0.684060180327753	-0.553509829768267	-0.225283667159216	0.540761086575718	0.810447232432035	-0.973775049282139	-0.0978467301606676	-0.205397591983045	-0.0317714133595501	-0.83546601644969	0.548622923920266	-20.5252744550608	-54.1396502734273	112.616844802828
28488	1652422938159	8.09951441099418	-1.78903986481905	5.5833557664974	-0.263347571433139	-0.111436539286616	0.182055695103779	0.0165484954529699	-0.0160718324644167	0.0156870675559004	0.44775390625	-0.615234375	0.372314453125	0	0	0	-0.284568820008904	0.380536501436038	-0.68413987547636	-0.55332195739619	-0.225710796283978	0.540521583694789	0.810488157841266	-0.97367687643067	-0.0980535650761383	-0.20576403641082	-0.0317486494998806	-0.835596742415823	0.54842511550712	-20.5656269066051	-54.1436532094761	112.66442083357
28489	1652422938160	7.85466879348731	-1.84331200691611	5.50882294494672	-0.156820094091817	-0.178529565289921	-0.0461997636797271	-0.0706665290111145	-0.0221861707353796	0.0501835633864357	0.452880859375	-0.614013671875	0.373779296875	0	0	0	-0.28435376164552	0.380911457124779	-0.684112298938607	-0.553208606684725	-0.226206351455976	0.540286412048806	0.81050680411481	-0.973540834798036	-0.0977333986420458	-0.206558528680417	-0.0323871817501798	-0.835786321822332	0.54809880013824	-20.6496038328903	-54.1454771397316	112.718016828969
28490	1652422938161	8.06335531807546	-1.98889449464772	5.4058740872897	-0.069674478243855	0.0275208433899834	0.0964625611993508	-0.0718773260348392	-0.0598406163238702	0.0675486830808417	0.44384765625	-0.6123046875	0.38037109375	0	0	0	-0.284198773757522	0.381540378335276	-0.684088382401912	-0.552884329455295	-0.22709995047498	0.539576877861144	0.810729551312818	-0.97331010850861	-0.0974917158850874	-0.207756583550895	-0.0330612336312562	-0.836272777394674	0.547315993388991	-20.7863439343039	-54.1672719110265	112.825507733356
28491	1652422938162	8.00310776130026	-1.96017060615364	5.37470711266776	-0.0933424102970825	0.0125292663167353	0.0245173166337036	-0.100830248830389	-0.0243472595950657	0.0836128254132696	0.4375	-0.613037109375	0.37353515625	0	0	0	-0.283844227884351	0.382072301327386	-0.684091433862217	-0.552695323819071	-0.227920666650538	0.539290238388123	0.810689958302714	-0.973086307853199	-0.0970972711738551	-0.208986022018746	-0.033988338915035	-0.836503531797609	0.546906421710263	-20.9130522508172	-54.1633970813595	112.910416806299
28492	1652422938164	7.79410730672557	-2.04960746329574	5.42314822629467	0.025563114359226	-0.137483231589142	-0.0998112695278763	-0.113240328268985	-0.0488310929894129	0.0983626377141145	0.445556640625	-0.609619140625	0.375732421875	0	0	0	-0.283463989884867	0.382766702986506	-0.684105443615167	-0.552392577375446	-0.229021213798129	0.538788384743048	0.810713488290659	-0.972790692037571	-0.096704183090705	-0.210538762364139	-0.0350364540942109	-0.836872378226655	0.546275635046784	-21.0770400783341	-54.1656998353823	113.028748077803
28493	1652422938165	7.87999486857925	-2.12140976100004	5.26584043527812	0.0677774920412836	0.0402505266267745	-0.100965556917551	-0.118838063437866	-0.0537971207640476	0.0954326455404489	0.445556640625	-0.620849609375	0.380615234375	0	0	0	-0.283137416782489	0.383457601582811	-0.684064411968987	-0.552131643074023	-0.229967703868237	0.538244825982273	0.810806612257746	-0.972529605013337	-0.0962218330094747	-0.211961143195868	-0.0360696901868209	-0.837277651771268	0.545586942012194	-21.2312045858165	-54.1748146374042	113.134830321077
28494	1652422938166	7.95250459185154	-2.15808778300964	5.21440446148546	0.0754336487470573	0.118622341677433	-0.0623072410663301	-0.0800563382803129	-0.0545226669836571	0.0772805275215329	0.43896484375	-0.6298828125	0.37646484375	0	0	0	-0.28290854045364	0.384039146680903	-0.684064460361814	-0.551844639028862	-0.230860504226993	0.537698701472566	0.810915244660486	-0.972290519330788	-0.0959628563834183	-0.213171940494525	-0.0368045324318145	-0.83765818603381	0.54495338310999	-21.3641768384964	-54.1854499154	113.236227699994
28495	1652422938166	7.84467345182412	-2.26519336857518	5.24739472937705	0.192901588596669	0.0367662818454909	-0.108740830450758	-0.0837341095736821	-0.0499640361035085	0.0841853414898426	0.441650390625	-0.626220703125	0.373291015625	0	0	0	-0.282687391117088	0.384582539057177	-0.6840644792158	-0.551579457404793	-0.231695882144897	0.537198559280968	0.811008462411799	-0.972065097822005	-0.0957127456427379	-0.214309392976196	-0.0375028504702628	-0.838007624206356	0.544368219111499	-21.4887965541237	-54.1945782569492	113.33072934016
28496	1652422938166	7.85243347129781	-2.31249624214274	5.26006387854264	0.223164685302997	0.0285898872548015	-0.0850980434026613	-0.0584101216899097	-0.0500301948319952	0.0696531039469676	0.440185546875	-0.623046875	0.37353515625	0	0	0	-0.282418792068418	0.385145393429491	-0.684112198153163	-0.55126504709142	-0.23269294748382	0.536709692695292	0.811046668175277	-0.971798879827582	-0.0955397475506744	-0.21559010599703	-0.0382221056085302	-0.838340540833425	0.543805303613317	-21.6257131056753	-54.19832013609	113.439364585727
28497	1652422938167	7.89586138904076	-2.39711900998827	5.24445633845008	0.288135517022212	0.0670862937122061	-0.0398884415917244	-0.0585453657228209	-0.0528986237471061	0.0568771661552003	0.442626953125	-0.627685546875	0.3642578125	0	0	0	-0.282328654239666	0.385572258295722	-0.684081285734682	-0.551051140217984	-0.233266343719357	0.536211351418203	0.811211562724587	-0.971643738605323	-0.0953533489943935	-0.216370478727171	-0.038668567556535	-0.838680586067078	0.543249129255914	-21.716878083096	-54.2144738255191	113.510334590776
28498	1652422938167	7.85696048570449	-2.42877174259117	5.20291225344145	0.319806117713809	0.0776551751615455	-0.0868071738160214	-0.0410877759590278	-0.0435352239112588	0.0454701065612162	0.433349609375	-0.621337890625	0.367431640625	0	0	0	-0.282179102698149	0.386028568357092	-0.684093832530794	-0.550792634941656	-0.234004854588991	0.535729299064232	0.81131735230607	-0.971446079203654	-0.095218835412404	-0.217315182586386	-0.0391694170065609	-0.839003868588728	0.542713796825283	-21.8223083679466	-54.2248406979897	113.595552486516
28499	1652422938168	7.92106013472682	-2.31850957295459	5.18204350189755	0.194622800353305	0.114184464558741	-0.0699291939331257	-0.00818093557612867	-0.0496565668805379	0.0280340905373074	0.443603515625	-0.620849609375	0.37646484375	0	0	0	-0.282271688220077	0.386234091560637	-0.684084969974763	-0.550612090677588	-0.234298039258086	0.535285012891901	0.811525960011837	-0.971376809183776	-0.095299104231971	-0.217589465077078	-0.0391346825688073	-0.839278282636874	0.542291841091434	-21.8626565944016	-54.2452908861569	113.639335570435
28500	1652422938169	7.95834773684636	-2.14643872311904	5.29708681184205	0.0091312887579016	0.0170091796713268	-0.0146644813136731	-0.0100495589164589	-0.0346857719263504	0.0287127563498768	0.443359375	-0.6220703125	0.36376953125	0	0	0	-0.282216444579645	0.386482973490739	-0.684133249335676	-0.550405747393675	-0.234814783289668	0.534958043496682	0.811592206250669	-0.971245446173184	-0.0953688488755331	-0.218144598722976	-0.0392975932657317	-0.839478811145557	0.541969579221162	-21.9249529017727	-54.2517872449691	113.69861888148
28501	1652422938169	7.9150338982875	-2.18578036977101	5.20391679918642	0.057669884597351	0.0720650810385298	-0.0916984547871582	-0.0373380194696928	-0.0351826827500022	0.0339376103008304	0.4423828125	-0.626708984375	0.36328125	0	0	0	-0.282167492165308	0.386756475752284	-0.684105014346353	-0.550273808367243	-0.235160484380303	0.534629933451561	0.811708310197451	-0.97115035281842	-0.0952363285773665	-0.218625327763646	-0.0395795250941604	-0.8397028498086	0.541601869657627	-21.9821698607259	-54.2631753096663	113.742608738673
28502	1652422938170	7.91172785543638	-2.24829849649633	5.21265452285584	0.111857745392949	0.063452956603351	-0.0758752188981084	-0.0275715590152594	-0.0288929251345786	0.0266893456913245	0.43798828125	-0.623779296875	0.365966796875	0	0	0	-0.282084226886944	0.387117688593535	-0.68409703794043	-0.550072383237629	-0.235697724281742	0.534206188249054	0.811831467242325	-0.971005363853725	-0.095120536754549	-0.219318642287477	-0.0399395309900276	-0.839985614117256	0.541136768239189	-22.0623406171942	-54.275258617208	113.807606537884
28503	1652422938171	7.92094290268914	-2.39155167259959	5.1810038858048	0.246063683148393	0.10543984906961	-0.0539994494363487	-0.0469182701729369	-0.020822525950724	0.0281588087360696	0.447998046875	-0.628173828125	0.370849609375	0	0	0	-0.281970781690561	0.387377340599897	-0.684053952131577	-0.550001331667238	-0.235982026874157	0.534002986132882	0.81188256157743	-0.970919352285537	-0.0948746623080327	-0.219805390765037	-0.0403496511731958	-0.840142612449281	0.540862548525131	-22.1167203887254	-54.2802726758486	113.841183548079
28504	1652422938171	7.96011167076269	-2.05723146115228	5.3338127886353	-0.0974903959934052	-0.0360183197947994	-0.0129764092680329	0.0793063829028469	-0.0100862728751787	0.00111970394145769	0.447021484375	-0.627685546875	0.364501953125	0	0	0	-0.282133179153657	0.387274459587718	-0.684215813027062	-0.549789126279711	-0.236265571690486	0.533822879084826	0.811918538647416	-0.970874777038816	-0.0955008191512671	-0.219731110340041	-0.0397586084212983	-0.840186126585666	0.540838724343383	-22.1108467268614	-54.2838035926361	113.873783276549
28505	1652422938172	7.85340292736222	-2.20823168959668	5.25922782335525	0.07625751179158	-0.0174992633777247	-0.10673165696339	-0.0831010539079097	-0.0224868923517859	0.0249638464699606	0.446533203125	-0.62451171875	0.3603515625	0	0	0	-0.28193201727631	0.387658373609986	-0.684091309707101	-0.549776684652773	-0.236519869293433	0.533608289929253	0.811985556736199	-0.97078151907292	-0.0949331647645332	-0.220388149532284	-0.0405165849485358	-0.840386748554835	0.540470646009143	-22.1842006719475	-54.290381791799	113.905135585191
28506	1652422938173	7.92486891609441	-2.44400881200253	5.141627100847	0.287282765133541	0.137416181177155	-0.0601676353498526	0.01948357563916	-0.00654881621466965	0.00400546717788371	0.44775390625	-0.62451171875	0.373046875	0	0	0	-0.281963633087818	0.387784962661023	-0.684127387618946	-0.549626281994942	-0.236814919512669	0.533346271078376	0.812071701897683	-0.97071129879328	-0.0950675457488117	-0.220639380302705	-0.040475527066018	-0.840537873550079	0.540238664699815	-22.2156416193703	-54.2988389634016	113.942044396796
28507	1652422938173	7.91665023407439	-2.23899655621723	5.43693937982924	0.0794021086215213	-0.134616135770702	0.0474515768582044	0.0273004637279483	-0.00330281930799696	-0.0018985065037323	0.444580078125	-0.623046875	0.3623046875	0	0	0	-0.282052534154294	0.387701863388824	-0.684169118244625	-0.549587345871743	-0.236800234469588	0.53331679351663	0.812095343360795	-0.970725965777267	-0.0952820287649742	-0.220482276748545	-0.0402088089967751	-0.840532291317574	0.54026726620395	-22.2002990407039	-54.3011602322655	113.941901126106
28508	1652422938174	7.91762894538865	-2.5055148614148	5.17736403344748	0.346870967872378	0.107946747339473	-0.0331383352999701	-0.00130453627212223	-0.00588845431079982	-0.00413234528778724	0.443359375	-0.629150390625	0.37060546875	0	0	0	-0.282030201467539	0.387835014853208	-0.68415274635507	-0.549525237244667	-0.236961958182745	0.533156025754287	0.812153730876177	-0.970680775255152	-0.0952120297700101	-0.220711354345742	-0.0403467833198145	-0.840642207832184	0.540085933427983	-22.2278558791062	-54.306893649876	113.962823208173
28509	1652422938174	7.92914193752559	-2.32136843895895	5.3200060666013	0.16252256319277	-0.0224732767821292	0.0125651100083548	0.0788352436386684	0.0069346653169749	-0.0175917239865779	0.44775390625	-0.6220703125	0.369873046875	0	0	0	-0.282256427821246	0.387525609744465	-0.684265228048501	-0.549487314166126	-0.236790001048173	0.533226936083839	0.812157330840674	-0.970753313266731	-0.0957751867253554	-0.220147946593618	-0.039604295035632	-0.840533252312105	0.54031042149154	-22.1682992050412	-54.3072471779519	113.94456363685
28510	1652422938175	7.87617297182067	-2.26154987269701	5.32574529288207	0.117640141597037	-0.0607667977076624	-0.0405463927522547	0.0292355453388148	-0.00160157712540108	-0.0104938342198486	0.435546875	-0.616455078125	0.373779296875	0	0	0	-0.282275523876704	0.387542386397688	-0.684305777041337	-0.549415171680915	-0.236926995493926	0.533148491661146	0.812168876925031	-0.970723412240487	-0.0959077357440315	-0.220222076896569	-0.0395177901002381	-0.840567898544727	0.540262854730635	-22.1768037607187	-54.3083810610069	113.959986095708
28511	1652422938175	7.91166662434181	-2.40997461296653	5.09744001425812	0.265777612765782	0.165214058389412	-0.102465646451385	0.0634381200625413	-0.000516053353263267	-0.0165767061468857	0.4375	-0.617919921875	0.3671875	0	0	0	-0.282483023234988	0.387307603856664	-0.684380462453044	-0.549381055544681	-0.236767594785266	0.533155675994561	0.812210644607902	-0.97078696743188	-0.0963465516068424	-0.219749871121427	-0.0389071963011202	-0.84051315703459	0.54039232315766	-22.129056617851	-54.3124831166461	113.945392889512
28512	1652422938176	7.88358012440463	-2.24203310644036	5.2816699640431	0.106255135270482	-0.017926523185509	-0.0627145810168415	0.0909377673699762	0.0130419330769473	-0.0281713459930106	0.43896484375	-0.629150390625	0.3681640625	0	0	0	-0.282678012367184	0.386944694395674	-0.684546090500871	-0.549330132782783	-0.236659093081976	0.533322075365964	0.812133017176963	-0.97084510379715	-0.0970204173917771	-0.219195855440348	-0.0381085042309119	-0.840330055714102	0.540733889606353	-22.0660261298725	-54.3048595570813	113.929023384961
28513	1652422938177	7.84604206954819	-2.30842158227686	5.21282111625764	0.189048849041216	0.0291461165692092	-0.115981890290509	0.0774788636591607	0.0072757531118427	-0.0357352285004321	0.44189453125	-0.62109375	0.368896484375	0	0	0	-0.282934137722507	0.386612689368005	-0.684606673267652	-0.549356537276346	-0.236311337325928	0.533414447047361	0.812173614156721	-0.970958158643025	-0.0974760467427613	-0.218491817869571	-0.0373792190364917	-0.840218690575591	0.540957804261719	-21.9936877797798	-54.3088462898171	113.894127128628
28514	1652422938178	7.85023439682784	-2.24718188731602	5.12632763343865	0.136694026207853	0.0999963899019334	-0.172845706983944	0.117924397376525	0.00400593979841043	-0.0556349811046166	0.444091796875	-0.625	0.368408203125	0	0	0	-0.283234183053153	0.386258309917032	-0.684721676630097	-0.549307874623257	-0.236078512854186	0.533442904082619	0.812222631950413	-0.971049131509987	-0.098130753793836	-0.217793340930231	-0.0364762931539709	-0.840124409384559	0.541165831140502	-21.9224247797913	-54.3136604838535	113.872087110428
28515	1652422938179	7.83595254252288	-2.36377027469465	5.20100788751533	0.260732204932282	0.0438794758230326	-0.118868222341316	0.091503005234244	0.00857583049256757	-0.0660980488921368	0.436767578125	-0.617919921875	0.370849609375	0	0	0	-0.283582255756737	0.385832213099138	-0.684727624062719	-0.549420320338051	-0.235436831639109	0.533576202445168	0.812321324656648	-0.971236879782237	-0.0985416298693103	-0.21676824152436	-0.0356149078140214	-0.839991656724573	0.541429215109885	-21.8193383901645	-54.3233551186678	113.809140299511
28516	1652422938180	7.83976195048687	-2.66274864530979	5.08877681060286	0.562482511575545	0.171925120297971	-0.112079795927263	0.127656428212256	0.00247262675901537	-0.0814111743682513	0.444091796875	-0.623046875	0.373046875	0	0	0	-0.283984964172182	0.385391342891358	-0.684788231458769	-0.549446203921815	-0.234922818240064	0.533617895124164	0.812442743504675	-0.97139928193725	-0.0991647636406071	-0.215753991165629	-0.0345644979992731	-0.839891833306742	0.54165210589704	-21.718666587154	-54.3352852894333	113.761272749926
28517	1652422938180	8.04163278809651	-2.21577775468451	5.21378023363625	0.0937888355047694	0.13627524699258	0.0226377952542514	0.232684177851918	0.0389876180811874	-0.119143313299156	0.44189453125	-0.6181640625	0.366455078125	0	0	0	-0.284718106035226	0.384322905180922	-0.684962898014993	-0.549597428116173	-0.233756534207604	0.534060314869946	0.812488438561598	-0.971755073546217	-0.100477143122769	-0.213533184182395	-0.032403082452683	-0.839454539442667	0.54246300929802	-21.4864045039786	-54.3397760147202	113.638845238475
28518	1652422938181	7.94837544689727	-1.95026656733981	5.33406239418763	-0.130112689660795	-0.0344930290125196	-0.0446639373552866	0.181095783027454	0.0400307414267648	-0.113546087479766	0.449462890625	-0.619873046875	0.369140625	0	0	0	-0.2852052956816	0.383588575591884	-0.685080372261212	-0.549711403859334	-0.232950623564343	0.534390000140838	0.812503129058872	-0.971995972627906	-0.101354354284779	-0.212016801368775	-0.030948928513195	-0.839139215277769	0.543035487981121	-21.3271152696272	-54.341219841551	113.553290126925
28519	1652422938183	8.01707992575025	-1.95712992944007	5.39554104360015	-0.125164449302233	-0.0420763576510441	0.0462342381510705	0.130234602371181	0.0333676906126458	-0.0920743093848465	0.4404296875	-0.617431640625	0.374267578125	0	0	0	-0.285623162933469	0.382925054904078	-0.685123103322881	-0.549903759230482	-0.23205052876013	0.534759009409462	0.812517909930332	-0.972248070802161	-0.101948515821787	-0.210571101871102	-0.0297697988508322	-0.838832105952762	0.543575622245181	-21.1754426240321	-54.3426726018131	113.457698510513
28520	1652422938184	7.95056334830763	-2.02262491378439	5.29955120560067	-0.0334937584741551	0.013837867500012	-0.0460920543478256	0.120979017535352	0.0357194575010303	-0.0734988904110623	0.445068359375	-0.609619140625	0.379150390625	0	0	0	-0.285899019122575	0.38245983782132	-0.685219553925068	-0.549963986309258	-0.231602729255158	0.535002369773574	0.812485470724382	-0.972381939721153	-0.102528172433039	-0.20966959045524	-0.0288710773212402	-0.838606247409474	0.543972446636877	-21.0787361085657	-54.3394843327931	113.407804803882
28521	1652422938185	7.90786774828367	-1.98144016796855	5.37973387096935	-0.0547192881183063	-0.075116684874397	-0.0457346325252263	0.111765369799577	0.0277757846758244	-0.0626627372821556	0.44384765625	-0.6240234375	0.367919921875	0	0	0	-0.286228393776054	0.381917568895067	-0.685298878225091	-0.550070654251882	-0.230991163854574	0.535294300007331	0.812467288326595	-0.972556909206094	-0.103122491800377	-0.208563683416768	-0.0278592996429957	-0.838347042736206	0.544424554331323	-20.9613441043604	-54.3376973942351	113.341251074708
28522	1652422938186	7.96090040587062	-2.08058364448354	5.36927724614205	0.0362504601345424	-0.0247548351542162	0.0123809656609719	0.0874238115927817	0.0178108397099222	-0.05031775216956	0.445556640625	-0.615966796875	0.381591796875	0	0	0	-0.286428658730318	0.381631276204016	-0.685372329267586	-0.550073597580514	-0.230755321405564	0.535390176539405	0.812471132107548	-0.972630714830027	-0.10355321253545	-0.208005347870721	-0.0272300240955948	-0.83823271890251	0.544632384961692	-20.9027969006665	-54.3380751487404	113.316236726929
28523	1652422938186	7.93548925966004	-2.11955411256155	5.3843586170033	0.0871746546559955	-0.0437014030789479	0.00802051590921593	0.0760977550957819	0.0155639297059606	-0.0358047381404498	0.449462890625	-0.61767578125	0.376953125	0	0	0	-0.286649967718175	0.381283959535297	-0.685439451292816	-0.550115530429436	-0.23040939837502	0.535551705265916	0.812462848459689	-0.972731844034919	-0.103990890762854	-0.207312937943523	-0.0265380621162918	-0.838075334098981	0.544908676416511	-20.8295408286814	-54.3372610626275	113.278734181522
28524	1652422938188	7.906117732933	-2.17119000554986	5.34574759606605	0.148864543498339	-0.0197502299299535	-0.0262055399123113	0.0769441392774726	0.00672752383091579	-0.0290242032813222	0.44287109375	-0.6171875	0.3759765625	0	0	0	-0.286806816545905	0.381075857661789	-0.685532034142267	-0.550062606304866	-0.230345958255804	0.535580767614587	0.812461679635776	-0.972761382008499	-0.104424639704861	-0.206956005700306	-0.0260006382254468	-0.838002825761274	0.545046081380271	-20.7919541916111	-54.3371461962567	113.271878394121
28525	1652422938188	7.90969391633043	-2.21406999432684	5.31295697347935	0.196389610027702	0.0157524604121933	-0.032398205527981	0.0630439628034226	-0.0036142028885011	-0.0260479948530171	0.439697265625	-0.6103515625	0.37353515625	0	0	0	-0.287039132838525	0.380840175394341	-0.685573420941434	-0.550053071551804	-0.230100309391466	0.5355714645357	0.812537416980312	-0.972835599316755	-0.104804758564066	-0.206414290407274	-0.0253918160036299	-0.837961317100863	0.54513859404983	-20.7389472073484	-54.344589960261	113.250058625897
28526	1652422938190	7.91057285392617	-2.20803645547147	5.31415929847818	0.193216161621096	0.0151130604161193	-0.03233398835172	0.0754414818146276	-0.00469793917334	-0.0334782111949973	0.453369140625	-0.614990234375	0.37158203125	0	0	0	-0.287235224598135	0.380656994105343	-0.685656350766197	-0.549974133248761	-0.230048757014666	0.535510320044897	0.812592312615261	-0.972862708831693	-0.105257411191918	-0.206055883570053	-0.0248136889773968	-0.837943658317543	0.545192357177488	-20.7041252056261	-54.3499861618523	113.247775044542
28527	1652422938190	7.92283678553866	-2.12669187920245	5.33195184781481	0.117499093478955	-0.00055013410892131	-0.0295354630050806	0.0801334996288337	-0.00369089564244265	-0.0328318774579269	0.449951171875	-0.614990234375	0.373046875	0	0	0	-0.287526870161406	0.380353970458165	-0.685711486106312	-0.549962647744161	-0.229738770042834	0.535507435616622	0.812681908214103	-0.972955382333822	-0.105743886485881	-0.205368095035491	-0.024039998478605	-0.837884250281726	0.54531831218379	-20.6364861168812	-54.3587948673518	113.219881737017
28528	1652422938191	7.92773011921852	-2.06195440225989	5.3197981861372	0.0574131868863804	0.00327882273961353	-0.0455228185395544	0.0689665736429707	-0.0123167540776324	-0.0311836649428906	0.446044921875	-0.6181640625	0.376708984375	0	0	0	-0.287799388745525	0.38029667052527	-0.685717802532547	-0.549851843240552	-0.22966892464534	0.535188096692501	0.812911979374712	-0.972984693969025	-0.106074785744725	-0.205058345675601	-0.0235153216915455	-0.838046443216526	0.545091908450193	-20.615818117462	-54.3814232642494	113.225953321832
28529	1652422938192	7.96860320019772	-2.08374901300222	5.34569219439901	0.074351393700581	0.00594897343380276	0.00624872686110578	0.0602137326113173	-0.0106521458156741	-0.0268617406471706	0.442626953125	-0.613037109375	0.371337890625	0	0	0	-0.288048968679508	0.380091245921676	-0.685740127704351	-0.549835351421132	-0.229417755940543	0.535118545416092	0.813028680681667	-0.973058110983484	-0.106423462202616	-0.204528627194487	-0.0229217344120964	-0.838046650876056	0.54511687283276	-20.5661624870712	-54.3929060630443	113.205938492907
28530	1652422938194	7.91228597991786	-2.08162109402567	5.36213379668403	0.0859719567679615	-0.0395564779845033	-0.0310240638384602	0.0525394492719546	-0.0137184596486359	-0.0226473503813565	0.449951171875	-0.612060546875	0.380859375	0	0	0	-0.288178098599505	0.380084195703376	-0.685780033683842	-0.549722778375319	-0.229516500845788	0.53491392929096	0.813135452486245	-0.973041692593045	-0.106681742223676	-0.204472175006241	-0.0226283078281873	-0.838144435122388	0.544978775328183	-20.565735065349	-54.4034146664713	113.222808292374
28531	1652422938195	7.91989339456667	-2.17551750196165	5.29317762992914	0.181107428895854	0.0314919221575245	-0.0432695488575447	0.0348462269725442	-0.021062861050083	-0.0181582144851224	0.447998046875	-0.612548828125	0.380859375	0	0	0	-0.288376239581303	0.380008387694409	-0.685762836318288	-0.549692734217526	-0.229354084786815	0.534746917335796	0.81329111527882	-0.973088476746466	-0.106863046460713	-0.204154612302486	-0.0222602833505137	-0.838227906777745	0.544865539453685	-20.5403743024039	-54.4187400029726	113.214595577865
28532	1652422938196	7.93548749092239	-2.1993552272927	5.26400079857756	0.203295055904847	0.0651592899483724	-0.0416458193817295	0.0565015900941294	-0.0203041577140809	-0.0225070432708733	0.44091796875	-0.611328125	0.367919921875	0	0	0	-0.288578702046864	0.379933137386068	-0.685792742246893	-0.549601181332803	-0.22932174840507	0.534543779273781	0.813433761131258	-0.973106225879638	-0.107178705187133	-0.203904385212028	-0.0218130434081865	-0.838317167421801	0.544746287681852	-20.5214144479408	-54.4327888264167	113.219555653448
28533	1652422938197	7.92642934034763	-2.16172462998613	5.26854993950372	0.173823387528923	0.0518149364341078	-0.0543036929961538	0.057636845666271	-0.0173576322275284	-0.0311976119513717	0.44189453125	-0.615478515625	0.372314453125	0	0	0	-0.288851541840491	0.379750300933134	-0.685788131737874	-0.549589969054241	-0.229031305382659	0.534421636321315	0.813595830733148	-0.97318747607702	-0.107481149712305	-0.203356678924889	-0.0212319938195705	-0.838356318690429	0.54470899143513	-20.4721553928769	-54.44875649337	113.197998265545
28534	1652422938198	7.94269741633427	-2.17694170485399	5.31681270770737	0.185054500447987	0.0196034013327444	-0.0116984934723519	0.0526560330651938	-0.0149527742326646	-0.0317258732770432	0.45166015625	-0.608642578125	0.3818359375	0	0	0	-0.288998268084666	0.379755350246592	-0.685807297255427	-0.549485419310065	-0.22909155001941	0.5341849435623	0.813734298024267	-0.973179497630903	-0.107703295849459	-0.203277311705036	-0.0209458134376909	-0.838478649778577	0.544531750006303	-20.47093660454	-54.4624037119644	113.212647523956
28535	1652422938199	7.91101513006958	-2.18785617425333	5.23369597479651	0.210699458592453	0.0734737390088192	-0.0806448299304332	0.0695793601439811	-0.0114450614481358	-0.0401569371446497	0.449462890625	-0.614501953125	0.372314453125	0	0	0	-0.289299394447758	0.379504454693574	-0.685808982986073	-0.54949819662625	-0.228715184553318	0.534120780895704	0.813882273900903	-0.973282416628015	-0.108056201544463	-0.20259613715595	-0.0202657799620873	-0.838474119292388	0.544564458479786	-20.4068793125825	-54.4769931208549	113.181032063098
28536	1652422938199	7.93494241791619	-2.13098080105441	5.32268194856637	0.152854587651978	0.00432972021901756	-0.024329745284545	0.0786701827409519	-0.00742498043045173	-0.0459874114831291	0.451171875	-0.605712890625	0.373046875	0	0	0	-0.289583480412733	0.379334968631389	-0.685817353221577	-0.54945513689984	-0.228480920812853	0.53395345448823	0.814057846387219	-0.97335001632236	-0.108408068215603	-0.202082746594118	-0.0196523420938067	-0.838535270090559	0.544492778890943	-20.3618763345859	-54.4943101194986	113.166285026451
28537	1652422938200	7.97233652570079	-2.0556444875684	5.31681007685843	0.0784212514509398	0.0218103349282674	-0.0123984158642276	0.0666512018959955	-0.00583113343349035	-0.0438740429311758	0.45068359375	-0.607421875	0.379150390625	0	0	0	-0.289864356515672	0.379074146939834	-0.68581060136137	-0.549495464043106	-0.228066779635614	0.533939461932611	0.814183145869376	-0.97345979663038	-0.108715052235778	-0.20138783916044	-0.0190149512484171	-0.838504435532983	0.544562891887185	-20.2951787939205	-54.5066730975152	113.129255155751
28538	1652422938201	7.95197849689206	-1.98316289656048	5.32750732486685	0.018305594534209	-0.00662659928259934	-0.0377783188108527	0.0787175497037047	0.00167081021793476	-0.0473553444897974	0.442138671875	-0.601806640625	0.376708984375	0	0	0	-0.290174248307892	0.378843923120464	-0.685822342815647	-0.549476024616637	-0.227750007980894	0.533824367812234	0.814347271251382	-0.973547370282207	-0.109106760572387	-0.200751669019212	-0.0183153400542305	-0.838526838644578	0.544552375067292	-20.2366342006075	-54.5228725887395	113.104959779723
28539	1652422938202	7.96052761728918	-1.9061319852157	5.36826626956731	-0.0527420895973117	-0.0436252510539767	-0.0240748890643108	0.0448339909828388	-0.00302897654793984	-0.0411600991967637	0.441650390625	-0.611572265625	0.374267578125	0	0	0	-0.290380789016862	0.378654842140921	-0.68578477410539	-0.549544130619552	-0.227360491743092	0.533829811303872	0.81445253965938	-0.973646178607616	-0.109243518049671	-0.200197334265265	-0.0178976444574846	-0.838505567260829	0.544599015786358	-20.1836813333484	-54.5332661669329	113.069370669849
28540	1652422938203	7.97798387945974	-2.03855906267598	5.21957890839694	0.0776001566495089	0.105082495358028	-0.0643086951897604	0.04885446931324	-0.000525946806901657	-0.0423283887344319	0.450927734375	-0.608642578125	0.37646484375	0	0	0	-0.29050469106055	0.378533835350462	-0.685802366646126	-0.549540056655797	-0.227225501205115	0.533820033053881	0.814496619951512	-0.973683452631686	-0.109435723251225	-0.199910871509583	-0.017581401347004	-0.838486729046343	0.544638319933368	-20.1557890875307	-54.5376191797019	113.057483868469
28541	1652422938204	7.92601321660869	-2.01527773870602	5.36720294984413	0.0704644039771824	-0.0477036699669739	-0.0309363991843217	0.0704646130183491	0.00544135772239395	-0.0428823103236412	0.44677734375	-0.61083984375	0.381103515625	0	0	0	-0.290754910800055	0.378232055880689	-0.685820951838587	-0.54959231778577	-0.226819732153036	0.533898197675402	0.814558483857963	-0.973789508352646	-0.109777592270266	-0.199205606491526	-0.016935245151415	-0.838392267828313	0.54480418749984	-20.0847495459185	-54.5437291414121	113.017583288368
28542	1652422938205	7.96260304331336	-1.94107153999733	5.36149111140954	-0.00691057027105285	-0.0313360888024375	-0.0190485737554784	0.0402280971663459	0.00129334227222457	-0.0397640434940639	0.444091796875	-0.6123046875	0.392333984375	0	0	0	-0.290852661863551	0.378174926543169	-0.685798430034745	-0.549608012480563	-0.226671523408104	0.533854256117106	0.814628537249648	-0.97382699225764	-0.109829515102467	-0.198993634980606	-0.01676334173985	-0.838413448626636	0.544776908041911	-20.0660080841584	-54.5506490388693	113.005804972468
28543	1652422938206	7.9265559569076	-2.11856785034602	5.27248250836538	0.180790342204835	0.0443818044490507	-0.0616344296931146	0.0429487190953523	0.00301904210968318	-0.0411392818808198	0.44287109375	-0.611083984375	0.38037109375	0	0	0	-0.291031832883326	0.377977613404674	-0.685765934712854	-0.549689438502218	-0.226283986895376	0.53390954795646	0.814700037974506	-0.97392361842857	-0.109948889928045	-0.198454093106167	-0.0163811703407897	-0.838362592321794	0.544866792026957	-20.0128871008391	-54.5577131150941	112.968424424846
28544	1652422938207	7.97068107877531	-2.0810066071796	5.28584952799629	0.136305244143686	0.0553556311003505	-0.0259155661496209	0.0665622382089364	0.00168959476419549	-0.0508097865798952	0.44873046875	-0.6162109375	0.380859375	0	0	0	-0.291102420986806	0.377752804321135	-0.685828000509458	-0.549729163352589	-0.226114454910565	0.534109794102811	0.814615848804791	-0.973968817592562	-0.110201331574361	-0.198091920270829	-0.0160310834894164	-0.838201881626789	0.545124398646277	-19.9705609541834	-54.5493955829951	112.945285627357
28545	1652422938207	7.9469333380827	-2.11288861540991	5.37723524773407	0.178119649247003	-0.0286065674253459	0.0107620068768277	0.0516892410327008	0.0141953023848179	-0.0502917656146667	0.446533203125	-0.614013671875	0.375732421875	0	0	0	-0.291283153742138	0.377481379288399	-0.68580420780489	-0.549849544142457	-0.225639206304731	0.534270328788882	0.814642353646059	-0.974086195341111	-0.110346574193719	-0.197432817964972	-0.0155895036499101	-0.83808045517094	0.545323865273123	-19.902632079443	-54.552013965719	112.895866837373
28546	1652422938208	7.92110302514152	-2.11445634248167	5.24858561933836	0.189086213018682	0.0663342091831375	-0.080149631535015	0.0600631309634407	0.0106208173439672	-0.0566214681377259	0.45556640625	-0.611572265625	0.38671875	0	0	0	-0.291340124882031	0.377398619128131	-0.685791871435632	-0.549891555660492	-0.225480417294012	0.534319596431928	0.814654006487256	-0.974125039740311	-0.110379118586927	-0.197222861582804	-0.0154592486187019	-0.838044759573612	0.545382427827805	-19.8811588068552	-54.5531651896646	112.879521580015
28547	1652422938209	7.93297052634765	-2.07695997026719	5.3335820019396	0.15660445572879	3.2211538603083E-05	-0.0316675763872318	0.0744099131759451	0.0216764444334447	-0.0668776614617007	0.44873046875	-0.615966796875	0.37548828125	0	0	0	-0.291587592343357	0.377006420706411	-0.685776117529404	-0.550049044507707	-0.224845449255125	0.534560207362969	0.814671656959612	-0.974281785410046	-0.110624414764597	-0.196309045833867	-0.014816428971717	-0.837858952068932	0.545685669475089	-19.7860670850505	-54.5549090019428	112.812480513008
28548	1652422938210	7.95107919166636	-2.14525592828006	5.27450780937166	0.224218804832361	0.068164752995832	-0.0358121685095565	0.0671722595038787	0.0153533537449755	-0.0645343265228112	0.4462890625	-0.60400390625	0.380859375	0	0	0	-0.291705216197852	0.37685462670248	-0.685744389502512	-0.550130247706602	-0.224529554802475	0.534636541006043	0.814708689067017	-0.974358382435674	-0.110674601782416	-0.195900166150113	-0.0145678274818399	-0.837803617527042	0.545777314351798	-19.7449863825587	-54.5585679023739	112.780784856834
28549	1652422938211	7.94014658002658	-1.94154149917931	5.31241225779382	0.0373336821366729	0.0117340511077229	-0.0640623092642585	0.106923500365359	0.0294320509717637	-0.0768621966958231	0.457275390625	-0.614501953125	0.3779296875	0	0	0	-0.292033513745288	0.376316409988224	-0.685773193663297	-0.55028857272889	-0.223797827147165	0.534952296935669	0.814702751049399	-0.974540310891162	-0.111136892595153	-0.194730001675268	-0.0136277295381186	-0.837540823546855	0.546204772846312	-19.6218956042245	-54.5579811835748	112.702044912411
28550	1652422938213	7.92955759077207	-1.78309452690085	5.4170749164349	-0.109601742100236	-0.0971644565950565	-0.046390783299536	0.0779673624733944	0.0183705664627785	-0.064893167523191	0.45068359375	-0.614501953125	0.385986328125	0	0	0	-0.292218260591113	0.376100673700489	-0.685761421417432	-0.550352654499537	-0.223440887724837	0.535014267909113	0.814760027754438	-0.974628206612723	-0.111320477854705	-0.19418447436669	-0.0131919887660741	-0.837476856004914	0.546313542838286	-19.5675075025685	-54.5636408855373	112.667141391542
28551	1652422938214	7.94767629769488	-1.85219708371399	5.35771244197937	-0.037756631387117	-0.0274473749515488	-0.0505620009243444	0.058089020456621	0.0127803588879187	-0.0514885038068392	0.456787109375	-0.612548828125	0.382568359375	0	0	0	-0.29242093390251	0.375814199272227	-0.685743104288372	-0.550463513742651	-0.222959834907355	0.535161239172724	0.814795287237966	-0.974744995672758	-0.111507215326938	-0.193489881753404	-0.0126927313451174	-0.837358100824938	0.546507370081917	-19.496410730994	-54.5671253832303	112.617674168276
28552	1652422938214	7.96920648288079	-1.74894998128768	5.38035104806368	-0.141316336817136	-0.0456843382900079	-0.0406254610554892	0.0633740570599597	0.00845302344447162	-0.0438438992110427	0.45263671875	-0.6083984375	0.388916015625	0	0	0	-0.292491559422018	0.375725991971561	-0.685747939390621	-0.550480181519172	-0.222840514842992	0.535187937690001	0.814810392849548	-0.974774662918587	-0.111603097423213	-0.193285036093074	-0.0125084561983551	-0.837328262986906	0.546557333247725	-19.4756781551173	-54.5686182775288	112.605773670715
28553	1652422938215	7.9629266894369	-1.8056815165949	5.41956480196216	-0.0799140787730468	-0.0741239738118813	-0.0132747541594309	0.0364145515846987	0.005757840111362	-0.031168047956255	0.453125	-0.6005859375	0.386962890625	0	0	0	-0.292619612326015	0.375564263594633	-0.685734364949134	-0.550539396519997	-0.222560270723141	0.535252628471105	0.814844494127815	-0.974842505337372	-0.111715713580038	-0.192877394027549	-0.0122071980076487	-0.837271893147068	0.546650492785587	-19.4346220067764	-54.5719887230458	112.577744525
28554	1652422938216	7.98444474463553	-1.87458425959155	5.33537191694465	-0.0142832475939602	0.0168821316601787	-0.0284588791448641	0.032965306386041	0.0106913081049245	-0.0277745720922799	0.44921875	-0.60791015625	0.376220703125	0	0	0	-0.292656362974151	0.375448387110422	-0.685749133319786	-0.550580500906168	-0.22242673046531	0.535365483725862	0.814806816619428	-0.974874921550851	-0.111799241276191	-0.192665038295196	-0.0120514275392491	-0.837188585973938	0.546781523653849	-19.4105215633158	-54.5682648321789	112.561275762105
28555	1652422938217	7.93795866687288	-1.90628933594729	5.34868782227189	0.0302792808085547	-0.0142531985137278	-0.0529503377443241	0.0397989613368332	0.00747369332476385	-0.0234699323215052	0.45263671875	-0.60546875	0.38232421875	0	0	0	-0.29277326233646	0.375281561502632	-0.685765664524439	-0.550611496262444	-0.222221594088998	0.535436103146728	0.814816385799642	-0.974925731370114	-0.111981459559557	-0.192301770733813	-0.0117209825950411	-0.837119066896674	0.546895132914025	-19.3729275685431	-54.5692105785953	112.539875117131
28556	1652422938218	7.94883356597274	-1.9353642431852	5.3457199182774	0.0558379977481358	-0.00322451499443338	-0.0401144057360252	0.0278955585342671	0.0106301942977878	-0.0158167400314155	0.45166015625	-0.609619140625	0.38427734375	0	0	0	-0.292758647796428	0.375324197779064	-0.685783417315741	-0.550568093187985	-0.222334297807507	0.535382127568779	0.814821107666199	-0.974899746077091	-0.112013042649696	-0.192415080945287	-0.0117450039279198	-0.837149362871576	0.546848241403817	-19.3850298102066	-54.5696772607604	112.552208208189
28557	1652422938219	7.9023144401433	-1.96787634517157	5.35887266473164	0.100379394362566	-0.0343810480294328	-0.0645917641470479	0.0377570737210632	0.00427421029337005	-0.0202820490542068	0.45947265625	-0.60693359375	0.383544921875	0	0	0	-0.292874203229867	0.375179632418103	-0.68579976546232	-0.550584803815829	-0.222162149779113	0.535420986822974	0.814842528391245	-0.974942730473078	-0.112193234451406	-0.192092036381083	-0.0114302888512187	-0.837100379293216	0.546929889002176	-19.3522316460022	-54.5717944292691	112.535021180703
28558	1652422938218	7.91321666647017	-1.94314439276609	5.36520883776574	0.074066433280905	-0.0374892496954551	-0.057002774146369	0.0296808028610766	0.00297551523564737	-0.0213606819045485	0.44677734375	-0.605712890625	0.380859375	0	0	0	-0.292910284419784	0.375210824026992	-0.685781781707929	-0.550566754074023	-0.222159629179031	0.535331080749813	0.814902284415913	-0.974943517482325	-0.11218617368276	-0.192092165778863	-0.0114121374960097	-0.837158823890461	0.546840805628213	-19.3551618902665	-54.5777011400292	112.538197189618
28559	1652422938219	7.92790132833908	-1.96805151229595	5.33788147519261	0.0981459381034057	-0.00341801361245837	-0.0552194693399297	0.0303551081109009	0.00150468403724147	-0.0195463154359218	0.45556640625	-0.609375	0.379638671875	0	0	0	-0.293013300390566	0.375101571370717	-0.685781722082378	-0.550586456977627	-0.221995518374104	0.535344758424661	0.814938021845253	-0.974983756060745	-0.112306729096087	-0.191817293322107	-0.0111653589057202	-0.837133912959557	0.546884033898894	-19.3281066721447	-54.5812340910388	112.522693580868
28560	1652422938220	7.94960770022741	-1.92226847375293	5.34929273040834	0.0477385112321099	-0.00770593745138779	-0.0400739900270306	0.0352200920666068	-0.00102004476466581	-0.0172550991578183	0.43994140625	-0.608642578125	0.38232421875	0	0	0	-0.293036947302355	0.37515817890517	-0.685791057384521	-0.550523672449873	-0.222106067176044	0.535218007885453	0.814991152687389	-0.974958837892979	-0.112360053745723	-0.191912695610871	-0.0111426809145336	-0.837207801180439	0.546771376632548	-19.3406947515933	-54.5864870962139	112.537591041025
28561	1652422938222	7.94649732649226	-1.92358486705265	5.37372027232853	0.0519156519603396	-0.0292954575353105	-0.0290114700014641	0.025912617658133	0.00224221595411668	-0.0164734138620742	0.4560546875	-0.60546875	0.38720703125	0	0	0	-0.29311861282464	0.375068402814166	-0.685791892645431	-0.550540327322157	-0.221973653615543	0.53523312620931	0.815017299024246	-0.974991245998277	-0.112458082404886	-0.191690505577464	-0.0109438259897927	-0.83718497377224	0.546810344052378	-19.3186879606184	-54.5890724129676	112.524924707785
28562	1652422938224	7.96431645410556	-1.89103817243152	5.33194295170538	0.015223468279191	0.0118975035630621	-0.0435725771498276	0.0276940906522796	-0.00395073644809645	-0.0147343219743298	0.45849609375	-0.599609375	0.385986328125	0	0	0	-0.293067261933166	0.375105967118155	-0.685819364959448	-0.550507849228301	-0.222105375842055	0.53523532968967	0.814979965320651	-0.97496044456211	-0.112473242740768	-0.191838216230836	-0.0110151514430175	-0.837181528415054	0.546814186830701	-19.3323445099272	-54.5853809536435	112.536871463609
28563	1652422938225	7.93983575221241	-1.93550063154785	5.34549503303498	0.0657411152865729	-0.00735299867619942	-0.0475916012121385	0.0206694340925423	0.0042919248876305	-0.0134379684630395	0.457275390625	-0.610107421875	0.37060546875	0	0	0	-0.293120600236872	0.375033920140258	-0.685822192286438	-0.550525015806213	-0.22200504137669	0.535264210936086	0.814988334943699	-0.974984882058884	-0.1125435314316	-0.191672724427675	-0.0108738843086259	-0.837153616741798	0.546859744922013	-19.3154129410555	-54.5862084910714	112.526614003659
28564	1652422938226	7.91498965217074	-1.92641900034122	5.36862385943547	0.0621833233901406	-0.0442543124366912	-0.0569481358731849	0.0220833185331294	-0.00384085766002169	-0.0136328164307698	0.449951171875	-0.607421875	0.386474609375	0	0	0	-0.293242830971841	0.375145974606512	-0.685774092941003	-0.55044348780878	-0.22204121762505	0.534942031892089	0.815189990241997	-0.974977502377305	-0.11255492893087	-0.191703567602377	-0.0107966445573328	-0.83735799422262	0.546548279640301	-19.3284836750072	-54.6061520251777	112.542129824801
28565	1652422938228	7.94015859098126	-1.8774001650837	5.35563603092042	0.0105905898882259	-0.0257052623591542	-0.0529325571888677	0.0198623094402815	-0.00347218015204356	-0.0120934070278028	0.455078125	-0.61328125	0.39013671875	0	0	0	-0.293318299994262	0.375101934421703	-0.685766423920385	-0.550442844903101	-0.221954098766914	0.534901919185258	0.815240035138421	-0.974998966101791	-0.112622426576154	-0.191554705326015	-0.0106486685085338	-0.837374543369946	0.546525827363144	-19.3153212566205	-54.6111029353705	112.535690607085
28566	1652422938229	7.92291323288021	-1.85161585064299	5.40726531906737	-0.0134474656484338	-0.0814998024414532	-0.0437196473071157	0.0128954343417705	-0.00950141286247025	-0.013237883317755	0.452392578125	-0.599365234375	0.37841796875	0	0	0	-0.293230782403742	0.375217608907187	-0.685742164386207	-0.550440858039974	-0.222061140102214	0.534870304654834	0.815231627977565	-0.974971716780897	-0.112453215532381	-0.191792663555567	-0.0109087824167531	-0.837417477435761	0.546454908433725	-19.3398588881143	-54.6102711781385	112.546670658857
28567	1652422938230	7.94960135193393	-1.84939211679455	5.45987124286448	-0.0218812017631519	-0.113624159569755	0.00633585539310033	-0.0180639500362532	-0.0252789385986328	-0.0052018249298945	0.449951171875	-0.60400390625	0.381103515625	0	0	0	-0.293262759316451	0.375374433559707	-0.685650746010532	-0.550430779592704	-0.222045821750139	0.534639864984652	0.815386943611742	-0.974973233634931	-0.112239983013395	-0.191909822334865	-0.011083624802015	-0.837593219279111	0.54618197725566	-19.3597455211769	-54.6256399785563	112.554015406266
28568	1652422938231	7.97986755798905	-1.90682132098517	5.40132781159403	0.0249975969571836	-0.046529964347912	0.010031461903317	-0.0355723390167402	-0.0234863616082714	-0.00370382361882561	0.445068359375	-0.608154296875	0.379638671875	0	0	0	-0.293217457904976	0.375678785425849	-0.685538219887022	-0.550387428667148	-0.222194401489817	0.534312079290552	0.815561309694611	-0.974934393096137	-0.111878257092247	-0.192317926227036	-0.011514213166711	-0.837850737013585	0.545777945121405	-19.4111295824176	-54.6429007812564	112.580049793112
28569	1652422938230	8.08970088237786	-1.84854972188067	5.49969384231467	-0.0595783408793052	-0.0807521920578822	0.142058067225539	-0.0333041675384205	-0.0351894356245101	0.00685137349234236	0.443115234375	-0.61328125	0.38330078125	0	0	0	-0.293218496331581	0.375933934838771	-0.68543633328638	-0.550339552509729	-0.222298580704876	0.533983883682594	0.815747848899311	-0.974907016056349	-0.111600107160059	-0.192618083590221	-0.0118174049902537	-0.838097027825012	0.545393180091371	-19.4518393939189	-54.6613747402277	112.602061598541
28570	1652422938230	8.26822636961249	-1.81510137752224	5.65345415260749	-0.145748049211326	-0.122261669336943	0.364910797795083	-0.114821174157077	-0.0237218717179547	0.0404436587535926	0.4638671875	-0.6005859375	0.386474609375	0	0	0	-0.292638425951781	0.376656496599839	-0.685318888001897	-0.550300515149171	-0.223064189366043	0.533814345638824	0.815649809546146	-0.97471100279678	-0.110598453191386	-0.194181469709569	-0.0134472469065466	-0.838337775924398	0.5449852704512	-19.6112835768532	-54.6516643402431	112.678512531759
28571	1652422938231	8.07137394321915	-1.85986594751999	5.39103002012825	-0.0677713121705363	-0.00663821974615612	0.069859172532416	-0.17259364428951	0.00772848267064303	0.0742601127045653	0.447509765625	-0.603759765625	0.380859375	0	0	0	-0.291979994868475	0.377370753680597	-0.68520340177709	-0.550304729269382	-0.223824775080715	0.533771923572455	0.81546919234624	-0.974510766465148	-0.109512038420582	-0.195795504249914	-0.0152064494072933	-0.838507392362602	0.544677993726287	-19.7719989172133	-54.6337810114118	112.749601187249
28572	1652422938232	8.11532866994991	-1.79396039151038	5.30933204924425	-0.15608480889224	0.0740882396672988	0.0481436396932882	-0.140138500185786	-0.00587206359579887	0.0974058169377622	0.44287109375	-0.611328125	0.37646484375	0	0	0	-0.291459006379732	0.378035944840392	-0.685196900351034	-0.550132420202724	-0.224811935684066	0.53353409649303	0.815353274018906	-0.974262019929045	-0.10888628930105	-0.197376018112697	-0.0165260430157686	-0.838740212390948	0.544280944017543	-19.9324818615609	-54.6223078104719	112.848794646375
28573	1652422938234	7.78225780475571	-1.80539009508787	5.38660094559109	-0.0895826990131151	-0.169986077702877	-0.179334558420106	-0.187469026207433	0.025236687862955	0.12164046964896	0.443115234375	-0.61279296875	0.38330078125	0	0	0	-0.290610168694987	0.37882139248175	-0.685207262270837	-0.550028263074329	-0.226029279341015	0.533588023076708	0.814981341203387	-0.973945418174272	-0.107926524835249	-0.199454725826009	-0.0184685488851554	-0.838829951102175	0.544080164898519	-20.1324663443465	-54.5855169914066	112.957642525212
28574	1652422938236	7.68250862877383	-1.97775404294252	5.18946291511512	0.0807564208916778	-0.0431796978644401	-0.333523020573414	-0.186685338792936	-0.04233591935743	0.114690085888242	0.4453125	-0.620849609375	0.37939453125	0	0	0	-0.289792823254616	0.379887351492738	-0.685133204215278	-0.549816525986312	-0.227443814684923	0.533217860143431	0.814830058837811	-0.973572372574629	-0.106774775856351	-0.201881110062914	-0.0206433166177026	-0.839212643413388	0.543411439531903	-20.3803799194051	-54.5705619578057	113.100647620312
28575	1652422938236	7.91883320426193	-2.02552931550332	5.06109414739375	0.059913519484976	0.189111178974704	-0.200924063380558	-0.112153990758543	-0.0245806707374829	0.0943173930720132	0.454345703125	-0.61865234375	0.37939453125	0	0	0	-0.289371214349778	0.380512133209095	-0.685138260312143	-0.549600201094258	-0.228407838525772	0.532885735166767	0.814777670629086	-0.973322767412929	-0.106300270875631	-0.203329886754028	-0.021740509093008	-0.839483797144139	0.542949633572798	-20.5304854393295	-54.5653843950071	113.201155459651
28576	1652422938237	7.89166491513601	-1.95837208339589	5.34449474717396	-0.0218146461498132	-0.0751888558862355	-0.0827808561120431	-0.0805098567276666	-0.0208555325210514	0.0822751964702338	0.4443359375	-0.61376953125	0.36572265625	0	0	0	-0.288870982769928	0.381157852336416	-0.685158982638704	-0.549390039430388	-0.229448279776426	0.532628154186133	0.814653752385584	-0.973049927765715	-0.105778552353935	-0.204901771434613	-0.022963557711639	-0.839713133891675	0.542544493831654	-20.689953443161	-54.5531400857468	113.305658107415
28577	1652422938238	7.91678982737699	-2.07715478952275	5.37437958394232	0.0743198597457566	-0.0788980339135316	-0.0217567227833495	-0.123934654372574	-0.0226531294606174	0.0927945129680731	0.453857421875	-0.6142578125	0.37646484375	0	0	0	-0.288411865732326	0.381816118258581	-0.685139580024862	-0.549198327952757	-0.230399584557391	0.532314425460554	0.814590316590114	-0.97279562159508	-0.105195296823692	-0.206404040976958	-0.0241807783419839	-0.839985298664671	0.542070095085497	-20.845333143889	-54.5468734438451	113.404221172768
28578	1652422938239	7.84240893599418	-2.35598755738978	5.13299408459391	0.35313741128851	0.106635397648033	-0.155276046400706	-0.0972640169156697	-0.029386707800671	0.0849923822365052	0.44580078125	-0.615234375	0.37255859375	0	0	0	-0.288033084412313	0.382517826998629	-0.685118605108069	-0.548934924419053	-0.231414782073957	0.531815480319948	0.814628438939942	-0.97252663853239	-0.104701121562592	-0.207917321280421	-0.0252811388697886	-0.84036299896866	0.541434108624353	-21.0074002760835	-54.5506393269812	113.515838755644
28579	1652422938240	7.81739818758943	-2.30468071645689	5.16213149049508	0.298630933853999	0.058810669409751	-0.170165619740299	-0.034380270700869	-0.0330249296450723	0.0604243240593304	0.451904296875	-0.616943359375	0.3779296875	0	0	0	-0.287916564104142	0.382852217210156	-0.685165329332384	-0.548704568390477	-0.232054697483773	0.531447702737288	0.814686416132597	-0.97236568249249	-0.104694952809377	-0.208671862902395	-0.0256046262739458	-0.840596399059324	0.541056463783467	-21.090371901492	-54.5563672199926	113.588311888753
28580	1652422938241	7.87344943730548	-2.19001081252239	5.34079141329629	0.161386485797423	-0.0777269315777072	-0.051574915004883	-0.0266403172199516	-0.0260293557202946	0.0509735811512025	0.44970703125	-0.628173828125	0.376708984375	0	0	0	-0.287755054236422	0.383198778781785	-0.685206556989986	-0.54849585136031	-0.232698659603846	0.531131136924411	0.814709180755904	-0.972200678411145	-0.104621993961355	-0.209475724790392	-0.0260225808766811	-0.840805538616946	0.540711449403084	-21.1767463804235	-54.5586164851466	113.659140760986
28581	1652422938242	7.89782579982337	-2.26267729218416	5.22829177082759	0.223870847899165	0.0342380327802701	-0.0772313688888886	-0.0311792989123591	-0.0206388962165972	0.0326919145004462	0.446533203125	-0.619384765625	0.370361328125	0	0	0	-0.287657623194226	0.383448759107592	-0.685200900181104	-0.548379309737432	-0.233066448940294	0.53089607602223	0.814757256391472	-0.972103910668891	-0.104494363581492	-0.209987892131779	-0.0263442069649119	-0.840969847523618	0.540440281914193	-21.2336208943015	-54.5633670198474	113.701752234663
28582	1652422938243	7.92658581413938	-2.21406219468896	5.19039532943873	0.163707305322502	0.0732219805014926	-0.0843331337259414	0.0110308567668573	-0.0143334025792293	0.0240180368191685	0.447021484375	-0.6181640625	0.371826171875	0	0	0	-0.287511900429808	0.383697203678816	-0.685234782477643	-0.548239597149928	-0.23354050245625	0.530710657758724	0.814742309846362	-0.971980706635922	-0.104419600011884	-0.21059452286537	-0.0266896916433496	-0.841096156735163	0.540226726000595	-21.2971389401606	-54.5618900361198	113.752010119134
28583	1652422938244	7.90585760153352	-2.14284962161413	5.27633557151551	0.09509723042978	-0.0182926111993364	-0.0697551661832989	0.0122103229753774	-0.000893568882851703	0.0212755891033104	0.455810546875	-0.60986328125	0.371337890625	0	0	0	-0.287486705256802	0.383729226259825	-0.685309398817684	-0.548137120715947	-0.23379418238764	0.530652939398647	0.814707148728469	-0.971921143271363	-0.104595155614534	-0.210782220986637	-0.0266377841380067	-0.841110760440947	0.54020655042925	-21.3151424581897	-54.5584157050488	113.777249544087
28584	1652422938245	7.90105315446654	-2.26261633074078	5.20280188161675	0.213073298854751	0.0518401946788624	-0.0881239584779596	0.021875321460983	-0.00369553999361471	0.0151691324046796	0.443359375	-0.6259765625	0.376220703125	0	0	0	-0.287560406628063	0.383776676397453	-0.685371077940515	-0.547988102713812	-0.234036103648039	0.53043243907265	0.814781277257083	-0.971868347549523	-0.104849003874882	-0.210899505494453	-0.026438933802329	-0.841218232069351	0.540048950386455	-21.3316016995121	-54.5657408194637	113.807913912299
28585	1652422938246	7.89422397191622	-2.21700768672711	5.26151328367102	0.16907336885833	-0.00536507977685345	-0.0715990251422624	0.0474598288146271	0.00707832329930477	0.00280874487950635	0.44091796875	-0.614990234375	0.373291015625	0	0	0	-0.287640298284505	0.383640124292152	-0.685473463237774	-0.54791372042751	-0.234107227540171	0.530459911423278	0.814742958476023	-0.971861350564475	-0.105221620000773	-0.21074611731514	-0.0260637927487188	-0.841154381226907	0.540166627671806	-21.3132528783155	-54.561954131123	113.813248175165
28586	1652422938246	7.90412262791278	-2.20058719293072	5.19173967205855	0.150924282855454	0.0587805643395424	-0.104666710096742	0.0554439007648216	0.00157071581175066	-0.00545529926787205	0.44873046875	-0.62060546875	0.369873046875	0	0	0	-0.287582620497201	0.383587640760327	-0.685570325215237	-0.547859550823169	-0.234292297919598	0.530566223019839	0.814620526457575	-0.971818778700614	-0.105420868855524	-0.210842836668913	-0.0259880838155122	-0.841062377829498	0.540313516487779	-21.316879859968	-54.5498576707099	113.825733900128
28587	1652422938248	8.03928693496562	-1.97691747488115	5.38028310413605	-0.0997804228351757	-0.0498211344349031	0.0601715167536927	0.0788188810527041	0.0141421377389488	-0.00904127755636451	0.438720703125	-0.616943359375	0.37060546875	0	0	0	-0.287745708185484	0.383307793065805	-0.685711106543409	-0.547793593937416	-0.234249171723929	0.530665958174962	0.814567963021443	-0.971846647649902	-0.105994628432303	-0.210426310605745	-0.025326251169504	-0.840927333113716	0.540555086391713	-21.2698785395201	-54.5446654276906	113.81785768853
28588	1652422938246	7.81028672560458	-2.25677371843204	5.29674495001958	0.226758852117606	-0.069807254379085	-0.112541998467396	0.0134597701364124	0.0264397279215344	-0.0059256578988045	0.441650390625	-0.61669921875	0.37841796875	0	0	0	-0.28756201375617	0.383366701535497	-0.685742543866522	-0.547809477765546	-0.234425728629471	0.530829128273057	0.814410838786793	-0.97179593107549	-0.105869496448065	-0.210723321127386	-0.0256368114566498	-0.840840107451292	0.540676120796579	-21.2928715648351	-54.5291485536393	113.827299598636
28589	1652422938249	7.97705325666059	-2.36279103343864	5.17782872463992	0.297224179919117	0.133630211049789	-0.018818682004154	0.105361720977502	0.0314184485169799	-0.031771628800136	0.44384765625	-0.6142578125	0.37158203125	0	0	0	-0.287781238900553	0.382917023091242	-0.685896643997515	-0.547815941459127	-0.234159305640225	0.531097560947691	0.814312470945584	-0.971882902152929	-0.106544495420382	-0.209980701490443	-0.0247597270762373	-0.840585302780765	0.541113023927608	-21.2089079927045	-54.519437194776	113.79253707373
28590	1652422938246	7.84090286065793	-2.07236199786347	5.3427105272981	0.0484096288369197	-0.10195998300333	-0.10154702675848	0.125835896658124	0.0444227898475496	-0.0429481622378142	0.455078125	-0.6181640625	0.372314453125	0	0	0	-0.287924986063629	0.382403441318022	-0.686094641143491	-0.547851215078124	-0.233916497075364	0.531548554593752	0.814087959931409	-0.971962576642453	-0.107253308411114	-0.209249796753627	-0.0239127999731292	-0.840210010618871	0.541733620936787	-21.119530981881	-54.4972810041704	113.752667172374
28591	1652422938251	7.90142368413679	-2.10155926478237	5.37425116540166	0.0699758554067395	-0.0880068377335341	-0.0290799394580947	0.0885515292499332	0.0237790211969972	-0.0469415865617885	0.45068359375	-0.6123046875	0.378173828125	0	0	0	-0.288152583336438	0.382010662595292	-0.68616398095745	-0.547918729025271	-0.233506310199738	0.531769474120457	0.814061440857234	-0.972078911276047	-0.107705840093676	-0.208475519575058	-0.0231817460360214	-0.840012308483256	0.542071884760087	-21.0362526115634	-54.4946647245249	113.706850069694
28592	1652422938247	7.81630101055716	-2.3804313495022	5.13691943516337	0.374038302024338	0.09847047898352	-0.169070526108742	0.102866290480663	0.0257371592997203	-0.0558595239006187	0.455078125	-0.6142578125	0.378662109375	0	0	0	-0.28846805650984	0.381620698114432	-0.686217501256139	-0.547957447356882	-0.233057632519131	0.531865218421868	0.814127465055465	-0.972206742857861	-0.108216557313567	-0.207613163997152	-0.0223201493338766	-0.839886043553683	0.54230364628818	-20.9486269881668	-54.5011787529319	113.662517007708
28593	1652422938247	7.82891112908214	-2.22358322617885	5.32087566278337	0.225984931497565	-0.061449611620032	-0.0919352031925271	0.171903669236607	0.0202865952365015	-0.0780528024863698	0.446044921875	-0.61279296875	0.3740234375	0	0	0	-0.288995543731869	0.380907006711193	-0.686354412151445	-0.548004606606263	-0.232345053682873	0.532089904215491	0.814184321797622	-0.972411614278611	-0.109201606753268	-0.206132630843764	-0.020770855667725	-0.839616187858747	0.54278285588288	-20.7952735808436	-54.5067891410517	113.589210948892
28594	1652422938247	7.92379493282145	-2.13017483589223	5.37840255348848	0.124357796371261	-0.0662964132378658	-0.00292138880955228	0.143724030046735	0.00651853044242408	-0.0733598945088469	0.44677734375	-0.614990234375	0.384765625	0	0	0	-0.289480480337105	0.38040716440861	-0.686420179993278	-0.548013482743258	-0.231764548470807	0.53209412957338	0.814346996891172	-0.972575924280102	-0.109943223996411	-0.204959896096725	-0.0195260232210265	-0.839516720959638	0.5429828815408	-20.6800308381833	-54.5228455034962	113.536524496941
28595	1652422938248	7.98232846087135	-2.22122609404054	5.34634904640422	0.212448449952487	0.00544796866208823	0.0457953376473483	0.129514954293684	0.0160957014282124	-0.0783622054928865	0.447998046875	-0.612548828125	0.376708984375	0	0	0	-0.289906523407523	0.379850146878129	-0.686468281240036	-0.548114378988343	-0.231049670463972	0.532284200339605	0.814425920417147	-0.972768342328707	-0.110568986925772	-0.203706286828041	-0.0183793890418006	-0.839314022996777	0.543336147204854	-20.5519062309836	-54.5306376908816	113.464315131507
28596	1652422938248	7.96295552341879	-1.93788077405052	5.2222980219365	-0.0439178189085443	0.0738937525502925	-0.0952279188236069	0.206096929936501	0.0384245457108506	-0.0948444725190163	0.45263671875	-0.614501953125	0.376220703125	0	0	0	-0.290392567311724	0.379016374959928	-0.686653072615336	-0.548202792979259	-0.230291709239692	0.532723188075441	0.814353567894315	-0.972977340786627	-0.111640570563952	-0.202117483954112	-0.0167577734573104	-0.83889354979693	0.544037488724683	-20.3807308690183	-54.5234942075212	113.378418259567
28597	1652422938249	7.91396134090535	-1.72134479926534	5.53272832345895	-0.233674536428371	-0.230400762499685	-0.00977001044439518	0.14661157143489	0.0280761583072166	-0.0722622564598513	0.4453125	-0.609130859375	0.384765625	0	0	0	-0.290811887187593	0.378376545881495	-0.686766985625038	-0.548279803797914	-0.229635406035424	0.533008141516121	0.81435244297078	-0.973153731017402	-0.112440892548221	-0.200820470793867	-0.015472430379773	-0.838605608591125	0.54451927159436	-20.2441376433225	-54.5233831518402	113.307782757154
28598	1652422938255	7.99606587936684	-1.77516098379874	5.41147954358057	-0.189086307927547	-0.0751488760350419	0.0021465626352839	0.103672954230264	0.017811759632677	-0.067328048804692	0.44580078125	-0.6083984375	0.38720703125	0	0	0	-0.291063845909035	0.37801178011628	-0.686791352448206	-0.548367185287675	-0.229150535408628	0.533176556604747	0.814378776497181	-0.973278806683006	-0.112801048385988	-0.20001071957454	-0.0147782469746105	-0.838450167255113	0.544777863395926	-20.1602960919721	-54.5259829523982	113.257239566902
28599	1652422938256	7.95640588877669	-1.90786045542827	5.28360441248272	-0.0394247406227825	0.0293170187194517	-0.073160763427186	0.0983052673220037	0.0197256760490133	-0.0625544722467295	0.447509765625	-0.60400390625	0.38232421875	0	0	0	-0.291360482022467	0.377575277284214	-0.686827783130566	-0.548464744372267	-0.228590987392599	0.533380619426363	0.814402403792637	-0.973422678583544	-0.113246668328826	-0.199056476738786	-0.0139445079552599	-0.838260285909317	0.545091958998769	-20.0611634077914	-54.5283157188307	113.198526384366
28600	1652422938258	7.91758582031028	-1.85372372754032	5.4143426046988	-0.0770327407132793	-0.102776574712886	-0.0442147999568085	0.104208848940475	0.0176866307967818	-0.0565534579361686	0.44775390625	-0.607666015625	0.380859375	0	0	0	-0.291602424198548	0.377134178468169	-0.686916005921195	-0.54852915915377	-0.228167575519176	0.533640436895546	0.814350932701395	-0.97353339965333	-0.113771145978395	-0.19821414203379	-0.0131254425117751	-0.838023872245113	0.545475675265338	-19.9700573014705	-54.5232340541854	113.150001965856
28601	1652422938260	7.9288567944924	-1.87761461788628	5.41273410165743	-0.0487280851058542	-0.0902520900771439	-0.0311040083266167	0.0630015803338557	0.00638514214184775	-0.0459636345868342	0.450439453125	-0.605712890625	0.37841796875	0	0	0	-0.291816300802676	0.376879427314216	-0.686911890515499	-0.548595660319668	-0.227772096128538	0.533714643662632	0.814413010311894	-0.973632884972495	-0.114009397491471	-0.19758760736384	-0.0126046628414697	-0.837944232287388	0.5456102877063	-19.9073753652518	-54.5293629633774	113.111217150426
28602	1652422938264	7.94464215032456	-2.06048546388511	5.35846950726797	0.1307075794358	-0.015183634015322	-0.0117274164137378	0.0552951731733681	0.00702876367653023	-0.0451046199402968	0.451171875	-0.60693359375	0.382568359375	0	0	0	-0.29197409466565	0.376739405750654	-0.686890421659268	-0.54863475722157	-0.227502062425205	0.533707625611865	0.81449308281656	-0.973700213287553	-0.114134646646146	-0.197183105459704	-0.0122762468226744	-0.837931651627211	0.545637096397637	-19.8689138241607	-54.5372698637584	113.086961870085
28603	1652422938250	7.91634461483424	-2.05937274882813	5.33001246974942	0.142644627380738	-0.00512768700920047	-0.050608584861795	0.0756940101455007	0.00339201922563472	-0.0463637732754543	0.444580078125	-0.6025390625	0.3857421875	0	0	0	-0.292233529632458	0.376449507621011	-0.686904303777943	-0.548678238881216	-0.227103508673526	0.533756550672641	0.814572244163904	-0.973801224034597	-0.114475916780211	-0.196485217118363	-0.0116263673128852	-0.837853930641478	0.545770664740906	-19.7995991962419	-54.5450882964083	113.048852523709
28604	1652422938250	7.94605728775159	-2.04603496907165	5.36190726591848	0.127705958521552	-0.0159036803560445	-0.0116889878465081	0.0591130407716874	0.00403481246142325	-0.0465994235062834	0.44921875	-0.60546875	0.382080078125	0	0	0	-0.292389695428887	0.376243265787736	-0.686904871045673	-0.548735791697707	-0.226794593833788	0.533839268686826	0.814604104713254	-0.973877884250209	-0.11466007171854	-0.195997281924612	-0.0112284805786015	-0.837776045946299	0.545898541912764	-19.7499700842923	-54.5482354514563	113.01757391452
28605	1652422938250	7.92932038959356	-2.13148957955411	5.31988134777415	0.221230442993524	0.0212515781752821	-0.0316287044766934	0.0607129168043815	0.00141476136726068	-0.0465301125621089	0.450439453125	-0.612548828125	0.380859375	0	0	0	-0.29261477902463	0.376010154468479	-0.686887165526376	-0.548797755706141	-0.226395228856538	0.533872013206834	0.814693730100752	-0.973976526250078	-0.114874774136985	-0.195380430393646	-0.0107203854793319	-0.837725766454308	0.545985909665914	-19.6896906525363	-54.5570898651944	112.979991411882
28606	1652422938252	7.88726754845464	-2.15585418697003	5.30976865800244	0.258278146472621	0.0100475142271989	-0.0667381327577985	0.0705121093759819	0.000261954420949674	-0.0471957558714765	0.45263671875	-0.6083984375	0.38671875	0	0	0	-0.292779926688458	0.375879048391101	-0.686865417158665	-0.548826706912441	-0.226138320615892	0.533840489519113	0.814785733612842	-0.974039850445808	-0.115008373520491	-0.194985752719726	-0.0103841076906384	-0.837727524777696	0.545989711017803	-19.6528400736043	-54.5661812224393	112.957833242999
28607	1652422938254	7.95262639681773	-2.07372433361384	5.33322816911356	0.170255822121971	0.0169409051230457	-0.0168391620967014	0.0832074570546693	-0.00272195179468732	-0.0475888120942001	0.451416015625	-0.60595703125	0.38232421875	0	0	0	-0.29308234389526	0.375579476686899	-0.686880724760962	-0.548851224231404	-0.225730146713101	0.533839226679313	0.814899736730425	-0.974142080064719	-0.115404780702569	-0.194239399809036	-0.00964928557275391	-0.837673812799126	0.546085592776911	-19.5801704378795	-54.5774492911917	112.920728440876
28608	1652422938255	7.93530292221433	-1.9876208122563	5.39553182159377	0.0949752712438766	-0.0539464004496299	-0.0137334959386415	0.0771610137460631	0.000650148616232093	-0.0446123661685066	0.442138671875	-0.607421875	0.3798828125	0	0	0	-0.29328993233613	0.375383715302155	-0.686886998562603	-0.548866407317735	-0.225453365016781	0.533825869346528	0.814985105028941	-0.974210927190744	-0.115665466408145	-0.193738404098766	-0.00915693970496945	-0.837646369953938	0.546136163752438	-19.5318236926959	-54.5858891347507	112.896036978019
28609	1652422938256	7.92906882332572	-1.9979783478635	5.3676580540405	0.112821058546607	-0.0320366528761228	-0.0320920540224261	0.0594042536061061	-0.00693919831612392	-0.0380972458325445	0.44775390625	-0.6083984375	0.394775390625	0	0	0	-0.293523359975053	0.375191942389848	-0.686877165831888	-0.548885054062725	-0.225138469151029	0.533778021472505	0.815103486375337	-0.974288419735844	-0.115912407584584	-0.19320038544624	-0.00864551195486574	-0.83764272668056	0.546150087029376	-19.4812138714483	-54.597595671518	112.869187872152
28610	1652422938257	7.90883230620016	-2.03460391718388	5.35820676989805	0.154851667203647	-0.0291528688528117	-0.0466856610865687	0.0561954572116708	-0.00169364105905087	-0.0382918014630759	0.45166015625	-0.609130859375	0.390625	0	0	0	-0.293525263532008	0.375089468805355	-0.686880984170008	-0.548949290595609	-0.224995192046085	0.533929187609134	0.815044039408421	-0.974322128325826	-0.115925133491788	-0.193022676594086	-0.00857635183391336	-0.837544617345227	0.546301620119563	-19.4596491894279	-54.5917166380987	112.85032372229
28611	1652422938257	7.91212685005314	-1.91605483976829	5.35360565755181	0.0445878005261586	-0.0364874224683205	-0.0694442432439306	0.0766635729631916	-0.00143386982318366	-0.0448225304093291	0.46044921875	-0.603515625	0.38720703125	0	0	0	-0.29379863975277	0.374813824312709	-0.686893704657682	-0.548975404626791	-0.224616728788547	0.533935915412878	0.815144013889905	-0.974415082387308	-0.116281204437866	-0.192338058403986	-0.00791026955723373	-0.837490966952296	0.546393912767008	-19.3927590408271	-54.6016041441461	112.815568412611
28612	1652422938258	7.95222469551848	-1.81821134570567	5.47594334703847	-0.0556508218347535	-0.128258298449194	0.0112718709520436	0.0589586866142147	0.00540147409650093	-0.0377065679066321	0.45166015625	-0.60205078125	0.385498046875	0	0	0	-0.29395856246309	0.374641689973407	-0.686891195633602	-0.549010430729275	-0.224351821010179	0.53396259711125	0.815199488036901	-0.974479127604552	-0.116462302168651	-0.191903522731215	-0.00752929428887417	-0.837448790708893	0.546463935377006	-19.349911120061	-54.6070915897711	112.790389158206
28613	1652422938258	7.90236559837439	-1.8711887431643	5.35984015865096	0.012662776933759	-0.0509497483229927	-0.0826381541626979	0.0364136749683592	-0.0049168936417357	-0.0372567696737632	0.45068359375	-0.604736328125	0.3876953125	0	0	0	-0.294119235863862	0.37452517987103	-0.686843830518678	-0.549063126804069	-0.224047115757995	0.533931122990453	0.815303897833611	-0.974551361852224	-0.116521144853424	-0.19150056374336	-0.0072479674737656	-0.837460672929901	0.546449529474862	-19.3127626588318	-54.6174217064691	112.763798665869
28614	1652422938259	7.97843405306902	-1.82383171771971	5.37814914729018	-0.0478880321596742	-0.0311642510181818	-0.0196800017825609	0.0577874590187826	-0.00279063146451105	-0.0309838111749426	0.44873046875	-0.614013671875	0.390869140625	0	0	0	-0.294254838705385	0.374396720237445	-0.686860723737407	-0.549056947830402	-0.223901115875261	0.533915212069095	0.815354423935399	-0.974587398170273	-0.116727127829214	-0.191191477206594	-0.00690605802973981	-0.837442131702218	0.546482371547824	-19.2828209251206	-54.6224216093973	112.75108478458
28615	1652422938261	7.9434031507935	-1.7701681432397	5.48151831344793	-0.0892536120608964	-0.142842899993498	-0.00198808450217669	0.0324615932271583	-0.00963014424027119	-0.0253088964060402	0.459228515625	-0.603759765625	0.38671875	0	0	0	-0.294398152798213	0.374324686183338	-0.686831792947809	-0.549065428832342	-0.223713764980313	0.533830193542858	0.815461510937412	-0.974632178179441	-0.116816368349804	-0.190908494684656	-0.0066534664297333	-0.837483886739057	0.54642151388549	-19.2583697158307	-54.6330206316146	112.737236787197
28616	1652422938264	7.97355772554162	-1.88755713788304	5.34037415408559	0.0189584573524281	0.00399294193555908	-0.0321088984415603	0.0164250401443703	-0.00912847609596843	-0.0146053063641659	0.451904296875	-0.60400390625	0.38525390625	0	0	0	-0.294358784159048	0.374431984669543	-0.686779081859714	-0.549079309175607	-0.22372963684729	0.533757680132407	0.815504621995394	-0.974627055162751	-0.116625202183331	-0.191051473588875	-0.00686679990702227	-0.837556745012162	0.546307190089668	-19.2754653917999	-54.6372883632142	112.741460608337
28617	1652422938269	7.90291940006985	-1.91373784620273	5.37522698425834	0.0617101082568399	-0.0606631573265076	-0.0656825011603104	0.0323250146642628	-0.00826074191752089	-0.0162605934944955	0.456298828125	-0.60205078125	0.386474609375	0	0	0	-0.294479593491698	0.374370624731855	-0.686776795837001	-0.549059229095284	-0.223631463924514	0.533673257393047	0.815586796537606	-0.974651294938125	-0.116761196566347	-0.190844639043991	-0.00661978990716244	-0.837591593391367	0.546256808709691	-19.2577797747239	-54.6454243822025	112.73572689615
28618	1652422938273	7.94402239880097	-1.93702076326268	5.40110051404548	0.075845354328109	-0.0595862285793153	-0.0135994274492184	0.0213707603974544	-0.0168384640128219	-0.0161157233557917	0.45654296875	-0.604736328125	0.387939453125	0	0	0	-0.294577416243903	0.374433433343239	-0.686735791250786	-0.549015211855753	-0.223612885980097	0.533457525145787	0.815733011523369	-0.974656058544127	-0.116763802291553	-0.190818715061301	-0.0065455914078934	-0.837728645409569	0.546047499667721	-19.2621936967053	-54.659905009328	112.742288451421
28619	1652422938274	7.92739004779784	-1.97321446798553	5.36647233375899	0.116964906297836	-0.0366032558298647	-0.039198107913883	0.0240148446132302	-0.0114059677221139	-0.0210020215500402	0.451171875	-0.598388671875	0.38720703125	0	0	0	-0.294695003907314	0.374402806164415	-0.686700039009648	-0.549017713587119	-0.22346880967928	0.533351697823462	0.815841686560178	-0.974690243525588	-0.116804177807567	-0.190619288695369	-0.00637340384377572	-0.837790397698332	0.545954786816559	-19.2465709823688	-54.6706711540547	112.7331766809
28620	1652422938275	7.94963901784851	-1.92713003602526	5.37606629656823	0.0687434529784914	-0.0394875979119352	-0.0246133223115006	0.0393666148757616	-0.0164825328048905	-0.0175500250139615	0.4580078125	-0.607177734375	0.390380859375	0	0	0	-0.294845666511073	0.374364400177514	-0.6867017870174	-0.548960822396717	-0.223416096826322	0.53318531330802	0.815964870169985	-0.974704197661449	-0.1169866227065	-0.190435966059139	-0.00608068582002341	-0.837870844331246	0.545834657638742	-19.2333419623247	-54.6828780763789	112.734730712903
28621	1652422938276	7.91507328848177	-1.93815500867838	5.39319758843248	0.0896301969562754	-0.0720870087043202	-0.0413937324560081	0.0254303318661493	-0.0104687686984693	-0.0226079109541721	0.44921875	-0.601806640625	0.385498046875	0	0	0	-0.294966887185759	0.374324183186914	-0.6866655267004	-0.548968483418362	-0.223256279354575	0.533088987390788	0.816071544199047	-0.97474194384277	-0.117030020189587	-0.190215975375476	-0.00589717240470167	-0.83792607424348	0.545751882690788	-19.2154534073765	-54.6934519426343	112.723808527326
28622	1652422938278	7.9024872917996	-2.02352172153275	5.32622793628104	0.177076335138063	-0.0138821426281331	-0.0719943958567768	0.0376434769668591	-0.0155245894495067	-0.0231451161351773	0.44873046875	-0.611328125	0.384033203125	0	0	0	-0.29506436633325	0.374321542190077	-0.686637106119423	-0.548953447272849	-0.223174264895226	0.53296571555702	0.816174487183512	-0.974761510161821	-0.117066991559396	-0.190092918843075	-0.00576591671141502	-0.837999323107141	0.5456408055456	-19.2075559364578	-54.7036585891445	112.7210290732
28623	1652422938279	7.97156667533559	-1.93066549487153	5.40003857693518	0.0744416929233015	-0.0506814680915834	0.00696887235226207	0.0550817245108854	-0.0135632691811366	-0.028206050208382	0.453125	-0.605712890625	0.381103515625	0	0	0	-0.295287754944124	0.374180161192813	-0.68663638791454	-0.548930614505561	-0.222960644477212	0.532849829233102	0.816308526539176	-0.974813108206127	-0.117328774856536	-0.189666451066536	-0.0052872567382663	-0.838036406176318	0.545588697499559	-19.1693084476086	-54.7169522459308	112.705923661477
28624	1652422938280	7.94342402411816	-1.94211059233153	5.29313150609129	0.0924494096707124	0.0233174402868064	-0.072157211674579	0.0393070642608647	-0.0142955653722699	-0.028327759550206	0.4580078125	-0.603271484375	0.386962890625	0	0	0	-0.295309638023868	0.374286375167333	-0.686568193118794	-0.548931729135696	-0.222932348876614	0.532697382900679	0.816415743402296	-0.974818878772402	-0.117167332224386	-0.189736580153481	-0.00541492504784835	-0.838155901076995	0.545403854108621	-19.1819029722858	-54.727588859859	112.709172294381
28625	1652422938281	7.95566096396581	-1.90611084024514	5.37465170067818	0.0581576079467475	-0.0433799299086826	-0.0245611770011926	0.0548870417727955	-0.0100024432443486	-0.0299222477094891	0.45068359375	-0.6015625	0.377197265625	0	0	0	-0.295522587211489	0.374134705083941	-0.686567604636036	-0.548921257708168	-0.222703706567823	0.532612594052965	0.816533455369175	-0.974873618101021	-0.117417350575671	-0.189300276054778	-0.00494851609863078	-0.838174797067987	0.54537924579916	-19.1418071992135	-54.7392698726406	112.691487852846
28626	1652422938282	7.96012710679364	-1.89690787677298	5.35100371596682	0.0509926079104687	-0.0241625896591118	-0.0355744287815671	0.0475523670234243	-0.00895925100947392	-0.0343792930543568	0.45458984375	-0.6103515625	0.378662109375	0	0	0	-0.29569498709168	0.374109751821451	-0.686525887400388	-0.548897598947247	-0.222551800957597	0.532420065946971	0.816700415861013	-0.974909578889833	-0.117506638924079	-0.189059521838001	-0.00469136220916638	-0.838284595579442	0.545212736401886	-19.1246458019236	-54.7558437860791	112.684947099519
28627	1652422938283	7.93263837432358	-1.88835077676819	5.39793205307339	0.0529660402724894	-0.0792100514530125	-0.0340776196873396	0.0511086465064612	-0.00316737778903643	-0.0337491695493546	0.45361328125	-0.60595703125	0.383544921875	0	0	0	-0.295881050488678	0.37394760429882	-0.68651736186017	-0.548918486722248	-0.222285797792548	0.53239612278635	0.816788462542041	-0.974972162736987	-0.117703368347462	-0.188613888586245	-0.00427854971843084	-0.838272202522381	0.54523518640178	-19.0821019794855	-54.7645867789493	112.661490912907
28628	1652422938284	7.96130654740941	-1.83225733230518	5.36057363444534	-0.0071128833212958	-0.0411922825636567	-0.0416296581249504	0.0529133164921813	-0.00933400126089268	-0.0319717150317492	0.452392578125	-0.6103515625	0.387939453125	0	0	0	-0.295969510025806	0.374006745441986	-0.686457420830526	-0.548905468077773	-0.22220967249881	0.532211277403259	0.816929628335735	-0.974989650182504	-0.117643482956428	-0.188560846823722	-0.0042477623485771	-0.838397976573579	0.545042006997955	-19.0833961977943	-54.7786084172463	112.661587288092
28629	1652422938285	7.95460699106605	-1.78121380270787	5.41749793202286	-0.0517695056597048	-0.0984098582435944	-0.0256851347584899	0.0398098297104856	0.00224343280486803	-0.0276906740766616	0.453125	-0.6025390625	0.382568359375	0	0	0	-0.296093989163257	0.373879033240291	-0.686452061524007	-0.548932040706439	-0.222003928534506	0.532224393125791	0.816977019919857	-0.97503773079227	-0.11777616637834	-0.188229110832206	-0.00395970285591679	-0.838371021681395	0.545085636169389	-19.0508302735258	-54.7833167923038	112.642221451473
28630	1652422938286	7.90606925548868	-1.88051330188146	5.36939970723103	0.0560831227518204	-0.0728150218448442	-0.0728585263911121	0.0372569738238464	-0.00840707512817517	-0.0265889018846324	0.45849609375	-0.60302734375	0.384033203125	0	0	0	-0.296103006466911	0.373936356845417	-0.686397734432022	-0.548956064505185	-0.221940497608472	0.532157038979733	0.817038127253329	-0.97505175693658	-0.117637680544312	-0.18824305408446	-0.00406039606373765	-0.838433218557374	0.544989221180867	-19.0552672037175	-54.7893886423873	112.638980719617
28631	1652422938287	8.01278025128989	-1.7791829958708	5.32549361233245	-0.0629936077854613	0.00889435628276076	-0.0286711788775662	0.0484338578367462	0.00201122518940675	-0.0230830847682958	0.45458984375	-0.599365234375	0.376953125	0	0	0	-0.296242640994467	0.373787456712493	-0.686420824896959	-0.548953263956786	-0.22178122329563	0.532162337855962	0.817077924779009	-0.975089471244417	-0.117866502391196	-0.18790425935127	-0.00368945277470667	-0.838397718139633	0.545046469722059	-19.0215849700444	-54.7933435616863	112.624168829804
28632	1652422938288	7.95879324335026	-1.71117232264219	5.40376201432405	-0.116389726812837	-0.0954695882485888	-0.0429134283930672	0.0292240892613894	-0.00286104982367545	-0.0183178202434111	0.460205078125	-0.60595703125	0.38671875	0	0	0	-0.296349911821978	0.373842482648011	-0.686394028336889	-0.548891397085193	-0.22178992793794	0.531935180793442	0.817223464726467	-0.975087927865632	-0.117920064746872	-0.187878661004384	-0.0035722256353885	-0.838534329508542	0.544837055861355	-19.0259645133676	-54.8078100368182	112.633655013582
28633	1652422938289	7.96403237216566	-1.81288704833355	5.36310965557561	-0.0170161739806411	-0.0468334151793414	-0.0416672959703721	0.0150970585589418	0.000671857107091579	-0.00902626599634383	0.45263671875	-0.59912109375	0.380126953125	0	0	0	-0.296376322170929	0.37383365224529	-0.686390779872265	-0.548887213744067	-0.221767804489417	0.53191135949504	0.817244973390526	-0.97509313131978	-0.117942454074445	-0.187837596822053	-0.00352507374821648	-0.838546291606513	0.544818952210763	-19.0226916345594	-54.8099484083929	112.632536294022
28634	1652422938290	7.92865150728528	-1.8254152921889	5.38107865836845	0.00218097000930523	-0.0809123287620133	-0.0584518067656336	0.0265109013253285	-0.00305552324137764	-0.00962066884391884	0.451171875	-0.60546875	0.3876953125	0	0	0	-0.296419123896281	0.373899639509702	-0.68638012091969	-0.548832480971516	-0.221837221638424	0.531753402170563	0.817328921778606	-0.975077416444967	-0.117963934810332	-0.187905673206197	-0.0035041453672548	-0.838643445907793	0.544669525126154	-19.033934909675	-54.8182955629774	112.644952308496
28635	1652422938290	7.95071419371721	-1.83434271621602	5.38265184538983	0.00690754523870819	-0.0697304068267614	-0.037888133821248	0.0213876240598757	-0.00086478069412132	-0.00834227022874919	0.4560546875	-0.599853515625	0.38037109375	0	0	0	-0.296466624163721	0.37387535987948	-0.686387858562528	-0.548813687556992	-0.221822154214127	0.531714971901165	0.817358012474306	-0.975081235107027	-0.118041503250171	-0.187837132784212	-0.00339364729431346	-0.83865689776367	0.544649512063914	-19.0281403730258	-54.8211885109831	112.645040873253
28636	1652422938292	7.93330335041985	-1.87195819612746	5.34916572116646	0.0459156467541704	-0.047545877272743	-0.0632907423637654	0.0131977302624397	-0.00236672428608677	-0.00755841848832972	0.452392578125	-0.602783203125	0.38525390625	0	0	0	-0.296414385867896	0.373988766208414	-0.686362505682627	-0.548796342365302	-0.22192217291405	0.5316351643963	0.817382775171111	-0.975057766224936	-0.117909954712751	-0.188041471766404	-0.00359189275244604	-0.838725994921439	0.544541829200933	-19.0508442332904	-54.8236512208881	112.657277433828
28637	1652422938293	7.94490434406959	-1.90298128771885	5.34562561434333	0.0739288736496178	-0.0353143698911654	-0.0499089024185739	0.0173916725393404	-0.003390518548587	-0.00710159984969268	0.451904296875	-0.607421875	0.38818359375	0	0	0	-0.296456851993249	0.373987775361406	-0.686362329357553	-0.548774299348424	-0.221920206561798	0.531573535649486	0.81742338975385	-0.975058489919888	-0.117959824509745	-0.188006438817339	-0.00351612780147653	-0.838758043775877	0.544492957572959	-19.0491371958285	-54.8276907642816	112.659458302623
28638	1652422938294	7.94518967202102	-1.90133112282356	5.34578873058581	0.0700405907764161	-0.0357595853409901	-0.049881853251664	0.018122473100211	-0.00100617295015618	-0.0105428007780381	0.448486328125	-0.607177734375	0.3896484375	0	0	0	-0.296347704518641	0.374082352061412	-0.686333179997657	-0.548805245908818	-0.221981680178988	0.531609606579323	0.817383239280994	-0.975043391916657	-0.117750391878326	-0.188215910836891	-0.00381018957185575	-0.838764610248357	0.544480863805468	-19.0692220746887	-54.8236973791688	112.663718191531
28639	1652422938296	7.94537493364031	-1.89932134101454	5.34622781781865	0.0689159222677107	-0.0363864875260519	-0.0498761657752968	0.0274795994713227	0.00115199601363705	-0.00936446570257428	0.451171875	-0.60009765625	0.38623046875	0	0	0	-0.296405812800091	0.374031556490946	-0.686352605208883	-0.548784192748168	-0.221959007856119	0.531588665751153	0.817403015211246	-0.975049175809481	-0.117872609077405	-0.188109417049063	-0.00364740795365165	-0.838760715862513	0.544487977774556	-19.0589802292878	-54.825664253235	112.662439860755
28640	1652422938295	7.97362194614541	-1.83671727090699	5.38521793388818	-0.000498950388025911	-0.0605841410665015	-0.0173273090328987	0.0191669738801161	-0.000491836280776222	-0.00679195458418042	0.455078125	-0.60400390625	0.386962890625	0	0	0	-0.29627100397477	0.374098796568292	-0.686348864817015	-0.548815832838606	-0.222049347658898	0.531688995634681	0.817313219717657	-0.975027499814846	-0.117702544063646	-0.188328133123431	-0.00393215069253339	-0.838721004292804	0.544547165219875	-19.0776149438011	-54.8167341447976	112.666885505702
28641	1652422938296	7.98175515907469	-1.87140575229079	5.40584720648549	0.0318101253476177	-0.0697297031350037	0.00708272808523169	0.0170698472815204	1.98250816433854E-05	-0.00702165651070595	0.4580078125	-0.601806640625	0.386474609375	0	0	0	-0.296299294858818	0.374090673056088	-0.686353988093677	-0.548799689528443	-0.222051257279303	0.531656105865279	0.817334095848722	-0.975027316424396	-0.117750138211855	-0.188299328669355	-0.00386928506594686	-0.838735172773419	0.544525792397222	-19.0756025312091	-54.8188100874583	112.668321166407
28642	1652422938297	7.95631044757236	-1.87272145093888	5.35222209046102	0.0383530332002235	-0.0389172486661061	-0.0426690889372434	0.0234840411826289	-0.00137363030514661	-0.00812448820066267	0.458740234375	-0.60009765625	0.388427734375	0	0	0	-0.296312410842584	0.374125889729333	-0.686350846648218	-0.54877252948755	-0.222095332120982	0.531584691773478	0.817368569815457	-0.97501726915078	-0.117757059028141	-0.188347019904213	-0.00387147359872819	-0.83877946477077	0.544457547629781	-19.0823031937399	-54.8222384456513	112.675103076052
28643	1652422938299	7.97016212499928	-1.84579946586602	5.33369447434901	0.00954764483066294	-0.0192329365309063	-0.0465061501955901	0.0179150384448179	0.00408509374635683	-0.00497399150329274	0.4580078125	-0.6005859375	0.388916015625	0	0	0	-0.296325102418846	0.374107229168931	-0.686369028421686	-0.548755657450087	-0.222117324185968	0.531583048891611	0.817363662287213	-0.975012500888067	-0.117822019000136	-0.188331078026781	-0.00381017171049514	-0.838771383614052	0.544470429520011	-19.0803860520216	-54.8217503852762	112.677184137252
28644	1652422938300	7.92061818326392	-1.88433967206461	5.37103762948303	0.0580177953442343	-0.0725389741447135	-0.0594137802383283	0.0142811250463349	0.0035208534463921	-0.00180944965332432	0.452880859375	-0.60498046875	0.384033203125	0	0	0	-0.296343970584384	0.3741074564484	-0.686393701601014	-0.548714450812486	-0.222185405135667	0.531539307892013	0.817373604852994	-0.974997264168587	-0.11791212499852	-0.188353565514712	-0.00373906518676553	-0.838786441797919	0.544447724255981	-19.0832377997206	-54.8227391931298	112.685108724423
28645	1652422938300	7.91091670213571	-1.95853738149661	5.35833310357019	0.132614578839633	-0.0582571349396629	-0.0602915211738946	0.0229155981640766	0.00175645824044416	-0.00447108125648386	0.45849609375	-0.6015625	0.390380859375	0	0	0	-0.296377602653613	0.374078881942408	-0.686418950635051	-0.548684181418684	-0.222211971412413	0.53151723561206	0.817380736259623	-0.974991644545799	-0.118021318291255	-0.188314262589622	-0.00362392423872249	-0.83878507180094	0.544450613460031	-19.0794497978228	-54.8234484405504	112.688393084679
28646	1652422938302	7.95211968087983	-1.81651559087704	5.38661992526736	-0.0156135477244973	-0.0771961983912711	-0.0379542731068536	0.0300215935222337	-0.0026269270492938	-0.011018908145531	0.4541015625	-0.608154296875	0.38232421875	0	0	0	-0.296395514533427	0.374092997173221	-0.686417522343112	-0.548666668798793	-0.222229171027401	0.531469858017216	0.817406866599269	-0.97498780353925	-0.118038632030384	-0.188323297279183	-0.00360256772068079	-0.838812655703022	0.544408256860843	-19.0816761267241	-54.8260473156522	112.69178900232
