// Start Time : 05/04/2022 10:10:04																																
// Update Rate : 100Hz																																
// Filter Profile : 46.1 human																																
// Firmware Version : 4.4.0																																
PacketCounter	Time_Of_Arrival	Acc_X	Acc_Y	Acc_Z	FreeAcc_X	FreeAcc_Y	FreeAcc_Z	Gyr_X	Gyr_Y	Gyr_Z	Mag_X	Mag_Y	Mag_Z	VelInc_X	VelInc_Y	VelInc_Z	OriInc_q0	OriInc_q1	OriInc_q2	OriInc_q3	Mat[1][1]	Mat[2][1]	Mat[3][1]	Mat[1][2]	Mat[2][2]	Mat[3][2]	Mat[1][3]	Mat[2][3]	Mat[3][3]	Euler_X	Euler_Y	Euler_Z
20627	1649153435498	5.54595945438035	-1.34471261187711	7.92526711565724	-8.67361737988403E-16	-3.46944695195361E-16	-0.0466351251474872	0.0337355635240071	-0.00304461730740143	-0.00850760828137737	0.62548828125	-0.432373046875	0.2734375	0	0	0	0.0492107142318995	-0.3030341239017	0.369858232921306	0.876899944632364	0.542750414582915	0.618832276593354	0.567863188555448	-0.678482379288716	0.72156638629023	-0.137853585991734	-0.495059237329025	-0.310465076332822	0.81149725071183	-9.64111802945765	-34.6013534084301	48.7474317931105
20628	1649153435499	5.55839286189343	-1.36639541393377	7.8783010122338	-3.46944695195361E-16	1.30104260698261E-15	-0.0745975188515313	0.0283677451987738	-0.00394233424017987	-0.0105360079445663	0.622314453125	-0.428466796875	0.2705078125	0	0	0	0.0482896119168382	-0.305225947072113	0.36878397512661	0.876643379205403	0.541671001847495	0.617105575241463	0.570765481404959	-0.67606254536571	0.723332986141474	-0.140459339003487	-0.499531741244907	-0.309790413288666	0.809010469229706	-9.84943612191909	-34.8036223653444	48.7246116803732
20629	1649153435499	5.60183288455828	-1.32806319291794	7.94681002404248	-0.0150040900307515	0.0375288444835558	0.000285606035120622	0.0324464126500555	-0.00469819202509577	-0.0167598824043553	0.62158203125	-0.424560546875	0.264404296875	0	0	0	0.0488156944994695	-0.304115672833255	0.369205877429794	0.876822505173656	0.542401355216944	0.617764809190603	0.569357014872497	-0.677147280300718	0.72260809608366	-0.138957188571475	-0.497264849592411	-0.310167986742742	0.810261371015422	-9.73137311099512	-34.705400607724	48.7166655474401
20630	1649153435500	5.54841333923614	-1.31675653994126	7.94187657984128	-0.046955197391111	0.011730371444736	-0.0356837943780253	0.0332339693418545	0.000666992479886993	-0.0085310733008517	0.62109375	-0.43505859375	0.26953125	0	0	0	0.0489731361190976	-0.304049311051057	0.369219168462386	0.876831143395342	0.542462444178644	0.61770523469866	0.569363451304705	-0.677266227886745	0.722557675157209	-0.138639325717737	-0.497036168925151	-0.310404009473593	0.810311296776077	-9.70895007772699	-34.7058491975754	48.710726651008
20631	1649153435501	5.59709952030812	-1.29927846456238	7.92178718549083	-0.0203623692262298	0.0584777113730823	-0.0266501266048031	0.0277784505183908	-0.00157700407312044	-0.013487900454851	0.620849609375	-0.432861328125	0.2607421875	0	0	0	0.0491164120095922	-0.304006576034079	0.369201963965162	0.876845191355696	0.542539823064605	0.617602508999632	0.569401160225711	-0.677329357968093	0.722554975751142	-0.1383446704857	-0.496865657118257	-0.310614629234725	0.810335159598679	-9.68842690952243	-34.708477385568	48.7019498670829
20632	1649153435501	5.54774459186533	-1.32962721919042	7.9265628190664	-0.0272860115540768	0.00255452043252478	-0.0466735774034017	0.0242565460673287	-0.00385324938029178	-0.00576791306306859	0.623779296875	-0.43212890625	0.274169921875	0	0	0	0.0492386383469133	-0.303977272823213	0.369212597652443	0.876844017961826	0.542559750683394	0.617548861210935	0.569440357680635	-0.677418569219828	0.722515228456955	-0.138115266078574	-0.496722255404903	-0.310813688026881	0.810346748201407	-9.67252951134008	-34.7112094080038	48.6984385412184
20633	1649153435502	5.56786604831405	-1.33744181637434	7.93696275374112	-0.0148731309267659	0.00415419459376841	-0.0257051031427231	0.0269374256893122	-0.00592224782389332	-0.00445646325806783	0.626220703125	-0.427490234375	0.273193359375	0	0	0	0.0493753852893603	-0.303952129140641	0.36923226567729	0.876836762745047	0.542561274347373	0.617497342103307	0.569494772648447	-0.677528356046669	0.722459210620685	-0.137869560607246	-0.496570831132128	-0.311046172592894	0.810350349036797	-9.65560432056263	-34.715002225093	48.6959885810587
20634	1649153435503	5.58030713856643	-1.35983481530523	7.88992393304151	0.0318326536142534	0.00837778647882759	-0.0536508215570741	0.0247834697238571	-0.00251927613949341	-0.00632558706708211	0.618408203125	-0.42626953125	0.26318359375	0	0	0	0.0494983045313425	-0.303915855686327	0.369241573085504	0.876838486390916	0.54259162673558	0.617443804960457	0.569523901440835	-0.677617083267119	0.72242115710773	-0.137632700430135	-0.496416574119962	-0.311240774126851	0.81037014102194	-9.63909646933942	-34.7170326236338	48.6919360225595
20635	1649153435504	5.53454693065588	-1.33472959194904	7.94232240983477	-0.0344185749844053	-0.0200490664802186	-0.0407064553582934	0.029547380665029	-0.0042948952525074	-0.00666147332569445	0.617919921875	-0.426025390625	0.26416015625	0	0	0	0.0496468992808594	-0.303878627952458	0.369255874725241	0.876836965374079	0.542615756909257	0.61738113801014	0.569568846394444	-0.677727664552386	0.722370568745386	-0.13735346413846	-0.496239209509045	-0.311482410161105	0.810385929731055	-9.61972207651491	-34.7201655725078	48.6877889170944
20636	1649153435504	5.55337049687902	-1.36064622621507	7.9370162647025	-0.00224088546370155	-0.0276059739934391	-0.0307273603570337	0.0273500224339766	-0.00156552625883855	-0.00999496079412237	0.6171875	-0.423583984375	0.26416015625	0	0	0	0.0497848829841133	-0.303832511410619	0.369253217858672	0.876846241673641	0.542675732221863	0.617304060555856	0.569595247942533	-0.677809124665244	0.722347053054548	-0.137074889983342	-0.496062334972128	-0.311689640130469	0.810414540872348	-9.60024265807409	-34.7220059835292	48.6811015400024
20637	1649153435505	5.55382699982318	-1.35806568220845	7.93713880260088	-0.00221434699663181	-0.0275977552298022	-0.030727331122538	0.0252568320497734	-0.00689787980919693	-0.00775256635852455	0.622802734375	-0.4287109375	0.278564453125	0	0	0	0.0499202594660696	-0.30381284529598	0.369255937158217	0.876844213986389	0.542695615813136	0.617227031822007	0.569659775449693	-0.677892696087208	0.722316041136495	-0.136824812473898	-0.495926366680394	-0.311913975167987	0.810411445456003	-9.58308914009283	-34.7265042685387	48.6765150034939
20638	1649153435506	5.56854573189696	-1.34297867733923	7.92198176066353	0.00493622308792938	-0.00502986882249066	-0.0366944319174962	0.0310077280514889	0.00272736470054076	-0.0133220364150166	0.626953125	-0.43310546875	0.26904296875	0	0	0	0.0500714050379734	-0.303740309443527	0.369245308594643	0.876865201098504	0.542799452999994	0.617139315430029	0.569655877853869	-0.677974131672054	0.72230151295674	-0.136497623290401	-0.495701352233813	-0.31212111388203	0.810469357633347	-9.55992605969482	-34.7262325558097	48.6670409635166
20639	1649153435507	5.59004104217008	-1.42808256088951	7.91098659594866	0.0819426102527734	-0.0518513726950512	-0.0217587144587963	0.0245890752070127	-0.000843525493934676	-0.0142296094644893	0.617919921875	-0.43212890625	0.263671875	0	0	0	0.0502013834306481	-0.30369336294805	0.369220488454872	0.87688448116505	0.542893144412899	0.617035778991118	0.569678752626689	-0.67801908682591	0.722312104013589	-0.136217995489661	-0.495537235381192	-0.312301251743067	0.810500324805906	-9.54034423338681	-34.7278272354442	48.6573694955733
20640	1649153435507	5.51503231673874	-1.32875365033899	7.91761115809531	-0.0269908187631406	-0.0307960744887555	-0.0726639556481405	0.0383838735008058	0.00258027431492367	-0.0158621067175037	0.620849609375	-0.428955078125	0.265869140625	0	0	0	0.0503889960876746	-0.303607201279892	0.369209866598113	0.876908028707042	0.54301348347519	0.616929268440518	0.569679413798311	-0.678123116750447	0.72229004695976	-0.135816518110012	-0.495262955704138	-0.31256257902109	0.810567232808535	-9.51196958217008	-34.7278733284652	48.6461661516083
20641	1649153435508	5.57401941080875	-1.35569794422757	7.94925002283876	0.0101842911765081	-0.025844964069963	-0.00975856976332423	0.0257269912766927	0.00317113848567553	-0.0124216499961279	0.6279296875	-0.4306640625	0.2734375	0	0	0	0.0505096114907816	-0.303541831332235	0.369196943785549	0.876929160467329	0.543111946661767	0.616855571978347	0.569665355022168	-0.678182691865513	0.722284791692922	-0.135546730477575	-0.4950733782454	-0.312720135278143	0.810622271557047	-9.49278630168192	-34.7268932383012	48.6376191169721
20642	1649153435509	5.58833749677305	-1.34006680508341	7.93444829830994	0.0173348608521712	-0.00327716024153251	-0.0157259861330576	0.0389145366430633	0.00391554441314621	-0.0164178445393081	0.62109375	-0.42431640625	0.273193359375	0	0	0	0.0506979262112084	-0.303448674349925	0.36918499888961	0.876955562675803	0.543242677260302	0.616749239863245	0.569655833579512	-0.678286113867571	0.722264313745522	-0.135137740191769	-0.49478817825155	-0.312977053819955	0.810697244626312	-9.46380289215466	-34.7262294693207	48.6258804930357
20643	1649153435510	5.55124709086236	-1.27900170015262	7.94606523065219	-0.0470733058019999	0.0119683293925965	-0.0356846507166821	0.0363537410117967	0.00296587732052511	-0.0127437415452028	0.618896484375	-0.427490234375	0.27001953125	0	0	0	0.0508642728395479	-0.303365200791376	0.369187201988145	0.876973882499061	0.543340729673945	0.616674167106864	0.569643593047828	-0.678395968479171	0.722227271273337	-0.1347838216563	-0.494529838764651	-0.313210376986659	0.810764761394625	-9.43869239519525	-34.7253761521319	48.6172919280856
20644	1649153435510	5.58657577630772	-1.25527655600261	7.95722346659143	-0.0473002797379699	0.0453242930903822	-0.0096948927999918	0.0236823395124043	-0.00148491420897734	-0.00870860744362085	0.625732421875	-0.435546875	0.261474609375	0	0	0	0.050984066993633	-0.303325778369623	0.369184557197934	0.876981675872316	0.543392469806055	0.616606619744661	0.569667359294123	-0.678465746965833	0.722206775278708	-0.134542201318491	-0.494377238505346	-0.313390571377942	0.810788194178502	-9.42180835207186	-34.7270329629275	48.6114725442987
20645	1649153435513	5.5645080189686	-1.28021517489385	7.91560782076036	-0.0200893495863399	0.0254261422803615	-0.0526414007895362	0.0200916832997589	0.00497886540618202	-0.00511136605982942	0.6201171875	-0.42626953125	0.27587890625	0	0	0	0.0510689725848631	-0.303261869440838	0.369194710151204	0.876994563597029	0.543455009079234	0.616588963229756	0.56962681075415	-0.67853805161579	0.72217445207099	-0.134350933325423	-0.494209232629397	-0.313499778627066	0.81084839716475	-9.40796769826474	-34.7242062320017	48.6073879285636
20646	1649153435513	5.59332137703603	-1.35152012674947	7.96229881154367	0.0225875149476942	-0.0240338930529045	0.0112102789148771	0.022775431167205	0.00291450517016432	-0.00379505848831415	0.62109375	-0.426513671875	0.2724609375	0	0	0	0.0511692153896803	-0.303206076673544	0.369213345602412	0.877000166416013	0.543495160994622	0.61657069698312	0.569608273813837	-0.678629965162194	0.722126433650956	-0.134144639126988	-0.49403884499034	-0.313646280775494	0.810895572929283	-9.39324279189838	-34.7229140119332	48.6044461851047
20647	1649153435514	5.55506804769752	-1.31051128135772	7.95779247631643	-0.0219363324458556	-0.0180341413157212	-0.0197370956186802	0.0291049668618879	0.00010132586469309	-0.0052102816180348	0.621337890625	-0.423095703125	0.27490234375	0	0	0	0.0513029243496946	-0.303147025750899	0.369235414366032	0.877003477478566	0.543534179112657	0.616536826956633	0.569607704602543	-0.678746142672366	0.722066437462228	-0.133879549214923	-0.493836278480748	-0.313850921452931	0.810939781463108	-9.37450819202142	-34.7228743322277	48.6008445083048
20648	1649153435514	5.58783965055376	-1.32497070119494	7.93733357467537	0.0173920963401646	-0.00302298542975889	-0.015726005847128	0.0143225897359866	0.00476166415397611	-0.00219323403765597	0.615966796875	-0.422119140625	0.2666015625	0	0	0	0.051360264425145	-0.30309913475314	0.369248726743447	0.877011069227989	0.543572584620483	0.616535937888781	0.569572016992242	-0.678804944720596	0.722035002073045	-0.133750898330617	-0.493713168015476	-0.313924980007932	0.810986075500155	-9.36513433785387	-34.7203865878046	48.5987953263615
20649	1649153435515	5.51689046141296	-1.3648421507601	7.91650141307255	0.0178995395202591	-0.0696532949496897	-0.0677042072174956	0.0227891639658992	0.00795499021409093	-0.00439344185607091	0.617919921875	-0.433349609375	0.264892578125	0	0	0	0.0514494588197179	-0.303017064258183	0.369267072635158	0.877026476808409	0.543644975671626	0.616533871490689	0.569505158652404	-0.678894127367581	0.721989564509238	-0.133543373349524	-0.493510794464322	-0.314033523758951	0.811067223911021	-9.34994139808046	-34.715726167247	48.5949151253055
20650	1649153435516	5.5372343542623	-1.35431289440186	7.94336287770825	0.0105225677159589	-0.0588644756787024	-0.0357468690574034	0.020621118462195	0.00631243230878826	-0.00566994625880237	0.622802734375	-0.424560546875	0.26953125	0	0	0	0.051536824782129	-0.302949848045033	0.36927506859431	0.877041201412759	0.543714626568318	0.616512753150527	0.569461526407564	-0.678965046096405	0.721959758812087	-0.133343814387096	-0.493336468381349	-0.314143489282765	0.811130690521735	-9.33549796696527	-34.7126848841031	48.5903002648556
20651	1649153435516	5.51911495474226	-1.42004012569903	7.91201704689981	0.0627016189784255	-0.10868344154666	-0.0627430832302487	0.0252642694120986	0.0025131888740836	-0.0103841384649289	0.618408203125	-0.425537109375	0.276123046875	0	0	0	0.0516466949146414	-0.302884598298081	0.369272770039971	0.877058242265136	0.543797082841634	0.616461476329981	0.569438302974071	-0.679033430100559	0.721940480422801	-0.133099750310674	-0.493151430595915	-0.314288388153231	0.811187078036408	-9.31807446675484	-34.711066194821	48.5836258890552
20652	1649153435517	5.57442135368653	-1.29139681409591	7.9867292267587	-0.0292623352291835	-0.00689389627977202	0.0122206989299762	0.0290391882334064	0.00379190274797301	-0.00872770451829378	0.61865234375	-0.425537109375	0.2607421875	0	0	0	0.0517802396591774	-0.302812124277311	0.369279454678467	0.877072578823369	0.543875003486073	0.616410398509093	0.569419178806689	-0.679129135976228	0.721902982266424	-0.132814535586373	-0.492933664148844	-0.314474648906241	0.811247248343001	-9.29777859022577	-34.7097332509893	48.5771979983932
20653	1649153435518	5.56543989675599	-1.3220800607403	7.91417023771716	0.0247813019923961	-0.0130403576942087	-0.0476823647509619	0.0295652002789762	0.00512514478820977	-0.00928847645594206	0.620849609375	-0.428955078125	0.2763671875	0	0	0	0.0518947794688368	-0.302726425151646	0.369291343318855	0.877090387091628	0.543961230529323	0.616383932376975	0.569365460480808	-0.679223616667511	0.721861671227274	-0.132555671980018	-0.492708289195678	-0.314621320829445	0.811327286757572	-9.27907266758069	-34.7059892284476	48.5714712797174
20654	1649153435518	5.56768211544186	-1.28230970158123	7.9461851435408	-0.0147743711750307	0.00530660976269127	-0.0257055105611972	0.0237407502598535	-0.000807365652533906	-0.00723046091147903	0.624755859375	-0.433349609375	0.273681640625	0	0	0	0.0520113115198266	-0.302684280832087	0.369295362223141	0.877096337383545	0.544006323155283	0.616329206392269	0.569381620457621	-0.679301232082318	0.721831517828933	-0.132321940585164	-0.492551475947961	-0.314797663931382	0.8113540992223	-9.26269420790262	-34.7071155174592	48.5665910484348
20655	1649153435519	5.56558692670273	-1.3173857141057	7.9148495961797	0.0247414810710606	-0.0125794591867327	-0.047681659161066	0.0183647563872492	-0.00172171529336276	-0.00926279158727241	0.623046875	-0.439208984375	0.269287109375	0	0	0	0.0520881077092263	-0.302648419095959	0.369290831607876	0.877106062653971	0.544056432218161	0.616285687667794	0.569380847709054	-0.679343221475384	0.721822221451272	-0.132156982617641	-0.49243820525777	-0.314904162873382	0.811381526907977	-9.2510394095897	-34.7070616594697	48.5619655260872
20656	1649153435519	5.55233885899206	-1.30890843031384	7.94643322117315	-0.00218648906570723	-0.0259715748214876	-0.030722872099334	0.0221483910009073	0.00459750939400812	-0.0082119298517183	0.6201171875	-0.42333984375	0.26953125	0	0	0	0.0521891486445588	-0.302585197554006	0.36928957380519	0.877122398336595	0.544134817799969	0.616240985607836	0.569354325279853	-0.679407641018993	0.721803006885074	-0.131930574836435	-0.492262691439034	-0.315035659741477	0.811436981969919	-9.23484380894137	-34.7052131561535	48.5558081249237
20657	1649153435520	5.45942218722409	-1.37642467208029	7.99807451994482	-0.0306866098666295	-0.149133610829846	-0.0328178003276367	0.0221825647988698	0.000235785274864546	-0.00614406589974707	0.620849609375	-0.43115234375	0.267333984375	0	0	0	0.0522723783368582	-0.302538429430201	0.369304862048734	0.877127137904239	0.544168835170145	0.616225826836623	0.569338220365617	-0.679483439815081	0.721763034660348	-0.131758782686211	-0.492120446483007	-0.315156869094434	0.811476194361831	-9.22258751168479	-34.7040907305789	48.5533316911438
20658	1649153435520	5.55673823411218	-1.34544474200639	7.95708842711339	0.0227139223036207	-0.0556259948273481	-0.0147688594603448	0.0204458844189275	-0.006469504656977	-0.0102993305384951	0.61865234375	-0.435546875	0.267333984375	0	0	0	0.0523894988625359	-0.302526384971487	0.369289002190103	0.87713098204684	0.544206838515044	0.616131238897504	0.569404261810613	-0.679528061702908	0.721761946540741	-0.131534428512123	-0.492016798769871	-0.315344238857075	0.811466253610032	-9.20726365377808	-34.7086935595695	48.5469824713389
20659	1649153435521	5.53750754689957	-1.33296594067378	7.94678260384356	0.010159036763043	-0.056468300419081	-0.0357323514413039	0.0273965026002845	-0.00155504697072514	-0.0099541552610734	0.611572265625	-0.4306640625	0.273193359375	0	0	0	0.0524903065060474	-0.302472275825174	0.369300731316781	0.877138677706628	0.54425498441206	0.616102185351294	0.569389681279866	-0.679609635221875	0.721723475143583	-0.131323909248316	-0.491850846960965	-0.315489021412836	0.811510580160082	-9.19228577372446	-34.7076773318886	48.5431269012788
20660	1649153435521	5.53906820582887	-1.31192079265723	7.96264462813739	-0.00962309735662736	-0.0472903192877561	-0.0247461663289759	0.0204906337629054	-0.0057917191412902	-0.00883546018571152	0.621826171875	-0.433837890625	0.266845703125	0	0	0	0.0526040553604306	-0.302457649074331	0.369291598113109	0.877140752353425	0.54428617215899	0.616020422581277	0.569448331070782	-0.679662418245645	0.721713057845406	-0.131107815785008	-0.491743388385646	-0.315672458567766	0.811504367752131	-9.17748653052265	-34.7117651561705	48.5377247335482
20661	1649153435522	5.55300092631874	-1.31585095350009	7.9313457633055	0.0171977817945075	-0.0329679422181249	-0.0417024954959118	0.0273089551576008	-0.00794760110365161	-0.0122661939734826	0.624267578125	-0.430908203125	0.26708984375	0	0	0	0.0527138079268058	-0.302425958517877	0.369293837293597	0.877144147677775	0.544321202703028	0.61596380853231	0.569476088054889	-0.679731904089876	0.721686632381653	-0.130892869186905	-0.491608550424298	-0.315843301686138	0.811519588136799	-9.1625268563007	-34.7136998570937	48.5332821031956
20662	1649153435523	5.58765387101937	-1.31127989362168	7.92625083663276	0.0367424411338135	-0.00877344780817798	-0.0267098542445385	0.0206181687233969	-0.00375772296826029	-0.00445090079163924	0.619384765625	-0.427978515625	0.2724609375	0	0	0	0.0528176316455861	-0.302403314474032	0.36930477495116	0.877141104031013	0.544332437186785	0.615920342304583	0.569512361377432	-0.679809249793758	0.721648561971248	-0.130700944524809	-0.491489147104127	-0.31601500746046	0.811525066364942	-9.14925876087496	-34.716228227033	48.5306890222082
20663	1649153435523	5.55819086101057	-1.35212377614334	7.94155556358296	0.0420548870975755	-0.0622026690837464	-0.0257373371681915	0.0258324536034317	-0.00554992053446668	-0.00825976010431296	0.62353515625	-0.428466796875	0.274169921875	0	0	0	0.0529112713381848	-0.302368614015217	0.369320303161143	0.877140885090221	0.544351469862957	0.615894459632487	0.569522160984141	-0.679889290753727	0.721605822076677	-0.13052045764338	-0.491357333899101	-0.316163015134677	0.811547237247788	-9.13659226250079	-34.7169113051295	48.5285001913952
20664	1649153435524	5.55870709653368	-1.34964411012136	7.94161603721034	0.0420491719020788	-0.0621980652394102	-0.0257372833519973	0.0231064671302594	-0.00416802427724877	-0.0110406681391934	0.62158203125	-0.4296875	0.267333984375	0	0	0	0.0530367367993609	-0.302341463116946	0.369305950387163	0.877148709876845	0.544405509377878	0.61580206665815	0.569570413608857	-0.679942885069618	0.72160043911662	-0.130270792236423	-0.49122328365237	-0.316355213274972	0.81155348845996	-9.11934025743718	-34.7202748194532	48.5214124436785
20665	1649153435525	5.53718835359326	-1.37422096406022	7.89989963994444	0.0689333482952343	-0.0811492106135066	-0.0686627989298838	0.0289284148655457	-0.00327164439962454	-0.0124913587196278	0.6318359375	-0.42529296875	0.26953125	0	0	0	0.0531372045363085	-0.30229189396451	0.369311028437657	0.877157575702186	0.54445795023534	0.615762040370392	0.569563561039876	-0.680013825167433	0.721571603536774	-0.130060057475481	-0.491066938417451	-0.316498863518119	0.811592096674832	-9.10440962159624	-34.7197971435491	48.5168257075097
20666	1649153435525	5.57796576467812	-1.37260918911104	7.93678416209039	0.0739458234647234	-0.068711747399085	-0.0157434052584744	0.0256855157409567	0.0018153560054981	-0.015319281885715	0.616455078125	-0.423095703125	0.275146484375	0	0	0	0.0532694243011844	-0.302232603739432	0.369283340956792	0.877181643539862	0.544570534657345	0.615657622292246	0.569568806112547	-0.680056649517236	0.72158436505282	-0.129765008992066	-0.490882762205402	-0.316672853627806	0.811635643343007	-9.08362126510854	-34.7201627645505	48.5061249387786
20667	1649153435526	5.5090166215241	-1.27682957827358	7.98448868053443	-0.0498637868588999	-0.0583205950225652	-0.0287347694533118	0.0417462197762659	0.00322356410893062	-0.0121380877651062	0.615966796875	-0.4306640625	0.275634765625	0	0	0	0.0534065747051453	-0.30213273109398	0.369307856377262	0.87719738816186	0.54465504003945	0.615640025535498	0.569507020429316	-0.680183522631659	0.721518889992591	-0.129463766839401	-0.490613149946079	-0.3168561982075	0.811727101159913	-9.06188034769704	-34.7158559405218	48.5009002492975
20668	1649153435528	5.57260023981648	-1.34431512453565	7.91193796856128	0.0683470897738247	-0.0466517746541883	-0.0426837218109544	0.0120424536879562	0.00108891329207903	-0.00784763568870686	0.620849609375	-0.42919921875	0.270263671875	0	0	0	0.0534691880203361	-0.30210372963259	0.369291920049564	0.877210271406252	0.54471362865637	0.615586848586889	0.569508467542733	-0.680199813072368	0.721529047437105	-0.129321490869925	-0.490525511112649	-0.316936374610689	0.811748764949049	-9.05184906867254	-34.7159568102381	48.4953855113272
20669	1649153435530	5.5395913443129	-1.32517784988415	7.93323297068926	0.0285335556197516	-0.0602657299458936	-0.0466796592784693	0.0433987105290651	0.00354231395271997	-0.0102943456437026	0.624267578125	-0.433349609375	0.269775390625	0	0	0	0.0535973821766255	-0.302000375135176	0.36933930465594	0.877218086953462	0.544768502908958	0.615609377486803	0.569431622399602	-0.68035509558122	0.721431597320158	-0.129048030999132	-0.490249142941628	-0.317114403233904	0.81184618808405	-9.03195807351077	-34.7106005600542	48.4935617514436
20670	1649153435531	5.57168695786383	-1.24187757810726	7.94979905535733	-0.0165040005303093	0.0124069272855158	-0.0257146999014157	0.0173434460440711	0.000653447390972743	-0.00873224526786801	0.622314453125	-0.427490234375	0.2705078125	0	0	0	0.0536852904481842	-0.301963133275126	0.369327535256065	0.877230487063601	0.544830875688698	0.615548790248316	0.569437444957847	-0.680392704306392	0.721430122582349	-0.128857852525378	-0.490127620954912	-0.317235346477424	0.811872311464326	-9.0185811586198	-34.711006391107	48.4875075280601
20671	1649153435532	5.5382895615903	-1.33840715176124	7.91857133512801	0.0477061965097945	-0.0681849258463365	-0.0576460490497812	0.0333296272689354	0.00574640028754985	-0.009083521955187	0.615234375	-0.430908203125	0.274658203125	0	0	0	0.0537679054159603	-0.301877266439069	0.369364858545517	0.877239265893921	0.544879434557851	0.615580098096714	0.569357132758655	-0.680505331333212	0.721357227237661	-0.128671071881247	-0.489917233645636	-0.31734034338425	0.811958256708911	-9.00478541070903	-34.7054088238276	48.4864195082692
20672	1649153435533	5.57615198252789	-1.37421165159714	7.92451687727585	0.0922723157461254	-0.0740919540033517	-0.0266824577189801	0.0220919552514377	0.00828299425916711	-0.0117405803396214	0.620849609375	-0.42919921875	0.2685546875	0	0	0	0.0538670231887201	-0.301797117046063	0.369349107206804	0.877267394219692	0.544999474296444	0.615522033068946	0.569305014753314	-0.680549682277783	0.721359161636646	-0.128425425342821	-0.489722067062746	-0.317448557611382	0.812033687910942	-8.98705395869696	-34.7017765267374	48.4774730568997
20673	1649153435534	5.55498022762516	-1.26456141864847	7.95176639147763	-0.00520914326937877	-0.0166067236855919	-0.0307036333964081	0.0338223529199223	0.0114386747431	-0.0117196846767218	0.621337890625	-0.42822265625	0.278076171875	0	0	0	0.05393333716252	-0.301685808257739	0.369379160187571	0.877288951405131	0.545089418229999	0.6155626673959	0.569174954334892	-0.680646357051548	0.721300462323277	-0.128242659379331	-0.489487551186073	-0.317503142599678	0.812153736476778	-8.97316755607038	-34.6927128291723	48.4746575571228
20674	1649153435534	5.58912967272411	-1.35649953461327	7.91093050864725	0.0986970509276834	-0.0500565816004086	-0.0326548583635411	0.0178829389642433	0.0120611566668122	-0.0105249205466993	0.623291015625	-0.432861328125	0.271240234375	0	0	0	0.0540050232980543	-0.301597149984203	0.369363592433418	0.877321579105782	0.545219391412172	0.615525778132694	0.569090354585528	-0.680676822578789	0.721307988086512	-0.128038468932704	-0.489300396926249	-0.317557558210678	0.812245233159966	-8.95811938769845	-34.6868177439412	48.466173242807
20675	1649153435535	5.49940782044708	-1.25168424454492	7.94846823444761	-0.0379279662299274	-0.0408619466120149	-0.0666503277699064	0.0329072806575281	0.0158552686880599	-0.00682290639048905	0.6240234375	-0.424072265625	0.2744140625	0	0	0	0.0540474283850777	-0.301469327196812	0.369422389587341	0.877338143657302	0.545286685662162	0.61562942326807	0.568913740075065	-0.680803990755939	0.721211947113078	-0.127903297503038	-0.489048419494801	-0.317574779458298	0.812390240488923	-8.94724387353629	-34.6745122328101	48.4674516092771
20676	1649153435536	5.56671281424417	-1.24483440283568	7.93928104462215	0.00115481126410823	0.00755443008981045	-0.0366948787838393	0.0190853969682277	0.00737101971732841	-0.0045815881741222	0.6162109375	-0.426025390625	0.272216796875	0	0	0	0.0541240304188976	-0.301400509364081	0.369433541212769	0.877352369868162	0.545353183164131	0.615620765109434	0.568859366784818	-0.680872806457805	0.721178895916415	-0.127723222285737	-0.488878437895374	-0.317666607705082	0.812456644572573	-8.93413191950548	-34.6707241741846	48.4635837924813
20677	1649153435537	5.49069910328382	-1.36054444097046	7.97068947672285	0.0243047513593267	-0.131605678583729	-0.0396204127882402	0.0108143892174177	0.0126111723416932	0.00429540528279661	0.617431640625	-0.4267578125	0.270751953125	0	0	0	0.054077489940278	-0.30132358502064	0.369485137697828	0.877359934811526	0.545369660261452	0.615753266373345	0.568700139455641	-0.680932558924233	0.721112716204352	-0.127778326508363	-0.488776824187895	-0.317560018703455	0.812559444384137	-8.93681168130988	-34.6596321786833	48.4688447815497
20678	1649153435538	5.49829650012117	-1.22800408606725	7.96644593559103	-0.0581524872196435	-0.0304609980875209	-0.0556791481387986	0.0271534499552545	0.00120608731185644	-0.000597345287053341	0.620849609375	-0.426025390625	0.26953125	0	0	0	0.0541949654646173	-0.301267871718868	0.369524168067038	0.877355380904816	0.545379117368692	0.615753630649178	0.568690675746051	-0.681062438262789	0.721029589865303	-0.127555030187819	-0.488585277639113	-0.31774800846115	0.812601150376544	-8.92099524726216	-34.6589729703582	48.4683684712213
20679	1649153435539	5.53842731200125	-1.34325176499585	7.95108389383221	0.0504340201942668	-0.0836145022693811	-0.0306271267638891	0.0112485405594321	0.00250712819164964	0.00204847849449112	0.623046875	-0.430419921875	0.271728515625	0	0	0	0.0541691344594087	-0.30123943314282	0.369564947783197	0.87734956440504	0.545353106579591	0.61583953319714	0.568622597594853	-0.681111050630698	0.720974908483843	-0.127604537715012	-0.488546544203044	-0.317705603803653	0.812641017583423	-8.92397122967487	-34.6542310431826	48.4736918250621
20680	1649153435540	5.48324408828515	-1.35304025681315	7.93044684331524	0.038279397131853	-0.118649471143191	-0.0775382859641986	0.0196884678791204	0.00502634944823128	-0.0016077214255305	0.622802734375	-0.427001953125	0.26708984375	0	0	0	0.054248277609076	-0.301180630396843	0.369589304885098	0.87735460217905	0.545387947176621	0.615844694217704	0.56858359075722	-0.681198816010682	0.720921740181998	-0.12743632762523	-0.488385257906211	-0.317816231707669	0.812694704500418	-8.91181718149132	-34.6515141764969	48.4721134267072
20681	1649153435541	5.57307546123398	-1.31917560894221	7.96256885063298	0.0492922214237379	-0.0487893576512966	-0.00467601693036101	0.0271572549821164	0.00120696896555191	-0.00059382518131943	0.621826171875	-0.430419921875	0.267578125	0	0	0	0.0542863538682377	-0.30113851402301	0.369654631355124	0.877339182228523	0.545342097779442	0.615929560088964	0.568535639514475	-0.681320407831398	0.7208168906028	-0.127379402158155	-0.488266831007366	-0.317889583393867	0.812737174311412	-8.9074421300483	-34.648174444728	48.478422696281
20682	1649153435542	5.54886510727034	-1.26675618243832	7.94222593994667	0.0118732545627501	-0.0203369573319121	-0.0416601210003442	0.0176810773890571	0.00610033287935983	0.00295474622187951	0.626708984375	-0.4306640625	0.2607421875	0	0	0	0.0543477527528772	-0.30108030559046	0.369696182597865	0.877337850505057	0.545350764316242	0.61597083234669	0.568482609723303	-0.681422984374654	0.720742108686556	-0.127253798104405	-0.488113982821257	-0.317979160424363	0.812793942712534	-8.89818789374374	-34.6444811563736	48.4798762202835
20683	1649153435543	5.58441202849198	-1.34167121478865	7.91678869861527	0.094607116699792	-0.0434837436604449	-0.0325830067839448	0.0139852520369957	0.00617297625096606	0.00421722513710998	0.62109375	-0.422119140625	0.2724609375	0	0	0	0.0543160817346574	-0.301070527065369	0.369763095087757	0.877314968816045	0.545263582487406	0.616091453760522	0.568435525118062	-0.681503339184438	0.720650033552233	-0.127344916748285	-0.488099195137076	-0.317954162961288	0.81281260199515	-8.90425613882935	-34.6412020615647	48.489990420522
20684	1649153435545	5.48690537487996	-1.36926288355754	7.95860118171105	0.0411902437530477	-0.137017712847182	-0.0505219524468625	0.0198132054357142	0.00707084232795308	0.00277156739048409	0.618408203125	-0.4306640625	0.2705078125	0	0	0	0.0543850685876697	-0.301004972092858	0.369807163675676	0.87731461448231	0.545277336939059	0.616134106360845	0.568376098019236	-0.681614810570844	0.720569852017733	-0.127201959000701	-0.487928146176383	-0.318053220927043	0.812876542180184	-8.8937316606292	-34.6370635883747	48.4912416832895
20685	1649153435547	5.56454359746788	-1.31046009479365	7.92328013004784	0.0616733690023042	-0.0344086721726288	-0.0425885251968943	0.0192558765065026	0.010095299754256	0.00125826420398457	0.623291015625	-0.427001953125	0.268798828125	0	0	0	0.0543641752717286	-0.300929611310145	0.369864277191243	0.877317685870717	0.545283570989049	0.616257363235898	0.568236473193134	-0.681696523770769	0.720489905809648	-0.127216921458012	-0.48780700762523	-0.317995531232663	0.8129718109675	-8.89373540578903	-34.6273409983133	48.4966044288825
20686	1649153435547	5.48371164332463	-1.38542209716799	7.94485018350389	0.0602122034948782	-0.144674676274144	-0.061452804328777	0.0113567505267413	0.0240216348450895	0.00248244643108473	0.622802734375	-0.423828125	0.267578125	0	0	0	0.0543651429801122	-0.3008053002152	0.369898932624121	0.877345645817389	0.545381902011958	0.616351789549795	0.568039657485799	-0.681765082171295	0.720438421744575	-0.127141075998879	-0.487601224044594	-0.317929161910244	0.813121205182391	-8.88691072585913	-34.6136379313904	48.4958338427723
20687	1649153435548	5.48042327060472	-1.30566021993078	7.96686162377523	-0.0054503870315201	-0.0949668392613548	-0.0555554565872107	0.0293421307257476	0.00789629278957738	7.10532918071377E-05	0.61376953125	-0.425048828125	0.274658203125	0	0	0	0.0544003871178832	-0.30074239802903	0.369957562692298	0.87734030439502	0.545370823669045	0.616436355580322	0.567958523317854	-0.681878367082481	0.720343999376397	-0.127068544759693	-0.487455184807256	-0.317979153532535	0.813189215818346	-8.88119079639437	-34.6079897168342	48.5003125165475
20688	1649153435549	5.54911106968634	-1.28096606049603	7.97303640580219	0.013796161142386	-0.0373479943596244	-0.0146655234230497	0.0135040327252611	0.00552610265325768	0.00624608173029358	0.615966796875	-0.424072265625	0.272216796875	0	0	0	0.0544393989677289	-0.300696751606916	0.370006585625171	0.877332857020119	0.545353180334103	0.616498368907523	0.567908152639001	-0.681977370623639	0.720262956868071	-0.126996609879679	-0.487336408096857	-0.318042503602942	0.813235630826162	-8.87574459827329	-34.6044833184259	48.5040927218985
20689	1649153435550	5.49887560901443	-1.31314849194091	7.97860662000486	0.00647088061950483	-0.0915412112258481	-0.034562098389145	0.0194538101011882	0.00847001369440743	0.00917867528322253	0.617431640625	-0.42333984375	0.274658203125	0	0	0	0.0544026005374346	-0.300611932559965	0.370091652049021	0.877328326307178	0.545329270172379	0.61667563757716	0.567738623938925	-0.682091921112544	0.720145052276782	-0.127050048541002	-0.487202830704277	-0.317965818446064	0.813345646114655	-8.87823798559945	-34.592683191829	48.513513925353
20690	1649153435551	5.52701595919783	-1.28814823919634	7.94808916190777	0.0207502015172469	-0.0464337208525061	-0.0465844590850768	0.0141830954010578	0.00455011889092514	0.0121387013774455	0.618408203125	-0.421630859375	0.266357421875	0	0	0	0.0544374985114783	-0.300570609628035	0.37016745979199	0.877308337527229	0.545266720677954	0.616777373285136	0.567688184767482	-0.682226621742017	0.720025220933916	-0.127005975471787	-0.487084222601785	-0.318039860744771	0.813387734767289	-8.87475526846306	-34.5891726726016	48.5214655009611
20691	1649153435552	5.50206055673633	-1.35289270687861	7.98989582704804	0.0308985994296242	-0.120346151051208	-0.0185061071764636	0.0104783525700171	-0.000413047523548408	0.0140226610848066	0.618896484375	-0.430908203125	0.277099609375	0	0	0	0.0543868857710101	-0.300558410872034	0.370240723388167	0.877284740010457	0.545172896798169	0.616920201598516	0.567623094541034	-0.682305945436971	0.719927746802276	-0.127132357036121	-0.48707813481828	-0.317983496810518	0.813413416620417	-8.88316960774933	-34.5846426728164	48.5329411040831
20692	1649153435553	5.52858626963579	-1.36556523146376	7.92771002706587	0.0847567880014374	-0.0936457418976534	-0.0524277607466086	0.0238183716534028	-0.00265435275690189	0.0150603963599436	0.623046875	-0.4248046875	0.272705078125	0	0	0	0.0544731280334503	-0.300531741442841	0.370341632594034	0.877245932378811	0.545055495105837	0.617019573507826	0.56762782979973	-0.682503189626753	0.719759506979673	-0.127026171561951	-0.486933161126083	-0.318171491527129	0.813426701415169	-8.87572559912195	-34.5849722181246	48.5436430308147
20693	1649153435553	5.53605963538265	-1.34940681050253	7.98512666953654	0.0496111179298259	-0.0940711399390353	-0.00351857442803016	0.0108843071990107	-0.00112903653533484	0.00908125320834483	0.611328125	-0.42822265625	0.27490234375	0	0	0	0.0544046007322406	-0.300514866153578	0.370438519196215	0.87721505808757	0.544932237432826	0.617209711654785	0.567539451003604	-0.682607276883538	0.719630885829763	-0.127195494045633	-0.486925212072754	-0.318093634011887	0.813461909279725	-8.88698944513235	-34.578821804907	48.5588313408221
20694	1649153435554	5.51513920514253	-1.35754012036409	7.9592182355215	0.0569904068156879	-0.104945576316929	-0.0354398467967236	0.0188874025891855	0.00141850035120543	0.008912870474728	0.6162109375	-0.42578125	0.27001953125	0	0	0	0.0544708967809823	-0.300477622759348	0.370506235010012	0.877195103408285	0.544876656079194	0.617277939117405	0.567518612504406	-0.682747081414683	0.719516102445163	-0.127094457557578	-0.486791384968643	-0.318220873295721	0.813492239249533	-8.8797168958426	-34.5773716887407	48.564873096389
20695	1649153435555	5.48096802074175	-1.35856063728922	7.96452425889755	0.0366178335435334	-0.127076683427792	-0.0503692651499659	0.0187267976992477	-0.00131324211336121	0.00307941006582878	0.6181640625	-0.421875	0.271728515625	0	0	0	0.0544380452016288	-0.300447718590843	0.370574321472534	0.877178624849782	0.544811681317457	0.617408174457088	0.567439316591309	-0.682831320398587	0.719422342999593	-0.127172639650595	-0.48674594993977	-0.318180198168495	0.813535335256367	-8.88462895582748	-34.5718538505653	48.5742597159202
20696	1649153435556	5.50078475001962	-1.3673317232976	7.97513580745582	0.0489595256684945	-0.125399001091094	-0.0293904723431915	0.0144633822171384	-0.00325194604553737	0.00344789296986844	0.62353515625	-0.426513671875	0.274169921875	0	0	0	0.0545015205474689	-0.300437533910144	0.370610546393068	0.877162867076711	0.544770222240444	0.617423014030752	0.567462973862859	-0.68292022374129	0.71935481432049	-0.127077217151933	-0.486667620625457	-0.318304057245765	0.813533744952009	-8.87808579276066	-34.5735000130398	48.577106081177
20697	1649153435557	5.52982053919106	-1.34186567980739	7.94407417752092	0.0625705673496114	-0.0786199048703598	-0.0414163668954934	0.0202545865523715	-0.00304071188665721	0.000546600906271744	0.6162109375	-0.426513671875	0.273193359375	0	0	0	0.0545017136938426	-0.300414218555136	0.370655872156578	0.877151688666327	0.544731043451508	0.617496668893961	0.567420438656464	-0.682989027810967	0.719287575280563	-0.127088047970056	-0.486614917763587	-0.318313128777107	0.813561720988683	-8.87852996538904	-34.5705402758049	48.5825410609866
20698	1649153435558	5.48782684455528	-1.35810549539462	8.00650435953456	0.0212654747687705	-0.137060901270902	-0.0124032806343806	0.0139076621679037	-0.00022867222433858	0.0019310867608804	0.620361328125	-0.421875	0.267578125	0	0	0	0.0545596453741888	-0.300391420091913	0.370685136955768	0.877143528204986	0.544715047950495	0.617509639057734	0.567421679359431	-0.683066636472389	0.719231548673452	-0.126987989711959	-0.486523880888274	-0.318414549076474	0.813576479663614	-8.87149263029637	-34.5706266064384	48.5839727444582
20699	1649153435559	5.51379936161557	-1.27294224687216	7.98057525827801	-0.0101702754018627	-0.0510598007721547	-0.0295776339170093	0.026160345437876	-0.0058158931301861	0.00264863659126676	0.61279296875	-0.428466796875	0.2685546875	0	0	0	0.0545827993403635	-0.300383361054788	0.370738992879824	0.877122085901417	0.544644871119766	0.617575188076208	0.567417704548923	-0.683158246962758	0.719146634349247	-0.126976091887101	-0.486473816324892	-0.318479207134133	0.813581108835198	-8.87062498701742	-34.570350031363	48.5906518722428
20700	1649153435561	5.51636332523174	-1.34979043096364	7.95968793643404	0.0543754817016635	-0.0995636728131592	-0.0353686684086014	0.0150149076803624	-0.0113093256751566	0.00559656013625017	0.62158203125	-0.43212890625	0.27001953125	0	0	0	0.0546606555036738	-0.30040837356009	0.370782785387142	0.877090159502113	0.544549870311068	0.617578827516518	0.567504916760658	-0.683260901986866	0.719064677600923	-0.126887860896048	-0.486435996365702	-0.318657153112877	0.81353404366978	-8.86506373739982	-34.5764186387084	48.5957775162604
20701	1649153435563	5.54948129118957	-1.26838235353486	7.97479034082611	0.00761062185295896	-0.0246499988536702	-0.0146185924940738	0.0215594791223286	-0.0157386872703755	0.0121337046169022	0.614990234375	-0.429443359375	0.2724609375	0	0	0	0.0546380331686415	-0.300476245536322	0.370911059551286	0.877014080333037	0.544278023541878	0.617753581415441	0.56757549783068	-0.683423305695451	0.718879342468011	-0.127063276382534	-0.486512094733163	-0.318736574024943	0.813457422399718	-8.87794697996222	-34.5813303028053	48.6180103546547
20702	1649153435564	5.53271694306112	-1.33626306061512	7.94300178683372	0.0597751033225012	-0.0748308322671814	-0.0413691137452687	0.00938075144960815	-0.0138187540496236	0.0149619158968096	0.60986328125	-0.4326171875	0.275634765625	0	0	0	0.0546812326550406	-0.300525790591107	0.370987163107576	0.876962220847802	0.544105547997967	0.617817211581386	0.567671600233475	-0.683549694277995	0.718756975209437	-0.127075670528393	-0.4865274587218	-0.318889171439832	0.813388423969831	-8.87954033849121	-34.5880184369249	48.6299445090944
20703	1649153435566	5.51943061119672	-1.34794462050367	7.95787419746008	0.0515460908515925	-0.0944825461154181	-0.03530292120994	0.0188638036693744	-0.0187221545980686	0.0114301758053832	0.617431640625	-0.435791015625	0.27783203125	0	0	0	0.0546372881495197	-0.300567619490655	0.371127757386017	0.876891133810243	0.543846587622694	0.618032880656302	0.567684989724782	-0.683721679194406	0.718557908882585	-0.127276066021342	-0.486575332842442	-0.318919880236339	0.813347745714775	-8.89375719355906	-34.5889503056089	48.6533903785573
20704	1649153435566	5.58225144299071	-1.33985401465856	7.90539881110251	0.105142114268373	-0.0343499598960107	-0.0433559900837253	0.0120006015114492	-0.0122022200662975	0.0127528008146447	0.625732421875	-0.43701171875	0.275390625	0	0	0	0.0546916367428054	-0.300604299396033	0.371199502877076	0.876844803325437	0.543695968496864	0.618087627897713	0.567769652306316	-0.683849792481287	0.718439507868409	-0.127256178070455	-0.486563618824464	-0.319080487923621	0.813291760110027	-8.89299203377356	-34.5948428109177	48.6637778716028
20705	1649153435567	5.47567371539421	-1.42088338493933	7.97244194609049	0.0679584767503252	-0.177352225887318	-0.0389638843256179	0.011485338344786	-0.00849604111215061	0.0126915017125956	0.6220703125	-0.43115234375	0.26171875	0	0	0	0.0545891679134127	-0.300633661049853	0.371395692163441	0.87675804212606	0.543369283372402	0.618425637023594	0.567714323722174	-0.684071002637491	0.71817052517792	-0.12758510930437	-0.486617596514861	-0.319031077228588	0.813278849180567	-8.91574906554425	-34.5909919009204	48.696387673461
20706	1649153435568	5.50492560094119	-1.39598979930897	7.94108268599711	0.0822215016752288	-0.132226733067361	-0.0510510658614613	0.0203772151735952	-0.0060286030653767	0.00555027091762924	0.6162109375	-0.43017578125	0.26904296875	0	0	0	0.0546789993655474	-0.300625608687465	0.371450940487342	0.876731800062449	0.54329688442472	0.618449888443336	0.567757193577341	-0.684201518310092	0.718068811678903	-0.127457695084337	-0.486514930620383	-0.319212965241817	0.813268900859347	-8.90709529416117	-34.5939756586798	48.7012872687513
20707	1649153435569	5.50656804591668	-1.37597032378404	7.95652071228822	0.0600092239251419	-0.121441245104329	-0.0401002639146384	0.0165540922035301	-0.00800448616720191	0.00243732701304081	0.618408203125	-0.428955078125	0.27490234375	0	0	0	0.0546481024142484	-0.300709965463749	0.371521664108563	0.876674828355028	0.543090339537591	0.618540924245801	0.56785562261379	-0.684273840204393	0.717970476001052	-0.127623301958362	-0.486643806816523	-0.319257765174119	0.813174203146626	-8.91950434292905	-34.6008267615325	48.7162706063833
20708	1649153435570	5.53818126944155	-1.31308226400417	7.9562931548884	0.0346446772603115	-0.0578846819026681	-0.030372373659624	0.0215041116302097	-0.00703448790232215	0.0079614727752525	0.6220703125	-0.428466796875	0.2705078125	0	0	0	0.0547405803335531	-0.300706095873408	0.371588962981329	0.876641862655315	0.542994972990067	0.618579228904323	0.567905094954826	-0.684422533696113	0.717850222910413	-0.12750236404265	-0.486541113038262	-0.319453901268405	0.813158625538637	-8.91135575527969	-34.6042704720029	48.7230183664078
20709	1649153435570	5.5416543901739	-1.37159403372116	7.95111833277469	0.078237836518966	-0.0951074220025898	-0.0251279284404013	0.0128977363109885	-0.00724193035835591	0.00515685595797644	0.6201171875	-0.430908203125	0.270263671875	0	0	0	0.0546915300519023	-0.300729905249026	0.371673773160065	0.876600802517574	0.542840260867746	0.61872429835283	0.567894967233235	-0.684513812954561	0.717734885771086	-0.127661558903125	-0.486585337896085	-0.319432115440772	0.813140721258988	-8.92249655331757	-34.6035654817952	48.7377737318898
20710	1649153435571	5.52245178081059	-1.36080213710632	7.94042581525234	0.0657960130912438	-0.0967778999315247	-0.0461156465213044	0.0166399145466691	-0.0066347079590324	0.00535486790390667	0.61669921875	-0.43359375	0.275390625	0	0	0	0.054765780070696	-0.300732722635749	0.371722472678281	0.876574550266709	0.542764465684068	0.618745194328124	0.567944644561897	-0.684624642919849	0.717646225278385	-0.127565644475913	-0.486513959817761	-0.319590800617816	0.813121077738676	-8.9161125881491	-34.6070235755531	48.7426992515281
20711	1649153435572	5.50858131609573	-1.37187233345801	7.95583471186863	0.057020130452547	-0.116699254701241	-0.0400245896892493	0.0144654073726925	-0.00828785407309542	0.00408359508465866	0.62158203125	-0.431640625	0.273681640625	0	0	0	0.0547010319581418	-0.30076436401249	0.371838114709511	0.87651868827319	0.542554427578879	0.618941870934878	0.567931028839055	-0.684750355285747	0.717488427103982	-0.127778354614138	-0.486571314455135	-0.319564261730699	0.813097188885754	-8.93099852775073	-34.6060757557098	48.7627191834163
20712	1649153435572	5.49471204762726	-1.38293633966553	7.97124933664142	0.0497626157603379	-0.139192389209655	-0.0339687113700418	0.0166416012574578	-0.00663422483570589	0.00535578915410769	0.613525390625	-0.427001953125	0.2744140625	0	0	0	0.0547747928201717	-0.300767295511892	0.371887357626768	0.876492184368663	0.542477654375685	0.618963792253257	0.567980473592642	-0.684861657448247	0.717399030617775	-0.127683753962347	-0.486500261726852	-0.31972246519152	0.813077512043939	-8.92470543429948	-34.6095177633822	48.7677441395868
20713	1649153435573	5.50968802755584	-1.36969720164614	7.95544312324896	0.0559063110124308	-0.114201835889273	-0.039988650911976	0.0181247821333723	-0.00905100712494953	0.00136694910402041	0.622802734375	-0.436279296875	0.2705078125	0	0	0	0.0547430629747761	-0.300771978832239	0.371969124646541	0.876457862144647	0.54235037411805	0.619100168786524	0.567953389551035	-0.684960886299569	0.717284334731651	-0.127795803484628	-0.486502472690243	-0.319715755253116	0.813078827610957	-8.93239690209453	-34.6076323388207	48.7806648737141
20714	1649153435574	5.56110122184688	-1.31640282415292	7.96563510304094	0.042865934937417	-0.0489028068079628	-0.00932689001485087	0.02239316430197	-0.00711419348379134	0.000995246032443333	0.617919921875	-0.435791015625	0.271484375	0	0	0	0.0548492613667455	-0.300764930807534	0.372008119735147	0.876437090597484	0.542300830494919	0.619089959678998	0.568011823001227	-0.685076896878252	0.717203034757286	-0.127630138676582	-0.486394340641608	-0.319917846891347	0.813064029847723	-8.92116372462715	-34.6117001700476	48.7827908998061
20715	1649153435575	5.52537398042047	-1.35479078848145	7.9394207961553	0.0604779098071013	-0.0888093685848959	-0.0460055575528422	0.0139015224251668	-0.0103013726224395	0.00319894790015373	0.615234375	-0.439697265625	0.277099609375	0	0	0	0.0547747825022825	-0.300840824364985	0.372160591035003	0.87635096626734	0.541982585751746	0.6193296056755	0.568054325109563	-0.685243568565098	0.716992435364609	-0.127918330860344	-0.48651426339011	-0.319926065152178	0.812989043194447	-8.94179421709954	-34.6146590697839	48.8104502035388
20716	1649153435575	5.52619723258925	-1.35364356227069	7.93904349607012	0.0603616603051676	-0.0887416384367713	-0.0460042227548705	0.0175603721126209	-0.0110653825103285	0.000481652216210069	0.624267578125	-0.42724609375	0.26171875	0	0	0	0.0548671092319034	-0.300860576579248	0.372189674385762	0.876326058077447	0.541915519482046	0.619304320185712	0.568145869248221	-0.6853337206607	0.71692889321031	-0.127791444962489	-0.486461983170181	-0.320117355167683	0.812945027569873	-8.93354356798799	-34.6210325219641	48.8128047514352
20717	1649153435576	5.51382310231912	-1.34569835808401	7.96980996347419	0.0310160783383601	-0.0997883296859703	-0.0290223908381186	0.0194155687160152	-0.0123468388097697	0.0102464115955055	0.614013671875	-0.42626953125	0.272216796875	0	0	0	0.0548276631371622	-0.300942998697671	0.372347432497609	0.87623320434814	0.541581402094584	0.619526365104199	0.56822237534793	-0.685526370528533	0.716702633734712	-0.128027067871226	-0.486562616952065	-0.320194343701611	0.812854477779543	-8.95072975704172	-34.6263593768412	48.8404937056051
20718	1649153435577	5.54632153796433	-1.38024778196734	7.93326538055591	0.0900028338017824	-0.0938842942415308	-0.0358498740809807	0.015597820616483	-0.00929021780790807	0.00649913513411884	0.62451171875	-0.43310546875	0.263916015625	0	0	0	0.0548983930773481	-0.300961047564941	0.372400819240621	0.876199888219037	0.541480155355055	0.619550556602238	0.568292485583368	-0.685639668163001	0.716607592532878	-0.127952349589845	-0.486515659355375	-0.320360213100954	0.812817228572276	-8.9459938180922	-34.6312412101396	48.8469102692632
20719	1649153435581	5.54420275922504	-1.31960498831781	7.93777624572125	0.043144560355993	-0.0530616137322241	-0.0411390692691746	0.0197731536193016	-0.0137607235000347	0.00384896996972977	0.617919921875	-0.428466796875	0.2744140625	0	0	0	0.054897204745902	-0.30104796551718	0.372480471046597	0.876136244004298	0.541256842293744	0.619633898132768	0.568414340912505	-0.685740665338103	0.716489191199983	-0.128074114462099	-0.486621794180924	-0.320463837551737	0.812712838738108	-8.95550083488719	-34.6397267804865	48.8624392416766
20720	1649153435581	5.50991124018192	-1.3396870216366	7.92685682048909	0.0433168754928263	-0.0864883500551868	-0.066940312033136	0.0119763718152234	-0.0128724765486928	0.0113137834758204	0.617919921875	-0.4345703125	0.270751953125	0	0	0	0.0549511713652848	-0.301090610840706	0.372548491258913	0.876089284542313	0.541104131448556	0.619680918823107	0.568508467637778	-0.685862045834251	0.716375980852581	-0.128057440789511	-0.486620563697591	-0.320625970414208	0.812649625658307	-8.95503907116021	-34.6462820241956	48.8726036491288
20721	1649153435582	5.5213557421684	-1.38316217098422	7.97863087549127	0.0522192820234342	-0.125612513047676	-0.0127612385094498	0.010850372679003	-0.0118681593916906	0.00890317109288751	0.615966796875	-0.4423828125	0.275634765625	0	0	0	0.0548778652406175	-0.301141031601171	0.372668669819187	0.876025434292871	0.540864283242761	0.61988251275014	0.568516928067113	-0.685986420552659	0.716212964883661	-0.128302843888617	-0.486711883900162	-0.320600466810527	0.81260499798563	-8.97240589536577	-34.6468712571196	48.8944210164458
20722	1649153435582	5.46725730093257	-1.39331852561521	7.95731286905139	0.0400652442173797	-0.160781593429216	-0.0595539763876474	0.0231231721485969	-0.0124248413229873	0.00898873010381033	0.622314453125	-0.431884765625	0.2666015625	0	0	0	0.054982904156117	-0.30116035002367	0.372743889663501	0.875980203282416	0.540728872584288	0.619915195157476	0.568610092388969	-0.686149877801373	0.716077745938166	-0.128183489441022	-0.486631926148383	-0.320839231679954	0.812558647648359	-8.96469790177586	-34.6533600329286	48.9030242830846
20723	1649153435584	5.5030677922346	-1.27453223489983	8.00293359558033	-0.047256900849812	-0.0664853971639481	-0.0173578669068952	0.0109645474012187	-0.0198764874863608	0.0145558565146685	0.61865234375	-0.439453125	0.2626953125	0	0	0	0.0548862969118554	-0.30128123774884	0.37295771014633	0.875853673072298	0.540264324445865	0.620240337726486	0.568697092649495	-0.686385183602703	0.715780081707419	-0.128585591578549	-0.486816022190866	-0.32087505058489	0.812434220383661	-8.99371537278971	-34.6594199484395	48.9422973627585
20724	1649153435584	5.49791820011713	-1.48371069615392	7.9873918817008	0.099675158696764	-0.215839869990435	-0.00603611738064735	0.010224977698477	-0.0246376452101051	0.00784339839245049	0.62060546875	-0.42919921875	0.26806640625	0	0	0	0.054958382632964	-0.301378287262662	0.37300605180155	0.875795175520174	0.540075226572087	0.620227274757954	0.568890918620986	-0.686480327672549	0.715692122995576	-0.128567277332435	-0.486891681343703	-0.321096422789801	0.812301408289986	-8.99390158940468	-34.672922294944	48.9516334846981
20725	1649153435585	5.50439404381441	-1.31088147093242	7.96956618387915	-0.0108884887884639	-0.0828992053653989	-0.0390617536645124	0.0278456146682013	-0.0299849534098325	0.00914632465567319	0.613525390625	-0.43505859375	0.2666015625	0	0	0	0.0549934026258398	-0.301560649079423	0.373170693049957	0.875660056439166	0.539609617550823	0.620373647893268	0.569173082327559	-0.686709032657005	0.715438719032494	-0.128756140732877	-0.487085377643319	-0.321378244921376	0.812073801188858	-9.0093801049547	-34.6925823792933	48.9828008426604
20726	1649153435586	5.52553350215696	-1.43608416588872	7.92733973775198	0.105517215455433	-0.147932851065392	-0.045213020112973	-0.000521951278342059	-0.0258119347348452	0.00523670847997591	0.61279296875	-0.428955078125	0.26953125	0	0	0	0.0550237630810154	-0.301683579583508	0.373191374038618	0.8756069904068	0.539430432305699	0.620338420118594	0.569381289846491	-0.686737483352336	0.715401167679146	-0.128813035994867	-0.487243714850573	-0.321529802363766	0.811918806612171	-9.01498823845522	-34.7070924749654	48.9906123079363
20727	1649153435586	5.5727012961714	-1.26449421552936	7.94582180245881	0.000976914983287502	-0.00167668509705506	-0.0254495081165267	0.0282890179287549	-0.0300290862255613	0.00566146316887065	0.618408203125	-0.43310546875	0.2744140625	0	0	0	0.0550442969237165	-0.30179986968331	0.373291531227624	0.875522927597585	0.539140542745745	0.620425865258816	0.569560550675407	-0.686875311812364	0.715247116179819	-0.128933582976354	-0.487370271139398	-0.321703758937167	0.811773928070622	-9.02486988342956	-34.7195872992419	49.0098606411854
20728	1649153435586	5.5351451315162	-1.45669840373781	7.95074874957131	0.108572189890364	-0.166060648314611	-0.0180539912634146	-0.00796291082139278	-0.0263348462197195	0.00631301907673472	0.619140625	-0.428955078125	0.269287109375	0	0	0	0.0550406371048344	-0.301939714473796	0.373306300764706	0.875468641871283	0.538949629265708	0.62039801176116	0.56977153677343	-0.686873828768718	0.71522586815293	-0.129059292100529	-0.487583470256077	-0.321804699356127	0.811605874181154	-9.03536368286275	-34.7342958551593	49.0186338664273
20729	1649153435587	5.59165541799794	-1.34853524642835	7.89160987809651	0.0912265021990448	-0.0344087180096556	-0.0477932490818986	0.0336563090838952	-0.0247506523672467	0.00559317437944625	0.610107421875	-0.434326171875	0.270263671875	0	0	0	0.0551074384883098	-0.301993601278862	0.373432966593618	0.875391829109097	0.538695368495427	0.620516147739372	0.569883330477622	-0.687084522964724	0.715021979368694	-0.129067530084114	-0.487567593533362	-0.322029935587308	0.811526070019762	-9.03680482042585	-34.7420904342332	49.0374196624253
20730	1649153435587	5.53056165500018	-1.37341050790986	7.9271949079589	0.0572167090619934	-0.103654916380786	-0.0505272850047955	0.00323637466335999	-0.0201694843340495	0.00479714981073347	0.61767578125	-0.433349609375	0.262939453125	0	0	0	0.0551433819763624	-0.302085114115427	0.373459942554582	0.875346481435327	0.538544510273995	0.620497703670306	0.570045972000172	-0.687129683018466	0.714973757462674	-0.129094247953378	-0.487670594939541	-0.32217250950319	0.811407582508157	-9.03994271547155	-34.7534315830803	49.0445206757102
20731	1649153435588	5.52298907784299	-1.40664258495505	7.96815910321954	0.0527571695747622	-0.144363854961537	-0.0172809570327015	0.0170411335437386	-0.0174315177832288	0.00169803352655419	0.62158203125	-0.436767578125	0.263671875	0	0	0	0.0550912240933725	-0.302190230170033	0.373554802465723	0.875273003909335	0.538275748689154	0.620628808779614	0.570157083693545	-0.687220927536114	0.714843533165376	-0.129329501073979	-0.487838718358367	-0.322208945878973	0.811292043635352	-9.05741210337026	-34.7611804032244	49.0646698977422
20732	1649153435589	5.5153019358555	-1.44010849334762	7.89479533369664	0.106868782638866	-0.151163818510135	-0.0768777106720861	0.0138217221037759	-0.0167085525045886	0.000934257908765405	0.616455078125	-0.43505859375	0.26611328125	0	0	0	0.0551718875221101	-0.302246474185191	0.373582670580492	0.875236607959137	0.538166114169137	0.620595441826971	0.570296879829864	-0.68729747573777	0.714784102138391	-0.129251178620173	-0.487851835503958	-0.322405001378392	0.811206263339736	-9.05295909199811	-34.7709306815097	49.0689219666498
20733	1649153435589	5.50980086278452	-1.43486897270091	7.96716978427289	0.0618275275794456	-0.173704506206051	-0.0219492557846692	0.0245854127345728	-0.0104987612385995	0.00289405907561796	0.618896484375	-0.43603515625	0.265869140625	0	0	0	0.055151518266475	-0.302351987387632	0.373743472160216	0.875132791508396	0.537798185480751	0.620799993888592	0.57042131734494	-0.687500678509848	0.714548254101058	-0.129474358888658	-0.487971237617661	-0.322533967434524	0.811083171511304	-9.06968482077157	-34.7796107203059	49.0976609453043
20734	1649153435590	5.47959245967043	-1.39776148619841	8.00267558735411	0.00240110681270898	-0.179411777134468	-0.0152237954607965	0.0120275066516331	-0.0241302129218552	-0.00462419647990392	0.612548828125	-0.4326171875	0.262939453125	0	0	0	0.0552456727261703	-0.302443846996295	0.373742759050358	0.875095414864311	0.537688138943016	0.620703721989007	0.570629787821306	-0.687538577145812	0.714528531404918	-0.129381925880867	-0.488039107220218	-0.322762865455931	0.810951270118229	-9.06476707094714	-34.7941544577555	49.0990661166948
20735	1649153435591	5.56161306894146	-1.41749872243413	7.94445892404742	0.0851415277958504	-0.124320560728244	-0.0130667284344703	0.0291848800335292	-0.0250847855451219	-0.00194735249586964	0.6240234375	-0.432861328125	0.273193359375	0	0	0	0.055269625189738	-0.302586393866507	0.373849044221903	0.87499921994972	0.537356732762465	0.620787570993195	0.570850710304557	-0.68768291729926	0.714364321331511	-0.129521510427223	-0.488200724097811	-0.32296502613896	0.810773485556498	-9.07634071262694	-34.8095696974139	49.1203773091555
20736	1649153435591	5.5227578037319	-1.31712157325113	7.94258660356459	-0.00442436727407826	-0.0793120530396683	-0.0497967041821443	0.0238265030717193	-0.030361542458918	-0.00187019541665256	0.622314453125	-0.42431640625	0.268310546875	0	0	0	0.0554219308437098	-0.302685336492894	0.373877125480226	0.874943364850767	0.537194964229654	0.620691808843774	0.571107037988979	-0.687793431989831	0.714288609248397	-0.129352145748112	-0.488223069219338	-0.3233163483838	0.810619993307477	-9.06635740846414	-34.8274590094538	49.1245398974513
20737	1649153435592	5.5776297711274	-1.34197947591409	7.93099137808268	0.0462515627468659	-0.0611050688534333	-0.0246531768457316	0.023487666798102	-0.0289363812172399	0.00453010043250787	0.61962890625	-0.4306640625	0.26513671875	0	0	0	0.0555011666912554	-0.302783327119019	0.373961689625615	0.874868294091746	0.536949823022185	0.620724795097327	0.571301685896188	-0.687944106736389	0.714144550376529	-0.129346307153227	-0.488280445607969	-0.323571151246348	0.810483754629294	-9.06745360545455	-34.8410462372345	49.1389867978795
20738	1649153435593	5.54037242053925	-1.32081941492728	7.90877059307067	0.0213660361421935	-0.0645478116806893	-0.0666974573857768	0.0198359684697325	-0.0281651359813877	0.00725452832250712	0.62060546875	-0.43115234375	0.27392578125	0	0	0	0.0556184813847678	-0.302882733010983	0.37402370288555	0.874799922411995	0.536736639447159	0.620700057233575	0.571528843388684	-0.688083567824531	0.714025708416468	-0.129260556281591	-0.488318321963077	-0.323880729081862	0.8103372691445	-9.06315293489089	-34.8569056049426	49.1491144175107
20739	1649153435597	5.58470926411999	-1.39912987105922	7.92372047327914	0.0894000273583082	-0.0982076606963279	-0.0191052533340894	0.0155735625179512	-0.0250657206355856	0.00699217484735322	0.620361328125	-0.421142578125	0.271728515625	0	0	0	0.055617512355296	-0.302987680978886	0.374126381283273	0.874719731298162	0.536455832005839	0.620808613234625	0.571674563051938	-0.688214297596008	0.713872286294583	-0.12941189839029	-0.488442648518079	-0.324010840241876	0.81021031498889	-9.07498602438169	-34.8670808687944	49.1689056743632
20740	1649153435597	5.53565427703973	-1.44979301018789	7.91273247720661	0.102189881879233	-0.163382709360682	-0.0495133839882005	0.0197994942293491	-0.0238200968703018	0.00515189050978977	0.6162109375	-0.431396484375	0.271728515625	0	0	0	0.0557295992261624	-0.303067740643658	0.374180392243995	0.874661757716301	0.536277957282557	0.620782871717316	0.571869372073073	-0.688342246615114	0.713766491660443	-0.12931491370913	-0.488457678880889	-0.324293110573051	0.810088312702479	-9.06964106224039	-34.8806858950075	49.1771302110373
20741	1649153435598	5.55590165628483	-1.47711265483041	7.90674437932521	0.134361514167786	-0.169263272644611	-0.0392638019439317	0.0235484937125932	-0.0232136319303069	0.00534184444827843	0.614990234375	-0.432373046875	0.273681640625	0	0	0	0.0557827702335949	-0.303096536540806	0.374208982512204	0.874636158347695	0.536200253888297	0.62077828485444	0.571947208038737	-0.688408542680257	0.713711839904494	-0.12926363736561	-0.488449553275434	-0.324422148802024	0.810041544164068	-9.06661922760442	-34.8861224143754	49.1810278976315
20742	1649153435599	5.60429454615392	-1.38289933199277	7.90500921877336	0.0959662177290217	-0.0738233597058779	-0.0251933669306847	0.0272091153617553	-0.0189527352808285	0.00196866857735956	0.618896484375	-0.43505859375	0.267578125	0	0	0	0.0559233514712358	-0.303140014966101	0.374261420941465	0.874589674579715	0.536069040242455	0.620745137493986	0.572106160053451	-0.688555559901766	0.7136019351102	-0.129087253961589	-0.488386348111716	-0.32472719702013	0.809957420173154	-9.05537752268196	-34.897225670765	49.1864510977489
20743	1649153435600	5.55183783231142	-1.3733026167913	7.8992465641836	0.0627749093079005	-0.0968868311439011	-0.0610910004956846	0.0197208974791113	-0.015132036307892	0.000942413874370276	0.613037109375	-0.429443359375	0.27197265625	0	0	0	0.0558835858802366	-0.303174775536484	0.374383515847653	0.874527908856612	0.535844077079906	0.620932679238439	0.572113391656023	-0.688702653660098	0.713428015781433	-0.129263765764839	-0.488425818215954	-0.324750787761848	0.809924160615138	-9.06792029292196	-34.8977308547409	49.2069082158478
20744	1649153435600	5.62106269249891	-1.36745655126644	7.8881187803569	0.101316915334365	-0.0480497431505807	-0.0312699400280518	0.0256047792538534	-0.0135591544800361	0.00093670395389561	0.6220703125	-0.437255859375	0.2685546875	0	0	0	0.0560080084608039	-0.303197226754902	0.374431318920518	0.874491699267541	0.535745258199155	0.62091121500082	0.572229221032382	-0.688837106366343	0.713328580799391	-0.129095998030805	-0.48834461112002	-0.325010151996722	0.809869089352782	-9.05695209552712	-34.9058228657366	49.211155302227
20745	1649153435602	5.55793940907804	-1.41073690236046	7.90921640078851	0.0858863250798349	-0.123859353692527	-0.0446857531615574	0.0133245492072672	-0.00796791803264935	0.000220028037943937	0.6142578125	-0.4287109375	0.268310546875	0	0	0	0.0559382273523808	-0.303220369129543	0.374537985402405	0.87444246234748	0.535557410471302	0.621100616503405	0.572199514390184	-0.68894705628837	0.713184424422762	-0.129305569842768	-0.488395550472015	-0.324964614904244	0.809856644931234	-9.07154775827246	-34.9037474398928	49.2297357304492
20746	1649153435602	5.55574375027863	-1.44700353522412	7.87837354575045	0.125278950212047	-0.142163988674608	-0.0662535605886827	0.0245708833862871	-0.00111835689149884	0.000127190819142245	0.614990234375	-0.426025390625	0.268310546875	0	0	0	0.0560355231543966	-0.303190073534887	0.374584828751278	0.874426672468365	0.53552397075857	0.621115101952731	0.572215087942657	-0.689072759495721	0.713092452428377	-0.12914289144446	-0.488254860563545	-0.325138715652153	0.809871598909445	-9.06015981506149	-34.9048354645421	49.2321659127023
20747	1649153435603	5.55957637952921	-1.38842449516303	7.92499825144572	0.0647811451672064	-0.112732440676316	-0.033868217791909	0.0223467139078716	0.00156774718858502	-0.00324252361894578	0.617431640625	-0.43212890625	0.27197265625	0	0	0	0.0560190905787501	-0.303152100572001	0.374571854087826	0.874446448637492	0.535589460087984	0.621121445171157	0.572146904729157	-0.689050665095482	0.713115575231877	-0.129133099138767	-0.488214206239571	-0.325075878388727	0.809921330819026	-9.05893716070707	-34.9000720454683	49.228990284118
20748	1649153435604	5.51672999829288	-1.42204220290558	7.97264027895173	0.042982551194317	-0.180121611412576	-0.0154829055283674	0.0249103573688579	-0.00254888436201778	-0.00626671239271688	0.6162109375	-0.434814453125	0.265380859375	0	0	0	0.0561301439204104	-0.303125575739622	0.374590975860727	0.874440331343257	0.535592972272462	0.621085949715252	0.57218214854944	-0.68914387848414	0.713062015494364	-0.128931287153083	-0.488078767004042	-0.325261133745516	0.809928584551994	-9.04493421635301	-34.9025342165077	49.2271850657777
20749	1649153435604	5.56240917070308	-1.3460376242369	7.95643418259285	0.0226677464457894	-0.0912976424105403	-0.0122685803109608	0.0264343224783499	0.000742739059573543	-0.00944972201853781	0.60400390625	-0.431640625	0.27001953125	0	0	0	0.0561084384096168	-0.303108007648562	0.374678637310338	0.874410257020022	0.535482908885175	0.621231853143667	0.572126768235464	-0.689259521058111	0.712935523765005	-0.129012602425739	-0.488036235255759	-0.32525977862872	0.809954757677107	-9.05025672514095	-34.8986653215816	49.2396643285998
20750	1649153435605	5.54163842001013	-1.35270458858781	7.93080092893456	0.029931323416028	-0.102182231906903	-0.0440727220209904	0.0239144547401206	-0.00451155290031236	-0.00365604431571944	0.614990234375	-0.437744140625	0.268798828125	0	0	0	0.0562141889718784	-0.303092918636314	0.374707783409051	0.874396205780555	0.535457519450394	0.621209882970112	0.572174384400675	-0.689362373387151	0.71286808402182	-0.128835604322303	-0.487918807817515	-0.325449498514469	0.809949295261509	-9.03810531210473	-34.9019917984181	49.2400057361997
20751	1649153435606	5.57057595562069	-1.32697080888715	7.89933099617482	0.0424614917516462	-0.0530643751753293	-0.0563059050058427	0.020783144330474	-0.00241063180906442	-0.00150983129020664	0.6171875	-0.43505859375	0.272216796875	0	0	0	0.0560998711026082	-0.303064604378976	0.374819718386048	0.874365386291045	0.535324048563236	0.621455005229389	0.572033075534279	-0.689462546195083	0.712725966342548	-0.129085608397194	-0.487923723981586	-0.325292750267234	0.81000930006977	-9.05469363264266	-34.8921203200829	49.2582469382803
20752	1649153435607	5.54379021329836	-1.42753066066969	7.91108395454147	0.092491850244298	-0.146308025125303	-0.0491458925317811	0.0191247699308172	-0.00274074056146832	-0.00334580530352583	0.620849609375	-0.43017578125	0.264404296875	0	0	0	0.0561796407443783	-0.303050604766015	0.374845085192991	0.874354242297391	0.535302986115224	0.621444232679394	0.572064488257787	-0.68954532909188	0.712670020144984	-0.128952245091428	-0.487829839374034	-0.32543587395379	0.81000835783357	-9.04550397258956	-34.8943146305843	49.2588705657072
20753	1649153435607	5.54950492826848	-1.44722230296769	7.9375104381439	0.0954284382410306	-0.164872878633935	-0.0219141983298101	0.0265307652246403	-0.00290740241494202	-0.00587930391500778	0.61328125	-0.428466796875	0.267333984375	0	0	0	0.0561890891125075	-0.303066604361282	0.374941780853929	0.874306628452349	0.535138588582013	0.621570095689674	0.572081556384036	-0.689686241447598	0.712522894469582	-0.129011678597614	-0.487811007838422	-0.325517650828674	0.809986839171258	-9.04984046844174	-34.8955069353731	49.2733099680345
20754	1649153435608	5.54427338479695	-1.423077118223	7.91154772661487	0.0899757533463757	-0.143971694585462	-0.0490876507474223	0.0243520557219924	0.000466167980733009	-0.00779691667230705	0.616455078125	-0.44287109375	0.27001953125	0	0	0	0.0562920234627339	-0.303028015503601	0.37495677282517	0.874306953207485	0.535162880664967	0.621538506949381	0.572093152849699	-0.689770747583759	0.71247725321401	-0.128811798490518	-0.487664851036157	-0.325677828584866	0.810010459828841	-9.035791745933	-34.8963170237133	49.2705841962963
20755	1649153435609	5.54808219228825	-1.36380383182719	7.95816779286333	0.0278719980286628	-0.112796921265259	-0.0167641851720806	0.0286260183552531	0.00240081619298959	-0.00818549735379537	0.62158203125	-0.4375	0.263671875	0	0	0	0.0562458687688713	-0.303004467191265	0.3750917229011	0.874260198407578	0.534988984546444	0.621770029173069	0.572004210855206	-0.689941027165155	0.712285203315039	-0.128961886512043	-0.487614771564866	-0.325655984069963	0.810049390217145	-9.04571844858542	-34.8901040528422	49.2903412703236
20756	1649153435609	5.52709246313049	-1.37022389035218	7.93275807175053	0.0351237479086178	-0.123654369775019	-0.0485493771890191	0.0275823413713962	-0.000252006868344065	-0.00702918746240406	0.615234375	-0.4267578125	0.263427734375	0	0	0	0.0563620719667662	-0.302963471089807	0.375115860766964	0.874256565906078	0.535002452372551	0.621743710580328	0.572020221940766	-0.690046306423788	0.712222815689346	-0.128742983507568	-0.487450993379074	-0.325842629447633	0.810072904057658	-9.03035945867986	-34.8912224595573	49.2884290849733
20757	1649153435611	5.51402094926811	-1.36114494424246	7.96431831386654	0.00462929081961033	-0.135498373658528	-0.0316277391619497	0.0159058855791485	0.00301112265104018	-0.004766678199319	0.612548828125	-0.42822265625	0.2705078125	0	0	0	0.0563133460930018	-0.303046584257058	0.375183773204258	0.874201756544881	0.534799808188692	0.621841492761458	0.572103419882752	-0.690103761487737	0.712131886752051	-0.128937869733606	-0.487592005207034	-0.325854774019294	0.80998314964388	-9.04478909480714	-34.8970342492308	49.3036149329106
20758	1649153435612	5.5368786666137	-1.42840888485685	7.97054289004718	0.0612955307986612	-0.172547203579993	-0.00486390616770471	0.0291514938879472	-0.00633221891104271	-0.00743613442246553	0.6201171875	-0.43359375	0.276123046875	0	0	0	0.0564478460861675	-0.303030487569595	0.375206833512174	0.87418876471923	0.534784711378202	0.621792359960954	0.572170930378607	-0.690214033247933	0.712066945515999	-0.12870607371502	-0.487452460024313	-0.326090365079532	0.809972328551132	-9.0289156881027	-34.9017504950675	49.302176413027
20759	1649153435613	5.53468162353972	-1.36631059841941	7.97495278115491	0.0161037476193298	-0.130550662209955	-0.0105409708047599	0.0260177119052959	-0.00926059474612938	-0.004630001353262	0.619873046875	-0.43798828125	0.27294921875	0	0	0	0.0564551680310233	-0.302981256794682	0.375277125915884	0.874175183128655	0.534738873590857	0.621906185017838	0.572090057689643	-0.690325616068216	0.711959785533805	-0.128700456808424	-0.48734472488252	-0.326107284216739	0.810030344067408	-9.02789215881886	-34.8961008059268	49.3097889849201
20760	1649153435614	5.53437726655392	-1.38321875323788	7.95926649141827	0.0355846098970386	-0.13954394390304	-0.0212722555713896	0.0190869636914071	-0.0134890549057157	-0.00346517215743551	0.613037109375	-0.43359375	0.27197265625	0	0	0	0.056552881477741	-0.303015774759172	0.375300815551995	0.874146732356571	0.534661476186213	0.621863132739382	0.572209183797273	-0.690408793522748	0.711902138885145	-0.128573101686242	-0.487311813635627	-0.326315167882705	0.809966423687327	-9.01980561615173	-34.9044229779148	49.3119280380088
20761	1649153435614	5.56448505859918	-1.45513009760733	7.89199304598354	0.132957334885557	-0.148402225236858	-0.0492478790580897	0.0207022588021359	-0.0138476131484517	-0.003081361269512	0.62158203125	-0.430419921875	0.266357421875	0	0	0	0.0565055875157461	-0.303028670164155	0.375465146435561	0.874074749349372	0.534399097741333	0.622123581436694	0.572171175220869	-0.690614833603658	0.711666084783247	-0.128773193545386	-0.487307660456761	-0.326333622524045	0.809961487276088	-9.0336655356162	-34.9017676001052	49.3376895099536
20762	1649153435615	5.5454805350162	-1.34566509847471	7.91626002042154	0.0357151236502057	-0.0923508355356254	-0.0545862807036492	0.0286353289813087	-0.0126874138546607	-0.00619116460184143	0.6220703125	-0.434326171875	0.260009765625	0	0	0	0.0566468538528912	-0.303040702120511	0.375492720932058	0.874049588601194	0.534343098770695	0.62206591177782	0.572286164606625	-0.690731121235813	0.711592700951218	-0.128554836973441	-0.487204239464774	-0.326603474196127	0.809914933613754	-9.01910927694477	-34.9098013201687	49.3380319505727
20763	1649153435615	5.56499966470087	-1.37253655172813	7.91097309998672	0.06398392459625	-0.0988172763624057	-0.0442323032975782	0.0138193435766656	-0.0123535621572726	-0.00112429871734775	0.620849609375	-0.432373046875	0.271484375	0	0	0	0.0566404098782482	-0.303221204379052	0.37559634072139	0.873942878007735	0.533968580103237	0.622150347358839	0.57254388543046	-0.690848640558062	0.711438505611051	-0.128776583946741	-0.487448162681541	-0.326778515228877	0.809697530367482	-9.03679586698719	-34.9278098117529	49.3617305616331
20764	1649153435616	5.52169911208261	-1.4256518448527	7.94278178774867	0.061987880100242	-0.175339045889991	-0.0364488101764611	0.0218912998269842	-0.00911674815395471	0.000124782062680803	0.62451171875	-0.429443359375	0.26806640625	0	0	0	0.0567355195226107	-0.303233745633611	0.375641993007398	0.873912735588022	0.53388477719688	0.622148395231044	0.57262415159411	-0.690964891612284	0.711348347827858	-0.128650870971792	-0.487375177082976	-0.326978443255841	0.80966075266702	-9.02852275924154	-34.9334192946954	49.3660860995508
20765	1649153435617	5.56661562832043	-1.36932524699977	7.91039266893489	0.0619457445349724	-0.0971376514425731	-0.0442023191691696	0.019046814814275	-0.00915047805036579	-0.0055788512981941	0.621826171875	-0.4306640625	0.2705078125	0	0	0	0.0567694325942036	-0.303278561132115	0.375723487214708	0.873859947037159	0.533707951025707	0.622225509609209	0.57270519309982	-0.691093316943036	0.711218185356303	-0.128680690451834	-0.487386756373842	-0.327114823892235	0.809598691761133	-9.03126180571001	-34.9390833524107	49.3789750837192
20766	1649153435617	5.53327097210493	-1.36962935095318	7.91557368111209	0.0421408263443296	-0.121273615799086	-0.0590831305556545	0.0208020447810188	-0.00743079174016733	-0.000835535298590328	0.626220703125	-0.42822265625	0.26953125	0	0	0	0.0568581392930224	-0.303285850736791	0.375763495600402	0.873834446627714	0.533638976234056	0.622221634188155	0.572773673445359	-0.691198710775336	0.711137894740604	-0.128558301507197	-0.487312820749036	-0.327296704248796	0.809569689477993	-9.02313141366137	-34.9438698052223	49.3824581370946
20767	1649153435618	5.51837833273753	-1.39918808241324	7.91583058878768	0.0535840545790122	-0.152124225576093	-0.0636059960062685	0.0123483935575724	-0.00991577844691134	0.00285676910457166	0.61572265625	-0.44384765625	0.26904296875	0	0	0	0.0568753549323909	-0.303345833091848	0.375851830309596	0.873774513933689	0.533433414397479	0.622313696830987	0.572865128228973	-0.69132530452843	0.711001191308483	-0.128633701947009	-0.487358303225585	-0.327418644390432	0.809492999094255	-9.02917765122529	-34.9502624985441	49.397555012498
20768	1649153435618	5.54454306009449	-1.42921065141896	7.95222524447789	0.0704185691542737	-0.170596515963135	-0.0153191060543723	0.022802046606366	-0.0135709371693433	-0.0047224552771778	0.622802734375	-0.42724609375	0.269287109375	0	0	0	0.0569905456849434	-0.303375387764451	0.375875585448714	0.873746528499477	0.533361836724712	0.62226091807489	0.572989093231483	-0.691419033659199	0.710939243932238	-0.128472220074367	-0.487303674334004	-0.327653385872407	0.809430903602603	-9.01870959949772	-34.9589284534822	49.3989529445525
20769	1649153435618	5.56877684530462	-1.38194742104879	7.89373645578258	0.0771757290239724	-0.10198636317364	-0.0548304360352727	0.0190985471605872	-0.0134869161762153	-0.00345456963872455	0.618896484375	-0.435546875	0.272216796875	0	0	0	0.05695935968067	-0.303446277071149	0.376040712320847	0.873652889283643	0.533027479217778	0.622489898335863	0.573051509786465	-0.691626320893686	0.710698028043996	-0.128690890048361	-0.487375357035831	-0.327741726675415	0.809351976552855	-9.03467366344805	-34.9632921209741	49.4271199703195
20770	1649153435619	5.54399189209256	-1.3659244920306	7.95556115137132	0.0226282455074517	-0.128251053506748	-0.0210793126079274	0.0217608922132186	-0.0162220394619941	-0.00356095108001141	0.619873046875	-0.432373046875	0.259765625	0	0	0	0.0570725020113461	-0.303490095494528	0.376067886585793	0.873618587330754	0.532933413231234	0.622437913468016	0.57319544741675	-0.691721669810156	0.710631348386119	-0.128546560459528	-0.487342906562469	-0.327984954789863	0.809272982901774	-9.02557434320435	-34.9733559776076	49.4297517715132
20771	1649153435619	5.52303108463273	-1.39253186659039	7.91375912325239	0.0471614420984201	-0.146516648230027	-0.0634869239205216	0.0138297329529035	-0.0173802829916052	-0.000445867851201878	0.61669921875	-0.43896484375	0.260986328125	0	0	0	0.057037926615266	-0.303633289797436	0.376202359733191	0.873513185238435	0.53255721971593	0.622598216486674	0.57337096940467	-0.691872669692346	0.710436918917221	-0.128808358316501	-0.487539759056864	-0.328101882144889	0.809107000508435	-9.04547690693221	-34.9856298285058	49.4570268747316
20772	1649153435620	5.54828838309963	-1.44143747665766	7.93460706675086	0.083840338045325	-0.174181640630394	-0.0258663048921797	0.0234728407722731	-0.0151926619074959	-0.000271269798730597	0.621826171875	-0.43017578125	0.269287109375	0	0	0	0.0571509802335896	-0.303671239407918	0.376247123679948	0.873473322853861	0.53244376055805	0.622573432668039	0.573503236938324	-0.691993868671686	0.710343734761812	-0.12867114752513	-0.487491669224813	-0.328350573961085	0.809035087629597	-9.03679036492342	-34.994880210281	49.4619304139679
20773	1649153435620	5.56113970113749	-1.36827632276286	7.92229085671871	0.0427458824754751	-0.110351539732332	-0.037865518846262	0.0180154712392866	-0.0218599526078747	-0.00307209456065806	0.614990234375	-0.43701171875	0.265625	0	0	0	0.0571410473086857	-0.303836014158245	0.376386452801263	0.873356636982041	0.532033829296228	0.622716197130024	0.573728631250275	-0.692162229366419	0.710136277720299	-0.128910493382301	-0.487700166826814	-0.328528545026883	0.808837154425795	-9.05550063976732	-35.0106460000908	49.4902148710541
20774	1649153435621	5.57103147104001	-1.44780135497729	7.94361171732287	0.0921631948479487	-0.169751008426728	-0.00472235023980261	0.0218613346217851	-0.0148334483759765	-0.000652603669732382	0.616455078125	-0.431640625	0.265625	0	0	0	0.0572462411324494	-0.303876340832839	0.376427585104694	0.873317989354679	0.531922885308586	0.622690406959011	0.573859478588802	-0.692273520086063	0.710050282096908	-0.128786529892505	-0.487663221365566	-0.328763218708121	0.8087640747165	-9.04774069156837	-35.0197998507971	49.4949441341772
20775	1649153435621	5.55825222188743	-1.34278611035888	7.89477442982603	0.034270850563423	-0.086670304570939	-0.0650713097383839	0.031459199196755	-0.0133388948347117	-0.00193227512624224	0.615966796875	-0.427001953125	0.26123046875	0	0	0	0.0572448572063004	-0.303949418656578	0.376562177983952	0.873234621011868	0.531631354020621	0.622855179420573	0.573950807030679	-0.692453343696308	0.709847904870825	-0.12893532779771	-0.487725814598739	-0.328888092547399	0.808675554443517	-9.05899617319776	-35.0261896359791	49.5179416303671
20776	1649153435622	5.60186430952325	-1.41989583072062	7.91099082687894	0.102980052501076	-0.121599795213802	-0.0170060668577729	0.0181121220287086	-0.0154424764961033	-0.000833608907412962	0.619873046875	-0.429931640625	0.27587890625	0	0	0	0.0573342293372512	-0.304000075805044	0.376597375802889	0.87319594398692	0.531516740897811	0.622827382004904	0.57408710695354	-0.692545822263897	0.709774405369363	-0.12884322856631	-0.487719425705181	-0.329099294601925	0.808593480113662	-9.05353612004613	-35.0357267753256	49.5227790187279
20777	1649153435623	5.54786234366624	-1.42951005174683	7.89017628488617	0.0904271469052113	-0.15575028035376	-0.063599106995019	0.0212942398014993	-0.0118232139477611	-0.00219330754484857	0.614501953125	-0.4365234375	0.2734375	0	0	0	0.0573556582500532	-0.304028072297982	0.376605760010029	0.873181173210202	0.531470065564082	0.622814658300263	0.574144120248249	-0.692565579152845	0.709756859987943	-0.128833684542282	-0.487742235183702	-0.329161208386381	0.808554519442952	-9.05330558212165	-35.0397164234973	49.5246855823441
20778	1649153435624	5.56848042416381	-1.43751778000937	7.90036618809638	0.10207478084895	-0.153526860674277	-0.0425170741765708	0.0191069165250963	-0.0084567871360608	-0.00412031959672186	0.615234375	-0.4404296875	0.265869140625	0	0	0	0.0574412540267742	-0.304045427253054	0.376630034232004	0.873159033519518	0.531412390961814	0.622786332123836	0.574228225753478	-0.692645334613923	0.709700639300462	-0.12871457964847	-0.487691819871745	-0.329335979049139	0.808513761004679	-9.04552279710043	-35.0456022726889	49.5264691414297
20779	1649153435625	5.56472267490603	-1.39498912493471	7.8893167160278	0.074705662824351	-0.119223671694327	-0.0590390318638931	0.0233792469255918	-0.00149241701932193	-0.00519193371256068	0.62158203125	-0.434814453125	0.26171875	0	0	0	0.0573432902847552	-0.304022708826149	0.37682688282589	0.873088449102983	0.531143385795467	0.623139072522784	0.57409441734019	-0.692873722304286	0.709426494878083	-0.128996330588124	-0.487660444024252	-0.32925938811284	0.808563879154657	-9.06444209582122	-35.0362383270641	49.5568105900061
20780	1649153435626	5.52345651352419	-1.40985643373729	7.95244047884451	0.0328295051595852	-0.177185802694925	-0.0297888190508608	0.0105502660704711	-0.0022719931771602	-0.00467409165338533	0.62158203125	-0.429931640625	0.27099609375	0	0	0	0.0573795018917549	-0.304029021727505	0.376838988546698	0.873078646755933	0.531117461317035	0.623130080675728	0.574128160641165	-0.692910215985175	0.709399938947511	-0.128946342346905	-0.487636826816356	-0.329333613799636	0.80854789342014	-9.061163929333	-35.0385995903643	49.5577830678694
20781	1649153435628	5.52520417227752	-1.38908994976105	7.9677204342018	0.0103404590972586	-0.166493481555392	-0.0191081687831947	0.0254287214423938	-0.00694095628476278	-0.0076172796943123	0.61962890625	-0.433349609375	0.26171875	0	0	0	0.0574263724532452	-0.304092922546883	0.376945673069353	0.873007254126819	0.530878908022375	0.623226707141377	0.574243899856748	-0.69307852086367	0.709228342602307	-0.12898574327038	-0.487657409391468	-0.329520302189867	0.808459412407513	-9.0648622266407	-35.0466992205131	49.5748757792332
20782	1649153435629	5.55440013754686	-1.36327624525121	7.93580681916044	0.0240454327336287	-0.121152630784528	-0.0314984569700307	0.0195858607695414	-0.00782476601834239	-0.00614942811343216	0.61572265625	-0.43017578125	0.27392578125	0	0	0	0.0575145152265925	-0.304106778904357	0.376963366143903	0.872988985124168	0.530835375219749	0.623188624946302	0.57432546709409	-0.693150840809521	0.709181402247416	-0.128855153530789	-0.487602006046286	-0.329693306641075	0.808422295125334	-9.05624568854206	-35.0524079190969	49.5754668440184
20783	1649153435629	5.50290441201332	-1.33452971123268	7.94569294715125	-0.0291211862083151	-0.136153393606306	-0.0567877843840527	0.0238726992258583	-0.0159436988112772	-0.00519228037183453	0.616455078125	-0.4375	0.27294921875	0	0	0	0.0575313536439273	-0.304166884432971	0.377029890456154	0.872938205983022	0.53066193623392	0.623249327163372	0.574419868757054	-0.693245857543711	0.709077210101035	-0.128917380960896	-0.487655708908397	-0.329802647511715	0.808345299524474	-9.06139535542953	-35.0590153670769	49.5874637233965
20784	1649153435630	5.5738070060224	-1.40717625008065	7.91484729547351	0.073718009110682	-0.135196973487042	-0.0316565170335448	0.0186931501742358	-0.0134169267674786	4.86410043816787E-05	0.614013671875	-0.432373046875	0.26904296875	0	0	0	0.0576163686777556	-0.304208845126098	0.377071955563409	0.872899806928047	0.530547437749266	0.623237256466922	0.574538717972317	-0.6933468923702	0.708994188775952	-0.128830614073351	-0.487636650733182	-0.330003882452183	0.80827466521487	-9.0561759642	-35.0673347310645	49.5930186954847
20785	1649153435630	5.49528929874636	-1.38325720583565	7.97169304441431	-0.0130943011732727	-0.184397136753856	-0.0338673597042636	0.0266831961396492	-0.0165915245017693	-0.000938757146802711	0.6240234375	-0.42333984375	0.26318359375	0	0	0	0.0575890231834799	-0.304210866528018	0.377211263753905	0.872840716048596	0.530334822366908	0.623452285822812	0.574501717566946	-0.693529112403407	0.708790333811909	-0.128971442357393	-0.487608804713372	-0.330035619285424	0.80827850619009	-9.06586883065355	-35.0647446370414	49.6141086865383
20786	1649153435630	5.55850662231908	-1.47234364229392	7.88364388134869	0.124590630872605	-0.181352690707214	-0.0572673163201873	0.0186130647941759	-0.0248618467580286	-0.00149293013910409	0.617431640625	-0.438720703125	0.279052734375	0	0	0	0.0576969001432088	-0.304302100488854	0.377244216175799	0.872787546149602	0.530174065999957	0.623393531659862	0.574713810888269	-0.693622683280959	0.708715738151543	-0.128878142966274	-0.487650523407076	-0.330306686551993	0.808142598703872	-9.06091755570638	-35.0795926608328	49.6200163515433
20787	1649153435631	5.55834951007271	-1.29398716330955	7.93675573543141	-0.0256782312633985	-0.0736035678017915	-0.0374295174273467	0.0313960348346242	-0.0197470908008595	-0.00414250694217734	0.614501953125	-0.445556640625	0.27197265625	0	0	0	0.0577909364741024	-0.304318264962446	0.37733464194876	0.87273659786736	0.530017923191295	0.623453828307012	0.574792419109123	-0.693801178380427	0.708557551293694	-0.128787116524191	-0.487566329819767	-0.330532177668099	0.808101202543386	-9.05508005281568	-35.0850964753731	49.6310797397673
20788	1649153435632	5.52930338261968	-1.4513721446221	7.90264011031974	0.0841512766642122	-0.194310154321512	-0.0614536259072587	0.0121974327851781	-0.0227382258099452	-0.00156750408184112	0.621826171875	-0.437255859375	0.26904296875	0	0	0	0.0578669835429681	-0.304412062673908	0.377358121254561	0.872688694001179	0.52986828884369	0.623401516374698	0.574987083211082	-0.693863147658826	0.708504521077732	-0.128745003527902	-0.48764077844131	-0.330744452703504	0.807969416628509	-9.05362012809116	-35.0987276298483	49.6366906759478
20789	1649153435633	5.52949610408147	-1.3710734326218	7.92100938453414	0.0166506574151465	-0.141333744879342	-0.0568016547350023	0.0254597408558174	-0.0220217246231946	-0.00557369846468178	0.620849609375	-0.43408203125	0.269775390625	0	0	0	0.0578325270667594	-0.304476996088945	0.377643171247895	0.872545009082946	0.529358788124972	0.623803980338175	0.575019884481495	-0.694238676808253	0.708082068045812	-0.129044351040614	-0.487659648790413	-0.330890282459635	0.80789831533145	-9.07510634118304	-35.1010247295881	49.6821318160223
20790	1649153435634	5.55410631932805	-1.43861785854393	7.92638677375312	0.0731276971549375	-0.177982807294468	-0.0296254920760735	0.0109609044670225	-0.0231441060862574	-0.00688216399438349	0.623291015625	-0.4306640625	0.2724609375	0	0	0	0.0579108334332211	-0.304573426020274	0.377642917785871	0.872506269421324	0.529241709616893	0.623715424856578	0.575223679621908	-0.69426782862636	0.708064324034487	-0.128984864088872	-0.487745215185375	-0.33109512504047	0.807762727066686	-9.07248976708164	-35.1152981203939	49.6843711676517
20791	1649153435635	5.56604507078089	-1.38442516589164	7.89821036050289	0.0544624030232648	-0.123711805050654	-0.05251594934834	0.0293247180526007	-0.0250421982224521	-0.00180637231343795	0.622314453125	-0.44091796875	0.27587890625	0	0	0	0.058008969507639	-0.304620787504543	0.377778496628585	0.872424519807771	0.528979166610317	0.623824971082302	0.575346371107371	-0.694507922977278	0.707836733883416	-0.128941471556073	-0.487688205941094	-0.331375261025055	0.807682270553548	-9.07037680663781	-35.1238923845646	49.703359531854
20792	1649153435636	5.5553605402601	-1.37535267483578	7.92816508384833	0.0268150182084584	-0.136599641918915	-0.0356710485698137	0.0120703456929103	-0.0298514035547606	-0.00522723157459022	0.618408203125	-0.433837890625	0.264892578125	0	0	0	0.0581022916653945	-0.30474466920147	0.37778522632024	0.872372129925459	0.528818018734904	0.623725877771882	0.575601887122502	-0.694551332385554	0.70780489295479	-0.128882427780947	-0.48780113749636	-0.331629707515709	0.807509620593032	-9.06819859474365	-35.1417936216267	49.7074808915019
20793	1649153435637	5.54629402845334	-1.4452553126094	7.93879886776734	0.0627816407428667	-0.194711349901216	-0.0232638281287549	0.0191036984576629	-0.0242278009392858	-0.00351439156800303	0.614990234375	-0.43505859375	0.267333984375	0	0	0	0.0581001094669932	-0.304823183991254	0.377997252766321	0.872252991214402	0.528401806805097	0.623997948076561	0.57568923158363	-0.694838989508438	0.707484908362075	-0.129088663711415	-0.487842504527846	-0.331800640801291	0.807414407562715	-9.08352090351593	-35.1479138039783	49.7420553237658
20794	1649153435637	5.58804862283227	-1.34841584548721	7.89380712660274	0.038593876470009	-0.0878149393630112	-0.048082820303124	0.0250584111114034	-0.026975874521767	-0.00139962170635618	0.628662109375	-0.433349609375	0.266357421875	0	0	0	0.058238197362668	-0.304911069707257	0.378042057835228	0.872193645038548	0.528226884155364	0.623936818691016	0.575915970552345	-0.69496670291371	0.707385029751306	-0.128948445221305	-0.487850018649956	-0.332128387774184	0.807275103875846	-9.07535817606095	-35.1638034380486	49.7486425035187
20795	1649153435637	5.59440223187258	-1.38735951205601	7.90380761288006	0.0612254586470505	-0.115615193505799	-0.0313192814635865	0.0132627116435009	-0.0251112054657025	-0.00203694055435289	0.61572265625	-0.438232421875	0.264404296875	0	0	0	0.058254375223882	-0.305056647435295	0.378197040529683	0.872074462507304	0.527814880780255	0.624090192875082	0.576127488307986	-0.695173730492023	0.707146852603729	-0.12913873658374	-0.488000959077674	-0.332347348432002	0.807093739245627	-9.0905356795425	-35.1786291843792	49.77763174911
20796	1649153435638	5.5709899022629	-1.45238190034037	7.83152533764929	0.12834960599717	-0.154194088926624	-0.0947719011521783	0.020815620176323	-0.0181625869677268	-0.000913692687848177	0.624267578125	-0.436279296875	0.2587890625	0	0	0	0.0583562459458827	-0.305114769486281	0.378240172219885	0.872028610837689	0.527678699120811	0.624061798828104	0.576282970195719	-0.695283208947555	0.707057841356351	-0.129036693742862	-0.487992264129013	-0.332589958086424	0.806999052000876	-9.08452033828696	-35.1895289776259	49.7836361534208
20797	1649153435639	5.58058203065959	-1.43406366630951	7.88776733003818	0.0890449641213653	-0.153908045901729	-0.0461787351082652	0.0190906292332248	-0.0141742666012442	-0.00488157127016476	0.614013671875	-0.436767578125	0.266357421875	0	0	0	0.0583424363459938	-0.305284544511943	0.378455984953857	0.871876467428703	0.527144828669482	0.624311646266432	0.57650090888317	-0.695555822688847	0.706734455147639	-0.129338731363856	-0.488180732035446	-0.332808320573973	0.806795014006698	-9.107692926402	-35.2048096602696	49.8235344226517
20798	1649153435640	5.57743834318902	-1.39157482503494	7.87609411680548	0.0634261575247614	-0.12379473885889	-0.0629279286715842	0.0217010017925593	-0.012577984786853	-0.00711919932709774	0.618408203125	-0.4326171875	0.266845703125	0	0	0	0.0584461927491206	-0.305316182035625	0.378475467914592	0.871849982351983	0.52707669834804	0.624258523194632	0.576620716136168	-0.695636796893351	0.706680725479926	-0.129196745481937	-0.488138915541968	-0.333021993949382	0.806732143080644	-9.09855912232299	-35.2132111220569	49.8247815660194
20799	1649153435641	5.55547130441999	-1.43466791940026	7.93430110360377	0.0521651453537813	-0.186314673289907	-0.0230380930101219	0.0185514324885504	-0.00544629383546543	-0.00567013013849538	0.6220703125	-0.432373046875	0.259521484375	0	0	0	0.0583849155322497	-0.305336406335881	0.378566290120357	0.871807573142544	0.526914485900799	0.624419836741126	0.576594304543569	-0.695727997912491	0.706557531245604	-0.129379318133907	-0.488184061055432	-0.332980964207119	0.806721761208363	-9.11131640210594	-35.211358939237	49.8407712069931
20800	1649153435642	5.5537027054482	-1.47039566688896	7.90369835489866	0.0914722209984552	-0.20437172289539	-0.0441670549894066	0.0318390681800275	-0.0147805704585056	-0.00831020278658075	0.617431640625	-0.430908203125	0.26904296875	0	0	0	0.0585381999552013	-0.305358278521775	0.378596102744142	0.871776686928006	0.52684262545033	0.624352264336119	0.576733125480898	-0.695852760200454	0.706476540265904	-0.12915043234666	-0.488083788022112	-0.333279384409358	0.806659201768446	-9.096160779323	-35.2210945975329	49.8415666339218
20801	1649153435643	5.58424942475552	-1.3273538900817	7.92093448654984	-0.0016032517710927	-0.0913319086085815	-0.0311451292681681	0.0259831451872031	-0.0106391802790939	-0.00752230373442805	0.62109375	-0.42919921875	0.2607421875	0	0	0	0.0585876740699625	-0.305431523482902	0.378664496596064	0.871717997937197	0.526649566961127	0.624388268628218	0.57687045653172	-0.695966358822251	0.706361366929444	-0.129168288280314	-0.488130168097973	-0.333456008056573	0.806558137819971	-9.09851821935013	-35.2307269177988	49.8535448406145
20802	1649153435643	5.58003868866464	-1.4012872117241	7.85976159400025	0.0776572852243375	-0.127860919026869	-0.0733901439690285	0.0239081326775272	-0.0159351620610851	-0.00517698158560296	0.6220703125	-0.44384765625	0.264892578125	0	0	0	0.0587035837134303	-0.305474976374341	0.378695436743891	0.87168153258954	0.526549609996898	0.624338685675262	0.577015349693057	-0.696068589067059	0.706287310897108	-0.129022299545179	-0.4880922326019	-0.333705618824464	0.806477856136592	-9.08929621672429	-35.2408908800884	49.8566623209586
20803	1649153435646	5.60637131273941	-1.3325440296559	7.93050441802325	0.00601687849323389	-0.086817517742286	-0.0100142958028577	0.0250464185562699	-0.0118906976136204	-0.00344902762527337	0.61376953125	-0.428466796875	0.263916015625	0	0	0	0.0587326639429673	-0.305599647061604	0.378926978899869	0.871535240001116	0.526046400755282	0.624599068252873	0.577192505313483	-0.696393793740707	0.705929637695961	-0.129224729296962	-0.488170941670884	-0.333975074758718	0.80631865980397	-9.1050854975816	-35.2533197198029	49.8954302175784
20804	1649153435646	5.56971762397467	-1.48746578227526	7.85587032988744	0.131065402643104	-0.196023918630781	-0.0713628360492482	0.0240101152640715	-0.0145382066342472	-0.00227494466044165	0.61328125	-0.440185546875	0.270263671875	0	0	0	0.0588413069834269	-0.305638734871236	0.378971377431455	0.871494899254435	0.525931317668032	0.624574879540711	0.577323539224475	-0.69651161003905	0.705836791360377	-0.129096866898078	-0.48812685459497	-0.334216462504161	0.806245328677585	-9.09704059519855	-35.2625139903149	49.900513523952
20805	1649153435647	5.58883558255051	-1.41613330262604	7.88516273700654	0.0765639945579528	-0.142382786783033	-0.0458980969372717	0.0275474056419252	-0.00666658812948052	-0.00927815986114721	0.615478515625	-0.434326171875	0.26953125	0	0	0	0.0587935862067116	-0.305619675927324	0.379006606559219	0.871489483637925	0.525901211741085	0.624663590165111	0.577254982318292	-0.696537497217512	0.705794612810838	-0.129187768372869	-0.488122351935682	-0.334139736710904	0.806279855814062	-9.10295560570244	-35.2577034204161	49.9061387249501
20806	1649153435647	5.55826254666475	-1.47496605562431	7.88706750550638	0.101665559089554	-0.205431246297637	-0.0544548065191002	0.0324441833555213	-0.00200691310662889	-0.00737454582452867	0.622314453125	-0.431640625	0.269775390625	0	0	0	0.0589223051974478	-0.305586555519641	0.379046255886612	0.871475160250825	0.525881585967964	0.624647064605391	0.577290743230555	-0.696670521759652	0.705704195697119	-0.128964228709425	-0.487953626537352	-0.3343615301666	0.80629003807172	-9.08735454215063	-35.2602126924232	49.9064453904962
20807	1649153435648	5.57687101714963	-1.40283641449133	7.91681032177107	0.0479812767137313	-0.152664809569223	-0.0290420115415486	0.03225105892069	-0.00480081589945304	-0.0131685773052052	0.617431640625	-0.436279296875	0.264892578125	0	0	0	0.0589716677389047	-0.305527092797638	0.379106510172232	0.871466460579951	0.525862899023311	0.624722332801833	0.577226314654344	-0.696792101608616	0.705601192698248	-0.12887095870932	-0.487800142032214	-0.334438280945	0.806351075941433	-9.08021595983152	-35.2556919236196	49.9108497252134
20808	1649153435648	5.55616855572956	-1.40901863103831	7.8914545921595	0.055203873607409	-0.163529074444446	-0.0606820285570304	0.0312019525373423	-0.0024229999163824	-0.0126871034650917	0.6220703125	-0.43212890625	0.26708984375	0	0	0	0.0591036709318727	-0.305496264071568	0.3791213336459	0.871461877017719	0.525878094025737	0.62466767674783	0.577271620513539	-0.696891479398239	0.705547540913862	-0.128627110099452	-0.487641770325299	-0.334653494135161	0.806357577441383	-9.06324803171541	-35.2588708797824	49.9075643100167
20809	1649153435649	5.5746740231435	-1.33673031674041	7.92121133748344	-2.00686375581988E-05	-0.111098933717755	-0.0353112555500736	0.0333438863652653	-0.00145269758650308	-0.0128900769582393	0.613525390625	-0.4375	0.266357421875	0	0	0	0.0591556446085017	-0.305492312404126	0.379241406290097	0.871407489368804	0.525700805634179	0.62480441411348	0.57728511764975	-0.697090792766311	0.705353130932125	-0.128613324833333	-0.487548038244449	-0.334808011834484	0.806350113545865	-9.06237531415001	-35.25981795147	49.9232602687499
20810	1649153435650	5.59219584489716	-1.38173197380601	7.90160350636726	0.051350820753697	-0.127046524278349	-0.035244067449451	0.023267400821405	-0.00357811593066079	-0.00955356828158633	0.617431640625	-0.43505859375	0.266357421875	0	0	0	0.0592500740744323	-0.305482878966194	0.379257688344282	0.871397294701132	0.525687632980554	0.62476848082119	0.577336000872703	-0.697168013650061	0.705306069107851	-0.128452752492346	-0.487451816361916	-0.334974169529554	0.8063392787614	-9.05136805979132	-35.2633884424448	49.9223441869721
20811	1649153435650	5.54151051159554	-1.33356344381705	7.92710405344251	-0.0223592519483958	-0.131785581777654	-0.0501138787627156	0.0255208418857095	-0.00623318052940673	-0.00616358009133248	0.618896484375	-0.437744140625	0.271484375	0	0	0	0.0591994811740089	-0.305500030852963	0.379388729846822	0.871337675211385	0.525467845628106	0.624980501081983	0.577306605261251	-0.697322274382539	0.705119226187886	-0.128641060747179	-0.487468141380459	-0.334972013946704	0.806330305155133	-9.06451618237693	-35.261325724407	49.9437235483276
20812	1649153435651	5.57788176312787	-1.40824271104913	7.90243919319434	0.0610743022133969	-0.154855601135233	-0.0394204000238769	0.017014101093526	-0.00941257903915434	-0.00389335807998254	0.613525390625	-0.43505859375	0.266845703125	0	0	0	0.0592682625103965	-0.305529772285757	0.379419269822225	0.871309272872487	0.525385151869166	0.624966618708077	0.577396889233052	-0.697399493702373	0.705056581493137	-0.128565792794527	-0.487446805691746	-0.335129739643924	0.806277662612023	-9.05988218764429	-35.2676612036862	49.947538360892
20813	1649153435652	5.5631115023088	-1.43721182526981	7.90318524196978	0.0724042244604128	-0.182905980398415	-0.0435816205604702	0.0233843774897072	-0.00720234095174779	-0.00595687352119343	0.6220703125	-0.432861328125	0.263916015625	0	0	0	0.0592182345160388	-0.305511149958023	0.379550925117804	0.871261862584579	0.525208064987092	0.625192830076718	0.577313098494378	-0.697560153778633	0.704868591886045	-0.128724900593915	-0.487407755716756	-0.335103257807572	0.80631227590426	-9.07052510735638	-35.2617813562385	49.9672644413383
20814	1649153435652	5.56529797809479	-1.41580022866898	7.91812908643942	0.0516781118957598	-0.173192691173485	-0.0330588833057934	0.0226723697837833	-0.0113252185750742	-0.0111602039488221	0.6318359375	-0.4306640625	0.267333984375	0	0	0	0.0593257096243626	-0.305536149845335	0.379558783146079	0.871242360914529	0.525165582548714	0.625123082857131	0.577427261380571	-0.697627678479011	0.704831180628468	-0.128563715852748	-0.487356884763369	-0.335312001116986	0.80625624263051	-9.05997495530107	-35.2697926137448	49.9663987794168
20815	1649153435653	5.56633198426628	-1.41323329185711	7.9178608300333	0.0494471837851255	-0.172850933075628	-0.0330413025680727	0.0236140685734635	-0.0100779744204245	-0.0152315053645144	0.61572265625	-0.430908203125	0.27001953125	0	0	0	0.0594680458668707	-0.305616498175594	0.379695911262943	0.871144719626921	0.524859142026181	0.625191344458932	0.577631944965974	-0.697889008183647	0.704589132981958	-0.128472121256631	-0.487312849500182	-0.335693217830455	0.806124215127326	-9.05508540984234	-35.2841580477348	49.9859494490007
20816	1649153435654	5.5730481836293	-1.43182516886051	7.94415491790445	0.0536930746913961	-0.192786093829272	-0.00562171799512079	0.0252372888259303	-0.0104305616585767	-0.0148472760389552	0.617919921875	-0.439697265625	0.2626953125	0	0	0	0.0595908539413682	-0.305632333572167	0.379691249279599	0.871132803895174	0.524846863791458	0.62509722169948	0.577744954968766	-0.697948788698114	0.704566970694071	-0.128268749747607	-0.487240451854221	-0.335914940469414	0.80607561360354	-9.04152425402667	-35.2920905903919	49.9823613517864
20817	1649153435654	5.56830602480748	-1.40750987332976	7.91749230111844	0.0464251984591431	-0.169342840552241	-0.0329651154270643	0.0278976096369589	-0.00813607286081478	-0.0156401687440985	0.620849609375	-0.434326171875	0.26171875	0	0	0	0.0595907834936066	-0.305650639233218	0.379775255925733	0.871089765894128	0.524696883445738	0.625208755419001	0.577760497654308	-0.698064599687918	0.704439387018324	-0.128339256191532	-0.487236077445911	-0.335974942763106	0.806053250517887	-9.04665884429222	-35.2931816432623	49.9954588825783
20818	1649153435655	5.5675793317572	-1.32572369876495	7.93612590703868	-0.0193461651617455	-0.120792076392835	-0.028894054345928	0.026815207885491	-0.0114827439447	-0.015908278843859	0.625244140625	-0.43408203125	0.26611328125	0	0	0	0.0597234447282087	-0.305667964878803	0.379768713377282	0.87107745335097	0.524685639173231	0.625104839810868	0.577883136360984	-0.698127015033361	0.704417668979122	-0.128118767206959	-0.48715875330942	-0.336213751763741	0.806000410793296	-9.03195523653971	-35.3017910519391	49.9913737206959
20819	1649153435656	5.59738930810406	-1.39734248635052	7.86977124749128	0.0767889757610796	-0.131612665017009	-0.0559761614474023	0.0231053402365132	-0.0113994998858815	-0.0146356647282541	0.622802734375	-0.439208984375	0.258544921875	0	0	0	0.0597971763281371	-0.305770572886666	0.379924561760695	0.870968416092504	0.524323368255008	0.625236153856984	0.578069855131583	-0.698373021308422	0.704163250148251	-0.128176597899923	-0.487196191087605	-0.33650240571321	0.805857308919484	-9.03754296373498	-35.3149007300795	50.0167852695956
20820	1649153435656	5.57138309111225	-1.39876117703395	7.91687804613725	0.0418597013464328	-0.166926171377998	-0.0329029607197704	0.0295749117441983	-0.00778511953101818	-0.013805906816712	0.620849609375	-0.435546875	0.2578125	0	0	0	0.0599313355823982	-0.305767989880098	0.379932435099741	0.870956667199451	0.524314562247731	0.625159206847165	0.578161055337692	-0.698459542894603	0.704119159548982	-0.127947161342082	-0.487081622271291	-0.336737546540712	0.805828342759989	-9.02195098155457	-35.321304743868	50.0137870776503
20821	1649153435657	5.56532822783649	-1.39383954733715	7.87502732130183	0.0515534720072453	-0.15402856886597	-0.0707502276900413	0.0165264780137863	-0.0113924614268214	-0.019057682315737	0.62353515625	-0.429443359375	0.2626953125	0	0	0	0.0599521924656196	-0.30597645504871	0.380147340849094	0.870788230754041	0.523732816402376	0.625367742081615	0.578462724976275	-0.698743579373728	0.703787467727856	-0.128220944284473	-0.487300058800761	-0.337043598712324	0.805568287148781	-9.04380812367216	-35.3424913869164	50.0545081963134
20822	1649153435658	5.60608481119156	-1.41035992498908	7.89567811941908	0.0748050678098282	-0.149284959646365	-0.0284575833462437	0.0290619165589005	-0.00910546427396738	-0.0132141510122053	0.621826171875	-0.43701171875	0.265625	0	0	0	0.0600849286306936	-0.305982435706059	0.38015679461516	0.870772853216474	0.523711121094629	0.625290567810055	0.578565784893632	-0.698830299056633	0.703741225718742	-0.128001954454994	-0.487199009401931	-0.337283253411224	0.805529100781664	-9.02904873118411	-35.3497306894001	50.0521958430891
20823	1649153435659	5.59410834619393	-1.38391227260581	7.82744337046026	0.0822738242011135	-0.116276389764169	-0.0937449729517219	0.0280086494618491	-0.00672830421178344	-0.0127380731818773	0.62158203125	-0.431640625	0.26806640625	0	0	0	0.0601672731427694	-0.306038156410758	0.380303658794072	0.870683451761379	0.523419547857093	0.625421242014857	0.57868838502053	-0.69907516741036	0.703498052700811	-0.128001563101175	-0.4871610485571	-0.33754815935324	0.805441092126535	-9.02999190535267	-35.358343412204	50.0737943403604
20824	1649153435660	5.57889715364204	-1.31432865294	7.86217120715853	0.00930909056373538	-0.0903220037086181	-0.0835021852403059	0.0217364140985826	-0.00753758734928836	-0.00777545158061554	0.623291015625	-0.423828125	0.2734375	0	0	0	0.0602565982813166	-0.306053498925065	0.38032598376319	0.870662129780462	0.523366803740574	0.62538737659358	0.578772682440849	-0.699154347542856	0.703442576876251	-0.12787391973981	-0.487104082362589	-0.337726472511557	0.805400796318579	-9.0215792597413	-35.3642658829178	50.0751091138425
20825	1649153435663	5.58699303585981	-1.4125514192702	7.86997496382509	0.0797900715499082	-0.157573382978661	-0.0599901666594889	0.0181688161365548	-0.00535027235683792	-0.00216376089464802	0.61962890625	-0.435302734375	0.273193359375	0	0	0	0.0602962212524678	-0.306002281090772	0.380323761451598	0.870678359754752	0.523432880885103	0.625377775104052	0.578723299698765	-0.699180900081688	0.703436404355962	-0.127762647075407	-0.48699495702654	-0.33775710715344	0.805453939339835	-9.01327289326329	-35.3607963546038	50.0711160395498
20826	1649153435663	5.57588273588913	-1.38393975035174	7.91631495735457	0.0318410507549259	-0.161190206251983	-0.0327689890427312	0.0266328804107494	-0.00286699844710484	-0.00588476230643714	0.61865234375	-0.440673828125	0.262939453125	0	0	0	0.0603954923448826	-0.305988038435023	0.380362896771918	0.870659388968144	0.523390774187924	0.625372458113327	0.578767125991327	-0.699293651045039	0.703352902527389	-0.127605188430553	-0.486878308310264	-0.337940798276256	0.805447409678213	-9.00241846942531	-35.3638754909353	50.0731448782333
20827	1649153435664	5.57215636108432	-1.43925248931481	7.87133884341639	0.0897959753299423	-0.185141752564421	-0.0640460038531589	0.0201931021638308	-0.000759344759748981	-0.00596970754951571	0.61328125	-0.44140625	0.26416015625	0	0	0	0.060336074511796	-0.305970418162099	0.380574238362411	0.870577343156304	0.523090704609163	0.625716510717296	0.578666538662176	-0.699560726511831	0.703045614414756	-0.127834478817018	-0.486817116249758	-0.337943356596859	0.805483322644435	-9.01793357705778	-35.3568086268881	50.104823949322
20828	1649153435665	5.58065431116927	-1.41999773954032	7.92835511392052	0.0538387181212069	-0.186588696580725	-0.0156880019508048	0.0260488070510906	0.000131263550133926	-0.00744650340523192	0.609375	-0.42822265625	0.262451171875	0	0	0	0.0604287610748641	-0.305943814269399	0.380607410911054	0.870565762079369	0.523072762539752	0.625711950156038	0.578687688240349	-0.699663172775311	0.702972727189082	-0.127674545193354	-0.486689151051283	-0.338103386939959	0.805493494690497	-9.00672443534081	-35.3582944604377	50.1055855348772
20829	1649153435666	5.52555795034235	-1.42940568256245	7.9088463032367	0.0399011894836416	-0.219066252118586	-0.0620330962245514	0.0223358821914717	0.00021323545674168	-0.00617512685792878	0.6201171875	-0.42529296875	0.264404296875	0	0	0	0.0602980636974841	-0.305962592409042	0.380622221546575	0.870561749691326	0.523027233022577	0.625812390549716	0.578620225494405	-0.699608198094227	0.702981735958568	-0.127925947594796	-0.486817093656432	-0.337898698936719	0.805502071121346	-9.02407339791845	-35.3535550565994	50.1125649841835
20830	1649153435667	5.5649507136939	-1.34789134646324	7.96377890717402	-0.0220889558038841	-0.157035087441135	-0.0054393715135177	0.0334341481304473	-0.000733381083451235	-0.0114303221295975	0.615478515625	-0.43310546875	0.26611328125	0	0	0	0.0604297013823963	-0.305924833970519	0.380650034701593	0.870553730813108	0.523031094083573	0.625778722962626	0.578653146979264	-0.699726508411817	0.702907604545021	-0.12768599335318	-0.4866428752664	-0.338115201314649	0.805516494301889	-9.00726582663391	-35.3558678273779	50.1108400832565
20831	1649153435668	5.57409007382113	-1.41018182701177	7.88774669727093	0.0636847644831177	-0.169959626713593	-0.0534507901277923	0.0217255658713508	-0.00251418203429489	-0.00847423358714832	0.622314453125	-0.431640625	0.26171875	0	0	0	0.0604273276812392	-0.305934468282391	0.380611655516077	0.870567290260429	0.523077737604163	0.625722510440563	0.578671772554071	-0.699669719896106	0.70296661150923	-0.127672339070513	-0.486674391645395	-0.338096558739054	0.805505278372149	-9.0064417600593	-35.3571763239772	50.1057932100712
20832	1649153435669	5.59100035092252	-1.35758178071986	7.90203422844613	0.0298024371962168	-0.128517502118669	-0.0388931906439076	0.0302891055838708	0.00137524007452097	-0.00930265608342915	0.617919921875	-0.43408203125	0.269775390625	0	0	0	0.0605379275358099	-0.305894335743949	0.380644514721886	0.870559342090806	0.523076817543816	0.625710858351754	0.578685203447388	-0.699783694875282	0.702889825483618	-0.127470285236627	-0.486511483250839	-0.338277718705089	0.805527629378874	-8.99217585470438	-35.358119893423	50.1053177708107
20833	1649153435671	5.57825717299268	-1.34757438670331	7.93358416618371	0.000557545360907269	-0.139835297627848	-0.0221249190967487	0.0206712464676817	-0.000137210154308465	-0.00800070284104115	0.6181640625	-0.4326171875	0.2626953125	0	0	0	0.0605338824960407	-0.305906216183214	0.38074382874948	0.87051201763078	0.522911047539311	0.62584877523987	0.578685879292121	-0.699919539020843	0.702739571878284	-0.12755286360242	-0.486494270529666	-0.338334752349032	0.805514071940849	-8.99805489282843	-35.3581673742822	50.1204673510296
20834	1649153435671	5.59307226927434	-1.43185252699815	7.88415770189659	0.0919569350630058	-0.174024669696	-0.0426381946148258	0.0201549747347988	-0.00145966203090895	-0.00740859335073858	0.623779296875	-0.44091796875	0.267822265625	0	0	0	0.0606025970329408	-0.305898595232977	0.380768714831379	0.87049902956466	0.522882470480304	0.625841094898902	0.578720006566351	-0.699994092098289	0.702685022077047	-0.127444226138623	-0.486417714615644	-0.338462233763715	0.805506749334709	-8.99059682682919	-35.3605649913015	50.1216620874913
20835	1649153435672	5.55870111410964	-1.33372447936818	7.92361208285487	-0.0152708094607235	-0.138891556443467	-0.0432409642077278	0.0260610425600797	0.000135563542126524	-0.00743871394765089	0.615234375	-0.44384765625	0.2705078125	0	0	0	0.0606094870767733	-0.305919904448822	0.380995887508744	0.870391656577508	0.522510291526897	0.62614798636547	0.578724195467015	-0.700314580346344	0.70233724755543	-0.127600467282006	-0.486356334185955	-0.338616434726269	0.805479004276629	-9.00174353015651	-35.3608592880824	50.1555523535431
20836	1649153435673	5.57470659675332	-1.39899465117253	7.88930294468075	0.0560664269570108	-0.163830367070025	-0.0532992328034822	0.0132899358119441	0.00072930368515578	-0.00401467531353732	0.616455078125	-0.42626953125	0.25927734375	0	0	0	0.0606384058611246	-0.30591738218547	0.381026113634527	0.870377297348672	0.522467312010715	0.626172273247104	0.578736720881656	-0.700373642770846	0.70228416892638	-0.127568438836881	-0.486317456392626	-0.338681606072631	0.805475078022821	-8.99956417571798	-35.3617392841267	50.1589640330661
20837	1649153435674	5.52938739878212	-1.37279919370696	7.94130325863235	-0.0127857920937144	-0.189596656438275	-0.0409480389871106	0.0179697341334488	-0.00313553776422046	-0.00864400178745943	0.6162109375	-0.431884765625	0.266845703125	0	0	0	0.060560497882243	-0.305951472852358	0.381101248960343	0.87033784267754	0.522311068600678	0.626316530676234	0.578721652453841	-0.700430824771211	0.702188528274243	-0.127780790693962	-0.486402926931509	-0.338613163007199	0.805452244711455	-9.01455050891224	-35.3606806251856	50.1738855941061
20838	1649153435675	5.55973953448601	-1.42631520186413	7.89074171994882	0.0655978917406468	-0.192017904291487	-0.0572935038008655	0.021830734713195	-0.00110459444516945	-0.00557583985693513	0.622314453125	-0.431884765625	0.26513671875	0	0	0	0.0606318157631762	-0.305940501762868	0.381137799276438	0.870320728387563	0.522268774687597	0.626324797889844	0.578750874327254	-0.700523710439364	0.702115521759949	-0.127672726985921	-0.486314567022809	-0.338749231219793	0.80544838459669	-9.00709442943392	-35.3627336720232	50.1765396771069
20839	1649153435676	5.53141077336846	-1.34966828552649	7.95649157166786	-0.0355245778742071	-0.178021216285769	-0.0305140927646477	0.020820957437354	-0.00877103259511469	-0.00367672421413558	0.621826171875	-0.4287109375	0.26318359375	0	0	0	0.0606358135485482	-0.305980953685753	0.381209388992905	0.870274873726985	0.522110115450428	0.62640709762449	0.578804954531321	-0.700620713852875	0.702005399717924	-0.127745974837432	-0.486345188795602	-0.338825274754615	0.805397908193726	-9.01273269919927	-35.3665333331529	50.1888045362304
20840	1649153435677	5.56829407030622	-1.42414711169335	7.93209052392723	0.0477700194569861	-0.200733388455762	-0.0193438399991592	0.026561616311748	-0.0150126862992516	-0.00877268411925444	0.626708984375	-0.43310546875	0.26611328125	0	0	0	0.0607589208847936	-0.306020717614011	0.381235139661252	0.870241025355267	0.522022177356942	0.626345940539298	0.578950437531106	-0.700719894821768	0.701936243640762	-0.127581890817104	-0.486296694774381	-0.339081513258153	0.805319347847842	-9.00220962579893	-35.3767558189205	50.1907997884736
20841	1649153435679	5.52719307893785	-1.34281490998375	7.91368380486102	-0.0233768564864515	-0.165768032010725	-0.0683874955490875	0.0304509448662633	-0.028748011634609	-0.00500136623842388	0.619140625	-0.436767578125	0.268310546875	0	0	0	0.0609211543824073	-0.306163875941065	0.3813795336445	0.870116052796731	0.521626664771697	0.626385195359377	0.579264369380469	-0.700992622369464	0.701676528531638	-0.12751232368431	-0.486328043590681	-0.339546221216473	0.805104588034919	-8.99974202724099	-35.398818919228	50.2139220448722
20842	1649153435680	5.62299221116105	-1.36694871771971	7.93831888413209	0.0306193033831226	-0.133910540852027	0.00997147343775317	0.0213229597563598	-0.0239192458301283	-0.00500662471025137	0.62060546875	-0.42529296875	0.2666015625	0	0	0	0.061032769752808	-0.306254037034289	0.381410533702526	0.870062911861697	0.521468939161909	0.626319254879524	0.579477641032431	-0.701085383392251	0.70160201159411	-0.127412332687378	-0.486363475893383	-0.339821730167828	0.804966931633002	-8.99431280972057	-35.4138110749651	50.2194763495097
20843	1649153435682	5.5837204722958	-1.36504309404629	7.90144592268631	0.0256873670322611	-0.145711956875959	-0.0427215410971158	0.0257038719850755	-0.0205630319014484	-0.00253258675850762	0.610107421875	-0.431396484375	0.26708984375	0	0	0	0.0610864272634977	-0.306306789108965	0.381470046516585	0.870014484339526	0.521313509112781	0.626346556835763	0.579587970852142	-0.701191306408645	0.701498104029632	-0.127401577147894	-0.486377401853188	-0.339985883211077	0.804889198699875	-8.99442032687109	-35.4215679207674	50.229102915781
20844	1649153435682	5.59810555319109	-1.37071572945827	7.86947593478454	0.0519398646980258	-0.131904772300699	-0.0594211505176325	0.0175841850717605	-0.0188165680658	-0.00445127397365052	0.62060546875	-0.4345703125	0.26416015625	0	0	0	0.0611711221935453	-0.306382005022509	0.381499338273341	0.869969203883087	0.52117664379078	0.626301889064896	0.579759303263623	-0.701268813333437	0.701432697413171	-0.127335079399186	-0.486412332710523	-0.340203049300601	0.804776321615939	-8.99104264825247	-35.4336150941816	50.2344908966837
20845	1649153435683	5.58725457056501	-1.45966308476437	7.86664474057033	0.108218910778147	-0.199543498617119	-0.0566328234823512	0.0182469059189856	-0.0153789645972367	-0.000709589755962658	0.62109375	-0.43701171875	0.26123046875	0	0	0	0.0611066139166515	-0.306443557883421	0.381530662481381	0.86993832031582	0.521053398836538	0.626364830978414	0.579802081812642	-0.701267743693723	0.70140067064432	-0.127517257163148	-0.486545894254186	-0.340153197446504	0.804716655134783	-9.00435216639856	-35.4366233327861	50.2439840942744
20846	1649153435684	5.52887934079299	-1.44494981292462	7.9341825058123	0.0340580306026922	-0.250298322806062	-0.0380349814157164	0.0197017243711083	-0.0128223917615498	-0.0053778932640929	0.6171875	-0.42919921875	0.27001953125	0	0	0	0.0611900394533546	-0.306488432119361	0.381561492455316	0.869903125367408	0.520951336904575	0.626334991106704	0.579926015533621	-0.701351148120225	0.701333213093937	-0.12742955403585	-0.486534964424734	-0.340347180283163	0.804641240097425	-8.9990901268825	-35.4453391344993	50.248160257713
20847	1649153435685	5.59780518678572	-1.43845843454046	7.92248201360039	0.0701421698872544	-0.198642178090252	-0.00830428253584792	0.0226095642382704	-0.00771036232371146	-0.0147158979442853	0.625244140625	-0.4365234375	0.27001953125	0	0	0	0.06120382643857	-0.306514250705701	0.381609930318567	0.869871810570879	0.520845750393163	0.626383752033797	0.579968188339194	-0.701423132038357	0.701255905423072	-0.127458797070931	-0.486544236569385	-0.34041673034287	0.8046062114872	-9.00150691432681	-35.448305207668	50.256062700776
20848	1649153435685	5.56275028267996	-1.35891677054682	7.94639636914568	-0.0149186756540537	-0.17491768847284	-0.019565225050906	0.0308327029497401	-0.00804261292637753	-0.0099059387780213	0.6240234375	-0.435302734375	0.271240234375	0	0	0	0.061333197320136	-0.306515888187886	0.38163980081744	0.869849016569488	0.520798145440833	0.626338811945682	0.580059466223818	-0.70153720975362	0.701178602677028	-0.127256082286846	-0.486430709388805	-0.340658567774776	0.804572498389762	-8.98779492008194	-35.4547252850059	50.2566163415158
20849	1649153435686	5.55651635573705	-1.35423337991428	7.90460476694969	-0.00068157566703414	-0.161343908323179	-0.0574033774470433	0.0232058964615823	-0.0107030102856499	-0.0131409000715446	0.61279296875	-0.427490234375	0.27001953125	0	0	0	0.0614091816545446	-0.306497303882445	0.381849369760947	0.869758227287606	0.52050092305192	0.626589764646851	0.580055218011099	-0.701876759089831	0.700839942443374	-0.127249322691804	-0.486258988761806	-0.340893886591961	0.804576630242622	-8.98727989823036	-35.4544264733964	50.2839768373082
20850	1649153435686	5.60818187983415	-1.29957689703978	7.91231454582556	-0.0157630477583085	-0.095148577836148	-0.028208665359875	0.0239930630527957	-0.0108717830809171	-0.00579120813670689	0.608642578125	-0.4287109375	0.26611328125	0	0	0	0.0615077568281489	-0.306525359498827	0.381885999634876	0.869725291754215	0.520410574533972	0.626564450351156	0.5801636178436	-0.701979199446016	0.700759758265681	-0.127125783146281	-0.486207813037134	-0.341105190156317	0.804517999668168	-8.97934051972543	-35.4620514689834	50.2877277986639
20851	1649153435687	5.5560262733591	-1.38816042971367	7.87397017633864	0.0385124985625103	-0.176463693705335	-0.0780481570001949	0.0223500146555079	-0.016248963237425	-0.00689494722550912	0.610107421875	-0.43115234375	0.2646484375	0	0	0	0.061429622494259	-0.306514878198964	0.381668793426299	0.869829847181275	0.520755123134376	0.626315630006446	0.580123119121218	-0.701632003032991	0.701110667209452	-0.127107689165646	-0.48634003952915	-0.340840965751984	0.804550061845775	-8.97773133944027	-35.4592026477331	50.2579007308442
