// Start Time : 05/04/2022 10:10:04																																
// Update Rate : 100Hz																																
// Filter Profile : 46.1 human																																
// Firmware Version : 4.4.0																																
PacketCounter	Time_Of_Arrival	Acc_X	Acc_Y	Acc_Z	FreeAcc_X	FreeAcc_Y	FreeAcc_Z	Gyr_X	Gyr_Y	Gyr_Z	Mag_X	Mag_Y	Mag_Z	VelInc_X	VelInc_Y	VelInc_Z	OriInc_q0	OriInc_q1	OriInc_q2	OriInc_q3	Mat[1][1]	Mat[2][1]	Mat[3][1]	Mat[1][2]	Mat[2][2]	Mat[3][2]	Mat[1][3]	Mat[2][3]	Mat[3][3]	Euler_X	Euler_Y	Euler_Z
20627	1649153435498	9.35712215633794	-0.360360492191786	2.56068315592101	-1.38994718512642E-13	5.43456338958359E-16	-0.104819831190792	-0.0121263818354617	0.0269617741881836	-0.0273939012126159	0.33740234375	-0.327880859375	0.08447265625	0	0	0	0.408770805629315	-0.448423087949093	0.557764668284784	0.566322997478052	-0.0243693819852704	0.265145383813309	0.963900440224066	-0.998354451508252	0.043610006556651	-0.0372364939513051	-0.0519087889987111	-0.963221725653352	0.263646325318722	-8.03908497560554	-74.5579909191165	95.2512736503563
20628	1649153435499	9.30873390962737	-0.352740189781598	2.61862121910861	3.12250225675825E-14	1.40336418701092E-15	-0.136214421275348	-0.00913454331740774	0.0306170701581019	-0.0277366772912612	0.335205078125	-0.325439453125	0.08056640625	0	0	0	0.402922332682637	-0.449908582768725	0.553891769799118	0.573096648328552	-0.0184276510003239	0.272310602291062	0.96203292956036	-0.997423464943517	0.0617150023487664	-0.036574445520882	-0.0693314737956613	-0.960228199109446	0.27047172195324	-7.701088835487	-74.1611037473017	93.8713856204235
20629	1649153435499	9.30560994277708	-0.352085884154926	2.5865967614068	-0.00501880568342043	-0.00573754961473129	-0.147866364824237	-0.0112409593135915	0.021180522119115	-0.0248701482516803	0.3330078125	-0.3212890625	0.078369140625	0	0	0	0.405868359551102	-0.449118106239113	0.555849848091584	0.569732171937061	-0.0213522539504198	0.268805424400274	0.96295780025106	-0.99793674049614	0.0526036421837891	-0.0368119382412182	-0.0605503362444186	-0.961756986271544	0.267127602727048	-7.8463149409145	-74.3564319746824	94.5416889774938
20630	1649153435499	9.30163538487304	-0.332746972628637	2.60511474770375	-0.0232539904518204	-0.0219657425584288	-0.147453765747196	-0.00329273055154342	0.015820967475381	-0.0223905857219657	0.330810546875	-0.33203125	0.084716796875	0	0	0	0.405865285485566	-0.449036746555401	0.555810771634738	0.569836605015443	-0.0211192272444563	0.268945791610271	0.96292374537959	-0.99793950094714	0.0526955123451031	-0.0366051284411825	-0.0605865553576485	-0.961712713940056	0.26727874056139	-7.79842085232865	-74.3491976147583	94.4899924607446
20631	1649153435501	9.29128193895618	-0.387833418110137	2.5923125446169	0.0348562925357392	-0.0141797181583822	-0.158827895769553	-0.000102170169838257	0.0110880414198701	-0.0250308200870666	0.331298828125	-0.331298828125	0.075439453125	0	0	0	0.405887885606079	-0.448956814020029	0.555763697855784	0.569929395284079	-0.0208710174187013	0.269039872537519	0.962902875484804	-0.997944400421644	0.0527634729277822	-0.0363729238814343	-0.0605918666076041	-0.961682672667858	0.267385606926423	-7.7464949286301	-74.344765782628	94.4358889950528
20632	1649153435501	9.32204334988484	-0.323058811668734	2.57079836178543	-0.026823583398292	0.0189459230682863	-0.13731736697008	0.000483803090940052	0.00724248540947798	-0.0233503434529726	0.3349609375	-0.330078125	0.0849609375	0	0	0	0.405921552162045	-0.44888743963388	0.55571293768934	0.570009553353257	-0.0206336051527538	0.269097194325393	0.962891974389964	-0.997949539294316	0.0528216487500799	-0.036146790252884	-0.0605885414964171	-0.961663440830276	0.267455520058592	-7.69692531829255	-74.3424513639646	94.3846972374701
20633	1649153435502	9.34783075419848	-0.31246507895435	2.60380635698952	-0.0376309709531543	-0.0047948814037356	-0.104034406238611	0.00427733172892292	0.00590914197933623	-0.0238865600728107	0.339599609375	-0.32568359375	0.08251953125	0	0	0	0.405970911353707	-0.448810273201605	0.555666463626441	0.570080467130936	-0.020391760260828	0.26914136303319	0.962884781694103	-0.997957025579437	0.0528448006710523	-0.0359054611261189	-0.0605470991056334	-0.961649808270491	0.267513915606683	-7.64449844951675	-74.3409244605718	94.3327930023147
20634	1649153435502	9.38795710336286	-0.371030141172301	2.56976573857739	0.0245034883271728	0.0363774797050867	-0.0724012504505325	0.00808826261639129	0.0118157965139042	-0.0239982541887468	0.32861328125	-0.32373046875	0.07421875	0	0	0	0.406014987292261	-0.448705404207524	0.555640188351553	0.570157233943127	-0.020145117352774	0.269242307741745	0.96286175226184	-0.997966783690893	0.0528316223654311	-0.0356527464284376	-0.0604687762113387	-0.961622274804476	0.267630580658054	-7.58805292351549	-74.3360366274332	94.2789839552172
20635	1649153435504	9.37189999452567	-0.31963872056734	2.55253567259762	-0.0228785976810212	0.0523250529618237	-0.0943101920111289	0.0105445389198902	0.0113097824535071	-0.023730432099286	0.330322265625	-0.321533203125	0.074951171875	0	0	0	0.406067379658695	-0.448595943240028	0.55561874930575	0.570226944562974	-0.0199010297429932	0.26933720512304	0.962840287353868	-0.997977921911036	0.0527941771940706	-0.0353955114743741	-0.0603656888745585	-0.961597756232257	0.267741925771422	-7.53083901935788	-74.3314821919882	94.2258428443158
20636	1649153435504	9.36203256790813	-0.283774065445898	2.55258757720358	-0.0556894146756243	0.0521914461917148	-0.105058463516464	0.0139624603032555	0.00542377267205631	-0.0282421965931381	0.331787109375	-0.323486328125	0.072998046875	0	0	0	0.406155462249887	-0.448484343413195	0.555580549499914	0.570289213658465	-0.0196159065387811	0.269374457774841	0.962835716884855	-0.997991921018134	0.0527359870039095	-0.0350861975320652	-0.0602274172881206	-0.961590514290378	0.267799068395632	-7.46419913059089	-74.3305125941345	94.1649395685562
20637	1649153435505	9.40868162893887	-0.26710340596285	2.5491215749886	-0.0699327387023305	0.069281985620212	-0.061638000583974	0.010395810725112	0.00559472501006724	-0.0295780077982184	0.337646484375	-0.32666015625	0.08935546875	0	0	0	0.40623947912143	-0.448380084657767	0.555528129592421	0.57036241331016	-0.0193124061723194	0.269405345232438	0.96283321033709	-0.998004113391612	0.0527159656693919	-0.0347680401657191	-0.0601233783253811	-0.961582958939963	0.267849570570887	-7.3958883926965	-74.3299808697495	94.100251981318
20638	1649153435506	9.42219713301117	-0.224202752875415	2.54694220365427	-0.109890208043413	0.077730607510111	-0.0506762141835519	0.0101749447723545	0.00674387725923716	-0.0277037347431631	0.33642578125	-0.328125	0.08251953125	0	0	0	0.406311868458586	-0.448276313171611	0.555485626725568	0.570433809569756	-0.0190318688988571	0.269455591647651	0.962824735918241	-0.998015537209584	0.0526927681019927	-0.0344740435402449	-0.0600231243312259	-0.961570151533191	0.267918025197922	-7.33217941978271	-74.3281832863494	94.0401383362359
20639	1649153435506	9.4417637344315	-0.197184513080365	2.56255619405255	-0.135089128308834	0.0699025210851668	-0.0285500871619693	0.00252169538037187	0.0101622425846355	-0.0293445343560119	0.33203125	-0.32861328125	0.074951171875	0	0	0	0.406367102066777	-0.448180538482588	0.555420256826341	0.570533365886929	-0.0187149135351629	0.269519923966036	0.962812942682385	-0.998023230469624	0.0527482333296227	-0.0341651185213834	-0.0599948618995649	-0.961549080632885	0.267999966566614	-7.26498242273054	-74.325682053997	93.9721261576278
20640	1649153435507	9.41205171001083	-0.185238203903958	2.54803576045268	-0.142518835543737	0.0774156612062501	-0.0614202108635613	0.00461794190641517	0.0123404154286766	-0.0326285465265533	0.332275390625	-0.328857421875	0.078857421875	0	0	0	0.406419116116656	-0.448066208116274	0.555362591860109	0.570642240604113	-0.0183818705865469	0.269621363004805	0.962790957293	-0.998032052062235	0.0527917872347575	-0.0338385912384656	-0.059951062460838	-0.961518251419073	0.268120350398521	-7.19308274185894	-74.3210202021072	93.9001967317471
20641	1649153435508	9.4314970005532	-0.157995427165217	2.56400246667311	-0.167475183687881	0.0694606770556477	-0.0392880905765498	-0.00133420329126352	0.0122437915556792	-0.0315195440010026	0.341796875	-0.32421875	0.08837890625	0	0	0	0.406473003408366	-0.447967274113174	0.555278637127298	0.570763220586125	-0.0180180870526738	0.269692039824021	0.962778038903319	-0.998038453173783	0.0528906653004657	-0.0334936338810399	-0.0599549374567709	-0.961492995907736	0.268210037647591	-7.11815490272713	-74.3182815758674	93.8222427492367
20642	1649153435508	9.40535746064933	-0.163347619269022	2.53291947921096	-0.156671163675113	0.0932030749630587	-0.0725703815347298	-0.00660023437856253	0.015919600937996	-0.0356058096450818	0.3330078125	-0.320556640625	0.083984375	0	0	0	0.406489711921727	-0.447867794628285	0.555194584641492	0.570911136536457	-0.0176531765608839	0.269826240998179	0.962747196841468	-0.998040844268063	0.0530501745731051	-0.0331685415786822	-0.0600236497557752	-0.961446555273124	0.268361105273175	-7.04583538398243	-74.3117451162015	93.7431981630442
20643	1649153435509	9.37800803325556	-0.149642715885117	2.55320124942946	-0.167019932733961	0.0679296135148451	-0.09385239880128	-0.0148469458847651	0.0159261701458028	-0.0393497465978594	0.334716796875	-0.326171875	0.079345703125	0	0	0	0.406526034371234	-0.44777503473482	0.555055179508408	0.57109355568726	-0.0171774680617602	0.269912453813798	0.962731635434923	-0.998041290458551	0.0533006621585749	-0.0327509076712191	-0.060154111503857	-0.961408501465257	0.268468203293257	-6.95524601689103	-74.3084481436338	93.6414434009296
20644	1649153435510	9.36049574224363	-0.168967528865997	2.5741516872995	-0.145299087990173	0.0432538179707197	-0.104407200545904	-0.0192298231589279	0.0138401311108899	-0.040915660003509	0.33740234375	-0.333984375	0.072021484375	0	0	0	0.406524308398959	-0.447705703452968	0.55492340897294	0.571277165612526	-0.0167607734609321	0.270023641495229	0.962707800688582	-0.998036647345179	0.0535959937091967	-0.0324086410439984	-0.0603483805001121	-0.961360859662998	0.268595179552862	-6.88003769150403	-74.303399619515	93.551878223582
20645	1649153435513	9.33319771383551	-0.155138808940303	2.59417961379419	-0.15532050715178	0.0178708366340539	-0.125687282753358	-0.0214503475240496	0.0131716364556544	-0.0430530630907319	0.3349609375	-0.322021484375	0.0849609375	0	0	0	0.406570435237372	-0.447624978045286	0.554743418443096	0.571482370607283	-0.0162167625519485	0.270070003407315	0.96270411335566	-0.998034331995278	0.0539204417699249	-0.0319383487061391	-0.0605350210297521	-0.961329693299291	0.268664720441703	-6.77939679822092	-74.3026187335275	93.436285916987
20646	1649153435513	9.39927070862537	-0.203806221435156	2.59304885330977	-0.103975798363545	0.0352919430903158	-0.0607813314497818	-0.0240287161004047	0.0151798724440295	-0.0487407906498611	0.335693359375	-0.320556640625	0.081787109375	0	0	0	0.40656874300866	-0.447549152196694	0.554581201894306	0.57170036214948	-0.0157211062530243	0.270189555442134	0.962678789081885	-0.998027540414939	0.0542830954276513	-0.031533698230621	-0.0607772604802855	-0.96127568869746	0.268803227152757	-6.69087000925679	-74.2972567009907	93.3300272525698
20647	1649153435514	9.41848976660332	-0.175726849683488	2.60967392725504	-0.12798493421174	0.0270145850035931	-0.03863416601002	-0.0278103525165448	0.0237207507261322	-0.0477755477172709	0.33642578125	-0.319580078125	0.082275390625	0	0	0	0.406587583054318	-0.447439051367189	0.55438789277365	0.571960572910118	-0.0150952806847557	0.270329708611495	0.962649459119504	-0.998022358449504	0.0546812033040793	-0.0310054517804176	-0.0610205255298436	-0.961213719547969	0.268969665235357	-6.57574105076167	-74.2910487542484	93.1960919222464
20648	1649153435514	9.40825009827648	-0.229316985080333	2.59765679998568	-0.0697966250892177	0.0347967204495811	-0.0500292597677845	-0.0203741605361089	0.0214587117299018	-0.0442557506563161	0.33251953125	-0.319580078125	0.080322265625	0	0	0	0.40656883184247	-0.447344170866731	0.554259353171013	0.572172655051128	-0.0146404755719849	0.270511697419909	0.962605359445929	-0.998016485343208	0.0549967087933996	-0.0306342456261515	-0.0612270484199222	-0.961144517531517	0.269169955531613	-6.49289803028975	-74.2817191656428	93.0979062425948
20649	1649153435515	9.44094003004201	-0.252071822583487	2.59867146555091	-0.0425393792007621	0.0428185263286886	-0.0175692995261212	-0.0177823792852883	0.0266635159212124	-0.0381335977356135	0.337158203125	-0.326416015625	0.0791015625	0	0	0	0.406594111808287	-0.447212890706301	0.554116188077394	0.57239593703967	-0.0140882390066165	0.270679453234931	0.962566441923949	-0.998015965578711	0.0552729567068163	-0.0301501692678624	-0.0613649246042623	-0.961081439761129	0.269363717257889	-6.38659485131	-74.2734903782492	92.9794242615275
20650	1649153435516	9.47105268777564	-0.27680112701502	2.56584969198123	-0.0132040193597766	0.0838509735471327	0.00331160596997648	-0.00590357420884939	0.0329683980843037	-0.0299029037654373	0.33642578125	-0.320068359375	0.080078125	0	0	0	0.406552733051744	-0.447074086247991	0.554084412758838	0.572564494350964	-0.013769550113564	0.270979739956566	0.962486560956953	-0.998016506519493	0.0554106775717019	-0.029878245023275	-0.0614284315630476	-0.960988885130373	0.269679273307363	-6.32211755816048	-74.256613344405	92.9089227502789
20651	1649153435516	9.4959584495155	-0.265917050892447	2.6016499784607	-0.0223701357426286	0.0592543978088329	0.0366023754302454	0.00270061950318979	0.037522989103282	-0.0221722524264733	0.334228515625	-0.321533203125	0.0849609375	0	0	0	0.406575993576933	-0.446891021745249	0.554050208901218	0.57272396679983	-0.0133664385999928	0.27124534452299	0.962417425753377	-0.998025989269732	0.0554486549268914	-0.0294884962141412	-0.0613633690512957	-0.960911759601995	0.269968752260833	-6.23366456890569	-74.2420208693346	92.821141570654
20652	1649153435517	9.48879378628627	-0.248624574107614	2.58788230255056	-0.0369537775683803	0.0753531275602867	0.0254583628017482	0.00985535782980932	0.0425371750005458	-0.00634478051854628	0.3359375	-0.322021484375	0.07421875	0	0	0	0.406500546653107	-0.446729007706618	0.554140513308877	0.572816541969556	-0.0132770296335294	0.271650533520571	0.962304373949375	-0.998032876874731	0.0553711941609994	-0.0294008083958864	-0.0612706876186085	-0.960801758166154	0.270380998488372	-6.20587091287229	-74.2181871844399	92.7981277409336
20653	1649153435518	9.46197521115968	-0.256254806997915	2.55953677766146	-0.0245690839457215	0.0981078943465913	-0.00780900963789222	0.0202618407973034	0.0439581313025763	-0.00315699936881053	0.3349609375	-0.324462890625	0.0849609375	0	0	0	0.406518204016779	-0.446522025657448	0.554210006369995	0.572898157830091	-0.0130613011157207	0.271973119552346	0.962216204734742	-0.998050447249146	0.0551884372846848	-0.0291468889566946	-0.0610303789841087	-0.960721009779135	0.270722060811483	-6.14499493127925	-74.1996235893379	92.7494735726041
20654	1649153435518	9.42609462640921	-0.210985112645403	2.61648167804614	-0.0721461780305993	0.0408507463429102	-0.0282673507077842	0.0234948641755561	0.0518028199996709	0.00778438269049381	0.338134765625	-0.32958984375	0.088134765625	0	0	0	0.406424561034167	-0.446324350085295	0.554390021115706	0.572944460830586	-0.0131074419834672	0.27247502735144	0.962073570177708	-0.998063739600542	0.0549415613510237	-0.0291581297564238	-0.0608026862830154	-0.960592933716537	0.271227301418248	-6.13598286504437	-74.1696375039751	92.7540968376812
20655	1649153435518	9.40152780036441	-0.218046786413251	2.62284342575291	-0.0632661506829387	0.0310936818668999	-0.0499722591797873	0.032265497271143	0.0415013375129482	0.0100821732818443	0.34033203125	-0.33203125	0.0810546875	0	0	0	0.40646459544569	-0.446118132766652	0.554512508840316	0.572958132681252	-0.0130110216871703	0.272762450515119	0.961993429761162	-0.998087355939054	0.0546048203775812	-0.0289817788639808	-0.0604346194597483	-0.960530561294392	0.271530288531936	-6.09239794015672	-74.152813831813	92.7309916935984
20656	1649153435519	9.39039778792301	-0.185159671365943	2.62638058814505	-0.0960888283192528	0.0309670718741387	-0.0606857369947065	0.0309351999533044	0.0495349494143512	0.0113154550064961	0.336181640625	-0.31982421875	0.082763671875	0	0	0	0.406390605089347	-0.44591342036865	0.554714612106898	0.572974342135265	-0.0130941586995494	0.273244430447386	0.961855511102076	-0.998104529331689	0.0542767504204166	-0.0290066008240701	-0.0601322836379772	-0.960412159228153	0.272015795260493	-6.08677511657088	-74.1239015934234	92.7435747844707
20657	1649153435520	9.30918998827445	-0.173120421762067	2.63588882947452	-0.105670127910418	0.00393134095827376	-0.136545811113923	0.0322883722477042	0.0486940670710946	0.0105203829874735	0.339599609375	-0.325927734375	0.07763671875	0	0	0	0.406412809626911	-0.445685713510569	0.554847456549763	0.573007131634497	-0.0129829105343336	0.273598333067742	0.9617564120798	-0.998127865221362	0.0539458562628378	-0.0288202925161459	-0.0597679571568616	-0.960330045731478	0.27238574588747	-6.0398171600895	-74.1031588460975	92.7167870306923
20658	1649153435520	9.30044589369853	-0.138596741212307	2.67350354432622	-0.142140086324309	-0.0285253837139487	-0.13569891072016	0.0306516117165796	0.0369729067829926	0.00962964792926452	0.33251953125	-0.33203125	0.080322265625	0	0	0	0.406376569002869	-0.445514310600965	0.555018488430796	0.573000489280068	-0.0130570469005181	0.273958576893262	0.961652854034581	-0.998144884828057	0.0536251233309014	-0.0288294127468733	-0.0594668177879196	-0.96024530422927	0.272750166430406	-6.03370160980288	-74.0815109024912	92.7286898741956
20659	1649153435521	9.24899845410131	-0.135233306292069	2.69743342821896	-0.144039609747658	-0.0629363256254553	-0.178700743026701	0.0238194057848931	0.0353784112545615	0.00777829476180512	0.326904296875	-0.32373046875	0.0859375	0	0	0	0.406418760031797	-0.445332637963444	0.555094367715899	0.57303828492416	-0.0129018310107873	0.274197571848374	0.961586831414108	-0.998163725939544	0.0533880688486063	-0.0286162597678932	-0.0591837729031883	-0.960190296606392	0.273005266117472	-5.98386038109818	-74.0677243832348	92.6939540034921
20660	1649153435521	9.24207696450845	-0.11965915408356	2.68263036094899	-0.158633486671575	-0.0468329053741485	-0.189826447919319	0.0194884322746785	0.0253178226887449	0.00848413174469307	0.335205078125	-0.328369140625	0.080078125	0	0	0	0.406385382715137	-0.445223336411278	0.555213519250607	0.573031455918117	-0.0129717424876691	0.27444511064078	0.961515270363505	-0.998174134485609	0.053177737513655	-0.0286448158806132	-0.0589926363264011	-0.960131245964998	0.273254202860563	-5.98437114669682	-74.0527944680024	92.7060907646249
20661	1649153435522	9.2181331878001	-0.126585807138296	2.68659380926872	-0.14920112884471	-0.0561573278627611	-0.211522078516731	0.0193682819513598	0.01960788601224	0.00263709120530873	0.341064453125	-0.323486328125	0.081787109375	0	0	0	0.406471545025181	-0.445070334521543	0.55523916897282	0.57306434686874	-0.0127562748654924	0.274558690411012	0.961485726868239	-0.998192396482394	0.0529806966464279	-0.0283722644072267	-0.0587300353847195	-0.96010966628956	0.273386560827449	-5.92498856971266	-74.0466347227507	92.6601069949373
20662	1649153435523	9.2975889261027	-0.138872088810638	2.68340787672604	-0.13770369705894	-0.0303469949669038	-0.135640305197368	0.00609386754555451	0.0130193081301806	0.00518576750533906	0.334228515625	-0.323974609375	0.08544921875	0	0	0	0.406441222737728	-0.445026766564481	0.555294110640673	0.573066453553519	-0.0128007445421049	0.274686407021042	0.961448656318702	-0.998195299634982	0.05290796629449	-0.0284058249169035	-0.0586709870872856	-0.960077145285967	0.273513419001247	-5.92921538609805	-74.0389088809108	92.6681276700439
20663	1649153435523	9.33812759071075	-0.199934218434107	2.64997303096139	-0.0726745870142271	0.0101300353639459	-0.10405340238708	0.00661666201042306	0.00995271330800352	0.00415447574210046	0.3408203125	-0.322998046875	0.091552734375	0	0	0	0.406523960079509	-0.444923738642555	0.555265881461418	0.573115117195907	-0.01255466464559	0.274718221124595	0.961442811288209	-0.998206861790004	0.0528361415322957	-0.0281318897931123	-0.0585272711732689	-0.960071997888761	0.27356227334721	-5.87139637282479	-74.037691055464	92.6166052874509
20664	1649153435524	9.34773006190905	-0.233450643840076	2.65183881087799	-0.0398444946839646	0.0102524082770819	-0.0933708858034627	0.00398693094597535	0.0108455440706027	0.00846198851911437	0.3369140625	-0.32470703125	0.07958984375	0	0	0	0.406486390432707	-0.44489887099876	0.555321074150926	0.573107593372204	-0.0126330016242195	0.274826776351265	0.961410760429867	-0.998208121070754	0.0527746379937012	-0.0282025639442463	-0.0584889245785727	-0.960044311782016	0.273667617954036	-5.88379346276679	-74.0310147939298	92.6318706166284
20665	1649153435525	9.38292550059487	-0.258440434907157	2.68627060960218	-0.0148201249306582	-0.0140800771828539	-0.0494033741218889	0.00661781970999297	0.00995094676996365	0.00415507666626382	0.347412109375	-0.32080078125	0.086181640625	0	0	0	0.406572491883649	-0.444793168438852	0.555292074482626	0.573156661106218	-0.0123805013461835	0.274857368968399	0.961405299501821	-0.998220036428431	0.052699041720603	-0.0279207785448862	-0.0583393697192521	-0.960039706327556	0.273715692307293	-5.82439585042596	-74.0298775421166	92.5790515507075
20666	1649153435525	9.36086794667618	-0.284532497137528	2.6378933931931	0.0141434905220086	0.0259242312169104	-0.0831233006911187	0.0101829728648468	0.0097844937379144	0.00550482290059404	0.329833984375	-0.315185546875	0.08740234375	0	0	0	0.406562258737682	-0.444748046183043	0.555350399594327	0.573142424583019	-0.0124297818264258	0.274954208582584	0.961376972735707	-0.998225289483979	0.0525861268810713	-0.0279458528993712	-0.0582389213359319	-0.960018167766825	0.27381261037296	-5.82754123728767	-74.023979688067	92.5883927802353
20667	1649153435526	9.35068554246609	-0.251690436361225	2.63802893968209	-0.0161045608905052	0.0251585401714378	-0.0937896645058984	0.0134595469178505	0.0115279224704695	0.00601478277278234	0.3291015625	-0.32666015625	0.09033203125	0	0	0	0.406651348069345	-0.444629141458874	0.555355791205498	0.573166252367883	-0.0122302565198803	0.275004315621778	0.961365199710732	-0.998240474682446	0.0524292525757996	-0.0276970789093202	-0.0580204751033979	-0.960012395682338	0.273879215357857	-5.7746216004599	-74.021529076007	92.5464351007687
20668	1649153435527	9.29399108528333	-0.32295135029823	2.62905881465447	0.0562446906667354	0.0158366260605474	-0.148780096477239	0.021067694127442	0.0160995130223705	0.00539716670557638	0.336669921875	-0.32666015625	0.08349609375	0	0	0	0.406655137909088	-0.444535297515049	0.555450784414606	0.573144304838273	-0.0122744092871868	0.275161781977487	0.96131957881634	-0.998252032843244	0.0522120498106805	-0.0276908067577952	-0.0578119174650103	-0.95997911206106	0.274039936150697	-5.76995961657839	-74.0120363218255	92.5541553256044
20669	1649153435530	9.28596757016973	-0.288245416358777	2.66393393352569	0.0219891866260704	-0.0171973667839367	-0.14790367370308	0.020536152855591	0.0119463132131887	0.00600514389154802	0.34033203125	-0.327880859375	0.0849609375	0	0	0	0.406752040607955	-0.444403550228453	0.555483395107922	0.573146106821802	-0.0121126353925529	0.275222188802838	0.961304338310414	-0.99827039243821	0.0519819504412821	-0.0274608887252841	-0.0575283203744852	-0.959974282790376	0.274116524011223	-5.72078242782702	-74.00886631419	92.5199833454603
20670	1649153435530	9.29392654336704	-0.302110479559348	2.71723100816469	0.0329722580191536	-0.0656386163386791	-0.12525788208867	0.0300116738249986	0.0126233331975378	0.00356108388193862	0.336669921875	-0.323974609375	0.084716796875	0	0	0	0.406795108541874	-0.444291059372347	0.555586047739899	0.573103252289639	-0.0121408037628863	0.275345482329849	0.961268675368409	-0.998287201216082	0.0516837664463274	-0.0274126280039799	-0.0572299289895959	-0.95995502688744	0.274246388456406	-5.70810865657782	-74.0014508539461	92.5247065277501
20671	1649153435532	9.32464704274014	-0.329138491819471	2.68287802207468	0.064562567505249	-0.0250860523592673	-0.104422257667675	0.0359111733620006	0.00624949649638343	-0.000654815779262172	0.330322265625	-0.326904296875	0.09130859375	0	0	0	0.406957392981488	-0.44412150471232	0.555617715132401	0.57308875750692	-0.0119099126337698	0.27535947257864	0.961267556324601	-0.998313591477606	0.0513492698575223	-0.027078137974813	-0.0568166089461491	-0.959968964782879	0.274283538699551	-5.63815086868249	-74.0012182233012	92.4766269050163
20672	1649153435532	9.37169634416672	-0.293232538967505	2.76587161862301	0.0249218616727478	-0.0888760804974313	-0.0374020485169151	0.0382174367947244	0.0152226246241134	-0.00809054404126677	0.335205078125	-0.3232421875	0.084228515625	0	0	0	0.407042631324779	-0.443955042335352	0.555710427991447	0.573067305724885	-0.011820318786843	0.275501698220392	0.96122790967671	-0.998336212708733	0.0510044330115248	-0.0268952450733614	-0.0564365702196785	-0.959946541267196	0.274440433338432	-5.59713090746383	-73.9929784675912	92.4567517201594
20673	1649153435534	9.36363097919281	-0.256445025873721	2.80093134411467	-0.00996961235624062	-0.121500060561181	-0.0365069618183753	0.041678891972811	0.0165530540632676	-0.0121602069610799	0.337158203125	-0.32568359375	0.0927734375	0	0	0	0.407197931708561	-0.44372064801204	0.555772372332191	0.573078442355228	-0.0115418866399524	0.275638070626634	0.961192196636041	-0.998366591134173	0.0506138291290365	-0.026502641529232	-0.0559547545783265	-0.959928067264482	0.274603661880092	-5.51267578637917	-73.9855597673314	92.3977649140633
20674	1649153435534	9.32784303926473	-0.229384423714097	2.76875523721314	-0.0321142961385869	-0.0978346006340175	-0.0804381450578546	0.0440184255153952	0.0103375810870546	-0.0177216027482465	0.33544921875	-0.329833984375	0.08837890625	0	0	0	0.407334637557478	-0.443532353364765	0.55584049032038	0.573060986182998	-0.0113591983217742	0.275728818281173	0.961168344975402	-0.99839317989258	0.0502396847326345	-0.0262113033240804	-0.0555160063177104	-0.959921659744811	0.274715089129263	-5.45024501291529	-73.9806069050696	92.35907985299
20675	1649153435535	9.29437482066573	-0.200648058786081	2.77062494954709	-0.0560456533380013	-0.106364127662271	-0.112812590068319	0.0416782492532239	0.00932057960018204	-0.0125726589502768	0.337890625	-0.320068359375	0.089111328125	0	0	0	0.40751019334198	-0.443300076472795	0.555888800954631	0.573069040775035	-0.0110546336551264	0.275826724137424	0.961143804706855	-0.998423923625196	0.0498461665912085	-0.025788144738041	-0.0550223936922015	-0.959914047156192	0.274840969043193	-5.36033083943261	-73.9755126074285	92.295082372522
20676	1649153435536	9.25882987285317	-0.174008028180892	2.73752910758522	-0.0782001493382168	-0.0826969006916371	-0.156739939842087	0.0409033725475812	-0.000890938377990803	-0.010504441996195	0.330810546875	-0.324462890625	0.0869140625	0	0	0	0.407653089434591	-0.443167144240957	0.555947917630382	0.573012874045767	-0.0109504097044867	0.275813717230827	0.961148730381837	-0.998447539173752	0.0494817431137504	-0.0255747652248244	-0.0546131856348259	-0.959936638787029	0.274843681879496	-5.31618071783895	-73.9765349984311	92.2735740698353
20677	1649153435537	9.30948416268712	-0.175914639723016	2.71675210497786	-0.0725595222906146	-0.0488961063377126	-0.113691152975703	0.0383691872431569	-0.00870797832602484	-0.00118827186640895	0.333251953125	-0.32470703125	0.08740234375	0	0	0	0.407824715685685	-0.443020126126349	0.555994762517005	0.572958980361198	-0.0107940161986929	0.275775270474789	0.961161531382139	-0.998473498396848	0.0490976506590994	-0.0253000731010142	-0.0541679075972294	-0.959967406162477	0.274824338245768	-5.25977100187429	-73.9791923176968	92.2414484115139
20678	1649153435538	9.26315880035051	-0.188518330221877	2.71935944979041	-0.0584170569483358	-0.0659988708528199	-0.157181306467551	0.0325720796599544	-0.016419783725681	-0.00510050160390253	0.333984375	-0.322509765625	0.083740234375	0	0	0	0.40797492469265	-0.442965727153968	0.556019240311695	0.572870342915558	-0.0107520620596747	0.275616047375887	0.961207671416722	-0.998491684084147	0.0487981304504646	-0.0251614641732779	-0.0538400406414094	-0.960028404211788	0.274675650777966	-5.23393112225072	-73.9887739456719	92.2340337411393
20679	1649153435539	9.35348963418061	-0.232842161419452	2.7141283048922	-0.0124112460045435	-0.0394919037385969	-0.0706771880985357	0.0404001234725094	-0.022081537593851	0.00472211523343185	0.337646484375	-0.327392578125	0.08837890625	0	0	0	0.408167460327061	-0.442864837072335	0.556058701168356	0.572772888036797	-0.0106610861202888	0.275464664740434	0.961252079177037	-0.998516728004324	0.0483960903702382	-0.0249431820828057	-0.0533918077824308	-0.960092202299507	0.274540120830103	-5.19132187367476	-73.9980011188408	92.2163660529111
20680	1649153435540	9.39236342429201	-0.204358156843114	2.65656223053995	-0.0375497067530979	0.0260734906070127	-0.049824780035701	0.0370816613692233	-0.0158657525799383	0.00191220434320546	0.337158203125	-0.323486328125	0.082763671875	0	0	0	0.408313451969852	-0.442810638797371	0.556114339078504	0.57265670779238	-0.0106888399217132	0.275314132153003	0.961294896136439	-0.998536294138322	0.0480339336234853	-0.0248598171586652	-0.0530190342201332	-0.960153565768255	0.274397726216656	-5.17673622455816	-74.0069026599063	92.2233438673059
20681	1649153435541	9.39883394996957	-0.219156180588622	2.67294585281687	-0.0211779024965652	0.0104826317411509	-0.038732687446446	0.0428244437227754	-0.0146351832115709	0.00270235147122706	0.335693359375	-0.327392578125	0.084228515625	0	0	0	0.408502844169183	-0.442675569258539	0.556158396270504	0.572583273371776	-0.0105476427211012	0.275225531926874	0.961321826345682	-0.998562448272175	0.0476265291270179	-0.0245916779417805	-0.0525526796053915	-0.960199260726065	0.274327533374633	-5.12250161343706	-74.0125038571269	92.1947084824606
20682	1649153435541	9.34863355622624	-0.21485095047049	2.69239684780862	-0.0252837525581267	-0.0228567521101215	-0.0817598975652522	0.0464663621522681	-0.00834797729437927	0.00717792430069624	0.34033203125	-0.328125	0.078369140625	0	0	0	0.408643123048105	-0.442584531234899	0.556265110419399	0.572449873462445	-0.010623880716643	0.275149534029095	0.961342741732672	-0.998586034255538	0.0471598498311694	-0.0245332581142254	-0.052087093874742	-0.960244074434971	0.274259461394152	-5.11165884179174	-74.016855354168	92.2111660407308
20683	1649153435543	9.32322259448597	-0.223034702788309	2.6593203152752	-0.0130084963874939	0.00133350051008626	-0.115056850919801	0.0484083399494349	-0.00579071648487688	0.00848281638033894	0.33642578125	-0.31982421875	0.087646484375	0	0	0	0.408801349413314	-0.442435527158722	0.556345511008101	0.57237394542971	-0.0105390466221628	0.275138869253878	0.961346727836525	-0.998611831377382	0.0467222581979766	-0.0243195563691399	-0.0516075452759192	-0.960268521411891	0.274264522051276	-5.06727255896712	-74.0176848036617	92.1936116370823
20684	1649153435544	9.37001266500454	-0.208645210835422	2.65516936462263	-0.0271294498395133	0.0184559001958497	-0.0715622803087434	0.0505848254313163	-0.00439566652919583	0.00791983505405708	0.333740234375	-0.3271484375	0.085205078125	0	0	0	0.408940710004362	-0.442323514616525	0.556471270401896	0.572238699613817	-0.0106207327308311	0.275100608056648	0.961356778455908	-0.998636976532273	0.0462144418368556	-0.0242572559904842	-0.0511017527951855	-0.960304056438673	0.274234808236827	-5.05490366162524	-74.0197763756494	92.2109042392274
20685	1649153435546	9.34671175244749	-0.214475358855906	2.65702566905259	-0.018705773474167	0.0103235625593404	-0.0933072902982879	0.0487327635082425	0.00132001974781698	-0.00298583602608647	0.33837890625	-0.325439453125	0.08544921875	0	0	0	0.409109502194526	-0.442125669685208	0.556554124906261	0.572190364712111	-0.0104552034895359	0.275154190159613	0.961343258340953	-0.998665440688961	0.0457538425279457	-0.0239566998447389	-0.0505769344021103	-0.960310760916244	0.274308614839107	-4.99125357007567	-74.0169628503767	92.1760562023753
20686	1649153435547	9.36844829060394	-0.186521357190157	2.7064019721497	-0.0476076845293696	-0.0296763340173187	-0.0595300399945255	0.0511433702474667	0.00155170335547036	-0.00541626593459255	0.3369140625	-0.31982421875	0.085205078125	0	0	0	0.409263364854465	-0.441967764277282	0.556655032793471	0.572104158343078	-0.0104006603891176	0.275166889316844	0.96134021516171	-0.998691746778146	0.0452773453074018	-0.0237646148534142	-0.0500661680247956	-0.960329706416295	0.274335987055484	-4.95094183497048	-74.0163296336755	92.1646150901665
20687	1649153435548	9.42333035877845	-0.184224902864454	2.75530846718985	-0.0491936960399572	-0.0606298638731389	0.00661617953830351	0.0455406929169019	0.0078527644610871	-0.0130982661078456	0.33251953125	-0.322509765625	0.09033203125	0	0	0	0.409428411474228	-0.441741743205678	0.556704501502512	0.572112494352412	-0.0101113393671035	0.275271961538523	0.961313220551417	-0.998718442348751	0.044896947769059	-0.0233610143938028	-0.0495906617085146	-0.960317453382867	0.274465216374599	-4.86498543556338	-74.0107137356513	92.103653132749
20688	1649153435549	9.34700303159256	-0.186732621833321	2.74426379852595	-0.0426600183550188	-0.0702095458993866	-0.0697120218743343	0.0484860168064725	0.0122278231958731	-0.0161508868618982	0.33056640625	-0.322021484375	0.09228515625	0	0	0	0.40956872743768	-0.441538697656361	0.556790434035316	0.572085175951771	-0.00994401792262017	0.275382221819501	0.961283386111146	-0.998743991873926	0.0444757401436883	-0.0230726512218893	-0.0491075880418745	-0.960305441224003	0.274594071954009	-4.80297173832822	-74.0045092796938	92.0680449569824
20689	1649153435550	9.30957266545097	-0.140196384494666	2.76299998341303	-0.0855878242049529	-0.0944524423235532	-0.101574159396577	0.0443414101776843	0.0162033318133653	-0.0191995162320242	0.33544921875	-0.316650390625	0.09326171875	0	0	0	0.409716458987696	-0.441266342924252	0.556874387880886	0.572107816726121	-0.00965013855091007	0.275596213495707	0.961225052697222	-0.998772547469207	0.0440466787137442	-0.0226558715603439	-0.0485826434832322	-0.960263826873176	0.274832875673679	-4.71252702223271	-73.9923848616044	92.00542089202
20690	1649153435550	9.36192540039993	-0.138710125247234	2.77845827920065	-0.0850638407730679	-0.0934243673458367	-0.0469947075987189	0.0448183033846244	0.0138619360224553	-0.0229272615314345	0.3359375	-0.316650390625	0.08349609375	0	0	0	0.409856555672419	-0.441054671181756	0.55693637434906	0.572110352753747	-0.00941469608864765	0.275719834392896	0.961191935265747	-0.99879642796804	0.0436789573985286	-0.0223124216270013	-0.0481358387881831	-0.960245136203736	0.274976761602188	-4.63898425917086	-73.9855054849949	91.9556549281841
20691	1649153435552	9.36159618005847	-0.135340153651683	2.77973344981248	-0.0835316003342037	-0.0926887530546649	-0.0469744716652105	0.0415418427837978	0.012116031238984	-0.0234304564332424	0.336669921875	-0.328857421875	0.095703125	0	0	0	0.410016057824706	-0.440789832535798	0.556970596730807	0.572166855240916	-0.00902384417921676	0.275898410655164	0.961144441400034	-0.998822048517325	0.0433411734064321	-0.0218187553129932	-0.0476768878166758	-0.960209148928351	0.275182311717901	-4.53340453091328	-73.9756447582043	91.8733124949228
20692	1649153435552	9.30637570058135	-0.132381250856569	2.73235056945455	-0.0804544437621274	-0.0613769034760914	-0.113117670376823	0.0432414717153482	0.0086226665502506	-0.0206538425156516	0.339111328125	-0.31982421875	0.08935546875	0	0	0	0.410161390473386	-0.440601906949457	0.557024638876013	0.572154826111331	-0.00881297744490178	0.275972889192436	0.961125015728618	-0.998844452390895	0.0429823708999713	-0.0215005981254442	-0.0472450140913325	-0.960203874300972	0.275275186714882	-4.46606760877048	-73.9716132819476	91.8290741233585
20693	1649153435553	9.3023195836822	-0.111555777939264	2.74976365856618	-0.0968909030044288	-0.0766420794508191	-0.112608416433495	0.0434300407229755	0.00818486561502452	-0.0252300719589358	0.32861328125	-0.323486328125	0.091064453125	0	0	0	0.410351252331135	-0.440315579676272	0.557062073161861	0.572202662217878	-0.00839192612208473	0.276136703485518	0.961081732509839	-0.998872901649791	0.042587392709756	-0.0209580612632302	-0.0467172551172451	-0.960174377376493	0.275468080009235	-4.35077467041132	-73.9626341161548	91.7407103027898
20694	1649153435554	9.32718537399873	-0.120923805152289	2.69736733156679	-0.0820940826596929	-0.0195038553637407	-0.10291498598149	0.0444155481226476	0.000977855834388339	-0.0172452517587502	0.3291015625	-0.31591796875	0.08837890625	0	0	0	0.410513706150829	-0.440152940888745	0.55711283633696	0.572161841857606	-0.00821864756884561	0.27613978304729	0.961082345093663	-0.998895043196991	0.0422075693017977	-0.0206691502030648	-0.0462725243381212	-0.960190263079266	0.275487771378601	-4.2907183750017	-73.9627611633952	91.704770120924
20695	1649153435555	9.31600921689733	-0.156397421874864	2.73511763516359	-0.0447984692842332	-0.0593200515699973	-0.102495284989844	0.0560798299068257	0.00120702935850655	-0.00751622581647693	0.33740234375	-0.318359375	0.0927734375	0	0	0	0.410694268379137	-0.439914937703841	0.557226971424728	0.572104158193572	-0.00805410019629821	0.276242647840731	0.961054176924469	-0.998924821798061	0.0416566404747002	-0.0203451394704756	-0.0456544835228648	-0.960184734214361	0.275610131011102	-4.22183380919156	-73.9569202199243	91.6700363266037
20696	1649153435556	9.40921523426938	-0.126605019138973	2.72791795530483	-0.0729596668045934	-0.0250331088483734	-0.0154966188582879	0.0550899512336019	0.00660095465119763	-0.00277226740340797	0.337646484375	-0.323486328125	0.09228515625	0	0	0	0.410839561048363	-0.43973606166959	0.557354317649132	0.572013300319824	-0.00802327866962227	0.276306224265025	0.961036158233286	-0.998950106478907	0.0411340393509175	-0.020166198760698	-0.045103345387769	-0.960188971629586	0.275686102289812	-4.18368507428926	-73.9531849550068	91.6632664293434
20697	1649153435557	9.40283704685257	-0.109487626745509	2.71116059432952	-0.0857167593549681	-0.00791154241594524	-0.0265587350075407	0.0559823773832863	0.0153008343889757	0.000550496908917905	0.331787109375	-0.322021484375	0.09033203125	0	0	0	0.410987460899643	-0.439445512556132	0.557504652045151	0.571983838430387	-0.00784759111541228	0.276554110820791	0.960966304873281	-0.998980492457538	0.0405557398625607	-0.0198294642765466	-0.04445661933818	-0.960142206005091	0.275953896955086	-4.11008920793569	-73.9387123870733	91.6254078561495
20698	1649153435558	9.40064434281546	-0.0885217322638295	2.76397483715119	-0.107531652548524	-0.0564553023254913	-0.0144856801069171	0.0557626168077064	0.0236677811643727	0.00279760830878407	0.339111328125	-0.31640625	0.086181640625	0	0	0	0.41107492686492	-0.43922700834152	0.557684413298261	0.57191357285042	-0.00786453938493525	0.276784150002622	0.960899934086577	-0.999004991326974	0.0400109993343487	-0.0197014526382988	-0.0438996164454221	-0.960098773168465	0.276194079292718	-4.08010685888865	-73.9249731101044	91.6275632377827
20699	1649153435559	9.42329824200687	-0.080389725584639	2.7643914528911	-0.11291847340854	-0.0470719847541942	0.00728745498254213	0.0555369056310283	0.024819519733451	0.00466539555950717	0.33251953125	-0.323486328125	0.085693359375	0	0	0	0.411172217812881	-0.438944767310916	0.557846926996362	0.571901831252461	-0.00773140541783651	0.277103571270378	0.960808948833985	-0.999031145160731	0.0394884266791057	-0.0194276904764103	-0.0433243161412082	-0.9600282677857	0.276529797098406	-4.01873033361613	-73.9061570026427	91.5981822469556
20700	1649153435560	9.37323238937014	-0.00481174140058438	2.74835138066413	-0.186241808249041	-0.0398008893384144	-0.046691615972998	0.0484528360995532	0.0316326278024118	0.00504140869685374	0.33740234375	-0.325927734375	0.08935546875	0	0	0	0.411211688307128	-0.438728405118105	0.558033165673695	0.57185777947871	-0.00776725489856239	0.277410717641449	0.960720023466252	-0.999051710349086	0.0390078668155929	-0.019340795616044	-0.0428409827140482	-0.959959207500065	0.276844667884251	-3.99627853398784	-73.8877875598656	91.6038121687255
20701	1649153435563	9.33178822921529	-0.0334469781327569	2.77293847147281	-0.155968522775136	-0.0722770135342207	-0.0790843733315078	0.0391834817775994	0.0298410448067198	0.0056066792527848	0.336669921875	-0.32177734375	0.090087890625	0	0	0	0.411243982158674	-0.43848393118137	0.558171581550349	0.571886977280993	-0.00764734470937167	0.277774361210727	0.960615907828341	-0.999069873097193	0.0386457453757177	-0.0191283829403942	-0.0424370921300601	-0.959868694467284	0.277220458468017	-3.94718782610063	-73.8663061164832	91.5769991311199
20702	1649153435564	9.38757979873011	-0.0522468937156701	2.77327304306955	-0.137152206575971	-0.0549821138002327	-0.0250117859321861	0.0346025290109634	0.0282095466570463	0.00860597323482771	0.32666015625	-0.32568359375	0.09375	0	0	0	0.411245423747064	-0.438323573683711	0.558330478027894	0.571853760593897	-0.00772095588343191	0.278049639433109	0.960535675990936	-0.999083894624649	0.0382885575044832	-0.0191143366578639	-0.0420922598810088	-0.959803305045021	0.277499292400477	-3.94034771618884	-73.8497714241263	91.5905956106582
20703	1649153435565	9.41237594025694	-0.0430135558652815	2.80812744313146	-0.14625784994697	-0.0776945789646405	0.00835242787763946	0.0285547400857417	0.0216763681296352	0.00658562169310336	0.333740234375	-0.33056640625	0.098388671875	0	0	0	0.411272773084352	-0.438113857866602	0.558459163345779	0.571869142846406	-0.00764077915924927	0.278362523611581	0.960445690261782	-0.999099728617505	0.0379561379892792	-0.018948980589123	-0.0417294952074399	-0.959725813468373	0.2778219073295	-3.90184401965354	-73.8312461693172	91.5723183301927
20704	1649153435566	9.32965544258151	-0.0327740056452596	2.78011383110666	-0.154455796004758	-0.0712187387501894	-0.0790524507179064	0.0140069512675479	0.0235521416899932	0.00299586979028003	0.341552734375	-0.3310546875	0.097900390625	0	0	0	0.411240384371526	-0.438012770539564	0.558547573195657	0.571883526238915	-0.00766115735700595	0.278591231229988	0.960379212889216	-0.999105391695297	0.0378119094784022	-0.0189387377346887	-0.0415899381261551	-0.95966514231963	0.278052318212429	-3.8965197893902	-73.8175738092744	91.5752160663362
20705	1649153435567	9.31390933500376	-0.0525422319546726	2.83632715253692	-0.134192704141356	-0.126817681145623	-0.0780929308173253	0.00891525316754936	0.0195535558675161	-0.00610161310673817	0.33984375	-0.324951171875	0.083740234375	0	0	0	0.411273535853999	-0.437788016969662	0.558613728388687	0.571967161084979	-0.00741529069307723	0.278916165351899	0.960286824948322	-0.999118668126393	0.0376095623236793	-0.0186388793430384	-0.0413146519443191	-0.959578706270212	0.27839146180784	-3.83035349118068	-73.7985910871314	91.5229120959702
20706	1649153435568	9.34451444722034	-0.0799443350332514	2.80323105377411	-0.104765088579007	-0.0857469412173277	-0.0573751106424005	0.000934550085347277	0.0176735639563525	-0.00904912820781772	0.33056640625	-0.32177734375	0.091552734375	0	0	0	0.411246276622342	-0.437715200256321	0.558627557971671	0.57202898082478	-0.00731869012164771	0.279084812641512	0.960238566257238	-0.999119797947171	0.0376235028777359	-0.0185499698440119	-0.041304553319314	-0.959529123781067	0.278563806857659	-3.80978469959597	-73.78868409424	91.5021740804372
20707	1649153435569	9.29954347970377	-0.0905037838816316	2.84288763549638	-0.092430351766902	-0.134352301097981	-0.0892560888246176	-0.00550705571872407	0.0145146943059093	-0.0173615126969848	0.335205078125	-0.321044921875	0.095458984375	0	0	0	0.411243362338064	-0.437585532286377	0.558558485267671	0.572197708315943	-0.00693735906173321	0.279303479245289	0.96017781662082	-0.999120061677054	0.0377826309367377	-0.0182092051978857	-0.041363938445088	-0.959459243157819	0.278795597733064	-3.73689846296711	-73.7762212144076	91.422823973286
20708	1649153435569	9.23911765572991	-0.142950527674157	2.85124768808043	-0.0385075250666629	-0.159934086624413	-0.143960389808347	-0.0112598642009105	0.0132951577165198	-0.0181594264409658	0.337158203125	-0.322509765625	0.0927734375	0	0	0	0.411213329090025	-0.437540883245953	0.558510359827156	0.572300403138763	-0.0067516930918165	0.279426121747397	0.960143456534284	-0.999116694597631	0.0379395518888782	-0.0180671242530697	-0.0414758389511128	-0.959417340310086	0.278923146934099	-3.70613139680373	-73.7691763138965	91.3841521264812
20709	1649153435570	9.18819456765547	-0.137992690733808	2.87266464530766	-0.040538602372009	-0.191903223244537	-0.186904635432569	-0.0219407200193803	0.0130891715326014	-0.0195360096688958	0.337646484375	-0.32373046875	0.092041015625	0	0	0	0.411186754624183	-0.437409461430596	0.558433062626539	0.572495354075622	-0.00634904476692011	0.279686714056713	0.960070326387972	-0.999114621606946	0.038155934774352	-0.0177227969774704	-0.0415892116029732	-0.95933282369658	0.279196831745257	-3.6321360322603	-73.7541922263207	91.3004228806593
20710	1649153435571	9.18191403032615	-0.121183988418261	2.85558676548869	-0.0551919388928667	-0.175791250409662	-0.197976879765704	-0.0206457769298062	0.00577040738340996	-0.0234098499168605	0.33349609375	-0.32666015625	0.095947265625	0	0	0	0.411162379598494	-0.437401463057997	0.558334002717115	0.572615577091221	-0.00611379695078335	0.279735441569447	0.960057656714841	-0.999107547132602	0.0384172780255758	-0.0175562527830044	-0.0417939080431554	-0.95930818587097	0.279250915435255	-3.59739928172719	-73.7515976252597	91.2520365711063
20711	1649153435571	9.18796146100406	-0.134823035832381	2.87356061885063	-0.0387287788655136	-0.190236040669237	-0.186864090457146	-0.0284398110616468	-0.0037648765837004	-0.0313097076760241	0.33642578125	-0.32373046875	0.09521484375	0	0	0	0.411176434212287	-0.437313246418587	0.558191087806583	0.572812162884667	-0.00564033199971853	0.279851486026481	0.960026735265068	-0.999103091211254	0.0387132988835466	-0.0171549882445483	-0.0419666508915156	-0.959262438677928	0.279382128910612	-3.51373907284754	-73.7452669655204	91.1546248176703
20712	1649153435572	9.18478691680576	-0.205700909758718	2.87774345820454	0.0340324204780889	-0.198498373596053	-0.187539533271229	-0.035059018454488	-0.00649891595767704	-0.0350431649182778	0.330322265625	-0.319091796875	0.096923828125	0	0	0	0.411170280516354	-0.437356554512269	0.558002202882949	0.57296752632504	-0.00529442839413502	0.279778249330582	0.960050050898126	-0.999090318148484	0.0391450839957573	-0.0169174046746295	-0.0423143617456231	-0.959266278777942	0.279316489290519	-3.46600819738016	-73.7500402364749	91.084116439499
20713	1649153435573	9.20843891461744	-0.19649530065402	2.87498135690517	0.028644689873398	-0.187887524600004	-0.165752477344837	-0.034234735920601	-0.0114836023774345	-0.0351940293441964	0.341064453125	-0.331298828125	0.089599609375	0	0	0	0.41118933089679	-0.437285553839421	0.557843573553015	0.57316247784167	-0.00481621630209439	0.279855701143268	0.960029994634616	-0.999084318319524	0.039467763204504	-0.0165172805160586	-0.0425126916172618	-0.959230463551509	0.279409357120001	-3.38310208504704	-73.7459341548642	90.9859424992627
20714	1649153435573	9.27769507864919	-0.243928769062283	2.90704118676274	0.0768143497719468	-0.202677818188452	-0.0895687261233089	-0.037904908521662	-0.0170710743426107	-0.0423610661004901	0.332275390625	-0.328369140625	0.091064453125	0	0	0	0.411220354518039	-0.437351575406426	0.557606110132721	0.573320892225489	-0.00440194913565373	0.279678725368045	0.960083555436876	-0.999070204918659	0.0399464919454277	-0.0162173803384605	-0.0428876262760661	-0.959262262552718	0.279242839039151	-3.32379118377795	-73.7569018113885	90.9017213708543
20715	1649153435575	9.27619630366247	-0.243193600453094	2.87085845439405	0.0814817881545808	-0.168559668292787	-0.101161394374484	-0.0351417524699139	-0.0194920384040914	-0.0412154477540973	0.3349609375	-0.333984375	0.094970703125	0	0	0	0.411247403094349	-0.437332118050568	0.557395567192492	0.573521031561805	-0.00389839960887328	0.279652765692337	0.960093293967371	-0.999059557044527	0.0403715102446278	-0.0158158982850121	-0.0431833759505145	-0.95925203768415	0.279232383939115	-3.24180529355599	-73.7588967465957	90.7986596417924
20716	1649153435575	9.3041474702896	-0.250924542895217	2.85046833656976	0.0926812414977685	-0.143692156139408	-0.0799562605798218	-0.0323788530743971	-0.0219112529909717	-0.0400709257026468	0.341552734375	-0.3203125	0.081298828125	0	0	0	0.411302316616883	-0.437401676135655	0.557166914177016	0.573650771642265	-0.00351039307963841	0.279429815128965	0.960159703152251	-0.999047105875775	0.0407908681840921	-0.0155237016856627	-0.0435035329791024	-0.959299266907767	0.279020356118609	-3.18445066492457	-73.7725070116225	90.7197518557256
20717	1649153435576	9.33829663536678	-0.27408826290639	2.84759373878459	0.119606582934851	-0.133226805294108	-0.0476660048519939	-0.0315477908672917	-0.026899794652548	-0.0402242434668481	0.33154296875	-0.31494140625	0.091064453125	0	0	0	0.411347632829177	-0.437410667381443	0.556934790010006	0.573836799711611	-0.00300890452513763	0.279323669891627	0.960192290081436	-0.999035040297975	0.0412335292846854	-0.0151256179891572	-0.0438170600381123	-0.959311254755725	0.278930066053507	-3.10395400241629	-73.779189621169	90.6171724098457
20718	1649153435576	9.30986485228448	-0.262801274599637	2.8286605715206	0.111925389428858	-0.125717131568201	-0.0804915682267708	-0.0208127264266385	-0.034623022519904	-0.0365179956529416	0.3427734375	-0.32177734375	0.084228515625	0	0	0	0.411463115602171	-0.437492177189697	0.556715299332169	0.573904848286079	-0.00266265922537529	0.278979430247435	0.960293386286018	-0.999027007359635	0.0415323599768949	-0.0148358228893262	-0.0440221400195784	-0.959398530629252	0.278597398793547	-3.04822626494279	-73.7999385148688	90.5468306521298
20719	1649153435581	9.31486069146228	-0.277843844975583	2.80891592247046	0.131271596916641	-0.10780263623594	-0.0810389595885486	-0.0140892287691796	-0.0333548350702798	-0.0273554059183554	0.335205078125	-0.31884765625	0.098388671875	0	0	0	0.411540314507455	-0.437505951595196	0.556527748934959	0.574020885089798	-0.0022691860316601	0.278814428204616	0.960342316791095	-0.999019775878096	0.0418228684009861	-0.0145029336064365	-0.0442078974758202	-0.959433875941249	0.278446223707775	-2.98156918695683	-73.8099902610892	90.4663026689083
20720	1649153435581	9.33306456857853	-0.253243162365636	2.78594628083663	0.109592874343797	-0.0830958104620792	-0.0703669927282551	-0.0126802885906016	-0.0349309235672847	-0.025427095279448	0.335693359375	-0.32373046875	0.090576171875	0	0	0	0.411655874816362	-0.43758855742234	0.556356812645909	0.574040758278275	-0.00203329712895867	0.278471172378437	0.960442435472821	-0.999014774039729	0.0420130755033216	-0.0142962490570467	-0.0443322337936436	-0.95952525117421	0.278111390284424	-2.94268560893685	-73.830576496917	90.4183459016896
20721	1649153435582	9.34024732410006	-0.267014367708824	2.80045201521929	0.12492099593334	-0.0967962890342969	-0.0592739985887523	-0.00431340327025392	-0.0363927611371552	-0.0162057925726513	0.334716796875	-0.335205078125	0.095703125	0	0	0	0.411752354549996	-0.437562784477465	0.556295575831481	0.574050555677096	-0.00185191609870428	0.278348555309447	0.960478345494529	-0.999018582397641	0.0419904616657109	-0.0140951464450807	-0.0442542927970967	-0.959561818168191	0.277997616325724	-2.90254802947878	-73.8379664739221	90.3811961975808
20722	1649153435582	9.31968192507673	-0.292613951295863	2.74822240202233	0.15368858377344	-0.0568241712946082	-0.0932238749593424	0.00187368534718641	-0.0320396358684778	-0.0060385625973881	0.339599609375	-0.321044921875	0.083251953125	0	0	0	0.411859142526635	-0.437636048856144	0.556218453794049	0.573992828454995	-0.00180855919892081	0.278041991422948	0.960567217907828	-0.999019622705492	0.0419861567523648	-0.0140341045507796	-0.0442325961593977	-0.959650881126427	0.277693470917615	-2.89315922553592	-73.8562698184882	90.3726823677673
20723	1649153435583	9.37946737297911	-0.309238753901282	2.77709272433258	0.16892958325596	-0.0698678031471864	-0.0275526538680531	0.0124638381636819	-0.0328245344568794	0.00532531162250364	0.33935546875	-0.329833984375	0.083740234375	0	0	0	0.411925456943706	-0.437647761791096	0.556248877637755	0.573906822269697	-0.00189675454803534	0.277913542999963	0.960604218676658	-0.999026560024713	0.0418092080969144	-0.0140684925808348	-0.0440719262952347	-0.959695812607056	0.277563709041925	-2.9015898522088	-73.8638961146528	90.391036513943
20724	1649153435584	9.36808815549649	-0.278454217960231	2.73821580115118	0.139575630758963	-0.0376926402833069	-0.0497198246399346	0.0212647084033987	-0.0358971714019562	0.00810382542276861	0.33935546875	-0.318359375	0.087646484375	0	0	0	0.41206731386408	-0.43770761313352	0.556247039992236	0.57376110424956	-0.00199744819033404	0.277575830999415	0.960701654128748	-0.999035832606564	0.0415795186894355	-0.0140907343195648	-0.0438567596709631	-0.959803522430784	0.277225148499598	-2.90971235186015	-73.8839955192907	90.4122958951715
20725	1649153435585	9.39621300237891	-0.289237322799986	2.71661580525062	0.150943430554761	-0.011479649782249	-0.0285388581019976	0.0229584060664596	-0.0321575525002603	0.0112620767669766	0.334228515625	-0.32421875	0.087646484375	0	0	0	0.412144569359195	-0.437732484481914	0.556268162577753	0.573666154901425	-0.0020879933366757	0.277406303217462	0.960750427124052	-0.999042568462778	0.0414051705001888	-0.0141265089511112	-0.0436988178686968	-0.959860070422284	0.277054251954029	-2.91888325680378	-73.8940657931022	90.431248119906
20726	1649153435585	9.36986617478965	-0.278955498949186	2.73207426333637	0.13968388731342	-0.0363036246752537	-0.0497161090545077	0.0352324926132127	-0.0339387351283553	0.00996760591279036	0.33056640625	-0.318603515625	0.090087890625	0	0	0	0.412316926224846	-0.437752135614388	0.556305888597865	0.573490696022941	-0.00220634784723645	0.277087272497528	0.960842221932955	-0.999057732517074	0.0410370213196692	-0.0141283395716985	-0.0433448858231418	-0.959968023582604	0.276735640227075	-2.92261603809814	-73.913035525006	90.4562163647264
20727	1649153435586	9.42736837186253	-0.298044346697181	2.72662571620846	0.157893361530521	-0.0172455461959263	0.00430628548746803	0.0391542089745651	-0.0295297539337136	0.0152701672606637	0.3349609375	-0.322021484375	0.094970703125	0	0	0	0.41240835713649	-0.437733711773423	0.556423830553123	0.573324572413945	-0.00243656326069658	0.276972827594127	0.960874661927345	-0.999072991337067	0.0406237355131423	-0.0142432473039776	-0.0429793106073217	-0.96001862736484	0.276617089082087	-2.94760486610656	-73.919744578216	90.5040248584224
20728	1649153435586	9.4079361050799	-0.232330386454862	2.72143342706952	0.0920836265784975	-0.0175519199507818	-0.0167366122910497	0.041037624611162	-0.0262357632800721	0.0138506976615173	0.33642578125	-0.318359375	0.086669921875	0	0	0	0.412567160518296	-0.437723205356308	0.556501444619023	0.573142980146674	-0.00259092474092082	0.276729352996113	0.960944406456138	-0.99909023270339	0.0401889603976228	-0.0142672484678955	-0.0425675231329383	-0.960107136028324	0.276373467108939	-2.9551611262326	-73.9341779772202	90.5364256218346
20729	1649153435587	9.39311368312888	-0.274663904940231	2.68799553461201	0.135379596887922	0.0080277102220378	-0.0396145424405159	0.0446239723707505	-0.0264153385848055	0.0152096220612674	0.330810546875	-0.324462890625	0.091796875	0	0	0	0.412685065015006	-0.437656752356069	0.556636456725303	0.572977712721009	-0.00277515567712217	0.27665175698254	0.96096623451058	-0.999109378183824	0.0396937843157215	-0.0143127185339328	-0.042104025176963	-0.96015009703961	0.276295208461397	-2.96540071518062	-73.9386978153792	90.574727507753
20730	1649153435587	9.36032728987159	-0.248755197359975	2.68658835553594	0.109457646276491	-0.000733839788646391	-0.0718772652376174	0.0459177520576659	-0.0193139523367838	0.0120804389212787	0.3369140625	-0.322998046875	0.0849609375	0	0	0	0.412842443203544	-0.43760889965009	0.556733998608595	0.57280609531503	-0.00290858851935627	0.27647420114591	0.961016938567451	-0.999128310342541	0.039216743766027	-0.0143061693143271	-0.0416432417672482	-0.960220840801282	0.276119136073532	-2.96593293046588	-73.9492016616074	90.602745927627
20731	1649153435588	9.38017996762456	-0.223992277510467	2.69958511533203	0.0832433500819849	-0.00701533688196185	-0.0495562187122296	0.0453348552930477	-0.0155168722335195	0.0103749149538301	0.34033203125	-0.32763671875	0.08740234375	0	0	0	0.412922973144164	-0.437542011517506	0.55687880603677	0.572658363943163	-0.00311403291144752	0.276460315416704	0.961020289483382	-0.999144908501851	0.0387612272736905	-0.0143881574590233	-0.0412280804046799	-0.960243334400158	0.276103212813997	-2.98307169365523	-73.9498960727301	90.6453490353391
20732	1649153435588	9.36502626469277	-0.265803602836492	2.66729038581874	0.12664677997507	0.0168606560455341	-0.0724367155067913	0.0428187528294293	-0.0142940925519128	0.00737935504392216	0.334228515625	-0.324951171875	0.084716796875	0	0	0	0.413067465709576	-0.4374789495123	0.556966582390556	0.572516954863405	-0.0031992103324035	0.276328981469172	0.961057781329228	-0.999162265374505	0.0383269897449042	-0.0143460555129717	-0.0407986826372653	-0.960298565997734	0.275974875011766	-2.97573916064638	-73.9576675127224	90.6633146463238
20733	1649153435589	9.43758011484683	-0.242029425903603	2.69447111049824	0.101102287118923	0.0113057147109848	0.00445690589621428	0.046349575326829	-0.0137456032940259	0.00602166510448212	0.336669921875	-0.328369140625	0.08642578125	0	0	0	0.413159508148168	-0.43741775990466	0.557079831286206	0.572387094299728	-0.0033444702117566	0.276283998770822	0.961070219360795	-0.999177224920754	0.0379225648017916	-0.0143788830760865	-0.0404189029869012	-0.960327564481026	0.275929848293506	-2.98302197393283	-73.960246521024	90.6935424041969
20734	1649153435590	9.45894026391882	-0.236625939053197	2.65684098970189	0.0976062907247646	0.0522569125207093	0.0145242901136235	0.0488811888774168	-0.0149914540311876	0.00902436596611123	0.330810546875	-0.321044921875	0.0830078125	0	0	0	0.413319423949401	-0.437343794319741	0.557183929257042	0.572226815462044	-0.00344705090460762	0.27614580065861	0.961109574720113	-0.999196541202932	0.0374262455276392	-0.0143369520401695	-0.0399298120225766	-0.960386782980857	0.275794918712296	-2.97579121255341	-73.9684094606956	90.7151700694823
20735	1649153435591	9.48246576690231	-0.229151355966025	2.65406190379392	0.0891433438057827	0.0614473767411692	0.0362714467027647	0.0494008657202499	-0.00363248087001191	0.0087488435837913	0.3447265625	-0.3212890625	0.095947265625	0	0	0	0.413370516622325	-0.437283438630635	0.557322796244614	0.572100787512868	-0.00365100982909605	0.276169459386571	0.961102023631912	-0.9992097831351	0.0370322335469524	-0.0144368613497045	-0.0395787747957723	-0.960395253726638	0.27581602057352	-2.99626198580719	-73.9668429288142	90.7574163672089
20736	1649153435591	9.47240597201729	-0.195451442818182	2.65270490505844	0.0561891371644772	0.0612955284628199	0.0257375645331912	0.0459954578408147	0.00330443219842257	0.00318127224504505	0.336669921875	-0.31787109375	0.0888671875	0	0	0	0.413483592771635	-0.437153846421352	0.55744151259466	0.572002441519137	-0.00368905080961224	0.276203926392052	0.961091973720381	-0.999227698441014	0.0365805570896753	-0.0143481535844246	-0.0391202961696014	-0.960402651958346	0.275855666135354	-2.9774573885256	-73.9647582277865	90.765211694649
20737	1649153435592	9.44659001217653	-0.203877249954101	2.62114707770576	0.0672159179238503	0.0862314550853188	-0.00768421130677765	0.0457527816061175	0.0116986663100087	0.00540212872848407	0.3369140625	-0.3203125	0.08740234375	0	0	0	0.413553737083046	-0.436947225851938	0.557609701067077	0.571945670182779	-0.00370291380763721	0.276442592036179	0.961023299268885	-0.999247224672734	0.0360894556410649	-0.0142314853536634	-0.0386169964286859	-0.960352562603886	0.276100856729885	-2.95067198863249	-73.9505198162506	90.767423876441
20738	1649153435593	9.41898398060583	-0.192204029613952	2.6412540327417	0.0559370629574875	0.0613834134887543	-0.0288472646309952	0.0455783610521778	0.021091657698818	-0.00238759519596512	0.338623046875	-0.322265625	0.092529296875	0	0	0	0.413628544517377	-0.436755823784857	0.5577480955267	0.571902823464604	-0.00367717534730072	0.276646069824214	0.960964843494434	-0.999264772630688	0.0356569781935498	-0.0140887929023132	-0.0381627116542413	-0.960310122802484	0.276311555100894	-2.91891485031617	-73.9384097469071	90.7615297826629
20739	1649153435596	9.38505838857866	-0.164890499835551	2.6439208152751	0.0297118483678589	0.0533501964733806	-0.0611183847541863	0.0428781561064272	0.0227670264200434	-0.000810545047795819	0.339111328125	-0.311279296875	0.09326171875	0	0	0	0.413652339178945	-0.436561963785336	0.557905264015498	0.571880328785205	-0.00368926368062439	0.276940336599643	0.960880033769862	-0.999279846665076	0.0352669173511677	-0.0140011638647158	-0.03776476376883	-0.960239706794414	0.276610788135355	-2.89765830120027	-73.920855814839	90.7632211990637
20740	1649153435597	9.34877610548758	-0.139709242811198	2.61242254593915	0.00735797390377236	0.0768549676317499	-0.105065446061706	0.0435926755589803	0.0264431486749809	-0.00602783432074645	0.33251953125	-0.3203125	0.091552734375	0	0	0	0.413714537890264	-0.436353196722813	0.558039757841345	0.571863443066962	-0.00362496724368994	0.277193752296575	0.96080720402182	-0.999296396853046	0.0348638196132361	-0.0138284242954237	-0.0373305618629121	-0.960181304634557	0.276872337696055	-2.85926911333592	-73.9057963779339	90.749235809124
20741	1649153435598	9.270449373792	-0.124022039840018	2.65370129460824	-0.00789263837733394	0.0194173639120031	-0.169124548832762	0.0379528918507532	0.023763941617616	-0.0013754543856359	0.33349609375	-0.323486328125	0.0966796875	0	0	0	0.413736044824518	-0.436145091635387	0.558182986449096	0.571866853291999	-0.00358157463774378	0.277514805677845	0.960714684468132	-0.999310586409254	0.0345084777034645	-0.0136936794537607	-0.0369530000609846	-0.960101399642859	0.277199888510648	-2.82811348861299	-73.8866853240025	90.7394117876
20742	1649153435599	9.29714211126662	-0.133611478692321	2.63706651170813	0.00328312740930444	0.044306984839846	-0.147965476322595	0.0300324814401717	0.0139200104005016	-0.00193822045884442	0.336669921875	-0.326171875	0.09033203125	0	0	0	0.4137857817877	-0.436017858031001	0.558273534213351	0.571839501316003	-0.00356182305001557	0.277649738287457	0.960675770614346	-0.999321699322482	0.0342239755745539	-0.0135963509479436	-0.0366531673909321	-0.960072571384465	0.2773395085368	-2.80663343573001	-73.8786537771124	90.7349772252924
20743	1649153435600	9.29672319320553	-0.132731043333865	2.63858743759878	0.00217093264613967	0.045339902350449	-0.147969953010261	0.0245618658440136	0.0180169054256291	-0.00151252220741713	0.3330078125	-0.318603515625	0.093017578125	0	0	0	0.413765253091551	-0.435879431640295	0.558432591012058	0.571804579994405	-0.00367567526301332	0.277925099617578	0.960595715383907	-0.999332153017771	0.0339027132592901	-0.0136328272389201	-0.0363557059652093	-0.960004294280092	0.277614872814037	-2.81136412781161	-73.862143174956	90.7577163853579
20744	1649153435600	9.25592415192904	-0.161464850247388	2.66183537487611	0.0307943120200248	0.0120287232972229	-0.180321229434984	0.0260376108530028	0.00850067788411818	0.00278803520248199	0.34033203125	-0.325927734375	0.093505859375	0	0	0	0.413808062289164	-0.435788571757136	0.558517170360131	0.571760245840226	-0.00370621772242424	0.278010180369026	0.960570977888348	-0.999341478155358	0.0336429159947997	-0.0135928010959175	-0.0360953458005366	-0.959988798796397	0.277702416620726	-2.80224085655867	-73.8570446348699	90.763777983738
20745	1649153435601	9.30853139810654	-0.162562635207176	2.67633948927155	0.0309240757210995	0.0140777692928466	-0.125746566492733	0.0198075991592517	0.00241879866462309	0.00536696397437713	0.329833984375	-0.31640625	0.095458984375	0	0	0	0.413818154948269	-0.435717946631213	0.558624290351971	0.571702114608164	-0.00382245357552763	0.278117382625861	0.960539489209061	-0.999349369636968	0.033386873727934	-0.0136438289666099	-0.0358639966381056	-0.959966685955308	0.27780881123738	-2.81166821932254	-73.8505569036214	90.7874253184725
20746	1649153435602	9.28518599286944	-0.169677984285394	2.67848729233651	0.0378844396410446	0.00546612844040804	-0.147476624374439	0.0165727735143803	-3.18221633373846E-05	0.00758535352517674	0.331787109375	-0.3154296875	0.089111328125	0	0	0	0.413847231983662	-0.43568766242538	0.558684465641135	0.571645342184338	-0.00390414267682482	0.27812247886065	0.960537685061011	-0.999355011277352	0.0332042728614826	-0.0136761726584347	-0.0356976064295927	-0.9599715428158	0.277813458779538	-2.81827567876136	-73.8501852650404	90.8042363486609
20747	1649153435603	9.24245926115243	-0.201600582874714	2.66613537114595	0.0696184165812155	0.00513934715273601	-0.191507566057565	0.0165737701452068	-3.34062327596624E-05	0.00758581295170601	0.334716796875	-0.32177734375	0.095947265625	0	0	0	0.413836353615208	-0.435656401628381	0.558762753658533	0.571600522454811	-0.00402463031171085	0.27819725048099	0.960515534583211	-0.999359077197037	0.0330473151008037	-0.0137589893711898	-0.0355701725430504	-0.959955293120178	0.277885944293359	-2.83457574197753	-73.8456231403515	90.8288300679942
20748	1649153435603	9.30852829809337	-0.163366681362762	2.67630131936026	0.0303005880919661	0.0148663735661885	-0.12574577432596	0.0161033084118868	-0.00489612783470806	0.0109529906660233	0.3359375	-0.326171875	0.088623046875	0	0	0	0.413870347768688	-0.435648024925123	0.558821628854047	0.571524733271951	-0.00414162899250192	0.278157165593807	0.960526646240544	-0.999364363915818	0.0328594447254699	-0.0138247975560739	-0.0354078387425878	-0.959973358026749	0.277844267233329	-2.84853754691506	-73.8479115466775	90.8530440955822
20749	1649153435604	9.29763027313668	-0.201613622358249	2.7138733979999	0.0655906783460088	-0.025300634335766	-0.125234483826858	0.0136339143536574	-0.00438664394932761	0.0106656252231904	0.32275390625	-0.3212890625	0.093017578125	0	0	0	0.413858228362601	-0.43565142237754	0.558917407015603	0.571437255638753	-0.0043616593692391	0.278176606689816	0.960520042174075	-0.999368310085081	0.0326653979030466	-0.013998306237746	-0.0352697707000883	-0.959974347193911	0.27785840999399	-2.88408168369463	-73.846551424625	90.8982933547538
20750	1649153435605	9.33325141347306	-0.225976300995837	2.74771564657639	0.0878190482255906	-0.048731009573869	-0.0812690912284655	0.0150384519270337	0.00126656004045743	0.0129459285985443	0.331298828125	-0.324951171875	0.092041015625	0	0	0	0.413867376494926	-0.435632668587531	0.558992629749606	0.571371343889536	-0.00449716411014583	0.278196440841146	0.960513672895022	-0.999373039496365	0.0324820691176547	-0.0140869838372794	-0.0351184202771463	-0.959974820237049	0.277875945465027	-2.9021380184715	-73.8452397631483	90.9261300442788
20751	1649153435606	9.38368805567467	-0.229988590144949	2.72748111945923	0.0897152223561586	-0.0143078911659765	-0.0383640609386138	0.0175832670176255	0.00173657390352394	0.00322330808047137	0.3349609375	-0.327392578125	0.09423828125	0	0	0	0.413824131921071	-0.435616604380871	0.559127454815423	0.571282986880477	-0.00477067348138693	0.27830267855103	0.960481577015331	-0.999377331184305	0.032252154222799	-0.014309034311448	-0.0349598425264102	-0.959951778819807	0.277975523654903	-2.94674969501604	-73.83863165472	90.9820699122546
20752	1649153435606	9.35641786161855	-0.218931619003311	2.74618045259013	0.0784331916007694	-0.0391463639123354	-0.0595181800137752	0.0197055355724027	0.00384640446747695	-6.75509145200373E-05	0.337890625	-0.319580078125	0.08935546875	0	0	0	0.413867030643069	-0.435550784811161	0.559181813300599	0.571248890126647	-0.00477757295152803	0.27834376044584	0.960469638154983	-0.999384200462053	0.0320595612410867	-0.0142619914406804	-0.0347619715136793	-0.959946319100136	0.278019189594143	-2.93661835774009	-73.8361742754916	90.9833447993408
20753	1649153435607	9.28966427357281	-0.166395412762179	2.74728838492307	0.0259247469697874	-0.0563975013099976	-0.124070823635568	0.0200010257602625	0.00194224074316694	0.000794547968778235	0.334228515625	-0.320068359375	0.093017578125	0	0	0	0.413882455773874	-0.435502407103205	0.559259061493626	0.571198974392611	-0.00486608891083401	0.27840279319525	0.960452084135276	-0.999390016184482	0.0318612298797127	-0.0142988664352435	-0.0345820289961807	-0.959935803463771	0.278077932419803	-2.94357691384398	-73.8325617865589	91.0013476066049
20754	1649153435607	9.30913785221845	-0.141341683757918	2.76149378514178	0.000592970470909837	-0.0639457597141603	-0.101776822436635	0.016476118749793	-0.00582461913815861	0.00180854331441884	0.333984375	-0.329833984375	0.09326171875	0	0	0	0.413938986097058	-0.435477266337879	0.559291741765478	0.571145177590396	-0.00489540380834974	0.278351526158531	0.960466794275976	-0.999395598543413	0.0316945267637536	-0.0142791661267781	-0.0344161682005364	-0.959956189030749	0.278028132583654	-2.94005410778331	-73.835588972641	91.0075643115841
20755	1649153435609	9.27150371485296	-0.120230335533688	2.69236183888432	-0.0194772034790965	-0.00746314834948716	-0.157449739006008	0.0100571142894501	-0.0114357724938551	0.00896601241299102	0.3408203125	-0.328369140625	0.088134765625	0	0	0	0.413930917941597	-0.435507704120789	0.559378634824193	0.571042710946991	-0.00514283489267703	0.278317976676958	0.960475223578261	-0.999398391626379	0.0315134761484981	-0.0144829429207193	-0.0342987764194794	-0.959971877025303	0.277988469646934	-2.98236087296621	-73.8373238795816	91.0586064446316
20756	1649153435609	9.28804352828622	-0.169514943607842	2.71067774677604	0.0279481687076419	-0.0232824299775666	-0.135759223871219	0.0036388425697311	-0.0170471913812183	0.0161243964632834	0.33154296875	-0.316162109375	0.08837890625	0	0	0	0.413950649051415	-0.435580286578175	0.559401398894238	0.570950741316234	-0.00532022228071022	0.278163802097933	0.960518919354172	-0.999398771470081	0.0314298701301646	-0.014637583396685	-0.0342606307440152	-0.960019303173651	0.277829348188774	-3.01586949417259	-73.8463201884773	91.0957181303859
20757	1649153435611	9.36072745607392	-0.148013488269995	2.73719417995024	0.00254057405466243	-0.029911214937891	-0.058895454309317	0.00410345441288701	-0.021116149911938	0.0251432537523398	0.33251953125	-0.316650390625	0.09423828125	0	0	0	0.413928157208921	-0.435735810013275	0.559414041477667	0.570835978840967	-0.00561953186060327	0.277940682151108	0.96058180186127	-0.999393965626034	0.0314388217344992	-0.0149432914117573	-0.0343529086386872	-0.960083630572526	0.277595569083404	-3.08132420631643	-73.8592753250259	91.1582744695582
20758	1649153435612	9.34959942702283	-0.210333982067945	2.68795712528896	0.0641466979431407	0.0101813665500691	-0.0823151206904118	-8.67966891687207E-06	-0.025081766259715	0.0244367718617144	0.337158203125	-0.323486328125	0.097900390625	0	0	0	0.413941815032816	-0.435859259654902	0.559435529513231	0.570710756739935	-0.00588281181733707	0.277711002710586	0.960646652780617	-0.999392494872225	0.0313681241711774	-0.0151882184292086	-0.0343516188584113	-0.960152404443932	0.277357759080837	-3.13440855289521	-73.8726466069593	91.2135273103601
20759	1649153435613	9.35250534556564	-0.210302288786469	2.72001283398564	0.0604585377121172	-0.0208577077857797	-0.0706156173546102	0.00222881176564852	-0.0244202391335862	0.0265827800762578	0.3359375	-0.327880859375	0.09423828125	0	0	0	0.413942357827173	-0.435922547184936	0.559526699918145	0.570572632826872	-0.00619719013098513	0.277607630594935	0.960674553774558	-0.999394858641973	0.0311631929503831	-0.0154522466045723	-0.0342273480490637	-0.960188970380624	0.277246514504556	-3.19006168678668	-73.8784026927067	91.2788332717402
20760	1649153435613	9.38173899154354	-0.243752526916864	2.64881358088777	0.0933578441478197	0.0525982607809857	-0.0617298722893302	0.000109106881514739	-0.0193115895374945	0.0302198743597171	0.326904296875	-0.324951171875	0.090576171875	0	0	0	0.413927658843129	-0.436040511149021	0.559577215319164	0.570443604554558	-0.00651597453489922	0.277436031585181	0.960722015181356	-0.999392943347883	0.031074466680592	-0.0157518985196207	-0.0342240684652803	-0.960241441460835	0.277065131763094	-3.25391650494847	-73.8881987681376	91.3454244391816
20761	1649153435614	9.34887337599227	-0.220557956978849	2.64744756631064	0.06543418333029	0.0444659351574657	-0.0940044263065491	0.00123037206095989	-0.0189846171234532	0.0312936452356858	0.33740234375	-0.3212890625	0.0908203125	0	0	0	0.413848492747804	-0.436184365279604	0.559708233118734	0.570262499481691	-0.00706021347053176	0.277332747735297	0.960747990067812	-0.999389716259783	0.0309122376589523	-0.0162674090471414	-0.0342103554489147	-0.960276512571513	0.276945249072	-3.36161809283042	-73.8935624629464	91.4582954354894
20762	1649153435615	9.34216343796418	-0.278760927051229	2.66714778240413	0.119871998996702	0.0200072494263048	-0.0940129708923258	0.000706367463205628	-0.0231330459076756	0.0319487394233714	0.33740234375	-0.326416015625	0.08251953125	0	0	0	0.413841802774882	-0.436315456769591	0.559757628833282	0.570118567863669	-0.00739956170623052	0.277125284986241	0.96080529916724	-0.999387585818535	0.0308127184779541	-0.0165840191690443	-0.0342008742338054	-0.960339602849582	0.276727568919959	-3.42957955546256	-73.9054026840055	91.5294993526398
20763	1649153435615	9.34035799915981	-0.283986083782394	2.63065645636804	0.122710735273953	0.051516125816238	-0.105701413394907	0.000651999522706686	-0.0224165974398649	0.0292314684629206	0.340576171875	-0.32421875	0.09228515625	0	0	0	0.413809847754862	-0.436514336240198	0.559750372496917	0.569996635645721	-0.00773049050731528	0.276843796204622	0.960883838983428	-0.999379520294105	0.0308818607813217	-0.016937682586712	-0.0343629732887225	-0.960418566656068	0.276433288315755	-3.50625643795499	-73.9216430188017	91.5994919119064
20764	1649153435616	9.36418986342309	-0.279427898737255	2.62651134686013	0.115560070055984	0.0602024192044548	-0.0839816711239329	0.000772440495044742	-0.0221555814122879	0.0219374225108536	0.3427734375	-0.320556640625	0.09130859375	0	0	0	0.413822468612688	-0.436622451220021	0.559772736994239	0.569882691858509	-0.00796936398280157	0.276641227143379	0.960940227424326	-0.999377949605748	0.0308108947785599	-0.0171581643760657	-0.0343540838841789	-0.960479213834194	0.276223599123842	-3.55447145923781	-73.9333127848879	91.6500963321609
20765	1649153435617	9.37707688305527	-0.311577372369621	2.66021284252524	0.145490793952149	0.0281304942021637	-0.0617169400124329	0.000537282157439554	-0.0264922825595934	0.0107201375743656	0.337890625	-0.3212890625	0.09521484375	0	0	0	0.413889154704164	-0.436702081894992	0.559731301139635	0.569813943152836	-0.00801567561377758	0.276392888550752	0.961011300715567	-0.999377910683019	0.0307932762856074	-0.0171920264785942	-0.034344440354985	-0.96055127155929	0.275974118573705	-3.56467953613925	-73.9480333941979	91.6611704222531
20766	1649153435617	9.45751125876266	-0.324421833285139	2.65366585783941	0.157152404610299	0.054299598459354	0.0140143085349784	-0.00599914827488987	-0.0144836063667526	0.000396011510279122	0.3427734375	-0.3173828125	0.092041015625	0	0	0	0.413908499692731	-0.436762468214357	0.559692835845325	0.569791391427452	-0.00803504827455981	0.276256923535172	0.961050232921312	-0.999375715297967	0.0308473667710595	-0.0172226489242536	-0.0344037450272764	-0.960588648778536	0.27583660048283	-3.57278824416202	-73.9561025578189	91.666002048414
20767	1649153435618	9.47889459130108	-0.319928606557706	2.61571673585078	0.154771702525341	0.0956745009812311	0.0240124352954663	0.00165118986435574	-0.0172171027101804	-0.000603045627723264	0.33349609375	-0.332275390625	0.090576171875	0	0	0	0.41398641965782	-0.436756620805382	0.559652443717818	0.569778940258622	-0.00793440715332289	0.276133733171236	0.961086471961832	-0.999378972007509	0.0308087731591494	-0.0171023333391497	-0.0343324262518776	-0.960625307235524	0.275717797043127	-3.5494179401199	-73.9636170835776	91.6458800073096
20768	1649153435618	9.46819290404662	-0.357059033536714	2.65271336299108	0.191014140850704	0.0549562147698925	0.0245657887322466	0.00341009157848554	-0.00524258153857052	-0.0071418143543339	0.339111328125	-0.3193359375	0.09130859375	0	0	0	0.414023763494033	-0.436748061195981	0.559631797880001	0.569778645708478	-0.00787323631370057	0.27608434379277	0.961101163906518	-0.999380647773099	0.0307931481276705	-0.0170324069059087	-0.0342977113896792	-0.960640003924937	0.275670908607578	-3.53554201194776	-73.966664581556	91.6334898931926
20769	1649153435618	9.41933792556634	-0.372364889041392	2.62213464032917	0.207359500092668	0.0700126799554417	-0.0305468602725512	0.00911651100659193	-0.00331452706805064	-0.00908158572575439	0.335693359375	-0.325439453125	0.094970703125	0	0	0	0.414040788469896	-0.436747857685933	0.559650157513506	0.569748396649857	-0.00791397999628668	0.276056705138677	0.961108768282028	-0.999382414573963	0.0307238533566699	-0.0170538639385044	-0.0342367983452535	-0.960650165451969	0.27564306857995	-3.54034131707668	-73.9682421517435	91.6421028225806
20770	1649153435619	9.39229264127999	-0.360326426240046	2.64052413694738	0.196086706488776	0.0451560700508534	-0.051699979878915	0.0156465457299349	0.000850979406127984	-0.010812922157795	0.336181640625	-0.321533203125	0.083251953125	0	0	0	0.414103779897601	-0.436680367403749	0.559658441209594	0.569746211379676	-0.00781462818605083	0.276064571593711	0.961107321737325	-0.999388534589573	0.0306009773147348	-0.0169155880267075	-0.0340806179113581	-0.960651826885352	0.275656632397292	-3.51153533454803	-73.9679420463203	91.6214528203277
20771	1649153435619	9.36906683695168	-0.36566270643772	2.64250573512164	0.202025782532881	0.036118064256431	-0.073393754601625	0.0249479233810273	-0.0046398165520328	-0.0117341438264679	0.333984375	-0.328857421875	0.08251953125	0	0	0	0.414177290908698	-0.436657307464382	0.559664622822851	0.5697043772818	-0.00778818840297502	0.275979689541724	0.9611319134655	-0.99939385218606	0.030465363312175	-0.0168460633669835	-0.0339304042726727	-0.960680525772596	0.275575135066976	-3.49817014620663	-73.9730446798864	91.6164665124885
20772	1649153435619	9.36540052234169	-0.346368306698322	2.65861643600569	0.183712608251368	0.0199083767005769	-0.0728314868430146	0.0305435843888096	-0.00298115013077872	-0.00637734098083937	0.334716796875	-0.321044921875	0.091552734375	0	0	0	0.414283713294227	-0.436568600881671	0.559709886434016	0.569650510972639	-0.00773460049551622	0.275951523445302	0.961140433372456	-0.999404567768997	0.0301876958543361	-0.0167096661088766	-0.0336256728949593	-0.960697381971671	0.275553723246735	-3.47018502185648	-73.9748128776219	91.6055137605492
20773	1649153435620	9.30891818369247	-0.325946321330849	2.66092957210287	0.162963904612437	0.00163342377369663	-0.12681182454793	0.0402628945557953	-0.00459709839172399	-0.000655784175663094	0.332763671875	-0.32763671875	0.08984375	0	0	0	0.414351265756317	-0.436573999958611	0.559775486552892	0.569532769716325	-0.00789090557077715	0.275830987593247	0.961173761550224	-0.999410945509842	0.0299288664412216	-0.0167935984430266	-0.0333990359800276	-0.960740094529669	0.275432342252552	-3.4891059303978	-73.9817315406958	91.6386567460205
20774	1649153435621	9.36896411133774	-0.270853445130247	2.65291470004097	0.108874385575103	0.0274218612428911	-0.0722458548195739	0.0443263006831843	7.52959998431845E-05	-0.00267277268351869	0.334228515625	-0.322998046875	0.08837890625	0	0	0	0.414480001549494	-0.436446503815518	0.559867461524441	0.569446400593524	-0.00787425033322081	0.275832326393598	0.961173513939072	-0.999425716704507	0.0295095076834205	-0.0166561023641069	-0.0329580486584268	-0.960752682365538	0.275441555245484	-3.46049342937513	-73.9816801278721	91.6351920006874
20775	1649153435621	9.38461640717271	-0.226900747021202	2.68387771748201	0.0632162572622184	0.00328759546558588	-0.0494040368140531	0.0459179080041246	0.00526334621287533	-0.00497656806269474	0.333251953125	-0.318603515625	0.0859375	0	0	0	0.414541175887544	-0.436377333224694	0.559986815335556	0.569337512545783	-0.00802082060390691	0.27585025531189	0.961167156680463	-0.99943574669443	0.0291407602882296	-0.0167034223790024	-0.0326167850375747	-0.960758790089474	0.275460873082954	-3.47005793000523	-73.9803601913872	91.6655040673336
20776	1649153435622	9.33133772364794	-0.133236998743103	2.6812727054534	-0.028433582186004	-0.00588332588871805	-0.102898698683127	0.0479314742770603	-0.000130097391840083	-0.00130798060643944	0.336181640625	-0.322021484375	0.099365234375	0	0	0	0.414677368703648	-0.436243735675781	0.560090131805386	0.569239077385665	-0.00801910532427141	0.275849570916463	0.961167367410589	-0.999451188610393	0.0286834482784881	-0.0165704972806851	-0.0321405590348415	-0.960772748375004	0.275468165937317	-3.44241911900218	-73.9804039428861	91.6651522231756
20777	1649153435623	9.30180199851901	-0.123753374939562	2.66560051877641	-0.0365680152171309	0.00181884566608088	-0.135760120656712	0.0375714045438706	0.00430632707624132	0.00125673511703374	0.330810546875	-0.32666015625	0.099853515625	0	0	0	0.41474726800749	-0.436133908017946	0.560206149084134	0.569158140138259	-0.00808743038936177	0.275921086141738	0.961146267584732	-0.99946247348523	0.0283075484172963	-0.0165362268183601	-0.0317703881701665	-0.960763361564629	0.275543835914635	-3.43437555884716	-73.9760238033721	91.6788966932323
20778	1649153435624	9.28183669769158	-0.057012664043069	2.66232515829214	-0.102397171396673	0.00147588348033967	-0.156951719888044	0.0302173114347852	-0.00209320021400226	0.00278800256593563	0.330810546875	-0.3310546875	0.09228515625	0	0	0	0.414829679793879	-0.436063731299074	0.560278397851374	0.569080728815108	-0.00812692170674684	0.275902921928204	0.961151148787251	-0.99947163402628	0.0280089073264092	-0.016491024444197	-0.0314707152827972	-0.960777330489151	0.275529518015274	-3.42518750510723	-73.977036994701	91.6872011076753
20779	1649153435625	9.2904689424433	-0.0695539190042203	2.714357690885	-0.0943792072026948	-0.0455632078753754	-0.134133486217754	0.0187966532831758	-0.00593146216858313	0.00667016012600055	0.3388671875	-0.326416015625	0.08837890625	0	0	0	0.414798304402459	-0.436054352393394	0.560474258722547	0.568917897181162	-0.00854958586362059	0.27597846139302	0.96112579479936	-0.999476885393387	0.0276219439485141	-0.0168221216509387	-0.0311907060820112	-0.960766838030772	0.275597936847247	-3.49292254994581	-73.9717749461662	91.7744086551255
20780	1649153435626	9.31021030469901	-0.0452240016162994	2.72778768477121	-0.119795235968727	-0.053120153378123	-0.111877395276394	0.00760968322867078	-0.0109519763399565	0.00869773780925456	0.3388671875	-0.320068359375	0.09423828125	0	0	0	0.414827479401162	-0.436085028640629	0.560496818552378	0.568850882500715	-0.00865367162367237	0.275878113273575	0.96115367168005	-0.999478326215878	0.0275229574526807	-0.0168985868569943	-0.0311157418702351	-0.960798497828587	0.27549602025836	-3.51005488609446	-73.9775606960797	91.7966497362532
20781	1649153435628	9.29712459242094	-0.0861380138311504	2.73068052095144	-0.0801042247949558	-0.0619213472126953	-0.122986107851114	-0.00711439492362572	-0.00927024884558692	0.0124151562081974	0.3388671875	-0.32373046875	0.085693359375	0	0	0	0.414800572108126	-0.436182213758644	0.560482028085033	0.568810564224214	-0.0087900548114061	0.275758933644211	0.96118663403723	-0.999473460886107	0.0276007631449198	-0.0170586886414289	-0.0312335704132534	-0.960830478486828	0.275371123558761	-3.54482873181521	-73.9844045451789	91.825734397899
20782	1649153435629	9.32928803990957	-0.0932756728792179	2.77986795461911	-0.076256084585932	-0.101584962482478	-0.0784258724820699	-0.0134747149155505	-0.013891725243508	0.00957702788530341	0.33251953125	-0.32421875	0.099853515625	0	0	0	0.41477629941934	-0.436282245098607	0.560454632653822	0.568778541076039	-0.00890318530282219	0.275630066351572	0.961222554778284	-0.999468206849019	0.027702452353736	-0.017201093906948	-0.0313693606799735	-0.960864527733549	0.275236848103434	-3.57608365725706	-73.99186587662	91.8500798814001
20783	1649153435629	9.31537545204027	-0.157272804054797	2.6971920276335	-0.011779462945026	-0.0289743124770887	-0.113469830475307	-0.020069007498455	-0.0173292350032037	0.00859426325036302	0.3330078125	-0.3271484375	0.0947265625	0	0	0	0.414721472483162	-0.436417652494058	0.56043099321811	0.56873793147067	-0.00908653113572316	0.275493184709881	0.961260079338743	-0.999460270549803	0.0278464042039203	-0.0174282920972337	-0.03156901240828	-0.960899621683409	0.275091465705948	-3.62510254949371	-73.9996639664992	91.8890892721341
20784	1649153435630	9.29868402603998	-0.180880068700349	2.71567697346366	0.00977946935711062	-0.0536564401782157	-0.12402550669022	-0.0307865476346214	-0.0174904204037886	0.00724398267200196	0.32958984375	-0.322998046875	0.093994140625	0	0	0	0.41466305172304	-0.43657158400322	0.560351808913295	0.568740411632806	-0.00917779542296449	0.275329226284396	0.961306187031379	-0.999449647557742	0.028120807566667	-0.0175960841809391	-0.0318774225413288	-0.960938623084447	0.27491961115331	-3.66219067945253	-74.0092508133988	91.9091845583633
20785	1649153435630	9.32634323964244	-0.193154772047719	2.69518918432177	0.0190705193161301	-0.0277490265608468	-0.102852277503981	-0.0354922749588994	-0.0248771987404291	0.00448971412618345	0.337158203125	-0.31298828125	0.088134765625	0	0	0	0.414561318237919	-0.436754106531926	0.560330170034159	0.568695757323569	-0.00944809804602265	0.275192064498241	0.961342842632382	-0.999437497097041	0.0283380279406578	-0.0179344798875627	-0.0321779868810284	-0.960971531217044	0.274769527696675	-3.73445512571298	-74.0168763493942	91.9663488337805
20786	1649153435630	9.31365927552763	-0.234328157794453	2.69653044888077	0.0588451092536034	-0.0361840441121003	-0.113941951360252	-0.0399656522394462	-0.0262162164396222	0.000210411877489917	0.333251953125	-0.33203125	0.101318359375	0	0	0	0.414516104417171	-0.436943918000784	0.560193533803783	0.568717518971736	-0.00947356558689211	0.274943171900872	0.961413804654457	-0.999424334854715	0.0287192077264852	-0.018061174041934	-0.0325768392463249	-0.961031455953785	0.274512823401875	-3.7642675947631	-74.0316487954979	91.9734284125482
20787	1649153435631	9.30826779606779	-0.220002396756032	2.67571224472032	0.0439130515041342	-0.0192118131918047	-0.125097977836859	-0.0460833460742034	-0.032036327490629	-0.00447823981579842	0.332275390625	-0.33740234375	0.090087890625	0	0	0	0.414469993595625	-0.437116523196358	0.560068965128666	0.568741174751113	-0.00949620110313354	0.274725197198362	0.961475890591611	-0.999411927477308	0.0290747574170952	-0.0181784954611252	-0.0329487690316638	-0.961083099687774	0.274287539115141	-3.7917511730024	-74.0445843975224	91.9797081148024
20788	1649153435631	9.33008878192409	-0.215973160027331	2.63594397197368	0.0402983144813577	0.0217655690676354	-0.115094726330868	-0.0512043383918605	-0.0360836769805986	-0.0135357531026237	0.33935546875	-0.3271484375	0.090576171875	0	0	0	0.41445046428999	-0.437336856630647	0.559848461333803	0.568803117804755	-0.00938765165080363	0.274378174046333	0.961576044628548	-0.999396027173117	0.0296010259839701	-0.0182033000109105	-0.0334582257012241	-0.961166165066008	0.273934572964475	-3.80178789247626	-74.0654730439253	91.9595694419819
20789	1649153435633	9.40964232692239	-0.207924434974493	2.67840212066542	0.0272595655240781	-0.000592222367710105	-0.0271012948421312	-0.0642715171352974	-0.035491209940192	-0.0224504405303782	0.339111328125	-0.323486328125	0.092529296875	0	0	0	0.414342337793701	-0.437646824526882	0.559643587700076	0.568845092129109	-0.0094713765445536	0.274029799604514	0.96167456135382	-0.999372233214346	0.0302389637156757	-0.0184592674170447	-0.0341384315182054	-0.961245688678036	0.273571368186374	-3.86018971322867	-74.0860462596918	91.9795436939136
20790	1649153435633	9.43860678178043	-0.147357290635517	2.61685124878459	-0.0309361264850643	0.0648882336755739	-0.0171907409650665	-0.0669186218534272	-0.0328301605200124	-0.0308843422148372	0.335693359375	-0.3232421875	0.09375	0	0	0	0.414306219042498	-0.43786664038465	0.559346349926044	0.568994571964777	-0.0091910678746589	0.273708329467249	0.961768825992801	-0.999351818357672	0.0309640353742412	-0.0183622345742049	-0.0348061405004749	-0.961314193639931	0.273246324201938	-3.84451332323341	-74.105755798769	91.9232574980863
20791	1649153435635	9.41001511381791	-0.137365016927091	2.59775352530637	-0.0385225934434213	0.072937930703174	-0.050066214492162	-0.0830969917609448	-0.0344445450867168	-0.0448517825803096	0.3408203125	-0.327880859375	0.09814453125	0	0	0	0.414260999596702	-0.438069593165505	0.559002826376072	0.569208833259387	-0.00877825670525684	0.273428398065122	0.96185230328817	-0.999328988295773	0.0318073286334082	-0.0181622409672545	-0.0355600247604365	-0.96136632194848	0.272965711513899	-3.80666186990523	-74.1232297416996	91.8388154739239
20792	1649153435636	9.41219444449439	-0.154932751820688	2.54391403046845	-0.0168685333904051	0.121502786682018	-0.0623100281818569	-0.100624637857797	-0.0279939052349164	-0.0576805923530376	0.33544921875	-0.3212890625	0.0849609375	0	0	0	0.414174045846379	-0.43831375136338	0.558565404862017	0.569513479738921	-0.00822851228581539	0.273144695264943	0.961937766715802	-0.999297414274042	0.032929096477145	-0.0178983918387143	-0.0365645923097123	-0.961409200108789	0.272681830226006	-3.75541469088505	-74.1411388655189	91.7255194467769
20793	1649153435636	9.40674960023054	-0.136129226343451	2.52322212068921	-0.0318185695979927	0.13792162156824	-0.073483993679412	-0.109954132066624	-0.0273861514203788	-0.0725079482727131	0.332763671875	-0.321044921875	0.086669921875	0	0	0	0.414089049478804	-0.43853458045299	0.558093073467274	0.56986823231034	-0.00756091381045693	0.272894291316151	0.962014312964941	-0.999263761649611	0.0341247608991839	-0.0175338343622714	-0.037613391713868	-0.961438612944493	0.27243536169732	-3.68245534287952	-74.15719611217	91.5870528094676
20794	1649153435637	9.44712962507301	-0.173109153087363	2.53777079069546	0.00842437362014084	0.130783596666524	-0.0299818220603356	-0.121907965812568	-0.025836736873752	-0.0830288176894812	0.344970703125	-0.324462890625	0.08544921875	0	0	0	0.413990690762993	-0.438778940936959	0.557540849705199	0.570291986496238	-0.00675751619950993	0.272621363760864	0.96209767071539	-0.999222951163849	0.0355198177431698	-0.0170832202731256	-0.0388307847232255	-0.961465513977833	0.272169497903641	-3.59156363615753	-74.1747002765099	91.4199103387686
20795	1649153435637	9.4346587744419	-0.208025506914394	2.53891319993112	0.0481935643301452	0.121418263706574	-0.0410409743408238	-0.126157039747101	-0.0205041829164881	-0.0914943850081237	0.33544921875	-0.3271484375	0.085205078125	0	0	0	0.413887484758662	-0.439052292941182	0.556913410898598	0.570769381435733	-0.00583892635123884	0.272301747697815	0.962194193050333	-0.999174744509611	0.0370892054428762	-0.016559612730062	-0.0401962295895811	-0.961496827368834	0.271860468046478	-3.48570387952275	-74.1949924518828	91.228396730867
20796	1649153435638	9.46239497911551	-0.213241924635099	2.51828329862091	0.059184557069373	0.146349924003017	-0.0198727557277021	-0.134026721368746	-0.0160175091895128	-0.0912894742855795	0.340087890625	-0.323974609375	0.08056640625	0	0	0	0.413745012467183	-0.439285082611665	0.556330104554466	0.57126219516069	-0.0049491380774403	0.2721166895599	0.962251533277683	-0.999124737487142	0.0386237588498952	-0.0160612637595492	-0.0415363090986561	-0.961488799994709	0.271687361706787	-3.38320062678604	-74.2070592872744	91.0419554353471
20797	1649153435639	9.4894649906871	-0.289063857516895	2.53742797523477	0.137950669555883	0.129303958257117	0.0126010110063923	-0.131939299768349	-0.00603750822273222	-0.0969028224068964	0.331787109375	-0.322509765625	0.083251953125	0	0	0	0.413561561750649	-0.439583957187353	0.555711955430909	0.571766562346057	-0.00409966565067399	0.271884973112808	0.962321024470006	-0.999065084532536	0.0403021144670401	-0.0156427758880118	-0.0430366077839512	-0.961485465810552	0.271465558451744	-3.29793219863085	-74.2216952591073	90.8638790758846
20798	1649153435640	9.43832034014385	-0.302102284299688	2.47212996518002	0.159148420189745	0.176587076477234	-0.0542002881141865	-0.123121903676891	-0.0029897157182874	-0.0837519009886755	0.3349609375	-0.319580078125	0.082275390625	0	0	0	0.4133968111569	-0.439765175233241	0.555199922779481	0.57224357831525	-0.00328072720452854	0.271824138784807	0.962341350250995	-0.999014223181916	0.0417122445419294	-0.0151878417001234	-0.0442698397246161	-0.961442523622277	0.271419334354767	-3.20276622341362	-74.2259786998129	90.6914864037847
20799	1649153435641	9.42173260561623	-0.319848923583413	2.49138564177469	0.179266717188708	0.150958322372525	-0.0646914579941988	-0.11589668737851	-0.00340791759676273	-0.0810386898120393	0.340087890625	-0.318603515625	0.076416015625	0	0	0	0.413204967865659	-0.44002929824019	0.554682349622171	0.572680855484984	-0.00259658458425388	0.271667340929519	0.962387714811854	-0.998956509086664	0.0431782910975347	-0.0148838211250263	-0.045597705006744	-0.96142211907683	0.271271742442771	-3.14048909200609	-74.235753779425	90.5476138839251
20800	1649153435641	9.46818620321181	-0.372299472789693	2.52558786772087	0.23409141160524	0.127712941352119	-0.0100019996875762	-0.108530030833672	0.00124914062332551	-0.0698179056638137	0.333984375	-0.316650390625	0.087158203125	0	0	0	0.413038987040161	-0.440186919909418	0.554250310834089	0.573097603960977	-0.00191586303804975	0.271650331251857	0.962394112097313	-0.998907769282716	0.0444107762503057	-0.0145241667394197	-0.0466861642828859	-0.961370782000161	0.271268541450994	-3.06478449718159	-74.2371029883588	90.404082136553
20801	1649153435642	9.49161806988188	-0.36155165081088	2.52333084657615	0.226930931986117	0.135037894716397	0.0117209119481974	-0.0971202791145012	0.00341793884506268	-0.0609841182861772	0.341796875	-0.3125	0.079833984375	0	0	0	0.412882830666415	-0.440395125230567	0.55379245084813	0.573492653133118	-0.00126788988645132	0.271528632010198	0.962429527006474	-0.998854975677746	0.0456833790490193	-0.0142044515020215	-0.0478239481750042	-0.961345531469999	0.271159803628083	-2.99864472260628	-74.2445741485694	90.2675379420337
20802	1649153435643	9.45933180900948	-0.423131863175741	2.51225803890464	0.291997462021641	0.1341504870156	-0.0215597617740446	-0.0778303443493219	0.00829426466978008	-0.0519697562461135	0.341064453125	-0.32763671875	0.07958984375	0	0	0	0.412746047088058	-0.440484406922794	0.553492675708155	0.573811855758038	-0.000761309609398131	0.271584923270535	0.962414177919162	-0.998817714315779	0.0465731171012182	-0.0139326355180481	-0.0486065219562272	-0.961286936463621	0.271228375742113	-2.94062215418789	-74.2413356678039	90.1606116891241
20803	1649153435646	9.43359228471403	-0.429612941540144	2.48045369024197	0.302634959820508	0.155745737053845	-0.0549193762905027	-0.0625734515878549	0.00845621796027562	-0.0409589673885033	0.334716796875	-0.31103515625	0.079345703125	0	0	0	0.412640814771268	-0.440653181862259	0.553148381086178	0.574089888259069	-0.000296716367186922	0.27145080858651	0.962452269194233	-0.998776760567287	0.0475088529732882	-0.0137073498488272	-0.0494458745509987	-0.961279026821501	0.271104662599142	-2.89447279338656	-74.2493736816066	90.0626286172067
20804	1649153435646	9.42956480756642	-0.410240768314766	2.49790445293994	0.284240043903044	0.139505475699009	-0.0543953947489903	-0.0446076858936955	0.0134852081100796	-0.0284466167273978	0.332763671875	-0.322265625	0.085205078125	0	0	0	0.412533424939672	-0.440684660145368	0.552998855936237	0.574286922150694	-2.14087084517978E-05	0.271565717520665	0.962419898282009	-0.998754326193242	0.0480168772815128	-0.0135711239922982	-0.0498978501736237	-0.961221327563854	0.27122640724021	-2.86447104584539	-74.2425425226962	90.0045168758699
20805	1649153435647	9.48212572501499	-0.409947000709359	2.51285955478484	0.283742590715119	0.14005656795121	0.000217502475440057	-0.0325097136904436	0.0187177454650033	-0.0221213139405398	0.3369140625	-0.3134765625	0.085693359375	0	0	0	0.412407928658719	-0.440742056018092	0.552879782155323	0.574447636360576	0.000140773081654944	0.271669931310938	0.962390476160508	-0.998732004891764	0.0484872937266141	-0.0135412241672195	-0.0503424531366651	-0.961168263504668	0.271332280872739	-2.85705712760261	-74.2363361433008	89.9703106534939
20806	1649153435647	9.43777384330597	-0.350287783549769	2.51486608121119	0.224974241352538	0.131063203553431	-0.0427827325885151	-0.0151712101360616	0.027584469433772	-0.0113045980826082	0.3427734375	-0.31640625	0.086181640625	0	0	0	0.412308282517317	-0.440687184566152	0.552873221522871	0.574567564738649	0.000252012564162185	0.27192808860749	0.962317541727233	-0.998723993390939	0.0486661621810861	-0.0134903552147653	-0.0505007080635888	-0.961086218444965	0.271593371053557	-2.8436102181681	-74.2209614220857	89.9469004755969
20807	1649153435648	9.43318662667751	-0.33242534061294	2.53407248172484	0.207929899836723	0.114674889673295	-0.0422905365131818	-0.00574055237291633	0.027248328776959	-0.00377714938752593	0.340087890625	-0.31787109375	0.078369140625	0	0	0	0.412265210454983	-0.440584668741699	0.552878542514675	0.574671961335443	0.000420933793233269	0.272172130450308	0.96224848881195	-0.998723055178449	0.048725426950715	-0.0133451048513735	-0.0505181340685236	-0.961014133181511	0.271845091836552	-2.81044195433682	-74.2064183756654	89.9113880229476
20808	1649153435648	9.40535080524906	-0.322327563568897	2.55525498248808	0.1966305978224	0.0897866373274888	-0.0634760559046032	0.0086756791916347	0.0252063812795403	0.0070066010918773	0.336669921875	-0.315185546875	0.08349609375	0	0	0	0.412200856924931	-0.440507800375185	0.552971867347704	0.57468725867289	0.000349983461217673	0.272416387545026	0.962179395595486	-0.998727158732098	0.0486251349446905	-0.0134036809317821	-0.0504374852910734	-0.960950002887002	0.272086662717936	-2.82025588134452	-74.19187989186	89.9263900223652
20809	1649153435649	9.36328426308911	-0.262228649114348	2.59191227348325	0.134300773082999	0.047024872948608	-0.094785493435241	0.0158242535054491	0.0249143814189206	0.0096898071872564	0.3359375	-0.321044921875	0.0830078125	0	0	0	0.412158821711827	-0.440493460118059	0.553004305581506	0.574697185730585	0.000303499203072932	0.272513505241127	0.962151909705234	-0.998726567217226	0.0486226873868693	-0.0134565302279218	-0.050449497745071	-0.960922589875206	0.272181234556678	-2.83037561202727	-74.1860999763554	89.9361895249308
20810	1649153435650	9.35227647319349	-0.229858840233925	2.59333345091443	0.101320402179589	0.0468423613185188	-0.105430900389662	0.0188528070431101	0.0278470692532529	0.0120491324437054	0.3359375	-0.31689453125	0.084716796875	0	0	0	0.412105602956136	-0.440391528040696	0.55313928284063	0.574683571907789	0.000184471617069304	0.272784485250762	0.962075148092237	-0.998735750050701	0.0484118115814267	-0.0135350681589492	-0.0502679573971875	-0.960856347799129	0.272448548084282	-2.84407914699314	-74.1699689264165	89.961253502093
20811	1649153435650	9.33070475440195	-0.235797224708527	2.63240154190155	0.103617925710723	0.00541546517673474	-0.115449468708816	0.0224299352622482	0.0276957789920072	0.0133931281792454	0.34130859375	-0.3203125	0.087890625	0	0	0	0.412035750449043	-0.440334812393772	0.553284803236459	0.574637033137988	-3.76409965311408E-05	0.273008505877256	0.962011618589829	-0.998743245371281	0.0482049337189735	-0.013719117697258	-0.0501191421354877	-0.960803122436547	0.272663586692072	-2.88041844563177	-74.1566306389267	90.0078996448016
20812	1649153435651	9.37645930767105	-0.221931970002289	2.63088653360081	0.0893168668278888	0.0226778773921071	-0.0720346859064342	0.0240316755807274	0.0256816874415089	0.010737306450588	0.330810546875	-0.317138671875	0.083740234375	0	0	0	0.412006205812616	-0.440222185844663	0.55342289309512	0.574611533873335	-0.00014494302325091	0.273257809955219	0.961940823694471	-0.998754899972803	0.0479479755402381	-0.0137710356149809	-0.049886158118624	-0.960745107164262	0.272910626924079	-2.8886877041567	-74.1417798298245	90.0303911632925
20813	1649153435652	9.40680192428159	-0.250111161287736	2.59834358102698	0.11784680206959	0.06372708432384	-0.0513392213293127	0.0265159572052941	0.0316912779595772	0.0141136406820632	0.34228515625	-0.3173828125	0.0810546875	0	0	0	0.411944581929933	-0.440109375535662	0.553609947462478	0.574561941878136	-0.000360472727596428	0.273565067497224	0.961853431612453	-0.998767758331153	0.0476353749783306	-0.0139224986564057	-0.049626958173723	-0.960673214415762	0.273210797968365	-2.91720167486198	-74.1234660573047	90.0754977751957
20814	1649153435652	9.43793106656514	-0.257046825772669	2.65146886914615	0.121593374812823	0.0239902306560416	-0.00679414545522938	0.0267654722467273	0.0305070534884799	0.0122531579291004	0.351806640625	-0.31494140625	0.087158203125	0	0	0	0.411906153412911	-0.439978276337621	0.553768415646718	0.574537186754417	-0.000480683633800161	0.273861576495287	0.961768998181352	-0.998780614061176	0.0473477252254077	-0.0139813408355427	-0.0493665262989459	-0.96060295119029	0.273504874263111	-2.92636515996752	-74.1057918229942	90.1005658244132
20815	1649153435653	9.434626585622	-0.25925283814064	2.62034482543739	0.127741679080604	0.0546517753022867	-0.018490511626176	0.0304902038998619	0.0371399498727342	0.00941449921558272	0.3369140625	-0.31640625	0.08935546875	0	0	0	0.411958589994543	-0.439806962733171	0.553808819179568	0.574591809426538	-0.000268745339289167	0.274063510502846	0.961711557582001	-0.998792535452204	0.0471718238572809	-0.0137218861288798	-0.0491263564789705	-0.960554012663959	0.273719911322262	-2.86989915014029	-74.0937788648134	90.0561839434278
20816	1649153435654	9.40414442375349	-0.250930311862481	2.60786674660091	0.120105794528283	0.0620444169372788	-0.0513559148122198	0.0351626777896718	0.0308199723585722	0.00873490177793444	0.336669921875	-0.32470703125	0.0791015625	0	0	0	0.411952151297139	-0.439644076774301	0.553975041153723	0.57456084497437	-0.00035052092799287	0.274360089015553	0.961626964415233	-0.998809381944425	0.0468141576407793	-0.0137205387714796	-0.0487821245424432	-0.960486843324656	0.274017021597863	-2.86651155707654	-74.0761033736279	90.0732007302886
20817	1649153435654	9.42651497909721	-0.243477942321358	2.60905930472633	0.111605079292598	0.0699225258901589	-0.0296249220267004	0.0380837263502568	0.0351992270925937	0.00567585279797442	0.33740234375	-0.316650390625	0.08203125	0	0	0	0.411916787488486	-0.439528170416938	0.554139162372641	0.574516611004462	-0.00051044773022596	0.274626243244688	0.96155091699006	-0.998822371120036	0.0465086978202275	-0.0138134708605825	-0.048514022645665	-0.960425617915504	0.274279095190209	-2.88314151418569	-74.0602297874231	90.1064955285357
20818	1649153435654	9.36253382943027	-0.208827903187479	2.59740025667013	0.0782081027775752	0.068528430839902	-0.0948520436717448	0.0408005112007041	0.0335193893605633	0.00409471847376635	0.3447265625	-0.3193359375	0.08642578125	0	0	0	0.411929113585322	-0.439332619893012	0.554309853524886	0.574492681210102	-0.000545129233678499	0.27494611458209	0.961459482719023	-0.998841701308673	0.0461099833320597	-0.0137522784989363	-0.0481140162625582	-0.960353322227465	0.274602508957506	-2.86701591215127	-74.0411648252326	90.1135988537247
20819	1649153435656	9.34741314672015	-0.157648005551622	2.61604808865484	0.0275407539207246	0.0508636262128719	-0.104992146649366	0.0418627701169983	0.0345761622288598	0.00245707196713835	0.34326171875	-0.32373046875	0.0771484375	0	0	0	0.41197096675236	-0.439173224418845	0.554405238552397	0.574492500362137	-0.000476579161570345	0.275150067748501	0.961401171774977	-0.998856539090833	0.0458295080375717	-0.0136114109671693	-0.0478057233789614	-0.960308334031851	0.27481360301336	-2.83552052653263	-74.0290179851009	90.0992401981899
20820	1649153435656	9.27281814762526	-0.160405135456431	2.64176403417576	0.0304298841572355	0.00868371292781189	-0.169617260739331	0.0389755842298018	0.0319114704083925	-0.00718525937944411	0.33935546875	-0.318603515625	0.079833984375	0	0	0	0.412007655691642	-0.438964130472102	0.554535490739389	0.57450028139312	-0.000398236661406648	0.275448426287441	0.961315768030117	-0.998874755601563	0.0454801623238048	-0.0134453507547361	-0.0474242978807176	-0.960239407278608	0.275120367620698	-2.79786421224719	-74.0112436253002	90.0828367921918
20821	1649153435657	9.25553727558289	-0.110686698732285	2.62533204084817	-0.0179958730600591	0.0216167188780089	-0.191419333154004	0.0306791616790449	0.0236264261679907	-0.00133683107753273	0.341552734375	-0.314208984375	0.08251953125	0	0	0	0.412011632478804	-0.439003907540807	0.554490484181457	0.574510475812467	-0.0003682557677675	0.275371750580224	0.961337746772731	-0.998870617022071	0.0455734353087286	-0.013436980468369	-0.047511628446473	-0.960256976531045	0.275043967732107	-2.79690064721041	-74.0158160357598	90.076621834491
20822	1649153435658	9.21748736382312	-0.0660945202695811	2.64461507304541	-0.062111211365561	-0.00342208645010096	-0.223289016221878	0.0269799988967022	0.0187210852211452	-0.0112013380900239	0.34130859375	-0.322509765625	0.083984375	0	0	0	0.412059417578626	-0.438858835891854	0.554554546336609	0.574525207177029	-0.000255645405910998	0.275539298616345	0.961289773982559	-0.99888296388367	0.0453525830443213	-0.0132652807804267	-0.0472520804663885	-0.960219369794851	0.275219917088821	-2.75945458265688	-74.0058375225854	90.0531590182645
20823	1649153435659	9.24444342771192	-0.0746520065518438	2.62709476060812	-0.0506585483713784	0.0196884665242069	-0.202069280919019	0.0177393726114801	0.00315212743745454	-0.0140902923005559	0.342529296875	-0.313232421875	0.0869140625	0	0	0	0.412151540983676	-0.438852828242569	0.554458692329947	0.574556229544198	-3.24927134727759E-05	0.275387652555763	0.961333261550879	-0.99888313025664	0.0454133315290917	-0.0130430597685232	-0.0472492437285512	-0.960260001322171	0.275078604816559	-2.71468943289574	-74.0148828363807	90.0067602716424
20824	1649153435660	9.22346636072689	-0.0780569908465572	2.66360551957146	-0.0473398003204611	-0.0213227389298605	-0.212139304038626	0.0111910012177681	-0.000355353292281603	-0.0150897279917569	0.340087890625	-0.31103515625	0.08984375	0	0	0	0.412215781064167	-0.438798621838348	0.554436817555349	0.574572653938144	0.000111169623726814	0.275369034145642	0.961338588986738	-0.99888790066954	0.0453559303615114	-0.0128763922370066	-0.0471481657895011	-0.9602680535219	0.275067838628851	-2.6801560895376	-74.0159912734972	89.9768690407643
20825	1649153435662	9.23387678156679	-0.109360217506707	2.66447644157053	-0.0119940909667502	-0.0215588814193593	-0.201482136963545	0.00659837207596408	-0.00850225982383525	-0.0151774477284776	0.342529296875	-0.32080078125	0.0927734375	0	0	0	0.412383033217763	-0.438700503831468	0.554338203192245	0.574622709552735	0.000502048839219615	0.275245351765481	0.961373883709382	-0.998895929542208	0.045298780791421	-0.0124475862246033	-0.0469752050657704	-0.96030620990927	0.274964203704267	-2.59200124056845	-74.023336656878	89.8954923397919
20826	1649153435663	9.30227935858768	-0.0666220065185343	2.70834115155219	-0.055179520013244	-0.0442563489986055	-0.124191725350464	0.00195252840199882	-0.0159255607135376	-0.0179763882251488	0.337158203125	-0.324951171875	0.082763671875	0	0	0	0.412471037674649	-0.438709845337567	0.554255050639214	0.574632624834693	0.000670020889620815	0.275075858864454	0.96142229168144	-0.998896279442336	0.0453379638410409	-0.0122756649924439	-0.0469656681871526	-0.960352925181536	0.274802629366974	-2.55775033377601	-74.0334164648621	89.8604410674251
20827	1649153435664	9.28349586295647	-0.0895627448798071	2.69219333802418	-0.0310823366151056	-0.0368692677426279	-0.146411143641382	-0.00242965243975042	-0.0180252110582504	-0.0195453758728304	0.332275390625	-0.322998046875	0.08251953125	0	0	0	0.412527968693052	-0.43876931674825	0.554179259022057	0.574619448501373	0.000733671100075661	0.27487513045432	0.961479653650787	-0.998893590306295	0.0454120478314972	-0.0122205219507325	-0.0470218775860284	-0.960406897397905	0.274604323452516	-2.54811229216078	-74.045368759056	89.8470718042333
20828	1649153435665	9.30467886749961	-0.153891620286526	2.69275967708401	0.0345341438098581	-0.0367219535473742	-0.125110553682667	-0.00504494311373949	-0.0243122839276464	-0.0156295480101252	0.32958984375	-0.314208984375	0.084228515625	0	0	0	0.412613824633485	-0.438827057018544	0.554070313275309	0.574618772489007	0.000873803950889596	0.274626185875559	0.961550671830714	-0.99889062727187	0.0455118393366586	-0.0120907910661185	-0.047082387525122	-0.960473388757667	0.274361291499543	-2.52332740199061	-74.0601786395451	89.8176972476288
20829	1649153435666	9.32227898926465	-0.129824855450853	2.67069315209894	0.0102123412680013	-0.0126720549051214	-0.114539268402044	-0.00152213009793273	-0.0237400405821655	-0.016990473756512	0.3388671875	-0.309814453125	0.082275390625	0	0	0	0.412631600433973	-0.438985845633828	0.553978846939616	0.574572908167366	0.000797728953212395	0.274323610195104	0.961637104378799	-0.998881338402093	0.0456851989335033	-0.0122038678478762	-0.0472803915017569	-0.960551622500285	0.274053179312902	-2.54975504553263	-74.0782210806137	89.8333852002551
20830	1649153435666	9.37314803175546	-0.202214008396238	2.68672854655423	0.083313948048543	-0.0200031742849796	-0.0603562225062379	-0.00349209462913175	-0.0256106672690514	-0.02098974845893	0.335693359375	-0.322021484375	0.08447265625	0	0	0	0.412736817457508	-0.439032591282472	0.553855396529109	0.574580632324505	0.000989167054761375	0.27405933893597	0.961712275210479	-0.998878996880171	0.045785038501261	-0.0120199767512342	-0.0473262204301161	-0.96062230298459	0.273797406613691	-2.51372727713225	-74.0939288930026	89.7932022620073
20831	1649153435668	9.36327434779345	-0.238271525450573	2.72207250517211	0.119373585331791	-0.0620348621040479	-0.0597770611289601	0.00577007185067487	-0.023773937737126	-0.0215745916577919	0.34326171875	-0.314208984375	0.08056640625	0	0	0	0.4128658308022	-0.439109230514213	0.553692619071542	0.57458626246972	0.00121513452582439	0.273701950560445	0.961813789518268	-0.998874739637105	0.0459325786834108	-0.0118090105596245	-0.0474107367901955	-0.960717149047991	0.273449778866451	-2.47279892195795	-74.115165493125	89.745629790692
20832	1649153435669	9.33669566449222	-0.225454675450922	2.73864543682681	0.108110982989342	-0.0869600404134466	-0.0810049001280593	0.00998878851488471	-0.0195077349965862	-0.0281408709185435	0.3359375	-0.31689453125	0.088623046875	0	0	0	0.413008745239798	-0.439086574988417	0.553590321525426	0.574599436071568	0.00148147115663361	0.273492182351163	0.961873084890107	-0.998878563901589	0.0459230645376461	-0.0115189722358435	-0.0473225086096564	-0.9607773406655	0.273253512040778	-2.41386822059178	-74.1275827785989	89.6896393388129
20833	1649153435670	9.31012414415948	-0.212068546331283	2.75525503628371	0.097473511115082	-0.112733859831924	-0.102249493016092	0.0250369150347926	-0.0236383563391225	-0.0283282582596525	0.340087890625	-0.312744140625	0.08447265625	0	0	0	0.413231680528765	-0.439056178607982	0.553454929604818	0.574592804627464	0.00183462584456356	0.273158595407629	0.961967263425811	-0.998886285538484	0.045854438206998	-0.0111157122961962	-0.047146820795698	-0.960875513399968	0.272938500467058	-2.33214308519496	-74.147324567553	89.6151878830922
20834	1649153435671	9.35989178295261	-0.121323151889691	2.74429570182717	0.0104965515874997	-0.0871590948545322	-0.0584193688338139	0.0292259063813478	-0.0275998448460389	-0.0252751642863889	0.34228515625	-0.32373046875	0.086181640625	0	0	0	0.413446276437551	-0.439009383961255	0.553385836281552	0.574540732669887	0.00206975399385256	0.272871817412833	0.962048173107887	-0.99889899789253	0.0456525854057822	-0.0107996969895622	-0.0468669193323343	-0.960966603325831	0.272665874587766	-2.26817451218681	-74.1643040771805	89.5654153828692
20835	1649153435672	9.35035639082124	-0.085586046784043	2.74035370263246	-0.0222806084274088	-0.0879940370870598	-0.0690849774595659	0.0282923830087314	-0.0301213719922943	-0.0182067060841599	0.33544921875	-0.3271484375	0.08740234375	0	0	0	0.413658263469252	-0.43901442848808	0.553293349482453	0.574473360619424	0.0022656019955446	0.272500687518474	0.962152920459922	-0.998908472023776	0.0455066209641813	-0.0105362216922365	-0.0466554559159313	-0.961078832744943	0.272306345285774	-2.21581338952795	-74.1863124881022	89.5236472880013
20836	1649153435673	9.36399961341577	-0.0436563477660569	2.73444505004617	-0.0622610267669883	-0.0795712474349825	-0.0580281809390382	0.0235982334985143	-0.0255195062765962	-0.00482971130908017	0.338623046875	-0.31103515625	0.076171875	0	0	0	0.413806237454418	-0.439019497937442	0.553274546783788	0.574381018275994	0.00229831262390001	0.272242781914482	0.962225849504443	-0.998918808356964	0.0453033474500241	-0.0104317314251166	-0.0464320155688527	-0.961161523577222	0.272052556549148	-2.19590478641233	-74.2016532127293	89.5163122996153
20837	1649153435674	9.42151517163735	-0.0616832668994852	2.72921993578807	-0.0452779047596681	-0.0635662821207056	-0.00395130090184637	0.0197596557697305	-0.0259008915987505	0.00839118865643143	0.337646484375	-0.315185546875	0.086181640625	0	0	0	0.41386191950806	-0.439188089729819	0.55323385536551	0.574251194772802	0.00209224623377197	0.271863953183494	0.962333421151495	-0.998916856546137	0.0453012257170358	-0.0106260367267461	-0.0464837198778373	-0.96126884372062	0.271664266841153	-2.23995911305045	-74.2243075921511	89.5590643374592
20838	1649153435674	9.42771893444033	-0.0995211873112686	2.65948903380431	-0.00513676163959724	0.00100908831785622	-0.0165328726741087	0.0213009705234678	-0.0223901911591227	0.0188198530955505	0.340576171875	-0.315185546875	0.0830078125	0	0	0	0.413942514854068	-0.43924014054515	0.55328409617088	0.574104870432693	0.00188961571649954	0.271645851885078	0.96239542834849	-0.998926525493532	0.0450566066413241	-0.0107563406132308	-0.0462841875575537	-0.961341996040742	0.271439386660333	-2.26927507653925	-74.2373806041033	89.601447036761
20839	1649153435676	9.43863453423203	-0.133516496479398	2.65872722297337	0.0281254885499352	0.000394027769078247	-0.00586895159968037	0.0212464359190744	-0.0216749144950819	0.0161095405291255	0.34033203125	-0.3125	0.080078125	0	0	0	0.41404535884068	-0.439298787086857	0.553286923936705	0.57398309756226	0.00178031092934894	0.271375437008463	0.962471923061375	-0.998933932759076	0.0448800412463022	-0.0108064739955239	-0.0461283912084583	-0.961426624390128	0.271166032973017	-2.28213643232304	-74.2535226010683	89.6241264858527
20840	1649153435676	9.4624126442115	-0.127143844969393	2.65466260119095	0.0209848692829614	0.00889493473095807	0.0158492665361436	0.0247701068688565	-0.0211065912748905	0.0147447038717412	0.34521484375	-0.317138671875	0.08349609375	0	0	0	0.414141553442495	-0.4393290598987	0.553335334765822	0.573843844735096	0.00161996885624116	0.271167313181844	0.962530863901332	-0.998944990537359	0.0446135620236649	-0.0108874222787877	-0.0458942434431689	-0.961497747446815	0.270953501681523	-2.30101452737951	-74.265971370825	89.6577158465656
20841	1649153435679	9.4308724353424	-0.121767493182007	2.6027374011297	0.0185015552308991	0.0467901893947589	-0.0286241825239113	0.027742852293717	-0.0174522083382037	0.0143854467424814	0.338134765625	-0.31982421875	0.083251953125	0	0	0	0.414280037235251	-0.439395346548152	0.55326365068846	0.573762244319951	0.00166212451741515	0.270818146781391	0.962629091974672	-0.998949028897248	0.0445427671504745	-0.0108064591714023	-0.0458047487421685	-0.961599434935603	0.270607560360377	-2.28683811524874	-74.2867392739375	89.6483561929192
20842	1649153435680	9.37441158519984	-0.10394038888008	2.60435048845176	-0.000249113472137723	0.0293466799005972	-0.0827245541911292	0.0252277065003304	-0.00972337136783358	0.0144761932975233	0.33837890625	-0.30859375	0.08349609375	0	0	0	0.414347162815838	-0.439391334435704	0.553334873831233	0.573648151127021	0.00151154524996822	0.270717949076183	0.962657523358615	-0.998960160233379	0.0442738921372766	-0.0108821294569709	-0.0455665831224898	-0.9616400649531	0.270503367778553	-2.3037201588483	-74.292755383595	89.6800941211952
20843	1649153435681	9.38894636236037	-0.155290660096312	2.58817860430659	0.0513033941758042	0.0446262438564402	-0.0725398406880888	0.0206582679749452	-0.0113654147295473	0.017489262188796	0.330078125	-0.313232421875	0.085205078125	0	0	0	0.414416227250218	-0.439441198867445	0.553342789037263	0.573552422320839	0.00140638111681246	0.270519066586263	0.962713590173865	-0.998965321518101	0.0441418968243171	-0.0109443752215287	-0.0454566661381204	-0.961702099175233	0.270301246659277	-2.31861370359099	-74.3046257658389	89.7021319885304
20844	1649153435682	9.33484481261258	-0.135624920849987	2.62443879050354	0.0288551755241634	-0.00511952254158414	-0.115030851746326	0.0181319240054556	-0.0101538424423061	0.0145002645028581	0.341552734375	-0.31640625	0.08251953125	0	0	0	0.414464399621008	-0.439458160137998	0.553397114570621	0.573452195496568	0.00125631814607335	0.27041405566368	0.962743299205056	-0.998973105664273	0.0439417900634167	-0.011038715754096	-0.0452896878350134	-0.961740795425432	0.270191573869846	-2.33952625402459	-74.3109192662438	89.7338111385124
20845	1649153435683	9.34938836676123	-0.186456061209962	2.6082223595664	0.0796266066649152	0.0105343508536229	-0.104845115075081	0.0223296100415734	-0.0124163667934576	0.0048446621671478	0.34033203125	-0.318359375	0.078125	0	0	0	0.414544285157509	-0.439484015276367	0.553407360117606	0.573364744056935	0.00118818816844868	0.270237364884323	0.96279299687381	-0.998979712687896	0.0437866588218258	-0.0110572214967601	-0.0451455628703834	-0.96179753333516	0.270013671919623	-2.34498624486772	-74.3214526244402	89.7480817330531
20846	1649153435683	9.37930405933369	-0.194370567303895	2.62291477026897	0.0870857100454126	0.00288687869653572	-0.0719885118071151	0.0126396159786485	-0.0109019774047847	-0.000835124697979219	0.337646484375	-0.31396484375	0.08740234375	0	0	0	0.414612540243735	-0.439486638530712	0.553403894772222	0.573316723353285	0.00119124760782019	0.270118072074716	0.96282646830453	-0.998984758492311	0.0436811414471435	-0.0110186288590554	-0.0450336899353787	-0.961835840993936	0.269895872051224	-2.33782951229575	-74.3285507416714	89.7473215424745
20847	1649153435684	9.36670700796943	-0.233481293129683	2.62531233620864	0.12698716095435	-0.00689554876136055	-0.0830519659484654	0.0178875221979764	-0.012100931936432	-0.012136121257951	0.34375	-0.320556640625	0.08837890625	0	0	0	0.414723407834287	-0.439515697659584	0.553308339695882	0.573306486731234	0.00135166546759069	0.269875624760183	0.962894241420503	-0.998985416480371	0.0437087524346031	-0.0108481620632435	-0.0450145605332713	-0.961902641705964	0.26966089301025	-2.30370418074236	-74.3429326512484	89.7130378887586
20848	1649153435685	9.41595626709623	-0.21522497596995	2.65441590286308	0.109107155431649	-0.0221255316037256	-0.0280011770781083	0.0225225636847166	-0.0111898934049347	-0.0124356933419929	0.34130859375	-0.319091796875	0.089599609375	0	0	0	0.41484645964293	-0.439468001304935	0.55329225454725	0.573269545509609	0.00147111377413406	0.269747709661164	0.962929908641756	-0.998994687531992	0.043540191959495	-0.0106707997352162	-0.0448045768546285	-0.961946165238308	0.269540581501545	-2.26708972288722	-74.3505066500048	89.6875310826111
20849	1649153435686	9.37371438398553	-0.245336711736569	2.64128763141639	0.141798645231414	-0.0226945366882881	-0.0719230407532887	0.0279646760542048	-0.00803048602975166	-0.0125226222664269	0.33349609375	-0.313232421875	0.08740234375	0	0	0	0.414994223568394	-0.439343796876367	0.553336142837997	0.573215435574001	0.00159228235085063	0.269711360542844	0.962939897725213	-0.999011912000036	0.0431978148680681	-0.0104474146398369	-0.0444146858476757	-0.961971793133641	0.269513645102247	-2.21989952127346	-74.3526284906136	89.6617495145932
