// Start Time : 06/05/2022 05:16:42																																
// Update Rate : 100Hz																																
// Filter Profile : 46.1 human																																
// Firmware Version : 4.3.5																																
PacketCounter	Time_Of_Arrival	Acc_X	Acc_Y	Acc_Z	FreeAcc_X	FreeAcc_Y	FreeAcc_Z	Gyr_X	Gyr_Y	Gyr_Z	Mag_X	Mag_Y	Mag_Z	VelInc_X	VelInc_Y	VelInc_Z	OriInc_q0	OriInc_q1	OriInc_q2	OriInc_q3	Mat[1][1]	Mat[2][1]	Mat[3][1]	Mat[1][2]	Mat[2][2]	Mat[3][2]	Mat[1][3]	Mat[2][3]	Mat[3][3]	Euler_X	Euler_Y	Euler_Z
5170	1651814234987	9.38608768751959	-1.62231118432063	2.13443990020363	3.46944695195361E-16	-1.04083408558608E-15	-0.051213634853676	0.00391134846159022	0.00343135610535571	0.00386575306494062	0.579345703125	-0.4775390625	-0.140625	0	0	0	0.224541499211805	-0.583319115721402	0.400384736822537	0.6700835670909	-0.00113825649289995	0.274623767791618	0.961551085765125	-0.798541162843569	0.578546355302526	-0.166181003759767	-0.6019391294945	-0.768027278766906	0.218639848731434	-37.2372788331018	-74.0602649992533	90.237477331673
5171	1651814234988	9.41391827185197	-1.60431617808053	2.16088937173332	3.98986399474666E-15	-2.08166817117217E-15	-0.0216133439699462	0.00554388938378537	0.00830778980099963	0.00525380756920119	0.5751953125	-0.479736328125	-0.1474609375	0	0	0	0.223171440190188	-0.582980945326691	0.397886878935006	0.672319683811797	0.00363849791471513	0.274804966932902	0.961493105270096	-0.795223755620881	0.583761079709595	-0.163835833420251	-0.606305154051279	-0.764006041838214	0.220655451338869	-36.5937459234948	-74.048172884125	89.2414314927142
5172	1651814234988	9.37137437739988	-1.61112319855896	2.11996994670309	0.015072046753483	0.0143792862720691	-0.0703973708041392	0.0117765163528233	0.0063772731097512	0.00398664824660255	0.583740234375	-0.4775390625	-0.142822265625	0	0	0	0.223907146408484	-0.583104073864946	0.399215858568473	0.671179504377741	0.00123267461908172	0.27476866571092	0.961509573980791	-0.797013342663967	0.580984576109293	-0.165005011859376	-0.603960439208473	-0.766132562071698	0.219710457658627	-36.9069592132918	-74.0516066060524	89.7429598488228
5173	1651814234989	9.41824256288769	-1.57933910977808	2.13965385080012	-0.0214647108335903	0.0314888563692531	-0.0262543459572146	0.0135949363394339	0.0111615923462433	0.00161872269620118	0.5791015625	-0.471435546875	-0.149658203125	0	0	0	0.223925769905977	-0.583041290077637	0.399273421394098	0.671193592493902	0.00128717806570991	0.274863584650454	0.961482372696311	-0.79709546372089	0.580875969080532	-0.164990697496343	-0.603851939541644	-0.766180865316965	0.219840207273239	-36.888331584561	-74.0459355326776	89.7316875146228
5174	1651814234990	9.35487170853847	-1.56115330897657	2.1734768216407	-0.0555460716633973	-0.000337111190331765	-0.0827469618410834	0.0111295297211335	0.0127000122449165	0.0028963852441176	0.581298828125	-0.473388671875	-0.145263671875	0	0	0	0.223932364651215	-0.582980125865436	0.399322550298696	0.671215293129247	0.00135134733773187	0.274966569044295	0.96145283803647	-0.797159041563135	0.580791593769322	-0.164980565707099	-0.603767866248707	-0.766207876829063	0.219976937815271	-36.8695413055257	-74.039780206893	89.7184171296852
5175	1651814234990	9.38430554002046	-1.58095238266702	2.13351712443645	-0.0147830367109284	0.027943898153806	-0.0599699617808262	0.00831414374197456	0.0120158018307579	0.000985374616391981	0.5771484375	-0.4755859375	-0.15185546875	0	0	0	0.22393340378669	-0.582924301514538	0.399363544743695	0.671239039763068	0.00141603566707763	0.275064358604007	0.961424772651899	-0.797209250556524	0.580725179596517	-0.16497174488287	-0.603701420960805	-0.766223116597483	0.22010617874459	-36.8519192712196	-74.0339332348756	89.7050430268133
5176	1651814234991	9.32090889662597	-1.56264871972341	2.16747806136694	-0.0489314284043214	-0.00377655665721282	-0.116463043701474	0.00787596213602651	0.0167343090719758	-0.000771945975525363	0.572998046875	-0.477783203125	-0.14306640625	0	0	0	0.223929273909579	-0.582851131428482	0.399402225133563	0.671280940767148	0.00152484230179575	0.275187341547987	0.961389412209073	-0.797257064180613	0.580667085689376	-0.164945170317647	-0.603638011120957	-0.766222984938953	0.220280477757735	-36.8257272377712	-74.0265694224327	89.6825212465346
5177	1651814234991	9.33965338616342	-1.54898946310141	2.16189803200441	-0.0553024283940214	0.0147688095608755	-0.101919103813955	0.00733832977547429	0.0146058829484354	-0.000204337294065691	0.577392578125	-0.479736328125	-0.138427734375	0	0	0	0.223925330951647	-0.582787222721072	0.399439277137289	0.671315695534743	0.0016146338262005	0.275298068866214	0.961357564195623	-0.797301355755042	0.580611420076471	-0.164927035345801	-0.603579274883407	-0.76622539252841	0.220432998382511	-36.8036802113966	-74.0199399022989	89.6639618892239
5178	1651814234992	9.35365831299045	-1.56037116752825	2.17925304486464	-0.0554707200226843	-0.000356627764763928	-0.0827465326628225	0.000943484106998609	0.0142204290693977	-0.00588396860790288	0.572998046875	-0.475830078125	-0.145263671875	0	0	0	0.223918858685818	-0.582729230509637	0.399437165056626	0.671369451052111	0.00175319016234499	0.275371692030591	0.961336235430904	-0.797307948904922	0.580620591792733	-0.164862861188571	-0.603570178966191	-0.766191986133022	0.220573977268974	-36.7754168027978	-74.0155015786635	89.6352237985695
5179	1651814234993	9.33383103125201	-1.5313780872328	2.18171636007489	-0.0788107761825618	0.00988916567969851	-0.106035121669445	-0.00207969724611515	0.0151396628883833	-0.00712978940210957	0.574951171875	-0.4736328125	-0.140625	0	0	0	0.223902413634084	-0.582674577963678	0.399424120798649	0.671430128224752	0.00190141583815226	0.275446288549214	0.96131458261189	-0.79729526602637	0.580656161786115	-0.164798909437402	-0.603586483769932	-0.766138214622061	0.220716090727363	-36.7470645582565	-74.01099704963	89.6044914135546
5180	1651814234994	9.34794068324968	-1.54247761542131	2.19879593646009	-0.0789023498454149	-0.00524154834356597	-0.0868618122605582	-0.0021993768978018	0.00980259061854143	-0.00789427610078006	0.574951171875	-0.4716796875	-0.14306640625	0	0	0	0.223901823463637	-0.582632898768558	0.39940011310925	0.671480772897127	0.00203690984173063	0.275473856403228	0.961306405594299	-0.797284130179968	0.580695046195954	-0.164715752393786	-0.603600751127323	-0.766098830283543	0.22081375744441	-36.7210530455681	-74.0092962709727	89.5763510489542
5181	1651814234994	9.33769553521583	-1.55019813405856	2.23990286594888	-0.0963254965242346	-0.0437683068587409	-0.0863497895201686	-0.00373178454602723	0.0117729108202311	-0.011606986980298	0.5751953125	-0.4755859375	-0.14306640625	0	0	0	0.223899596127917	-0.582587828483404	0.39936345089246	0.671542423863164	0.00220051238851435	0.275496640616412	0.961299515631991	-0.797261358642309	0.580755609890042	-0.164612416290704	-0.603630254179698	-0.766044726233604	0.220920785913494	-36.6905186130155	-74.0078633301109	89.5423632346997
5182	1651814234995	9.33889696439703	-1.54558013911251	2.1675982692579	-0.054847057156457	0.0147593279042988	-0.101916506754947	-0.00480504503419774	0.00751395638529217	-0.0104724695268421	0.574951171875	-0.4736328125	-0.145263671875	0	0	0	0.223903665862552	-0.582551028320298	0.399320270075201	0.671598667154234	0.00235524262006523	0.275495300714519	0.961299532984604	-0.797236543886175	0.580820940640759	-0.16450206079442	-0.603662443692357	-0.765995675051368	0.221002895632549	-36.661912624007	-74.007866938866	89.5101833895318
5183	1651814234995	9.33768698440556	-1.54839176536494	2.24118754907175	-0.0960636403856524	-0.0437488344554661	-0.0863471121280863	-0.00513251415530972	0.00378045978156836	-0.0105713100876379	0.5771484375	-0.477783203125	-0.13623046875	0	0	0	0.223909674107269	-0.582536745180277	0.399274053426013	0.671636530138665	0.00246234155105995	0.275462854097245	0.96130856278652	-0.797205305172545	0.580889376203875	-0.16441178187168	-0.603703270058093	-0.765955448199222	0.22103079671189	-36.6433851326722	-74.0097449390297	89.487851015141
5184	1651814234996	9.37233637672206	-1.54213958857678	2.17721295000566	-0.0610537895367708	0.0182358138560818	-0.0681976516137403	-0.00685360669416585	0.0058441508480895	-0.0105283987360404	0.5771484375	-0.471435546875	-0.140869140625	0	0	0	0.223912099385243	-0.582504662571985	0.399222134224987	0.671694407729913	0.00262001125348976	0.275450866205477	0.961311581043151	-0.797170233798219	0.58097011858748	-0.164296499215723	-0.603748916261656	-0.765898519136251	0.221103379661583	-36.6151351279985	-74.0103727179162	89.4550350765291
5185	1651814234996	9.34311071225362	-1.56339154571968	2.22499975332559	-0.072107161274562	-0.0388363592848498	-0.0822286352412877	-0.00555192489071067	0.00698950391495491	-0.00923889789486135	0.58349609375	-0.473388671875	-0.145263671875	0	0	0	0.223906409717457	-0.582481925859042	0.399182759856318	0.671739421180916	0.00273586056206879	0.275450718613751	0.961311300610865	-0.797136465591384	0.581038087841863	-0.164219961337068	-0.603792986288729	-0.765847009586275	0.221161451469959	-36.5951528325656	-74.0103143887073	89.4309395523409
5186	1651814234997	9.41106286797552	-1.55548704321118	2.16997813440566	-0.043564296574625	0.0266003293982807	-0.0303643323527574	-0.00534284336555369	0.00538594701466498	-0.00990498880112826	0.58154296875	-0.4775390625	-0.140625	0	0	0	0.223914887143413	-0.582444327721671	0.399135964161316	0.67179700098573	0.0028981744357354	0.275440775600002	0.961313673949252	-0.797112599236477	0.581105210857139	-0.164098257312952	-0.603823736469019	-0.765799655948963	0.221241456840808	-36.5649074749687	-74.0108080436559	89.3971588429142
5187	1651814234997	9.4009132212892	-1.56326200989895	2.21061456104844	-0.0609873707679022	-0.0119264241625653	-0.0298497130686872	-0.000272773356451598	0.00613911433544034	-0.00860172076321012	0.5791015625	-0.471435546875	-0.13623046875	0	0	0	0.223926769263217	-0.582414619462771	0.399113149074638	0.671832350574977	0.00300381054352297	0.275437801960461	0.961314201691314	-0.797110698392319	0.581130992486128	-0.164016170180251	-0.603825729520304	-0.765781161183322	0.221300026086746	-36.543935897514	-74.0109178161474	89.3751807380209
5188	1651814234998	9.39137657375771	-1.52564791502518	2.172346809974	-0.0662873818202498	0.0368919563088924	-0.053645859834134	-0.00315898888110087	0.0108842521540688	-0.0059934250883988	0.574951171875	-0.4736328125	-0.140625	0	0	0	0.22392299124005	-0.582355357435935	0.39909027560728	0.671898566433564	0.00317837916274075	0.275490860912769	0.961298436209816	-0.79710187531966	0.581170891819628	-0.163917646589556	-0.603836483054625	-0.765731793812376	0.221441463319547	-36.5099607048775	-74.0076388484648	89.3389993704534
5189	1651814234999	9.39657925644129	-1.54184372750954	2.15632661408715	-0.0427194843976323	0.0417598423648251	-0.0495342176362499	-0.000345967519139288	0.0115704819387181	-0.00408023881674139	0.5791015625	-0.471435546875	-0.140869140625	0	0	0	0.223910621289988	-0.582312606287735	0.399088514769584	0.671940785792115	0.00328077187478634	0.275555745512007	0.961279495074782	-0.797099655347521	0.581184782105079	-0.163879188716365	-0.603838865907758	-0.765697903983545	0.221552124463834	-36.4898451121259	-74.0037002613525	89.3178676046789
5190	1651814234999	9.35285869320529	-1.55175990273077	2.18881275796781	-0.0528200360838027	-0.000252840231022237	-0.0827317788420903	0.00170061392050889	0.0132423566819898	-0.0040232629399599	0.5771484375	-0.4736328125	-0.14306640625	0	0	0	0.223918454591618	-0.58223607387025	0.399084733487583	0.672006737670541	0.00346505956260415	0.27562845587318	0.961258002658596	-0.797122063347251	0.581183802380893	-0.163773636386045	-0.603808255564007	-0.765672477083416	0.221723359954916	-36.451040223972	-73.9992323087115	89.2797447920374
5191	1651814235000	9.34722216970379	-1.53495910588174	2.20709629596689	-0.0763882170179314	-0.00512069856608046	-0.0868416765414981	0.000765663557640051	0.012808417438014	0.000965091162752012	0.574951171875	-0.4716796875	-0.138427734375	0	0	0	0.223892659104612	-0.582192588831331	0.399104544090832	0.672041240992685	0.00353470479184356	0.275732132544355	0.961228015064364	-0.797126719842133	0.581175280170231	-0.163781214529548	-0.603801704515443	-0.76564161642481	0.221847733417877	-36.436953058385	-73.993000364813	89.2655459787153
5192	1651814235002	9.33730222494784	-1.5854143180542	2.25449921717178	-0.0632211973547564	-0.0724826541097588	-0.0775824663364126	0.00302221322022243	0.0128762878626506	0.000356134125946683	0.5751953125	-0.4755859375	-0.14306640625	0	0	0	0.22389558309755	-0.582114329822837	0.399117558521353	0.672100326859221	0.00369616298972794	0.275828428464663	0.961199779665949	-0.797159737685159	0.581151884698726	-0.163703511033969	-0.603757145707513	-0.765624689362768	0.222027349768634	-36.4018107502833	-73.9871347166739	89.2322696162595
5193	1651814235003	9.31927995131785	-1.59498587513553	2.18972534981319	-0.0156440068655537	-0.0325200255336232	-0.107711656953938	0.00472293936595837	0.0123255553511399	-0.00277538338859792	0.572998046875	-0.477783203125	-0.138427734375	0	0	0	0.22389493472468	-0.582060377431766	0.399135775676898	0.672136450286266	0.00379269919758143	0.275906666469635	0.961176948761471	-0.797188147313267	0.581123381558865	-0.163666347148189	-0.603719034995616	-0.765618133799875	0.222153550457242	-36.3800485430699	-73.9823933327103	89.2124439257764
5194	1651814235004	9.34701867133229	-1.57638799589276	2.21667941919986	-0.0448487353367022	-0.03384783328689	-0.0780960688051007	0.00646480262867357	0.00875051608992774	0.000271762848467526	0.574951171875	-0.4736328125	-0.138427734375	0	0	0	0.223914381612415	-0.581983282969099	0.399157917617785	0.672183579727051	0.00393683029508662	0.275985942051858	0.961153609553112	-0.797243649711014	0.581070613020327	-0.163583329467411	-0.60364481639677	-0.765629611805819	0.222315616103279	-36.3462198101267	-73.9775477995871	89.1827537968054
5195	1651814235004	9.33658284624933	-1.58509381397212	2.25770157860725	-0.0622719971943868	-0.0723743718012712	-0.0775755427558735	0.0055289263768672	0.00831667202278624	0.00525988111914895	0.5771484375	-0.477783203125	-0.140625	0	0	0	0.223901048849167	-0.581950191132273	0.399201011711541	0.672191079689277	0.00394505457918587	0.276080201805886	0.961126505052893	-0.797277234495843	0.58101374514545	-0.16362163459249	-0.603600404157442	-0.765638785670423	0.222404590730707	-36.3416796362428	-73.9719223315754	89.1813263210778
5196	1651814235004	9.31727375802372	-1.59861967865352	2.26574602176125	-0.0548295537518272	-0.0906592744163725	-0.0921135762804841	0.00721004602902773	0.0092774789677275	-0.000960727345532104	0.574951171875	-0.471435546875	-0.1474609375	0	0	0	0.223922828241815	-0.581860843426449	0.399224700418397	0.672247100741304	0.00411519492580428	0.276171443394729	0.961099578099998	-0.797339146207603	0.580956411136055	-0.163523497653534	-0.603517482013282	-0.765649385954947	0.222593051758495	-36.3021141237087	-73.9663356161795	89.146306186623
5197	1651814235005	9.31171050606818	-1.58186441714688	2.28360124835916	-0.0783991313871107	-0.0955269656306342	-0.0962162750369302	0.0104628965972597	0.00524355355859821	0.00271114145074626	0.5771484375	-0.471435546875	-0.14306640625	0	0	0	0.223939634123007	-0.581825364270473	0.399270143584572	0.672245221777247	0.00412519586697246	0.276227374049658	0.961083461820403	-0.797402410842519	0.580868785421617	-0.163526295455363	-0.603433822338124	-0.765695691478309	0.22266057152077	-36.294291053524	-73.9629927702213	89.1444050583461
5198	1651814235006	9.30755498909303	-1.56148875057445	2.22801630713412	-0.0595605364297501	-0.0413675499349053	-0.115903105637452	0.00937228024244617	0.00249374127110972	0.000755179557136105	0.574951171875	-0.4716796875	-0.13623046875	0	0	0	0.223968623766856	-0.581747661424625	0.3993020147426	0.672283879784025	0.00425511889896052	0.276302169135746	0.961061395174126	-0.797475061571186	0.580791913180962	-0.163445035885557	-0.603336904337194	-0.765727017229038	0.222815427989921	-36.2617054620838	-73.9584167967534	89.1177011605897
5199	1651814235006	9.35046998067712	-1.50919903899374	2.19106143659922	-0.0784292508764156	0.029383488041254	-0.091437120000581	0.00786084534406621	0.0029528408468389	0.0001309249977623	0.5751953125	-0.479736328125	-0.138427734375	0	0	0	0.223988775154169	-0.581722233802128	0.399328566816089	0.672283397853766	0.00427187684974081	0.276325430259818	0.961054633025567	-0.797522432776961	0.580731448659087	-0.163428742135019	-0.603274166764745	-0.765764481502011	0.222856542610394	-36.2539398700149	-73.9570147804235	89.1143015049388
5200	1651814235007	9.3211037537539	-1.53117515907896	2.23866995513208	-0.0881252506912693	-0.0271579065373788	-0.105442021258058	0.00334702522675565	0.00281795006429515	0.00134754198116815	0.5771484375	-0.4736328125	-0.1474609375	0	0	0	0.224001979885005	-0.581648555916432	0.399348381335676	0.67233097558606	0.00441165544981084	0.276407717399189	0.961030338261161	-0.797569429889327	0.580687966664347	-0.163353879284332	-0.603211025928908	-0.765767757961509	0.223016140815855	-36.2218661553907	-73.951978658816	89.0855979715833
5201	1651814235007	9.35926972438981	-1.50403295864662	2.22452400284588	-0.100842602562225	0.00993740033674411	-0.0763490383331469	-0.00262120749340269	-0.000780207981727655	-0.00566981981364256	0.574951171875	-0.4716796875	-0.14306640625	0	0	0	0.224011216630392	-0.581650050195708	0.399320831782561	0.672342968458499	0.00445218482362908	0.276368836021069	0.961041333412177	-0.797553377610945	0.580723696256511	-0.163305230986481	-0.603231951998291	-0.765754696415591	0.223004387862204	-36.215170436902	-73.9542576801199	89.0770691075762
5202	1651814235008	9.36476278234361	-1.52012212450181	2.20741854286045	-0.0756828687413332	0.0153046049406014	-0.0722413913766253	-0.00338690594938346	0.000205085106522136	-0.00752678047386051	0.5751953125	-0.4755859375	-0.140625	0	0	0	0.224033659559159	-0.581583891581732	0.399278887557514	0.672417627957516	0.00467309400696292	0.276375589786453	0.961038342399819	-0.797553060073305	0.580770578670729	-0.163139974617425	-0.603230700942939	-0.765716702391072	0.223138192874357	-36.1711471102753	-73.9536376864517	89.0313071705241
5203	1651814235008	9.32077890927425	-1.48807350946981	2.23246964526351	-0.116261646337736	0.00212741263937061	-0.114147180734308	-0.00994712987594605	-0.00160216635044974	-0.00636767983081535	0.579345703125	-0.4736328125	-0.138427734375	0	0	0	0.2240219376492	-0.581602073793515	0.399226665798587	0.672436813779796	0.00471419414885105	0.276326167227035	0.961052353245724	-0.797492661275099	0.580864481534482	-0.16310091754505	-0.603310228312008	-0.765663309423466	0.223106398421961	-36.1685008886883	-73.9565421337934	89.0226143579287
5204	1651814235010	9.33710273057918	-1.53746139028552	2.18105977898439	-0.0436824315998461	0.0172082974590476	-0.101863897422772	-0.0150367644264987	-0.000844297102837488	-0.0107632056661607	0.5771484375	-0.4736328125	-0.140625	0	0	0	0.224027481937762	-0.581547954285906	0.399139985897537	0.672533222867255	0.00497849704718217	0.276304354532266	0.961057291858117	-0.797435249831179	0.580997917988679	-0.162906235667959	-0.603383987932921	-0.765569933421713	0.223227328405006	-36.1211190941055	-73.9575660298341	88.9677469732609
5205	1651814235010	9.28012801443071	-1.57725352890994	2.20181792456013	-0.0246214139585001	-0.0384399447213891	-0.145504582732391	-0.0143851908064056	-0.00716881530994002	-0.00967154472420654	0.5771484375	-0.4736328125	-0.138427734375	0	0	0	0.224021560340662	-0.581589945871405	0.399057534652487	0.672547811981357	0.00501243779675034	0.276193169265302	0.961089074289434	-0.797347917875515	0.581134849079229	-0.162845279468709	-0.603499107975243	-0.765506120443756	0.223134950727662	-36.1222012455884	-73.9641568340635	88.9602928706539
5206	1651814235011	9.29420605724877	-1.54648501671424	2.2105367512754	-0.0527147980664317	-0.0242861682561523	-0.13503341342475	-0.0158004525366105	-0.0136527944716521	-0.0117272107931938	0.5791015625	-0.471435546875	-0.140869140625	0	0	0	0.224051916886184	-0.581580443321455	0.398950837656981	0.672609214639853	0.0052048341576266	0.276067592893371	0.961124130305473	-0.797284445492124	0.58127793534484	-0.162645242345287	-0.603581330623892	-0.765442777766765	0.223129852971294	-36.0892955883942	-73.9714295505724	88.9199032713833
5207	1651814235011	9.28988245192512	-1.5709793179789	2.23209633255384	-0.0465626348865721	-0.0579443583403497	-0.130403533191743	-0.0142901516671745	-0.0141101715678441	-0.011102935763285	0.574951171875	-0.4716796875	-0.14306640625	0	0	0	0.224064336747011	-0.581643909710045	0.398856075184058	0.672606397965485	0.00520838717196387	0.275894982368161	0.961173673904534	-0.79719760977664	0.581418008573782	-0.162570201059454	-0.603695986130006	-0.765398626867184	0.22297107059067	-36.0961245453973	-73.9817133423356	88.9184900811034
5208	1651814235012	9.33334912414939	-1.51799154139254	2.19310346710605	-0.0635854673396193	0.0133651349402801	-0.105927608597954	-0.0153820581189286	-0.016857674434654	-0.0130591092606465	0.58349609375	-0.4755859375	-0.140625	0	0	0	0.224099721135651	-0.581643090155001	0.398740444393137	0.672663874953181	0.00539474736021087	0.275744476243654	0.961215834514825	-0.797128693460509	0.581570745984175	-0.162361674903136	-0.603785344938796	-0.765336822083273	0.22294126132373	-36.0647687198638	-73.9904697093501	88.8791912287838
5209	1651814235013	9.32856267261661	-1.50060793543389	2.2081221723156	-0.0871559853596276	0.00849427934634089	-0.110005236354366	-0.0187100815450835	-0.0211857052989701	-0.0113174466451295	0.5771484375	-0.471435546875	-0.1474609375	0	0	0	0.224112025648443	-0.581738910261451	0.398624079795265	0.672645882507987	0.00535736659039529	0.275516320731217	0.961281465354424	-0.797015063040064	0.58174528593426	-0.162294213022242	-0.60393566537377	-0.765286338114041	0.222707280495141	-36.0820699185934	-74.004109913908	88.8860339878546
5210	1651814235014	9.32979770815422	-1.54187056030121	2.21185985422233	-0.0552556174332501	-0.0197912338684759	-0.101283305957294	-0.0209695188561068	-0.0212512566861655	-0.0107077701204407	0.5751953125	-0.477783203125	-0.1474609375	0	0	0	0.224139069186913	-0.581755769722362	0.398489333856562	0.672702127885233	0.00553295039459145	0.275340852210384	0.961330745146534	-0.796917639089129	0.581935856933155	-0.162089280719247	-0.604062631660443	-0.765204595856255	0.222643804117533	-36.0553904176577	-74.014359294215	88.8488012480032
5211	1651814235014	9.30193788434088	-1.51779543633767	2.17742898344334	-0.0548658203578665	0.0104163488630683	-0.139640846524813	-0.0225980019104079	-0.0261269679969298	-0.0120980409034915	0.581298828125	-0.46923828125	-0.14306640625	0	0	0	0.224150426335579	-0.581875089523372	0.398353353688757	0.672675681268965	0.00547197159417473	0.27507012837529	0.961408592640233	-0.796780325938157	0.582142383956997	-0.162022705195134	-0.604244296394064	-0.765144868163191	0.222355933131492	-36.0794663503235	-74.0305633369195	88.8603650533898
5212	1651814235014	9.33600016563276	-1.51543434680977	2.18356747476338	-0.0593589063500721	0.0143055440044508	-0.105902182528775	-0.0326313587242904	-0.0222920415521356	-0.0139353769118799	0.5771484375	-0.471435546875	-0.140869140625	0	0	0	0.22414848098571	-0.581921043772617	0.398171836097451	0.672744042132795	0.00565417550674502	0.274862024928769	0.961467054844521	-0.796608896989773	0.582433294821168	-0.161820030652872	-0.604468605914382	-0.764998251197881	0.222250714572773	-36.0582424481894	-74.0427428467081	88.8215370650752
5213	1651814235015	9.33198492701822	-1.54007288715885	2.20387096779176	-0.053204305070474	-0.0193573406657455	-0.101270976569758	-0.0276769908137775	-0.0268712511434678	-0.0134008506409349	0.576904296875	-0.46728515625	-0.14306640625	0	0	0	0.224147986644196	-0.58205158029678	0.39801574152036	0.672723648654759	0.00559885475203745	0.274577824022021	0.961548579834008	-0.796440583408404	0.582682299170702	-0.161752079842037	-0.604690871376066	-0.764910685497645	0.221947275914748	-36.0840438633528	-74.0597421903532	88.8318565063587
5214	1651814235016	9.36142179601644	-1.56286105211463	2.23264332720761	-0.0516770267166384	-0.0491565209780225	-0.0628996168405891	-0.0287737506922901	-0.0296125985263068	-0.015357234727295	0.5771484375	-0.4736328125	-0.140625	0	0	0	0.224176158731367	-0.58211835615154	0.397833356248993	0.672764364353181	0.00573368017418033	0.274302096052553	0.961626478947432	-0.796290324088833	0.582947341024222	-0.161536736859737	-0.604887464471006	-0.764807660587919	0.221766538575755	-36.0699307003303	-74.0760019917278	88.8025325123001
5215	1651814235018	9.36701433079531	-1.53684898501743	2.20653468547212	-0.0578235648337711	-0.0155063321655402	-0.0675309861195554	-0.0307117151559538	-0.0259426452958699	-0.0146430089364115	0.5771484375	-0.4736328125	-0.149658203125	0	0	0	0.224167265417877	-0.582250283943478	0.39766516901492	0.67275259740498	0.00569404040015026	0.274017642823771	0.961707808705548	-0.796103458585338	0.583222900934814	-0.16146309502064	-0.605133754745498	-0.764699535272832	0.221467287925622	-36.0943197078034	-74.0929951430396	88.8095746883338
5216	1651814235019	9.30588836957813	-1.51438147694745	2.1628774833272	-0.0489422124961662	0.0117297265038683	-0.13961056490664	-0.0325538541525967	-0.0292105662513758	-0.015366842851278	0.574951171875	-0.4716796875	-0.140869140625	0	0	0	0.224184336394085	-0.582317396060676	0.397476773149808	0.672800154850662	0.00583733010306109	0.273751991036276	0.961782601725018	-0.795937747062653	0.58350719624392	-0.161252766588325	-0.605350335242409	-0.764577791552459	0.221295667121316	-36.0799126126825	-74.108638123828	88.7784428517219
5217	1651814235020	9.28779370423487	-1.52728309155916	2.16640568249523	-0.0426033012059375	-0.00683087718498084	-0.154159732119428	-0.0377230798997778	-0.036806443900236	-0.0143498723217621	0.58349609375	-0.4755859375	-0.145263671875	0	0	0	0.224172517209867	-0.582500146707751	0.397276944533852	0.672763919183459	0.00572921685459174	0.27338614008646	0.96188730861929	-0.795708236736834	0.583835423739278	-0.161197394446488	-0.605653017876896	-0.764458119451815	0.220880523226481	-36.1217629227785	-74.1305628354013	88.799456681579
5218	1651814235021	9.31268932684496	-1.48781053115292	2.13170460921681	-0.0529167230032762	0.0458730687904489	-0.144232451843617	-0.0407784089969056	-0.048146625594543	-0.0178039451375808	0.5771484375	-0.469482421875	-0.145263671875	0	0	0	0.22421496659056	-0.582635376112252	0.397039412934784	0.672772897667356	0.00579144615787261	0.272963569877587	0.962006937953716	-0.795505855435535	0.584174706666392	-0.160966909826251	-0.605918223128483	-0.764349920920332	0.220527334518657	-36.1263856671951	-74.1556483523456	88.784542404462
5219	1651814235021	9.35344208837458	-1.5437853605628	2.12373014033845	-0.00610902699313826	0.0254019301837361	-0.0977660475011319	-0.0459542093013834	-0.055734372158085	-0.0167860438476764	0.57275390625	-0.4716796875	-0.149658203125	0	0	0	0.224220094958873	-0.582895186211207	0.396786181286539	0.672695530867035	0.00558785646369681	0.27243895371581	0.962156843949248	-0.795226209729198	0.58457215071336	-0.160905798435269	-0.606287102963502	-0.764233221672934	0.219917101816873	-36.1916539593859	-74.1871374303289	88.825000229289
5220	1651814235022	9.37929542421699	-1.5461300366086	2.09338715572603	0.0126916184931811	0.0490290748953804	-0.0791678479218074	-0.0455495347299908	-0.0589204757127094	-0.018121568381235	0.574951171875	-0.4716796875	-0.14306640625	0	0	0	0.224254527027113	-0.583108248392	0.396506885432682	0.672664082265088	0.00553412092337394	0.271902551505215	0.962308877643015	-0.79496120930024	0.584984393824639	-0.16071693964707	-0.606635021420216	-0.764108802113006	0.219389355530119	-36.2251960478357	-74.2191359863051	88.8340013846373
5221	1651814235023	9.44752534894756	-1.54175834261572	2.10467837581698	-0.000312436831377379	0.0559272562525314	-0.0117030315797599	-0.0427718331526659	-0.0567056944179257	-0.0192960342974394	0.581298828125	-0.473388671875	-0.149658203125	0	0	0	0.224279481063914	-0.583362206178511	0.396253207218596	0.672585047815678	0.00534386434303422	0.271355618900437	0.962464322042663	-0.794700310396503	0.585364220285356	-0.160624239345805	-0.60697846730307	-0.764012341327597	0.218774501552484	-36.2861154199211	-74.2519179042766	88.8718077690885
5222	1651814235023	9.43094700224345	-1.55016968615098	2.03285805170369	0.0490024684378185	0.0960031963139592	-0.0419822479188703	-0.0407656415307538	-0.0535022370581338	-0.0223234263741908	0.581298828125	-0.471435546875	-0.1474609375	0	0	0	0.224347696287031	-0.583531975401866	0.39598496649589	0.672573008054552	0.00537267998569124	0.270829491338585	0.962612341979395	-0.794485708903501	0.585728034959903	-0.160359369573822	-0.607259081988795	-0.763920189341331	0.218317089708597	-36.2982141782621	-74.2831960088002	88.8635228963766
5223	1651814235023	9.42164491231558	-1.51594151555682	2.06172321545693	0.00184699212969607	0.0862580252922742	-0.0500684618355223	-0.041402944496916	-0.0486898454327969	-0.0203101092676178	0.579345703125	-0.4775390625	-0.1474609375	0	0	0	0.224364256623591	-0.583754957720413	0.395740793496698	0.672517697944959	0.00523874739888613	0.270337880572069	0.962751258557211	-0.794232869129174	0.586099809424696	-0.160253433620556	-0.607590902763145	-0.763809167083074	0.217781659373165	-36.3472883930453	-74.3126057771756	88.8898316757065
5224	1651814235024	9.45252276463612	-1.53444184953816	2.01531393656401	0.0445291757072062	0.114462659389093	-0.0274381486007194	-0.0384726063716848	-0.0426724030810949	-0.0176232224180057	0.574951171875	-0.467529296875	-0.14990234375	0	0	0	0.224417450440292	-0.583890491029217	0.395504679935747	0.672521189682869	0.00529588526916408	0.269900125084847	0.962873759159735	-0.794040986417277	0.586425712173602	-0.16001186203267	-0.607841151526198	-0.763713825055477	0.217417404847078	-36.3518122566488	-74.3385848205096	88.8759066255904
5225	1651814235025	9.41567560090708	-1.56082206239065	2.02496602524449	0.0571814327458432	0.0773481664051952	-0.0565433754919677	-0.0414814130317214	-0.0432619091995757	-0.0157715495953516	0.5771484375	-0.4736328125	-0.152099609375	0	0	0	0.224409684608919	-0.58410029740551	0.39528163290716	0.672472725625932	0.0051585465140877	0.269476707100401	0.96299309121519	-0.793787761183387	0.58678544827995	-0.159949454148385	-0.608172984925613	-0.763587023211647	0.21693427204904	-36.4020044884172	-74.3639323641416	88.9033306366695
5226	1651814235025	9.39780418407394	-1.57371618491153	2.02750768884115	0.0644188793507692	0.058280050453127	-0.0710989219251861	-0.0341493236923449	-0.0424359793638879	-0.0150977037823575	0.5771484375	-0.4736328125	-0.152099609375	0	0	0	0.224451313713897	-0.584275559873793	0.395048789532446	0.672443404157719	0.00511704804623001	0.269013071713977	0.963122932478665	-0.793578739652359	0.587116123322111	-0.159773094440179	-0.608446053312097	-0.763496316285957	0.216487355812543	-36.4282552561389	-74.39155778046	88.9102763581227
5227	1651814235025	9.47621604568825	-1.60239570494712	2.0062647214907	0.0986045448519405	0.0749117997721749	0.00444586547047265	-0.0314542992240529	-0.0333057375222246	-0.0148231485771049	0.58544921875	-0.47119140625	-0.145263671875	0	0	0	0.224454725931523	-0.584433258407967	0.39486921633598	0.672410696274131	0.00503213691371279	0.268670955704939	0.963218871886695	-0.793386183069847	0.587396755994429	-0.159697888405205	-0.608697824960745	-0.763400922587743	0.216115684947304	-36.462411470857	-74.4120008056358	88.9269904561051
5228	1651814235026	9.4247587455623	-1.61707176676587	2.0011288019266	0.11273484250683	0.0523902520529087	-0.043856324250676	-0.0238750269047615	-0.0356051979231843	-0.0117407522281489	0.576904296875	-0.46728515625	-0.14990234375	0	0	0	0.224526731003513	-0.584550575814886	0.39469291687701	0.672388186055109	0.00503625136320648	0.268279249067589	0.963328023412553	-0.793268168643339	0.587610496863988	-0.159497700900355	-0.608851581906008	-0.763374186421697	0.215776742758723	-36.471044825504	-74.4352909448656	88.9245457493559
5229	1651814235027	9.45825332986755	-1.57266217512988	2.00046355167707	0.0765161181055898	0.0846202666513568	-0.0187780065803071	-0.0190372469153657	-0.0317340434183568	-0.0128656545717273	0.5791015625	-0.46728515625	-0.152099609375	0	0	0	0.224563108347988	-0.584680470698597	0.394557930010969	0.67234232160278	0.00494557409825286	0.267960661559841	0.963417160503825	-0.793151317121608	0.587790900469098	-0.159414069247309	-0.60900453975738	-0.763347195699401	0.215440315105514	-36.4994194948757	-74.4543357579437	88.9426494407805
5230	1651814235027	9.48260430527891	-1.57882233438345	2.04621504505286	0.0530823566249582	0.0487090224479542	0.0155510022609668	-0.0136648532212785	-0.0257356345506526	-0.0145530955038841	0.5791015625	-0.46728515625	-0.152099609375	0	0	0	0.224635896229499	-0.584783094326063	0.39439520936576	0.672324226504552	0.00496230283954799	0.267596359160282	0.963518325780414	-0.79304945713546	0.587982265909017	-0.15921499148526	-0.60913704048242	-0.763327612195878	0.215134893431211	-36.5040516818508	-74.4759780907822	88.9376296953159
5231	1651814235027	9.45443394635595	-1.55397457410209	2.01237859502745	0.0534135559891962	0.0789077575799079	-0.0228075941158625	-0.00829161110422921	-0.0197384132411928	-0.0162411353757147	0.58349609375	-0.46923828125	-0.149658203125	0	0	0	0.224694697745362	-0.584847679976208	0.394293444133146	0.672308087074066	0.00497174228013875	0.267348996983341	0.963586942413969	-0.792997687700661	0.588089945437485	-0.159075087228458	-0.60920435740407	-0.763331336895937	0.214930968063136	-36.5059488479998	-74.490674043295	88.9346246965399
5232	1651814235028	9.41558609264843	-1.49605318108956	2.01330540094209	0.00729393403104075	0.0984648902812381	-0.0692235951915343	-0.00677577578259705	-0.0201975310811453	-0.0156255570626214	0.583251953125	-0.46728515625	-0.1474609375	0	0	0	0.224793413819644	-0.584909168782792	0.394150361708044	0.672305494356956	0.00505351327848236	0.267011449908011	0.96368010647806	-0.792946365208388	0.588226826937457	-0.158824626471771	-0.609270485011665	-0.763344015296585	0.214698370754267	-36.49244430403	-74.5106492057511	88.9157378145754
5233	1651814235029	9.40562943933538	-1.46190204112859	2.04559435966107	-0.0398573166389957	0.0887164734084016	-0.0772870502178104	-0.011826551489959	-0.0224648680518927	-0.0138252280882266	0.574951171875	-0.469482421875	-0.1474609375	0	0	0	0.224838806046319	-0.584992480259777	0.39404298621044	0.672280770477291	0.00502784611574875	0.266757023126088	0.963750699805891	-0.79287306635682	0.58835527262805	-0.158714756140401	-0.609366081603965	-0.763333979188455	0.214462618670362	-36.5035848169153	-74.5258017623231	88.920214906781
5234	1651814235029	9.42967965911943	-1.42208925254847	2.01323389013254	-0.051727713214139	0.140039285777922	-0.0673284764335165	-0.012944832049289	-0.0213249025922657	-0.00816245170132118	0.5791015625	-0.469482421875	-0.145263671875	0	0	0	0.22491098915757	-0.585074478182454	0.39392810907596	0.672252591527567	0.00501699971873365	0.266459025166008	0.963833189728079	-0.792817743641467	0.588471383672003	-0.158560575069627	-0.609438147051098	-0.763348556366447	0.214205803871384	-36.5097847493234	-74.5435262323865	88.9213390369116
5235	1651814235029	9.39682060857492	-1.42336328327242	2.00251620073649	-0.0452301835579162	0.136585032308808	-0.101067000418604	-0.0159825609241513	-0.0204008623638078	-0.00939133339353901	0.5791015625	-0.46533203125	-0.14990234375	0	0	0	0.224925507454713	-0.585163650098589	0.393825829633065	0.67223004590197	0.00496943703424871	0.266246649178278	0.963892123889858	-0.792719572948187	0.588619464020136	-0.158501751540767	-0.609566225573896	-0.76330848834399	0.213984037399072	-36.5280007820785	-74.5562014701001	88.930710630677
5236	1651814235030	9.42016171286834	-1.38833053609569	2.04323537689342	-0.0981416123978217	0.129148220252328	-0.075367010031492	-0.0174255797172766	-0.0229868624853992	-0.00383938569221037	0.579345703125	-0.4736328125	-0.1474609375	0	0	0	0.22498371227229	-0.585266104967888	0.393700013375925	0.672195072174508	0.00492777168702654	0.265935735887031	0.963978164402298	-0.792637099738308	0.588765257359952	-0.158372661290744	-0.609673802278435	-0.763304432126588	0.213691831175792	-36.5431212804499	-74.5747248411249	88.9384344638156
5237	1651814235030	9.40234975457516	-1.39767471420704	1.9748210605659	-0.0506304906477477	0.169091308446066	-0.105657031370647	-0.0247736386854137	-0.0237996051237087	-0.00449988945278869	0.5791015625	-0.469482421875	-0.152099609375	0	0	0	0.224961224793622	-0.58538910146497	0.3935846056835	0.672163079463869	0.0048215161099967	0.265726382678793	0.964036432159514	-0.792485779664383	0.588967211016635	-0.158379018108528	-0.609871332341614	-0.763221536577507	0.213424094450776	-36.5785902281965	-74.5872814451015	88.9605013608648
5238	1651814235031	9.42647650395869	-1.40530446926692	2.02091001345403	-0.073807839901663	0.132696586458351	-0.0713137117741009	-0.0288880190007807	-0.0232634644037949	0.00301874589721152	0.574951171875	-0.467529296875	-0.152099609375	0	0	0	0.224970399621913	-0.585524916802217	0.39344784404227	0.672121778486758	0.00471873164449246	0.265438180315779	0.964116334267974	-0.792341278402107	0.589174226624892	-0.158332022096211	-0.610059859449695	-0.763162042499237	0.213097782195428	-36.6124130030314	-74.6045164624207	88.9815521931449
5239	1651814235031	9.423012270951	-1.42734382368493	1.96798527142301	-0.0264553711048296	0.157535322348929	-0.0824294704839534	-0.0316829553453814	-0.0254578304830836	0.00420131232783378	0.5791015625	-0.46728515625	-0.152099609375	0	0	0	0.224902447133472	-0.585676664986164	0.393339770335763	0.672075560064693	0.00453333832578889	0.265267862519533	0.964164099081656	-0.792148323256968	0.58940542869117	-0.15843697355905	-0.610311791467933	-0.763042726027642	0.212803466728122	-36.6685136873983	-74.6148284093589	89.0209297546813
5240	1651814235032	9.43871819641494	-1.48233179712801	1.98645848523767	0.00362468554014773	0.111931477277433	-0.0546043867676928	-0.0325933440652397	-0.0259151128977215	0.0091924751189652	0.574951171875	-0.4736328125	-0.152099609375	0	0	0	0.224880255249138	-0.585857419922949	0.393183447317138	0.672016912790236	0.00435572055407377	0.264956320588822	0.964250577328574	-0.791947385116319	0.589671295109789	-0.158452210243246	-0.610573801358919	-0.76294554976327	0.212399908640616	-36.7232641475863	-74.6335153809231	89.0581771150578
5241	1651814235032	9.48831408465139	-1.5313496733133	1.94035680168796	0.0679355082624138	0.129942564685835	-0.00877898848807668	-0.0320641831430118	-0.0237825363979324	0.00863278640901215	0.5791015625	-0.46533203125	-0.152099609375	0	0	0	0.224794767816122	-0.586009262041852	0.393090841573731	0.671967296402523	0.00414547014404018	0.264824748108195	0.964287647886624	-0.791752012103375	0.589893805266704	-0.158600283222401	-0.61082859003778	-0.76281921272173	0.21212091432732	-36.7850277432291	-74.6415327038319	89.1031859834637
5242	1651814235033	9.45589449447073	-1.57649736438368	1.93543405691854	0.104529423944235	0.0960415606868738	-0.0338817649206682	-0.0224214864462851	-0.0106656549128428	0.0109181941099273	0.576904296875	-0.46728515625	-0.156494140625	0	0	0	0.224776927573004	-0.586120874042745	0.392998647519987	0.671929845214268	0.00402876811765834	0.26464214228758	0.964338273404564	-0.791627939302507	0.590054791756602	-0.158620769260329	-0.610990159285009	-0.762758073867798	0.211875307684418	-36.8204174879484	-74.6524881870482	89.1278275702526
5243	1651814235034	9.41718761934307	-1.56333319587642	1.94311048739546	0.0874457075115213	0.0877470989257948	-0.0716522447896182	-0.023819786251207	-0.00488294790168566	0.0110943161852441	0.574951171875	-0.469482421875	-0.15869140625	0	0	0	0.224674740295785	-0.586195756422996	0.392959755768635	0.671921443749898	0.00391433099585145	0.264669414189682	0.964331260099633	-0.791482931536993	0.590207782838553	-0.158775130805828	-0.611178735803581	-0.762630234300536	0.211791592449385	-36.8580248075753	-74.6509700357023	89.1526852595477
5244	1651814235036	9.41185338819762	-1.54862676981718	1.95934488358454	0.0635271545905478	0.0808336818620451	-0.075660545762636	-0.0197585998353196	-0.0099232292470738	0.0165739400925518	0.574951171875	-0.469482421875	-0.1474609375	0	0	0	0.224620730691038	-0.586348582469603	0.392863136995137	0.671862651715401	0.00370779085245371	0.264488043897614	0.964381836682031	-0.791312232033521	0.590408165868329	-0.158880927458656	-0.611401017108347	-0.762538046467984	0.211481734359421	-36.9166202274161	-74.6619214977594	89.1968375998609
5245	1651814235036	9.45437961362799	-1.5442119467203	1.9998207131629	0.0333397269054521	0.0642419832186318	-0.0267827855872671	-0.0173780378636994	-0.00453413908813969	0.0167418646313234	0.574951171875	-0.469482421875	-0.15869140625	0	0	0	0.224522828229578	-0.586416535475184	0.39286209894783	0.671836674896049	0.00355003626317615	0.264550534368627	0.964365289715367	-0.791206130630542	0.590497741628195	-0.159076321256958	-0.611539251475468	-0.762447002681023	0.211410293050148	-36.9597436565141	-74.6583377057834	89.2311870103146
5246	1651814235037	9.42081170045662	-1.54787104121287	1.99056325370584	0.0396216891419691	0.0592243892104781	-0.0605151849564152	-0.0171742271857912	-0.00612774349700166	0.0160673595837351	0.581298828125	-0.471435546875	-0.156494140625	0	0	0	0.224487856882624	-0.586525280343432	0.392820124183103	0.671777974979142	0.00336089110966062	0.264440208726007	0.964396225842831	-0.791111421493115	0.590595104298036	-0.15918587111404	-0.611662834569906	-0.762409862730106	0.211186595260611	-37.0078478793575	-74.665038610112	89.2718410351915
5247	1651814235038	9.4154555689664	-1.53328034733462	2.00691840151122	0.0160557832202481	0.0543460392184284	-0.0645458967446952	-0.0154513797267094	-0.00818466314932398	0.0160049882401965	0.5791015625	-0.471435546875	-0.156494140625	0	0	0	0.224405648683714	-0.58660095488926	0.39281829152629	0.67174043677913	0.00318621913075023	0.264470725848582	0.964388450354304	-0.791016997050224	0.590671789362417	-0.159370472889575	-0.611785876255163	-0.762339866739583	0.211082849123699	-37.0533096798962	-74.6633541354862	89.309760743107
5248	1651814235039	9.45875536322718	-1.57088859315518	2.05302049286994	0.0156680425394171	0.0069585613386154	-0.0070592451536644	-0.0188620897452072	-0.00559285044068543	0.0192122522472693	0.57275390625	-0.46533203125	-0.154296875	0	0	0	0.224347819844414	-0.58672333711802	0.392738012555295	0.671699810113319	0.00302515835042214	0.264343893846815	0.964423742036071	-0.790864299983882	0.59084981845035	-0.159468338701423	-0.611984074488837	-0.762245890656743	0.210847562824306	-37.1009644642633	-74.6710011436218	89.3443342412825
5249	1651814235040	9.4204161555736	-1.55370232570859	1.98789045130786	0.0397367150534443	0.0571920195155401	-0.0605035222843391	-0.0118810444638897	-0.00698188248826377	0.0166702617634545	0.5791015625	-0.46533203125	-0.156494140625	0	0	0	0.224273269220272	-0.58678893801708	0.39274997802737	0.671660403547462	0.00285239396057516	0.264387070527476	0.964412432928254	-0.790791364413004	0.590897910945504	-0.159651736007031	-0.6120791466947	-0.762193634044617	0.210760485868077	-37.1440441591526	-74.6685502787206	89.3818767510561
5250	1651814235040	9.4302325953177	-1.5929523890544	2.02580840683036	0.0456511885737483	0.00645995428367966	-0.0367701303883301	-0.0155346535950976	-0.00126720009012398	0.0174725964360656	0.574951171875	-0.471435546875	-0.152099609375	0	0	0	0.224222488024445	-0.586890808896107	0.392687239595048	0.671625033896611	0.00271182058499089	0.264288926468852	0.964439738591819	-0.790665395946308	0.591042015446699	-0.159742191138633	-0.612242499082008	-0.762115935617834	0.210566908594803	-37.1850134788994	-74.6744685068537	89.4121190628284
5251	1651814235041	9.43968583460401	-1.58571843969321	1.98543587006577	0.0630975408502699	0.0449531654868083	-0.037303743764058	-0.00896204460512796	0.000532044876489189	0.0162808858810383	0.574951171875	-0.471435546875	-0.152099609375	0	0	0	0.224144258896674	-0.586925171925331	0.392714369135322	0.671605254624119	0.00258853367013384	0.264386252377343	0.964413401528256	-0.790609883133368	0.591069550956614	-0.159914973106923	-0.61231471661661	-0.762060821382263	0.210556387528163	-37.2162212060326	-74.6687601748903	89.4390505770148
5252	1651814235042	9.42051919672365	-1.60077697711294	1.99247383317084	0.0691662109272902	0.0253208128629389	-0.0518884390813987	-0.00633247148242333	-0.00106264424823652	0.0112265994628602	0.5771484375	-0.471435546875	-0.15869140625	0	0	0	0.224144591465508	-0.58697679947376	0.392724376135393	0.671554170104965	0.00245160253721421	0.264336035155633	0.964427524577767	-0.790606734826742	0.591053533011654	-0.159989724548294	-0.612319345188111	-0.762090664968835	0.210434877992603	-37.2450527262315	-74.671820966383	89.4686216314747
5253	1651814235042	9.4098851325349	-1.56899966679277	2.02701702041273	0.0220131158432267	0.0155809073222188	-0.0599560140024469	-0.00809446752521208	0.00252495146534356	0.00820963138780023	0.5791015625	-0.469482421875	-0.154296875	0	0	0	0.224088914728278	-0.58699359887308	0.392729619960605	0.671555000564758	0.00240392097525838	0.264401563261053	0.964409681882682	-0.790556597356711	0.591095207803003	-0.160083483495655	-0.612384264608199	-0.762035608523273	0.210445346355866	-37.259853037879	-74.6679541408804	89.4790850346668
5254	1651814235044	9.40046721927364	-1.57448992113574	1.99414918166469	0.0454775785161217	0.0338818412834593	-0.0750687034450621	-0.00505662629860786	0.00159630612538607	0.00943352099185682	0.5771484375	-0.471435546875	-0.154296875	0	0	0	0.224075997416684	-0.587059542556628	0.392679729694105	0.671530841259197	0.00232744676113383	0.264301193371116	0.964437381157625	-0.79048500353655	0.591185154538166	-0.160104878868525	-0.612476972771543	-0.762000651073402	0.210302081749841	-37.2823466407397	-74.6739574687113	89.4954641410996
5255	1651814235044	9.41401084466441	-1.5455214071432	2.00430456988826	0.0155923332264499	0.0475234887979114	-0.0645094961657744	-0.00579758164917204	0.00106513986302551	0.0106679809078137	0.5771484375	-0.4755859375	-0.15185546875	0	0	0	0.224023676667682	-0.587079738853046	0.392698073672802	0.671519914413715	0.00225120632381892	0.264369630456458	0.964418804546242	-0.790448676836305	0.591203230451929	-0.160217444714791	-0.612524139408253	-0.761962885444901	0.210301545041066	-37.3018272783393	-74.6699310634136	89.512116790972
5256	1651814235045	9.4045865537117	-1.55117694982319	1.97134587896977	0.0390847787402388	0.0664901544830434	-0.0796172358936467	-0.00427890804112551	0.000600846626240846	0.0112799622039992	0.5791015625	-0.46728515625	-0.156494140625	0	0	0	0.224016262688506	-0.587123913247448	0.392708508319835	0.671477663096315	0.00213107597242618	0.264339373327798	0.964427371150294	-0.790440592450773	0.591193483088569	-0.160293279209324	-0.612535001711145	-0.761980945471915	0.210204449088155	-37.3276554116734	-74.6717877118959	89.5380975133947
5257	1651814235047	9.40841189886669	-1.53139981210369	2.02158338978442	-0.00823302970830424	0.0416125357801379	-0.068540414046117	-0.00276026341026648	0.000136455693063125	0.0118919383715637	0.5771484375	-0.469482421875	-0.156494140625	0	0	0	0.223972233159475	-0.587142529995115	0.392739263971824	0.671458084156683	0.00203904001161037	0.264408660267434	0.964408576637212	-0.790423154771073	0.591184618616856	-0.160411916990563	-0.6125578166325	-0.761963783316782	0.210200176488986	-37.3486587849204	-74.6677146460752	89.5581609507486
5258	1651814235048	9.41865381981659	-1.56544233789457	1.98703050269599	0.038793182532126	0.0495087708663393	-0.0604576914155714	-0.00296480051885506	0.00173219180084447	0.0125678783902753	0.57275390625	-0.469482421875	-0.14990234375	0	0	0	0.223958806374344	-0.587207028826396	0.39269505358309	0.671432016838361	0.00195700037650029	0.264315693118316	0.964434230272294	-0.790356434200654	0.591266095877507	-0.160440365193422	-0.612644168393983	-0.761932817403973	0.21006071668851	-37.3719003301349	-74.6732744543693	89.5757882860134
5259	1651814235049	9.42689206104664	-1.52045334403515	2.01465267660808	-0.0146766751347491	0.0582924063079393	-0.053933135092878	-0.00485542172011296	0.00386096478381885	0.0163885117092853	0.581298828125	-0.46923828125	-0.154296875	0	0	0	0.223887357751462	-0.58722249360899	0.392738393269187	0.671416970660592	0.00185259490395415	0.264439059529129	0.964400617838599	-0.790325829554495	0.591262010982812	-0.160606094241659	-0.612683973212228	-0.761893180284422	0.210088388077418	-37.3967973380004	-74.6659901678218	89.5986064508886
5260	1651814235051	9.43104961369903	-1.49671025983204	1.99213776157786	-0.0206251604468695	0.0907790880452647	-0.0584685451060736	-0.00428247388810904	0.00446101215688399	0.0189109013495757	0.574951171875	-0.4736328125	-0.154296875	0	0	0	0.223863964463208	-0.587249518852737	0.392768245438651	0.671383670785259	0.00174221596454596	0.264468361942004	0.964392788346764	-0.790324383619944	0.591236061579719	-0.160708705873264	-0.612686162190146	-0.761903146744661	0.210045856044089	-37.4200538401255	-74.664293891881	89.6225628763391
5261	1651814235052	9.41171996361964	-1.51225243038736	1.99954514832685	-0.0142966681992244	0.0722318961409816	-0.0730703935505961	-0.00708081952117349	0.00226988240838993	0.020091895225559	0.5771484375	-0.469482421875	-0.154296875	0	0	0	0.223777421026916	-0.587278512499625	0.392815750109305	0.671359368044294	0.00159947044458245	0.264601725599077	0.96435645303191	-0.790280409405836	0.591238904609212	-0.16091436289481	-0.612743271039054	-0.76185463474766	0.210055229189539	-37.4541874193547	-74.6564241648557	89.6536614054931
5262	1651814235053	9.43549165906652	-1.51728284216788	1.97536720116841	0.00266130553911414	0.0944058289345713	-0.054418785946897	-0.00843498038306254	0.0065269455620767	0.0233546200423793	0.576904296875	-0.46728515625	-0.156494140625	0	0	0	0.223704551511706	-0.587333533378957	0.392846471711475	0.671317543242675	0.00142194046486935	0.264671087177151	0.964337696918346	-0.790227825866451	0.591255846593584	-0.161110232745429	-0.61281152184966	-0.7618173924776	0.209991188403072	-37.4962777748133	-74.6523633910913	89.6921824578989
5263	1651814235054	9.42528777870111	-1.52868982782099	2.01592550129685	-0.0147558213364745	0.0558563409332939	-0.0539190070528406	-0.00975152285259447	0.0053987963070475	0.0220668774235534	0.57275390625	-0.467529296875	-0.14990234375	0	0	0	0.223597015841505	-0.587359520191612	0.392896375485122	0.671301427585035	0.00128246434186591	0.264840123630412	0.964291483007415	-0.790167467394183	0.591273625274855	-0.161340861303617	-0.612889654633747	-0.761744845056243	0.210026337094106	-37.5312345481876	-74.6423623661342	89.7225525391511
5264	1651814235055	9.40066476393302	-1.52821330026432	2.04063315177228	-0.0319215617736103	0.0311151197345164	-0.0725574908025752	-0.0125515338982137	0.00320940306705185	0.0232475841612952	0.574951171875	-0.467529296875	-0.14990234375	0	0	0	0.223535454137488	-0.587421068497189	0.392904967612902	0.67126304490436	0.00112434942145173	0.264866299202876	0.964284490897241	-0.790104040468666	0.591315174337303	-0.16149913260923	-0.612971729424341	-0.761703490962867	0.209936778058337	-37.5701871652145	-74.6408497763963	89.7567826114614
5265	1651814235056	9.39105043538263	-1.53507327749897	2.00763153894931	-0.00815996267534824	0.0510950170248969	-0.0876585750749523	-0.0121461694760889	1.99137076238362E-05	0.0218953361522054	0.574951171875	-0.4736328125	-0.154296875	0	0	0	0.223431091647381	-0.587469485160495	0.392941033831919	0.671234307244218	0.000953895872731508	0.264993108506122	0.964249834081876	-0.790028902021858	0.591351782432724	-0.161732505649842	-0.613068857513412	-0.761630961724838	0.209916302581046	-37.6128804242383	-74.6333546792333	89.7937532343936
5266	1651814235056	9.43448921708729	-1.56850571361672	1.98162594545245	0.032621715984734	0.06322735378526	-0.0458262467806847	-0.0143109714640946	0.00680245104837173	0.0202325467550291	0.574951171875	-0.469482421875	-0.156494140625	0	0	0	0.22336255087941	-0.587505951454491	0.392966234805275	0.671210448498205	0.000828590617036273	0.265072429469179	0.964228147573434	-0.789979741364019	0.591373418335217	-0.16189344743058	-0.6131323851111	-0.761586559244468	0.209891855740391	-37.643662592855	-74.6286664350215	89.8208995527494
5267	1651814235057	9.40061932786614	-1.57247733997334	1.97339160733887	0.0391159599841767	0.0598460730831252	-0.0795742408302242	-0.0178545777848888	0.00408402319706289	0.0226470112361044	0.5771484375	-0.4755859375	-0.156494140625	0	0	0	0.223228847286767	-0.587552515194048	0.392992825966369	0.671198601285146	0.000677361256229775	0.265235128833031	0.964183523824512	-0.789869811581864	0.591451040955976	-0.162146066568767	-0.613274181694745	-0.761469626830261	0.209901847256338	-37.6855544937023	-74.6190239473011	89.8536775389205
5268	1651814235058	9.41006620904609	-1.61221991158774	2.01205458237447	0.0445580010116584	0.00961924157063072	-0.0559007796594138	-0.0156293301976658	0.00567715233803328	0.0189449829765166	0.5751953125	-0.4755859375	-0.15869140625	0	0	0	0.223132009045063	-0.587638367683495	0.392964592773965	0.671172171794825	0.000519955304537745	0.265251939194784	0.964178997074655	-0.789735657487503	0.591581870731011	-0.16232215349477	-0.613447080797735	-0.76136213392564	0.209786510731582	-37.7308851739127	-74.6180461176599	89.8876871308905
5269	1651814235059	9.38082358074705	-1.59018700394136	1.98104792181616	0.0448930892311851	0.0399108477597383	-0.0941747120844081	-0.013199926645632	0.00567368005398963	0.0145661582763175	0.576904296875	-0.46728515625	-0.154296875	0	0	0	0.223034419789674	-0.587661746039533	0.392979417974844	0.671175459085776	0.000441698579839139	0.265378689420026	0.964144157325072	-0.789653875662082	0.591645649274472	-0.162487483660864	-0.613552411415859	-0.761268400037921	0.2098186396617	-37.7548712424621	-74.6105223630932	89.904636498403
5270	1651814235060	9.37592879673243	-1.6172981645236	2.00410210083861	0.0506149840652238	0.00478331785758829	-0.089645943985241	-0.0129978248271805	0.00407893909946571	0.0138894463841133	0.574951171875	-0.471435546875	-0.152099609375	0	0	0	0.222966541058372	-0.587740033885058	0.39293394101728	0.671156086267483	0.000329141130838845	0.265347287235867	0.964152845156142	-0.789532736823395	0.591777679130189	-0.162595313485501	-0.613708358383912	-0.761176717746842	0.209695148274512	-37.7896066491941	-74.6123981918225	89.9289294110158
5271	1651814235061	9.38081904891921	-1.63522848999356	1.98696740936646	0.0742088249330168	0.00960293847712922	-0.0856025792714217	-0.00921901826501989	0.0036752497066869	0.0138794929339579	0.574951171875	-0.471435546875	-0.1611328125	0	0	0	0.222888223397689	-0.587761801869326	0.392955688802523	0.671150304158227	0.00024378180211676	0.265454292521681	0.96412341489679	-0.789475027720395	0.591813333016713	-0.162745689557454	-0.613782633491951	-0.761111685264038	0.209713808267892	-37.8127885448924	-74.6060446740134	89.9473820358147
5272	1651814235062	9.37533211097409	-1.62027028711372	2.00449279203072	0.0499872851080616	0.00344606945868352	-0.089642130741181	-0.00543996895412398	0.00327099480554438	0.0138695311121016	0.574951171875	-0.469482421875	-0.152099609375	0	0	0	0.222841356517163	-0.587830775460999	0.392942293872869	0.67111330111423	0.000102666213697755	0.265431585164309	0.964129692031529	-0.789403614789368	0.591876167023037	-0.162863549843412	-0.613874516833145	-0.761070743431437	0.209593418493023	-37.8488198784557	-74.6073995913461	89.9778385814692
5273	1651814235063	9.4130396330665	-1.5944414850463	1.99057301722264	0.0373655112819437	0.0404272871359171	-0.0604102417448367	-0.00719416280587972	0.00686311838099674	0.0108549530836056	0.57275390625	-0.469482421875	-0.156494140625	0	0	0	0.222772380336541	-0.587834825878149	0.392963211824526	0.671120405140949	6.02632747197795E-05	0.265544533039146	0.964098593164288	-0.789357986661511	0.59190476142349	-0.162980742107431	-0.613933192832921	-0.761009102690122	0.209645368087997	-37.8619090845759	-74.6006880512681	89.9869971669071
5274	1651814235064	9.39376982144782	-1.60906981785603	1.99810317006207	0.0434631367358516	0.0208643079132983	-0.0750229107491709	-0.00149064837159065	0.00279820022834597	0.010102610785929	0.576904296875	-0.46728515625	-0.14990234375	0	0	0	0.222769570021664	-0.587866310246797	0.392972405468004	0.671088376065232	-2.82203649858148E-05	0.26552097652014	0.964105082566938	-0.789355877175744	0.591892814426107	-0.163034338097391	-0.613935907380993	-0.761026614027745	0.20957383989836	-37.8805130536322	-74.6020883130845	90.0060895671035
5275	1651814235064	9.39289604963315	-1.56817220837238	1.99310718299177	0.0137366070119679	0.0496510755756119	-0.0835824470476165	0.000161865547971895	0.0076487658736743	0.0115124915111068	0.579345703125	-0.4755859375	-0.156494140625	0	0	0	0.222721852136726	-0.587853996763917	0.393017912754262	0.671088351354543	-7.08025140553348E-05	0.26564362435565	0.964071293954031	-0.789355348136595	0.591863793670141	-0.163142220502679	-0.613936584147874	-0.761006382746942	0.209645310138951	-37.8894137712806	-74.5947988782481	90.0152711556622
5276	1651814235065	9.4260467300123	-1.5673241440898	2.00232609086662	0.00768958441533189	0.0519312501731102	-0.0498283717398813	0.00202214326109225	0.00704459003151537	0.0046103705135605	0.5771484375	-0.4736328125	-0.15869140625	0	0	0	0.222744683221301	-0.587838388092861	0.393008146275535	0.671100165803955	-1.87471090922209E-05	0.265619913173505	0.964077829521168	-0.789371415337762	0.59185880611542	-0.16308256274442	-0.613915929339029	-0.761018538111477	0.209661671162058	-37.8770905570539	-74.5962085756208	90.0040438618267
5277	1651814235066	9.41140852212342	-1.55593207473583	1.98728452765194	0.00786955009088389	0.0670630939715464	-0.0689573101764402	-0.00172629770113312	0.00592317363451904	0.00769995924522572	0.5771484375	-0.4755859375	-0.160888671875	0	0	0	0.222705439924992	-0.587830955570997	0.393033303455371	0.671104967255691	-4.08199051073199E-05	0.265706901367692	0.964053857883114	-0.789359507615561	0.591854218805547	-0.163156830745741	-0.613931238878308	-0.760991738619845	0.209714109400608	-37.8827890313376	-74.5910385987247	90.0088022112047
5278	1651814235067	9.40600849779592	-1.54018548499535	2.00509186531541	-0.0169101290877428	0.0606224932138096	-0.0729954010342997	-0.000780205708527086	0.00485705311246363	0.00578889083793645	0.5771484375	-0.469482421875	-0.15869140625	0	0	0	0.222661226122191	-0.587914327730471	0.392969300716507	0.671084085882961	-0.000136256112785504	0.265619437768267	0.964077951056833	-0.789242338037348	0.591994214152284	-0.163215753711338	-0.614081845753163	-0.760913375286497	0.209557443261981	-37.9135717370565	-74.5962347916012	90.0293912959695
5279	1651814235068	9.38678260138186	-1.55440680138016	2.01270816515549	-0.0105962304678346	0.0420730574209767	-0.0876177082640606	-0.000208607873006172	0.00545556954880117	0.00831223632256935	0.579345703125	-0.4775390625	-0.156494140625	0	0	0	0.222625989235471	-0.587906923340373	0.393000109343713	0.671084221585648	-0.000167272911426597	0.265705624149934	0.964054196253959	-0.789239065698065	0.591977165945515	-0.163293392931743	-0.614086043804789	-0.760896547695026	0.209606236810769	-37.9203147478127	-74.591111563581	90.0360701080986
5280	1651814235069	9.39175176327213	-1.57159153574819	1.99580442206947	0.0125313194527984	0.045430169035669	-0.0835601947972435	0.00303018486649734	0.00292325355845736	0.00885952223025815	0.5771484375	-0.469482421875	-0.15869140625	0	0	0	0.222611019086095	-0.587960615155628	0.392961810302473	0.671064575768286	-0.000233338660762195	0.265632477602969	0.964074339662444	-0.789178524492096	0.592050699650507	-0.16331939726751	-0.614163823449043	-0.760864873604934	0.209493298414531	-37.9397105111444	-74.5954558104922	90.0503301295866
5281	1651814235070	9.40536381966453	-1.54275131035461	2.00614319696955	-0.0173645948765304	0.0590392603159701	-0.0729864748969824	0.000829746528279259	-0.000192920505501409	0.0156410628863494	0.574951171875	-0.4736328125	-0.152099609375	0	0	0	0.222568813451097	-0.587978603378526	0.393013638046678	0.671032462372219	-0.000357115443293698	0.265718418391468	0.964050618274838	-0.789181218745836	0.592006807176571	-0.163465422140092	-0.614160301914245	-0.760869017889504	0.209488570496017	-37.9651695670819	-74.5903400403772	90.0770033011047
5282	1651814235070	9.40046303707131	-1.56986960611106	2.02904004469515	-0.0113766459797616	0.0241899374762753	-0.0684847497755232	0.00119784643675175	0.00200277963725501	0.0188418247297893	0.574951171875	-0.471435546875	-0.154296875	0	0	0	0.222540207833033	-0.588023480362392	0.393036624152423	0.670989161250014	-0.000498802765265594	0.265728894500042	0.964047667817099	-0.789164364622243	0.591996135944995	-0.163585392491404	-0.614181859717603	-0.760873662084567	0.209408484880261	-37.9961860943886	-74.5897038585893	90.1075504406331
5283	1651814235071	9.41967979860353	-1.60017268313111	2.02758047652041	0.0120346034655728	0.0137958465059756	-0.04530965969054	0.0078396805278886	0.000729209047735949	0.0238147246517132	0.574951171875	-0.471435546875	-0.156494140625	0	0	0	0.222495729164862	-0.588033748127883	0.393137309545944	0.670935926455758	-0.000681266188699958	0.265869894882544	0.96400867987354	-0.789209885135584	0.591877412692747	-0.163795254963074	-0.614123190476193	-0.760916767681778	0.209423923132139	-38.0297782942716	-74.5812996295979	90.1468146362507
5284	1651814235071	9.40487423966958	-1.59015186132717	2.01227016439629	0.0119538367069585	0.0278929305500274	-0.0644284201685625	0.00608816522215	0.00432269642279053	0.0207997393507394	0.574951171875	-0.467529296875	-0.15869140625	0	0	0	0.222471517775411	-0.588063698790648	0.393191873289799	0.670885728512856	-0.000837526112960008	0.265918785477567	0.963995071605735	-0.789228479951879	0.591813149115127	-0.163937802130212	-0.61409910029478	-0.760949667234682	0.209375019886733	-38.0604624967721	-74.5783672877604	90.1804556708848
5285	1651814235071	9.39006955708404	-1.58021930754942	1.99690697392904	0.0121248831377058	0.0430137327149167	-0.0835486963299754	0.0101273902891687	-0.000733562214754607	0.0262742639713502	0.5771484375	-0.471435546875	-0.156494140625	0	0	0	0.22243037126665	-0.588077208683273	0.393305732208091	0.670820786483043	-0.00104840472090456	0.26606285749449	0.963955111356025	-0.789287784937992	0.591670661900875	-0.164166441130512	-0.614022551210636	-0.761010107493748	0.209379853130941	-38.0985875606686	-74.5697597009519	90.2257694117799
5286	1651814235072	9.37059793505569	-1.59600722883497	2.00431680313304	0.0183150718592474	0.0226890951323668	-0.0981734840719692	0.010465229841501	0.00299094710881648	0.02639488574245	0.574951171875	-0.467529296875	-0.14990234375	0	0	0	0.222407094666192	-0.588130879701223	0.393333211208917	0.670765337166502	-0.00121789339610409	0.266059607595022	0.963955809123042	-0.789277528546306	0.59164813840445	-0.164296875364032	-0.614035422160246	-0.761028754731995	0.209274305168019	-38.13471637283	-74.5699099623792	90.262270792423
5287	1651814235072	9.41741171696267	-1.56681916913115	2.02344562271312	-0.0180593158366472	0.0395925567337295	-0.0538450248594575	0.0119805132421238	0.00252458693076491	0.0270078538246641	0.5791015625	-0.469482421875	-0.154296875	0	0	0	0.222363773337131	-0.588130970621876	0.393457780345792	0.670706559374519	-0.00141412703853472	0.266231384541904	0.963908112907875	-0.789347471917543	0.591490654785271	-0.164527729818034	-0.613945086161705	-0.761091095195965	0.209312627405286	-38.1687012103545	-74.5596420515225	90.3043320725227
5288	1651814235073	9.42207604980727	-1.58559374903468	2.00662591156946	0.00681228906858396	0.0432613708615402	-0.0497854524925181	0.0132935513384714	0.00365535550177819	0.0282978338241949	0.574951171875	-0.471435546875	-0.154296875	0	0	0	0.222390650627304	-0.588100310287291	0.393552711542642	0.670668835410585	-0.00149142344514916	0.266311056168143	0.963885987562178	-0.789463098723784	0.591317323501996	-0.164595986220433	-0.613796213257747	-0.761197900870098	0.209360847107112	-38.1738353867577	-74.5548812289099	90.3208705517582
5289	1651814235073	9.37379282675271	-1.57744569455529	1.98284267917771	0.0134830046349638	0.0550610276556019	-0.102652448695663	0.0136946316872827	0.000463816464502793	0.026944754930996	0.56884765625	-0.475830078125	-0.152099609375	0	0	0	0.222357792565545	-0.588103249735001	0.393679353788261	0.670602822941692	-0.00169773189602448	0.266466291145142	0.963842743080925	-0.789543652791935	0.59114715697247	-0.164820687837829	-0.613692054732973	-0.761275741427979	0.209383159473018	-38.2088522265884	-74.5455802265404	90.3650426318244
5290	1651814235073	9.37696351773152	-1.51697270670079	2.02775567910767	-0.0641253232239789	0.0587888727532263	-0.100176078890257	0.00937066290749373	-0.00124884308889267	0.0275112960755488	0.574951171875	-0.4736328125	-0.156494140625	0	0	0	0.222332226580223	-0.588134606540966	0.39382353788497	0.670499132453241	-0.00199858880666368	0.266594127780805	0.963806815018224	-0.789639234185349	0.590942804063292	-0.165095372924223	-0.61356815878756	-0.76138963307797	0.209332131225566	-38.2620212370165	-74.5378569874137	90.4295239336879
5291	1651814235074	9.38686530030482	-1.55220790477608	1.99319507636997	-0.016940751498902	0.0683906998484317	-0.0920674531308734	0.00633519026049236	-0.000308612990759117	0.0262862594706279	0.57275390625	-0.469482421875	-0.15869140625	0	0	0	0.222277960411352	-0.588153853506104	0.393925897414203	0.670440109381669	-0.00220513609533021	0.266740165570474	0.963765957816646	-0.789674721432129	0.590829791323568	-0.165329948937386	-0.613521777694884	-0.761426189302669	0.20933510584258	-38.3011873838954	-74.5290787320063	90.4736523766395
5292	1651814235074	9.36269779631868	-1.5935639720231	2.02331418617883	-0.00506977945103192	0.0146200346861908	-0.102223083927532	-0.000679312949002271	0.00263982363709712	0.0257463525997525	0.5771484375	-0.4736328125	-0.15869140625	0	0	0	0.222205290021468	-0.588240145261945	0.393933245801137	0.670384172278301	-0.00241974129042571	0.266753081678197	0.963761868029273	-0.789593369999001	0.590882813878113	-0.165528880613337	-0.613625663499913	-0.761380518320944	0.209196681177363	-38.3531448434038	-74.5282003001492	90.5197209347863
5293	1651814235075	9.3813785793494	-1.58234550471326	2.01613026095224	-0.0113667347563543	0.0330311306305314	-0.0875836641453205	-0.00290965661654014	-0.00280994879848901	0.0218146695850547	0.574951171875	-0.471435546875	-0.154296875	0	0	0	0.222138105846596	-0.588281525813596	0.393990063316304	0.670336735026009	-0.00260664721111437	0.266852537654729	0.963733847354937	-0.789571513049838	0.590852983877803	-0.165739486010083	-0.613653021805081	-0.761368816402359	0.209159016634629	-38.3936216922237	-74.5221831406609	90.5596541645475
5294	1651814235075	9.3763810398198	-1.60985047144326	2.03876267768189	-0.00522439304988294	-0.00215391704663295	-0.083110755224526	-0.000104579370815756	-0.00062637768008191	0.0206359532161403	0.5751953125	-0.4755859375	-0.160888671875	0	0	0	0.222097673546953	-0.588349393513481	0.39397478800459	0.670299545706313	-0.00274228486188408	0.266820179774225	0.963742430081288	-0.789504305902645	0.590912979643539	-0.165845715802302	-0.613738894673394	-0.761333594526109	0.209035229114701	-38.4280073040043	-74.5240259528046	90.5888453303755
5295	1651814235076	9.36685964047381	-1.61634756130629	2.0054903605498	0.0185488117122698	0.017777437670593	-0.098163697627907	-0.0019405821014648	-0.00540102199374171	0.0229855384908084	0.5791015625	-0.471435546875	-0.16552734375	0	0	0	0.222035524595639	-0.588399041031668	0.394034963681138	0.670241181760236	-0.00295396818036348	0.26690593993092	0.963718056955239	-0.78948789891907	0.590873346428688	-0.166064884730389	-0.613759017475379	-0.761334294321329	0.208973588661106	-38.4730858407106	-74.5187933154316	90.6340922937717
5296	1651814235076	9.36663150698711	-1.61832345123037	2.00496229951188	0.0173946376112059	0.0150927224770756	-0.0981570204105484	0.00201171217112489	-0.00588664517701725	0.0192191545002821	0.572998046875	-0.4736328125	-0.160888671875	0	0	0	0.221964364022097	-0.588570078432793	0.393913642954687	0.670185888968164	-0.00316539066443397	0.266707563677008	0.963772304945217	-0.789273896244092	0.591127725996866	-0.16617679821637	-0.614033139992958	-0.76120633670198	0.208634167755763	-38.5372685752785	-74.5304421070528	90.6799770064721
5297	1651814235077	9.38590670498849	-1.64871025003329	2.00273402447497	0.0407945237085282	0.00459802961261532	-0.074990098595638	-0.00325877081693635	-0.00652566148401604	0.0216968458383731	0.5751953125	-0.4755859375	-0.156494140625	0	0	0	0.221903772094286	-0.588625849638807	0.393963083055346	0.670127908877736	-0.00337460334696119	0.266774721271699	0.96375300785142	-0.78924790681992	0.591103610239707	-0.166385887448303	-0.614065431067916	-0.761201530510805	0.20855665013464	-38.5827634624216	-74.526297418816	90.7247321503841
5298	1651814235077	9.40477054141797	-1.63737145954455	1.99480470104313	0.0335768957981285	0.0217276515565418	-0.0603368720690049	0.0030047432432535	-0.0100014076571357	0.023471065055464	0.574951171875	-0.4736328125	-0.15869140625	0	0	0	0.221850332923605	-0.58875488333782	0.393961004698834	0.67003346476444	-0.00367517175489071	0.266703180163092	0.963771708862355	-0.789165047678666	0.591154313116742	-0.16659863626633	-0.614170188656939	-0.76118722517812	0.20830023425511	-38.6528385521552	-74.5303140623558	90.7894862878419
5299	1651814235077	9.39474112532708	-1.64847957916387	2.03417076988701	0.0160868326094877	-0.0169007023936212	-0.0599466360178145	-0.000999195986513251	-0.00646572189270936	0.0210759173621572	0.574951171875	-0.471435546875	-0.15869140625	0	0	0	0.221798884025329	-0.588805904078234	0.394014704813493	0.669974085139468	-0.00387996057330217	0.266766297913681	0.963753437453469	-0.78915226764199	0.591115334871709	-0.166797360156005	-0.61418535018466	-0.761195377795305	0.208225724735463	-38.6961615501759	-74.5263896782576	90.8332750192043
5300	1651814235078	9.41872271078871	-1.65328990409133	2.00916993797728	0.0330699341607848	0.00466998496167865	-0.0412313201515708	0.00275343623765413	-0.00535632213284539	0.0179854648614423	0.57275390625	-0.4716796875	-0.152099609375	0	0	0	0.221772628170256	-0.5889015413319	0.393975285383633	0.669921898819747	-0.00404310175240458	0.266660857435131	0.963781946521194	-0.78906982765389	0.591200751802685	-0.166884625278066	-0.614290208626574	-0.76116598595832	0.208023752022741	-38.7379218622157	-74.5325133598529	90.8686498650991
5301	1651814235078	9.41850464675148	-1.65478583321088	2.00896063379796	0.0330547685968427	0.00453159016105222	-0.0412312036761655	0.00307526064728295	-0.000111768857068033	0.015023123400697	0.5751953125	-0.4755859375	-0.154296875	0	0	0	0.221740226649696	-0.588916991489215	0.394027009453006	0.669888621221584	-0.00416101408637359	0.266735245831725	0.96376085964977	-0.789081594514428	0.591147975413724	-0.16701589254566	-0.614274306120923	-0.761180911344566	0.208016098041268	-38.7609417842204	-74.5279837211393	90.8937296926793
5302	1651814235079	9.40396449395272	-1.64381954595201	1.99330096139258	0.0337494089590341	0.0193467429622523	-0.0603324536631149	0.00268026995822973	-0.000788828574948359	0.00874139104184756	0.572998046875	-0.4736328125	-0.15869140625	0	0	0	0.221765293953769	-0.588908039357956	0.394064634311858	0.669866060912051	-0.00419922967154182	0.266742319742555	0.963758736058214	-0.789139777582375	0.591066436764519	-0.167029574530184	-0.614199298198399	-0.761241750161442	0.208014951154332	-38.7633873384472	-74.5275276273756	90.9019126199786
5303	1651814235079	9.4229747250706	-1.63085088092989	1.98607921674054	0.0274470578723773	0.0376966357048132	-0.0456784267489318	0.00228563487558192	-0.00146641842672532	0.00245957702707402	0.579345703125	-0.4755859375	-0.154296875	0	0	0	0.221770047780263	-0.588915263269339	0.394070560700261	0.669854649745246	-0.0042255882444272	0.266732462678038	0.963761348964409	-0.789147526973107	0.591052878193843	-0.167040940643312	-0.614189160663241	-0.76125573136265	0.20799371719189	-38.7681462655254	-74.5280888154091	90.907606516913
5304	1651814235080	9.41275786867812	-1.59814898298233	2.02059560689821	-0.0196221975165511	0.0269458845590286	-0.0538049280696793	-0.00452386030727496	-0.000110825936504756	0.00124391705339546	0.57080078125	-0.4736328125	-0.152099609375	0	0	0	0.221762820368724	-0.588956404722324	0.393991960293525	0.669867106270138	-0.00419862287876183	0.266627241900153	0.963790581735804	-0.789061775441938	0.591183173452348	-0.166984939330548	-0.614299508466626	-0.761191414365354	0.207903209677326	-38.7709415811749	-74.5343686506693	90.902171464338
5305	1651814235080	9.38913964318647	-1.59045457858585	1.97210569767087	0.00434549066862175	0.062031155713975	-0.0879342484462313	-0.000992965077566605	0.0041159227166034	-0.00425184037045005	0.57080078125	-0.4716796875	-0.156494140625	0	0	0	0.221765486530261	-0.588943988940901	0.393971608567049	0.669889109119912	-0.00413730093305614	0.266619679269935	0.963792939052256	-0.78904948025614	0.591212881254178	-0.166937852947282	-0.614315717240332	-0.761170989768482	0.207930093748753	-38.7594360467741	-74.5348751619215	90.8890223652106
5306	1651814235081	9.3988319694986	-1.62746795697306	2.01066630719117	0.0100790400772207	0.0127316273622789	-0.0643947101866029	-0.00548872052028384	-0.00139010349241082	-0.00756169609797961	0.5771484375	-0.4755859375	-0.149658203125	0	0	0	0.221802769972595	-0.588957450324938	0.393941911445144	0.669882395160657	-0.00412221577261174	0.266524714629944	0.963819269276429	-0.789054290142218	0.59122660327886	-0.166866505876709	-0.614309640609102	-0.76119358908675	0.207865305878464	-38.7561958042642	-74.5405337779742	90.8860969463347
5307	1651814235081	9.36512079906761	-1.58653561471474	1.9965306193449	-0.0131308135422883	0.0382033411324349	-0.106653906737272	-0.0104120578546713	0.00169478680569998	-0.00496433416192487	0.572998046875	-0.475830078125	-0.154296875	0	0	0	0.221780734076618	-0.588970862758521	0.393888856732217	0.669909096337784	-0.00407021727265977	0.266494675557358	0.963827796461034	-0.788984236726652	0.591329749069247	-0.166832257260288	-0.61439995729835	-0.761123981861877	0.20785325762784	-38.7520757765029	-74.5423667844185	90.8750198860995
5308	1651814235082	9.34099518657579	-1.58339535060777	2.02084069357776	-0.0297795362775475	0.0150242869314785	-0.125375223687081	-0.0101888628125189	-0.00142496015054347	-0.00255972105848406	0.572998046875	-0.477783203125	-0.15185546875	0	0	0	0.221792015314307	-0.588957867024044	0.393874637885016	0.669925146896468	-0.00401719899712888	0.266480744762868	0.963831870599248	-0.788985353812782	0.591342143147531	-0.166783036327453	-0.614398871728405	-0.761119230087055	0.207873865626613	-38.7410502588851	-74.5432426373954	90.8636688360619
5309	1651814235082	9.37963461263548	-1.59844687630487	2.01153780771859	-0.0126698877149192	0.022980580310819	-0.0875563315639383	-0.0112820370447908	-0.00567209166598564	-0.00144460016190487	0.574951171875	-0.4736328125	-0.160888671875	0	0	0	0.221771298062634	-0.589000956631569	0.393823100589702	0.669924421024211	-0.0040375229419799	0.266416411872399	0.963849570157879	-0.788910438721665	0.591441713595054	-0.166784349073095	-0.61449492925856	-0.761064382890686	0.207790728885422	-38.7524581559709	-74.5470482279187	90.8682472481237
5310	1651814235083	9.36581952372723	-1.62842469610325	2.00057188025969	0.0167166026598059	0.00870086823748714	-0.0981480022856722	-0.00805063213962153	-0.00821039685694364	-0.000896735124817024	0.572998046875	-0.4736328125	-0.152099609375	0	0	0	0.221759302706007	-0.589078452311712	0.393757922119241	0.669898565048263	-0.00411744841924808	0.266288480360572	0.963884584297193	-0.788822987655688	0.591555020863368	-0.166796137357241	-0.614606655320677	-0.76102109203267	0.207618777370767	-38.7775922458518	-74.5545793295636	90.8858573910348
5311	1651814235083	9.36601447601265	-1.62856032821805	1.99954853109825	0.0167173797863691	0.00857315649497349	-0.0981478900768806	-0.00556517192527951	-0.0112748201789889	0.000885305793130592	0.5771484375	-0.477783203125	-0.15869140625	0	0	0	0.221761804367372	-0.589131791710406	0.393724866469209	0.669870258814062	-0.00419107696021881	0.266195298126757	0.963910005202312	-0.788783014686286	0.591604863295063	-0.166808397474601	-0.614657457952255	-0.76101494662118	0.207490868239629	-38.7968897764572	-74.5600492925794	90.9020113594685
5312	1651814235083	9.40436218830854	-1.60204402916099	1.98400142352251	0.00410852656006939	0.0450814492242001	-0.0688285014588299	-0.00780354100022628	-0.0128525278219392	0.00458876333561525	0.572998046875	-0.475830078125	-0.15185546875	0	0	0	0.221755015645624	-0.589207914339167	0.393680962784715	0.6698313565794	-0.00430133355802131	0.266080086197524	0.963941329261663	-0.788719327248753	0.591680025153819	-0.166842952078446	-0.614738417014828	-0.760996803911222	0.207317493432197	-38.8260766709468	-74.5667920727983	90.9261376840176
5313	1651814235085	9.40487415856355	-1.64448973948906	1.98845045144461	0.0338020808650382	0.0160714016579515	-0.0603266884702886	-0.00313174804281102	-0.00742270723264689	0.00414099880433082	0.574951171875	-0.4736328125	-0.149658203125	0	0	0	0.221748493242866	-0.589247071552738	0.39367035399672	0.669805305141082	-0.00437691789876107	0.26603568263836	0.963953244796058	-0.788694283696724	0.591702516257231	-0.166881572137168	-0.614770013463424	-0.76099484086162	0.207230988822082	-38.8442345090421	-74.5693577515028	90.9425664146666
5314	1651814235086	9.39519132793055	-1.65390077882998	2.02768052460756	0.0172995809488156	-0.0219181605564877	-0.0599586973188622	0.00256107504157974	-0.011503344543597	0.00338822820839753	0.572998046875	-0.475830078125	-0.156494140625	0	0	0	0.221821050762504	-0.589221233222963	0.393736900136704	0.669764893995325	-0.00442081642010042	0.266018960194021	0.963957659443335	-0.788825652534407	0.591533349818716	-0.16686037862811	-0.614601127794155	-0.761132188827631	0.207227519515658	-38.8411483598497	-74.5703084286078	90.9520780359548
5315	1651814235086	9.45347085225893	-1.65130810533613	1.93755198472598	0.0693762156272837	0.0630559670603404	-0.02288409236394	-0.00139235543109747	-0.0110127617622746	0.00715724017000075	0.57080078125	-0.4736328125	-0.154296875	0	0	0	0.221818667850821	-0.589271510848133	0.393738135202923	0.669720722378045	-0.00454126522063233	0.265966333594225	0.963971621109585	-0.788812019749319	0.591533518959624	-0.16692421467913	-0.61461774657847	-0.761150448559081	0.207111130191292	-38.8675806451006	-74.5733153953414	90.9782066992645
5316	1651814235087	9.44882461271698	-1.67717081128248	1.95971612187814	0.0750117822442006	0.0291223347280953	-0.018444109446996	0.00626383199521324	-0.00348019521023878	0.00177025461308651	0.572998046875	-0.4755859375	-0.163330078125	0	0	0	0.221849869832998	-0.589290222157602	0.393768036478702	0.669676341804183	-0.00463246496569772	0.265926358217902	0.963982215745346	-0.788862194535992	0.591458737405579	-0.166952088871202	-0.614552665196564	-0.761222525909188	0.207039338649051	-38.8819610183469	-74.5755975761213	90.9979975274023
5317	1651814235087	9.48640338191057	-1.65507240208572	2.01855838586232	0.0211772148823407	0.00744128713768867	0.0262753818020354	0.0107620630756374	0.00202352791656884	0.00507971981111081	0.572998046875	-0.4736328125	-0.154296875	0	0	0	0.221868528903869	-0.589270654642575	0.393812807389543	0.669661051723266	-0.00465686337384463	0.26596097101361	0.96397254915325	-0.788923424100683	0.591371657236	-0.166971236814015	-0.614473876197168	-0.76127808645425	0.207068902918288	-38.8811742869878	-74.5735152912124	91.0031222007605
5318	1651814235087	9.45747763021662	-1.63106757184907	1.98816322541775	0.020592234898585	0.0367584975438758	-0.0119076912063445	0.0172739999296688	0.0122252157793673	0.00228092738527946	0.57275390625	-0.469482421875	-0.163330078125	0	0	0	0.221881133914125	-0.589266159791763	0.393825153366439	0.669653570074223	-0.00466571699965962	0.265958752450092	0.963973118442662	-0.788946927297365	0.591341021977767	-0.166968684591866	-0.614443632071264	-0.761302658422708	0.207068310674503	-38.8808264149917	-74.5736379144983	91.0050373272592
5319	1651814235088	9.36064111233591	-1.5726039381862	2.00896747238034	-0.0370039733203148	0.0309000646203959	-0.110712761150658	0.0168989289159378	0.0138996845371427	0.00671634662495509	0.568603515625	-0.4736328125	-0.15869140625	0	0	0	0.221892016254328	-0.589197067215147	0.393906375560881	0.669662987180977	-0.00463083344487986	0.266092789824451	0.963936295916409	-0.789045290686474	0.591203400830159	-0.166991221602672	-0.614317576361856	-0.761362703348604	0.207221498215318	-38.8639019962148	-74.5657084070025	90.997022244632
5320	1651814235088	9.29756524548148	-1.55503455253949	2.04362971862334	-0.0727686052757317	-0.00229672928846389	-0.167275308965031	0.0178905706764461	0.00978559410059711	0.0109681947710678	0.574951171875	-0.4736328125	-0.149658203125	0	0	0	0.221885885903146	-0.589246591373512	0.393907825662169	0.669620588896261	-0.00474984112640198	0.266046576496854	0.963948472763756	-0.789028584266136	0.591206557038156	-0.167058972001104	-0.614338125318826	-0.761376402346036	0.207110216383346	-38.890296480988	-74.5683301771945	91.0228169217841
5321	1651814235088	9.30200648868229	-1.53040218894689	2.02147773435582	-0.0788795246954159	0.031266905048107	-0.171700477025126	0.00986119187851818	5.585250788161E-05	0.0131561671046444	0.572998046875	-0.475830078125	-0.15185546875	0	0	0	0.221881381496108	-0.589245806470289	0.393973739196399	0.66958399392919	-0.00485185523842763	0.266111672427851	0.963929996056974	-0.789082366749515	0.591106690737973	-0.167158304160415	-0.614268245952637	-0.761431190563175	0.207116064205114	-38.9061498687876	-74.5643521686817	91.0445240086307
5322	1651814235089	9.30221490380126	-1.57365689079559	2.02666580121262	-0.0480933733622808	0.00284539952766496	-0.163197683902135	0.0039176958673458	-0.00954185419010985	0.0184805317070235	0.5751953125	-0.477783203125	-0.15185546875	0	0	0	0.221910876001913	-0.589224544662524	0.394091165074018	0.669523825334026	-0.00498682084431104	0.266196179005621	0.963905973578686	-0.789217518477177	0.590895433445334	-0.167267137424472	-0.614093510913926	-0.761565611760574	0.207139998158609	-38.9211407323115	-74.5591816586889	91.073232421492
5323	1651814235090	9.35473414887935	-1.56053626484137	2.02667742321433	-0.0608759240078719	0.0244596517179889	-0.114778251314664	0.00721842543008359	-0.0205166106101593	0.0206394568766264	0.572998046875	-0.477783203125	-0.156494140625	0	0	0	0.221916170258253	-0.589305330654749	0.394152017830985	0.66941513837048	-0.0052731717966811	0.266149890927315	0.963917231518651	-0.789255419294017	0.590794800435345	-0.167443682752099	-0.614042406332191	-0.761659858032402	0.206944881279613	-38.9770879421148	-74.5616045659731	91.1350407224216
5324	1651814235090	9.36947614322163	-1.61633363219565	2.0462144731143	-0.031480231084014	-0.0194696947390279	-0.0871929929648178	0.00530376802164645	-0.0168479651641924	0.0213806710807287	0.5771484375	-0.4755859375	-0.15185546875	0	0	0	0.221905774555298	-0.589371113858459	0.394238695308887	0.669309620795488	-0.00556491745922802	0.266165796277638	0.963911199533216	-0.789305210362757	0.590667356680321	-0.167658458320738	-0.613975827364462	-0.761753137600479	0.206799034736505	-39.0327654982226	-74.5603063301623	91.1977490761359
5325	1651814235091	9.37968112488249	-1.65098347880987	2.00992614336251	0.0156947451353385	-0.00996614517423042	-0.0790538467482733	0.00664279371047342	-0.0211146425014462	0.0181168459198159	0.574951171875	-0.4736328125	-0.156494140625	0	0	0	0.221917653898029	-0.589452000584727	0.394289192007208	0.669204697354525	-0.00583525585406625	0.266100748704163	0.963927560207821	-0.789339968925212	0.590577175909396	-0.167812433246254	-0.613928630417464	-0.761845778904082	0.206597787790116	-39.085794543809	-74.563827808472	91.2562232886145
5326	1651814235092	9.37946784632093	-1.61054433544336	2.00264635856957	-0.0129330638454753	0.0183680890184701	-0.0875468724522079	0.00945073116341713	-0.018936011518259	0.016935543948795	0.574951171875	-0.4736328125	-0.15869140625	0	0	0	0.221972112498805	-0.589491684996145	0.394317620386367	0.669134925740733	-0.00597366485352277	0.26600195403284	0.963953980114678	-0.789404812509138	0.590483991051302	-0.167835330903657	-0.613843919344023	-0.761952502957263	0.206455869186448	-39.1088900689876	-74.5695160955384	91.2864877818081
5327	1651814235093	9.38465164375886	-1.62834821230381	1.98366639847331	0.0106676716756446	0.0230618496121126	-0.083479237918052	0.00661600251609091	-0.0195906728206777	0.0150358575859014	0.572998046875	-0.475830078125	-0.15185546875	0	0	0	0.221990231853224	-0.589563678976577	0.39435925595511	0.66904094242123	-0.00620910865172761	0.265930220936984	0.963972284125513	-0.789439732089983	0.590402228408568	-0.167958679703944	-0.613796673473754	-0.762040895413497	0.206270010786712	-39.1547587779932	-74.573458205332	91.3375354345365
5328	1651814235093	9.37978856688504	-1.61306646212695	1.99911121533411	-0.0124889230181452	0.0176881180587711	-0.087545031444737	0.00397872298541957	-0.0218432393876522	0.0124601445467746	0.572998046875	-0.475830078125	-0.15869140625	0	0	0	0.22203262260912	-0.589641353069991	0.394359855725383	0.668958065531287	-0.00639324211590972	0.265781180376658	0.964012183850826	-0.78945964446034	0.590363637379142	-0.168000730441932	-0.613769171776981	-0.762122785263674	0.206049178494212	-39.1918367155424	-74.5820547630364	91.377957475996
5329	1651814235094	9.40419022623813	-1.61700879940705	1.97264386162071	0.00482410096117672	0.04085398239531	-0.0688101875189027	0.0011208654596051	-0.0209791891149068	0.00747862457433436	0.57080078125	-0.477783203125	-0.154296875	0	0	0	0.222057490168868	-0.589720274557471	0.394358346263722	0.668881128129586	-0.00657701498399152	0.265654102932537	0.964045974250715	-0.789461319212247	0.590343931584092	-0.168062095397791	-0.613765075856845	-0.762182353532898	0.20584093767153	-39.230463892121	-74.5893387010344	91.4182285569391
5330	1651814235095	9.41454738954706	-1.65080895247671	1.93599769298061	0.0514050481557258	0.050197031629704	-0.0606723330928087	-0.00263396850057913	-0.0220790872866905	0.010573860190155	0.56884765625	-0.475830078125	-0.149658203125	0	0	0	0.222055156466618	-0.589838187430793	0.394356916515704	0.668778769497932	-0.00685292991083425	0.26552184474088	0.964080487986889	-0.789428288740605	0.590348259765624	-0.168201989072007	-0.613804540784537	-0.762225086281671	0.205564840269885	-39.2915061832298	-74.5967820327472	91.478435093795
5331	1651814235096	9.44830682282972	-1.65024009027199	1.94226491175294	0.0449327170354272	0.0533360569993284	-0.0269159037971001	-0.00681105314346197	-0.0223419676469978	0.00430532057953624	0.57275390625	-0.4716796875	-0.1611328125	0	0	0	0.222065397591745	-0.589933915181421	0.394320056357367	0.668712664801156	-0.00702066225391412	0.26536581248732	0.96412224114189	-0.789381450197788	0.590397304693486	-0.168249661795512	-0.613862880768298	-0.762241436930329	0.205329869822281	-39.3315858875956	-74.6057913323441	91.5154947794457
5332	1651814235096	9.46801195475819	-1.67927844618489	1.93864385262315	0.0684302135216419	0.0425249971733943	-0.00375902436818087	-0.0043948057331425	-0.0169710782601416	0.0044744390310376	0.574951171875	-0.4736328125	-0.154296875	0	0	0	0.222098967306326	-0.5900041297712	0.394304002318252	0.668649032998778	-0.00716103878252547	0.265223363857993	0.964160405112866	-0.789380595572596	0.590392804954543	-0.168269460067359	-0.613862358234327	-0.762294498944966	0.205134351148786	-39.361653637453	-74.614030677716	91.546612011564
5333	1651814235097	9.46354126017907	-1.70506491763815	1.95998405253714	0.0745483219990252	0.00871604115279308	0.00065882923849081	-0.00386968023581102	-0.0133304901326505	0.000832901551525102	0.574951171875	-0.4736328125	-0.154296875	0	0	0	0.222111554838572	-0.590059995084635	0.394274202424412	0.668613126337276	-0.00724588899337034	0.265115528321667	0.964189428346639	-0.789352100146821	0.590428621019572	-0.168277465736591	-0.613898003813743	-0.762304270041596	0.204991318815825	-39.382588058408	-74.6202994826565	91.565564772169
5334	1651814235098	9.47346601740557	-1.69613109579405	1.91890325356901	0.0933933995576287	0.046681306142502	0.000299302620197395	0.00135872751676519	-0.00578681664173752	-0.000182611991702262	0.572998046875	-0.475830078125	-0.15185546875	0	0	0	0.222176885686042	-0.590039263674403	0.394242706700712	0.668628287617803	-0.0071472889282711	0.265017479702881	0.964217118554171	-0.789389823845539	0.590420239360295	-0.168129851492354	-0.613850651437372	-0.762344853990413	0.204982197578839	-39.3591808814677	-74.6262826889745	91.5448424420147
5335	1651814235099	9.44440161932745	-1.67664283110436	1.9603500161663	0.0525376923200904	0.0184818012566472	-0.0225023011492667	0.00248142679874413	-0.0030627994682287	0.00178103463359121	0.57080078125	-0.4716796875	-0.163330078125	0	0	0	0.222187987301108	-0.59004883085611	0.394246025095676	0.668614199071991	-0.00717510219680501	0.264993456338741	0.964223514547386	-0.789400504887906	0.590405139990685	-0.168132726009248	-0.613836591277505	-0.762364898700241	0.204949751008841	-39.3641086871969	-74.6276650366318	91.5509917043613
5336	1651814235101	9.45409695118949	-1.66782247275819	1.92027503923419	0.0698578277960309	0.0560558517915659	-0.0228449323268283	0.00773398180374861	0.00296207973217947	0.00384746985299293	0.572998046875	-0.477783203125	-0.156494140625	0	0	0	0.222209280896762	-0.590058278329252	0.394241110392713	0.668601683018211	-0.0071896498971209	0.264947688417623	0.964235983220143	-0.789413391276521	0.59039396471933	-0.168111463310192	-0.613819848658921	-0.762389460069556	0.204908527316926	-39.3662071109136	-74.630360203904	91.5544031729835
5337	1651814235102	9.46804956040348	-1.63804758195717	1.93083062565364	0.040006649345543	0.0696020005942766	-0.0122371543360646	0.0107407423285681	0.00353913449183796	0.00198681056660992	0.5751953125	-0.479736328125	-0.15869140625	0	0	0	0.222234420182409	-0.59002988692441	0.394276534677721	0.668597494180681	-0.00717850652300653	0.264974706577656	0.964228641930006	-0.789474505821409	0.590315753377434	-0.168099125436377	-0.613741373627476	-0.762440631254997	0.204953190044315	-39.3580221023934	-74.6287732907323	91.5518369814818
5338	1651814235103	9.41464371683754	-1.61541722523192	1.99795105909567	-0.018838166766149	0.0179317770304705	-0.0537826567859358	0.0146736142331514	0.00843814551564992	0.00276587496066244	0.56884765625	-0.477783203125	-0.156494140625	0	0	0	0.22223788513148	-0.590011875820361	0.394315994653637	0.668588965780575	-0.00719823449749729	0.265024663142879	0.964214765156665	-0.789516629081976	0.5902504375452	-0.168130643788491	-0.613686954255304	-0.762473834897764	0.204992617606451	-39.3578851727729	-74.6257740864515	91.5558064693293
5339	1651814235104	9.36657391204596	-1.60491314309677	1.97490870784529	-0.0121424401531772	0.0297964463101728	-0.106623170931009	0.0107237913591272	0.00893614802118658	0.00653851350706573	0.5771484375	-0.4755859375	-0.156494140625	0	0	0	0.22223876626362	-0.589970662640556	0.394372749899076	0.668591566002838	-0.00719049727899265	0.265119884493803	0.964188645232287	-0.789577293281673	0.590160129813329	-0.168162775645208	-0.613608991690039	-0.762510634696138	0.205089095986174	-39.3500348242995	-74.6201303029866	91.5535770741832
5340	1651814235105	9.35200766724867	-1.59324211649813	1.95992264227842	-0.0122007205929614	0.0446632701182009	-0.125705327755639	0.0153082349813073	0.00061094253878952	0.0069037533216119	0.57080078125	-0.475830078125	-0.154296875	0	0	0	0.222269379977174	-0.589964430265303	0.394426570194865	0.668555139439235	-0.00726069650789646	0.265129765023023	0.964185402287888	-0.789653877517646	0.590048006897755	-0.168196620885599	-0.613509605472944	-0.762593966180446	0.205076587492599	-39.3574019160973	-74.619429734643	91.5686783275177
5341	1651814235107	9.30407934323527	-1.58296827467202	1.93603929705954	-0.00550469624458188	0.0565321538409159	-0.178544798240781	0.0109819478268315	-0.00109197854741646	0.00747725024398047	0.5751953125	-0.4755859375	-0.154296875	0	0	0	0.222288090821748	-0.589957287026971	0.394476155519747	0.668525965755226	-0.00732207557972894	0.265154147673289	0.964178233098453	-0.789716063671702	0.589953134810365	-0.168237443829531	-0.613428827157703	-0.762658886199508	0.205076808325196	-39.3641896793728	-74.6178810960623	91.5817872118038
5342	1651814235108	9.3465186547717	-1.53577788368229	1.97172654370257	-0.06499861222398	0.0685470392668884	-0.138246464069141	0.00685216014230369	-0.00439280546241525	0.00737497389461282	0.57080078125	-0.4736328125	-0.156494140625	0	0	0	0.222324404424591	-0.589947077830437	0.394523933806742	0.668494704698723	-0.007373377974038	0.265155055812074	0.964177592393926	-0.789793586694792	0.589845449701809	-0.168251109600641	-0.613328397934604	-0.762741857933185	0.205068609113158	-39.3675950898446	-74.6177427029202	91.5928589202154
5343	1651814235108	9.3658732799731	-1.56514952787586	1.96954453276986	-0.0415725641599824	0.0580113671369132	-0.11509553428515	0.00331811355937514	-0.00860637820857037	0.0128788260341813	0.572998046875	-0.477783203125	-0.160888671875	0	0	0	0.222316469884543	-0.589985864814679	0.394560765043981	0.668441373064878	-0.00752303598643239	0.265154329592297	0.964176636010232	-0.789808628581811	0.589794379811968	-0.168359495603708	-0.613307210252143	-0.762781601141949	0.204984133073901	-39.3972677768838	-74.6175361248632	91.6251765814947
5344	1651814235109	9.4183769726684	-1.55145513756276	1.97014436339392	-0.0550883679547073	0.0787050765346406	-0.0666585630989296	-0.00370705710613093	-0.00413235720946162	0.00926288130590105	0.574951171875	-0.4736328125	-0.160888671875	0	0	0	0.222276007512176	-0.590074967597973	0.394521072539066	0.668399605341987	-0.00767068812624627	0.265076442507309	0.964196888696152	-0.789714474229526	0.589892999614144	-0.168455626794151	-0.613426613162531	-0.762732409586676	0.204809818197397	-39.4372218724783	-74.6219112661492	91.6575423916897
5345	1651814235110	9.39920548122686	-1.56598519558421	1.97682849751824	-0.0487774695557551	0.0601194593787034	-0.0813344011692525	-0.005945541360395	-0.0057011255873558	0.0129708882225639	0.5751953125	-0.479736328125	-0.154052734375	0	0	0	0.222231028069359	-0.590122807407551	0.394533859113538	0.668364777912215	-0.00780378761918132	0.265097873895825	0.964189928465708	-0.789672266605251	0.589912808352429	-0.168584073673271	-0.613479267989815	-0.762709640556394	0.204736884681332	-39.4686621739472	-74.6204075265494	91.6861508624116
5346	1651814235111	9.35156895029911	-1.59827233862144	1.95791939432348	-0.0122316196569298	0.0423284113998772	-0.125694882900898	-0.00618728294808355	-0.00106943932602116	0.00748071813406805	0.57275390625	-0.4716796875	-0.154296875	0	0	0	0.222194313757974	-0.590170185733046	0.394475799497199	0.668369420617439	-0.00782400903426478	0.265046204276347	0.96420396933498	-0.789576041953828	0.590037061089338	-0.168599942211095	-0.613602851081348	-0.76263148121472	0.20465767761089	-39.4821883812006	-74.6234411669198	91.6908469043315
5347	1651814235111	9.38005293008544	-1.58122408740014	1.98284422563253	-0.0422805686372454	0.0406470591055264	-0.0960061500307994	-0.00857061346403856	-0.0133515159894859	0.00584650911529061	0.56884765625	-0.475830078125	-0.160888671875	0	0	0	0.222176756889273	-0.590240875195558	0.394448297818752	0.668329064379544	-0.00794750080745771	0.264966916785751	0.964224750895748	-0.78951813052349	0.590096058092108	-0.168664648930499	-0.613675776616291	-0.762613385165254	0.204506395893094	-39.5137735671651	-74.6279322590462	91.7180324903826
5348	1651814235112	9.3761574759198	-1.64459600401969	1.93686161128431	0.0346059065453612	0.0356010276910117	-0.0984713465782416	-0.0116238678602483	-0.0108922447823349	0.00154184056366482	0.5751953125	-0.4755859375	-0.156494140625	0	0	0	0.222173095619402	-0.590331978005522	0.394366281320015	0.668298217478397	-0.00803321619617819	0.264796799686277	0.964270772300733	-0.789420331672723	0.59022870348143	-0.168658286272446	-0.613800462185615	-0.76256982136886	0.20429454265396	-39.5418648915587	-74.6378824811614	91.7376654827752
5349	1651814235113	9.39047626252473	-1.61506205092309	1.94556423988184	0.00475084532336207	0.0491454305401457	-0.0878607813730774	-0.00820344797876839	-0.0150286497989951	0.00141149959929755	0.572998046875	-0.475830078125	-0.154296875	0	0	0	0.222173187850637	-0.590402803863985	0.394322896114433	0.668261219426773	-0.00813203442105687	0.264678052709824	0.964302545070742	-0.789364744911486	0.590297056400424	-0.168679236113456	-0.613870645581786	-0.762558137861456	0.204127207579662	-39.5684111043085	-74.6447556980166	91.7598161976327
5350	1651814235114	9.40511672801246	-1.62737305837297	1.95966098465365	0.00532847963462865	0.0335211239494684	-0.0687824644368433	-0.00442800961987623	-0.0154468976448023	0.00139691627862754	0.57080078125	-0.4716796875	-0.1611328125	0	0	0	0.22221418030772	-0.590445688674273	0.394276944351576	0.668236812775917	-0.00816084024250407	0.264529927839089	0.964342946240591	-0.789351546739011	0.590333098445905	-0.168614852667222	-0.61388723422732	-0.762581635076996	0.203989493592264	-39.5766578722496	-74.6534997847192	91.7670342720497
5351	1651814235115	9.48234571388313	-1.65780020389987	1.94026203176019	0.0395792383458507	0.0494454628098662	0.00687407949668106	-0.00197230879504624	-0.0169916587078767	9.53166979868752E-05	0.572998046875	-0.475830078125	-0.15869140625	0	0	0	0.222242998626559	-0.590509019501048	0.394245346540543	0.668189908768842	-0.00826059076192331	0.264388533855049	0.964380871754641	-0.789334514694816	0.590357312585205	-0.168609808103425	-0.613907799715693	-0.762611924010602	0.203814294898773	-39.5999932816507	-74.661712488434	91.7895748351647
5352	1651814235116	9.35781011448267	-1.61679436324159	1.93297818047268	0.011678140552647	0.0439263315169967	-0.121610390216189	0.00286989547203783	-0.0062570761056836	0.000428509181908957	0.56884765625	-0.475830078125	-0.160888671875	0	0	0	0.222268713414696	-0.590581896484925	0.394163625718813	0.668165158281577	-0.00830388059106185	0.264197046139072	0.964432976612952	-0.789268559329932	0.59046331039435	-0.168547383045236	-0.613992008759383	-0.762596223364326	0.203619285162491	-39.6165114180028	-74.673002708117	91.8002500033566
5353	1651814235116	9.38645213331854	-1.59895036321804	1.9578789215264	-0.0183665574875548	0.0422268567919957	-0.0919211755452736	0.00422435039688992	-0.0120428097279569	0.000246711801283731	0.5751953125	-0.4755859375	-0.154296875	0	0	0	0.222308070452134	-0.590617027850811	0.394155804318237	0.668125624524885	-0.00837454333016319	0.264093322165084	0.964460773806701	-0.789289049515837	0.590440647468186	-0.168530822497657	-0.613964708544716	-0.762649696128674	0.203501296449047	-39.6300593737049	-74.6790291998045	91.8162718017064
5354	1651814235117	9.47333195437046	-1.62019005371231	1.89872929295408	0.0332291121723208	0.0961717794821372	-0.0165731455660865	0.0044189557908994	-0.0136396307960832	-0.000429308026929648	0.574951171875	-0.4736328125	-0.154296875	0	0	0	0.222360250481525	-0.590672564695639	0.394127427251303	0.668075902431705	-0.00846101519171105	0.263929874391427	0.964504760291856	-0.789298272144577	0.590438980188123	-0.168493466532072	-0.6139516665109	-0.762707566553613	0.203323680643338	-39.6483976343458	-74.6885702952289	91.8361486896067
5355	1651814235118	9.47322484419451	-1.5782353534791	1.89236747601918	0.0035796161383727	0.124946771302505	-0.025029525585559	0.00267444652443319	-0.00465914833696733	0.00110462680420998	0.572998046875	-0.477783203125	-0.156494140625	0	0	0	0.222377340728382	-0.590687093292255	0.394126055789187	0.668058177329325	-0.0084931800679878	0.263887418919221	0.964516094229891	-0.789309118954858	0.590425940957264	-0.168488346717022	-0.613937277437231	-0.762732350422401	0.203274152297041	-39.6544002641532	-74.6910296767927	91.8434204004929
5356	1651814235119	9.4207576078372	-1.59322711464883	1.8905369349734	0.0171949342588202	0.102994454605923	-0.0734742097779843	0.00311153406306727	-0.0108864568009835	0.0059184654402889	0.57080078125	-0.477783203125	-0.15869140625	0	0	0	0.222425116608386	-0.590697058234114	0.394132874461449	0.668029438096904	-0.00852747467536036	0.263813001208093	0.964536148917831	-0.789356449439906	0.590372689541003	-0.168453207662389	-0.613875946672686	-0.762799310328544	0.20320810579062	-39.6576767390854	-74.6953823424082	91.8513805162665
5357	1651814235120	9.45431740514894	-1.59216042295487	1.89823900488565	0.0107520489283797	0.106082291477831	-0.0397126531429457	0.00115902562645509	-0.00418809425445438	0.000494477904053877	0.572998046875	-0.475830078125	-0.160888671875	0	0	0	0.222438172597981	-0.590711964296373	0.394125561433497	0.668016224678056	-0.00855116587629592	0.263770759456149	0.964547491841684	-0.789358318935546	0.590372602392004	-0.168444752581205	-0.613873213204002	-0.762813985713962	0.203161269216784	-39.6627530102204	-74.6978447434904	91.8568175698982
5358	1651814235121	9.46840690063416	-1.56252249419533	1.90819244226087	-0.0199660303528623	0.118859760448747	-0.0290848620736046	-0.000365731434294245	0.00167817562070346	0.00443509543791466	0.56884765625	-0.475830078125	-0.154296875	0	0	0	0.222405662720499	-0.590770273168737	0.394091869870924	0.667995361983623	-0.00863583511644936	0.263721774299135	0.964560131931834	-0.789284390777787	0.59045463858299	-0.168503620882073	-0.613967077966221	-0.762767425586822	0.203052411059984	-39.6876805495012	-74.7005891982233	91.8755378189287
5359	1651814235121	9.468306664394	-1.56289169669027	1.90838744141043	-0.0199384334436154	0.118721558666038	-0.0290831277738555	-0.00642624860297304	0.00356182986141463	0.00199466745965815	0.5751953125	-0.479736328125	-0.15869140625	0	0	0	0.22237356791639	-0.590776264258706	0.394075665182246	0.668010308297583	-0.00862444860060543	0.263747161734886	0.964553292235907	-0.789239264628984	0.590508732806609	-0.168525427301142	-0.614025245453504	-0.762716769945387	0.203066803761324	-39.6893284212503	-74.6991040830302	91.8728864818464
5360	1651814235122	9.51597791685105	-1.57392584915409	1.93299419183198	-0.0268276437192835	0.106693795432542	0.0237470255207519	-0.00722927438785079	0.0114676118811235	0.00161614256847294	0.572998046875	-0.475830078125	-0.15869140625	0	0	0	0.222327649897963	-0.590757373957457	0.394085896835789	0.6680362618308	-0.00859593793995808	0.263843941501132	0.964527078097904	-0.789210735948545	0.590533444011961	-0.168572434777837	-0.614062312892176	-0.762664163335684	0.203152282411476	-39.6853314421052	-74.6934134637489	91.8660152563241
5361	1651814235122	9.45380172354481	-1.59337646432662	1.89978635486964	0.00975116668710772	0.104909370019846	-0.0396989419766118	-0.00778065118201868	0.00934802558258488	0.0021764510101879	0.5751953125	-0.4755859375	-0.163330078125	0	0	0	0.222279014150033	-0.590746815375323	0.394073035376607	0.668069369737508	-0.00855071417403716	0.263915009281396	0.96450803685771	-0.78915748821699	0.590596965315113	-0.168599179569861	-0.614131373631217	-0.76259038312621	0.203220479984807	-39.6803478978557	-74.6892812464029	91.855705424896
5362	1651814235123	9.40529945397504	-1.58766733412379	1.95011821007075	-0.0252271412234106	0.0568117264893211	-0.0772139712019371	-0.00972010747231519	0.0199267681181844	0.00438739677052588	0.572998046875	-0.4736328125	-0.15869140625	0	0	0	0.222187500879115	-0.590770349074376	0.393974480833987	0.668137124817371	-0.00845099378773903	0.263934378843037	0.964503615529118	-0.788981528660309	0.590833645809368	-0.168593447121922	-0.614358794302516	-0.762400319152839	0.203246218215266	-39.6758249470819	-74.6883219115361	91.833944124334
5363	1651814235124	9.40486692093191	-1.58815659754481	1.95180511235657	-0.0252049670806085	0.0566698508838507	-0.0772130868815299	-0.0102953876013327	0.019324814104376	0.00186482982554561	0.572998046875	-0.4736328125	-0.160888671875	0	0	0	0.222111769158008	-0.59073143211621	0.393963730000237	0.668203050393914	-0.00834209089153623	0.264078725292294	0.964465051916115	-0.788912339230595	0.590917882891601	-0.168621993490228	-0.614449127698353	-0.762285040209307	0.203405474222862	-39.6585404681249	-74.6799569086329	91.8093381389989
5364	1651814235125	9.4044608423777	-1.58883051664691	1.9532127841376	-0.0251348688639108	0.0551145154846669	-0.077203976342755	-0.00551027816820806	0.0132801841386737	0.00918537268957955	0.571044921875	-0.48193359375	-0.1630859375	0	0	0	0.222057613796041	-0.590751754508613	0.393902139702316	0.668239392013177	-0.00829306223413562	0.264080002790716	0.964465124950009	-0.788803702598745	0.591063040986291	-0.168621470597754	-0.614589248104205	-0.762172049937607	0.203405561400407	-39.658441105963	-74.6799727465225	91.7987024943969
5365	1651814235126	9.36083557004356	-1.60012574977899	1.98620002135701	-0.0361527843409943	0.0132702916638733	-0.110669420401239	-0.00570626556052446	0.0148786017479479	0.00986197893647994	0.57080078125	-0.4716796875	-0.15869140625	0	0	0	0.221982466632762	-0.590727756917542	0.393926199396954	0.668271390337395	-0.00827426672832016	0.264236808744667	0.964422337679164	-0.788761627100647	0.591091867872611	-0.16871721710723	-0.614643500025542	-0.762095343536032	0.203529003429607	-39.657342243422	-74.6706967761766	91.7935642701357
5366	1651814235126	9.39385458894687	-1.59996298293176	1.99576879833023	-0.0439164525615529	0.0154252443359005	-0.0769125157936568	-0.00548964475421229	0.0117646849747768	0.0122682997104914	0.568603515625	-0.4716796875	-0.154296875	0	0	0	0.221879903428284	-0.590792061523632	0.393906832662662	0.668260021007529	-0.00839570555534574	0.264294605426199	0.964405450871592	-0.78863414765444	0.59121343127265	-0.16888712158177	-0.614805410907861	-0.761980997286303	0.203468096990626	-39.6941072073449	-74.6670373460509	91.8194725723743
5367	1651814235127	9.35995355690247	-1.60268778386643	1.98828992479689	-0.0374206770124352	0.0120644222569765	-0.110672653383638	-0.00395365524718041	0.00977666293389016	0.0159617667134205	0.568603515625	-0.4736328125	-0.160888671875	0	0	0	0.221802458429579	-0.590788938357627	0.393950639064594	0.668262668214723	-0.00845735141026924	0.264448132530956	0.964362825086084	-0.788601888293847	0.591213126830386	-0.16903875426309	-0.614845944108361	-0.761927965010032	0.203544199497725	-39.7088478905973	-74.6578039788468	91.8317597224895
5368	1651814235128	9.35455493007231	-1.58766877245662	2.00632883342651	-0.0611699427104421	0.00647975939574251	-0.114751420644923	-0.0013023599701224	0.00663287332293715	0.0139836802690337	0.572998046875	-0.479736328125	-0.156494140625	0	0	0	0.221779218288753	-0.590802726463232	0.393990106790598	0.668234923129564	-0.00855213169050964	0.264500363774289	0.964347664800832	-0.788611431125807	0.591171548172726	-0.16913962081301	-0.614832393210747	-0.76194209635269	0.203532233477683	-39.7273032013136	-74.6545213470263	91.851908244352
5369	1651814235128	9.36371325387274	-1.53828541661664	1.96116622966319	-0.0732946291267047	0.0737389813685035	-0.123476295149581	-0.00505831796561878	0.0055377680275666	0.0170806829753132	0.56884765625	-0.475830078125	-0.160888671875	0	0	0	0.221703133803833	-0.590817310876462	0.394029535564805	0.668224027353739	-0.00864873945741942	0.264627907649144	0.964311811500323	-0.788572104956604	0.591176891128288	-0.169304219321914	-0.614881480116378	-0.761893663111283	0.203565251260531	-39.7501309337622	-74.6467608159434	91.8719112049404
5370	1651814235129	9.37297256627346	-1.57751853025445	1.99981609639964	-0.0682510831149129	0.0243407991016588	-0.100056774547133	-0.0089972068228472	0.00064420764501656	0.0163010542863875	0.574951171875	-0.471435546875	-0.163330078125	0	0	0	0.221610958232267	-0.59089230446601	0.394041644134371	0.66818115088807	-0.00884506557854001	0.264685978941494	0.964294092778077	-0.788478818160633	0.591239531758516	-0.169519820074179	-0.614998307417933	-0.761824880558356	0.20346973542845	-39.7992067635326	-74.642926970061	91.9139525698611
5371	1651814235130	9.38741160904357	-1.58678507338936	1.94241346787483	-0.027128605358083	0.0674386691895264	-0.0962544034825665	-0.00938820700302187	0.00384106985179143	0.0176546723476187	0.57080078125	-0.4736328125	-0.160888671875	0	0	0	0.221521895717592	-0.590921939091071	0.394068434173843	0.668168676911981	-0.00895733782275349	0.264804072212287	0.964260633562793	-0.788412664886565	0.59127623781092	-0.169699382575865	-0.615081487240182	-0.761755350450493	0.203478623237065	-39.8278091695618	-74.6356898590334	91.9373646284871
5372	1651814235131	9.37236388126002	-1.58103313760158	1.99989333139116	-0.0682584338651039	0.0218995054808701	-0.10005101489844	-0.0171251424810672	0.000888217193435065	0.013806271938375	0.568603515625	-0.4716796875	-0.16552734375	0	0	0	0.221436547763634	-0.591039789184222	0.393921334021293	0.66817947103939	-0.00900409959209034	0.264664676179156	0.964298467992933	-0.788175918210758	0.591583675834816	-0.169727653723238	-0.61538414680845	-0.761565075137213	0.203275645831188	-39.8606341043605	-74.6438735597924	91.9484957913979
5373	1651814235131	9.36285832080102	-1.58689503880497	1.96647635330144	-0.0444478425070075	0.0417530360816857	-0.115024657665296	-0.0178614848705244	-0.00502959972716427	0.0104880469491704	0.57275390625	-0.469482421875	-0.163330078125	0	0	0	0.221357969651228	-0.591108251356346	0.393888444198064	0.668164334559663	-0.00911414258865692	0.264671375688024	0.964295595394007	-0.788057465145338	0.59170508559823	-0.169854417975797	-0.615534210286949	-0.76146841994176	0.203183368900658	-39.8944815924659	-74.6432520587177	91.9722406233642
5374	1651814235132	9.36303884921888	-1.6299951320851	1.97112579135718	-0.0153552567523712	0.0099498828568397	-0.106587086186932	-0.0197551908743315	-0.00675614119936368	0.00667699315075389	0.57080078125	-0.477783203125	-0.160888671875	0	0	0	0.221294536248666	-0.591284544481305	0.393674596781842	0.668155391756048	-0.00919420138762059	0.264375530750364	0.964375987569842	-0.78776768699834	0.592098080150283	-0.169829134142625	-0.615903838258968	-0.761265684385427	0.202822631368048	-39.9403922037247	-74.6606545860117	91.9917755406745
5375	1651814235132	9.358142800381	-1.61448505941676	1.98726868245778	-0.0389533511893126	0.00499862983449409	-0.110672472623071	-0.0229495131628199	-0.0111244019058179	0.00466021376068855	0.571044921875	-0.47998046875	-0.156494140625	0	0	0	0.221228272932095	-0.591377668566403	0.393599332151844	0.668139259515612	-0.00929596229882415	0.264299412124438	0.964395876098408	-0.787617253194653	0.592275233970209	-0.169909121872967	-0.616094674181694	-0.761154299716037	0.202661008752897	-39.976158411099	-74.6649628379257	92.0143818506363
5376	1651814235133	9.38737870555576	-1.6349876927953	1.94386894251465	0.00127404867628148	0.0329096478701397	-0.0877912083632282	-0.0204741776797047	-0.0141889906092228	0.00643979153089817	0.56884765625	-0.475830078125	-0.15869140625	0	0	0	0.221151958600721	-0.591499240527155	0.393546049142694	0.668088292718141	-0.00949968868004927	0.264224585048585	0.964414394630693	-0.787469447262263	0.592426636822483	-0.170066309455074	-0.616280476360763	-0.761062447266389	0.202440919325728	-40.0329037678835	-74.6689753836634	92.0590730721319
5377	1651814235133	9.39212418178951	-1.65710321346634	1.99805197268239	-0.0165056870165126	-0.021017855756608	-0.0684847296002253	-0.0184077272562258	-0.0125406168345701	0.00649220373009889	0.572998046875	-0.4755859375	-0.16552734375	0	0	0	0.221098067460147	-0.591590263182732	0.393489049780547	0.668059108743812	-0.009625343579624	0.2641489599578	0.964433864873164	-0.787346815629567	0.592564024536381	-0.170155425253584	-0.616435190980329	-0.760981736823204	0.202273210145548	-40.0710777023773	-74.6731952490783	92.0868818357231
5378	1651814235134	9.37334604782785	-1.62481919735796	1.92511918212259	0.000761724423951376	0.0467114906343815	-0.106835798515368	-0.0151845880478516	-0.0150836660912241	0.007034975080146	0.572998046875	-0.4736328125	-0.15869140625	0	0	0	0.22104444929776	-0.591744917738786	0.393374186566014	0.668007524739425	-0.00981059665231251	0.263949974396059	0.96448647642652	-0.787157692261332	0.592792201556353	-0.170235640474564	-0.616673754676765	-0.760873062205708	0.201954607529934	-40.1288829533316	-74.6846036428616	92.1286122514909
5379	1651814235134	9.34965271736031	-1.66453177604456	1.95341076642316	0.0130537333404063	-0.0056483835645136	-0.117209912534129	-0.0127290713452666	-0.0166309516997999	0.00573149824249655	0.572998046875	-0.477783203125	-0.1630859375	0	0	0	0.221019745890119	-0.591837980180668	0.39332660996503	0.667961267616432	-0.0099560337818313	0.263838121983726	0.964515589702642	-0.787069641934337	0.592888899640168	-0.170305993519974	-0.616783800157469	-0.760836512052077	0.201756154284669	-40.1683126109229	-74.6909201898724	92.1610530830794
5380	1651814235135	9.407219536181	-1.62555597531069	1.92986248716788	-0.00560364397110546	0.0485934471985068	-0.0730678839364955	-0.00814433790216813	-0.0210875303306538	0.0137243144344881	0.57080078125	-0.475830078125	-0.15185546875	0	0	0	0.221000943123626	-0.591969610826117	0.393252326775893	0.667894580365937	-0.0101508253125552	0.263650510953632	0.964564859830257	-0.786953880126021	0.593022381247629	-0.17037618933992	-0.616928319418127	-0.760797518012041	0.201461125993688	-40.2212865789541	-74.7016158573734	92.204859485071
5381	1651814235135	9.42176232607247	-1.63899685157083	1.94340155109432	-0.00584625028864968	0.0331214732503156	-0.0540197308714134	-0.00665112399216384	-0.0200411542085066	0.0112527681393421	0.572998046875	-0.4736328125	-0.156494140625	0	0	0	0.220986961733411	-0.592068305785776	0.393237114420847	0.667820676431751	-0.0103606137481481	0.263544999432706	0.96459146324067	-0.786902503569694	0.593058669171603	-0.170487139679669	-0.616990362613963	-0.760805788749286	0.201239768055593	-40.2707419203867	-74.7073940198446	92.2512812531992
5382	1651814235135	9.40264004305197	-1.61171163288203	1.94320673621781	-0.0274871379335734	0.0440271474552295	-0.0771538793708402	-0.00759351535581246	-0.0189645632185397	0.0131672461283539	0.572998046875	-0.477783203125	-0.160888671875	0	0	0	0.221037276878431	-0.592072326727197	0.393292641748116	0.667767759105514	-0.010457484258736	0.263516182475942	0.964598290790671	-0.786996401735367	0.592926840353912	-0.170512244849196	-0.61686895259736	-0.760918513088775	0.201185764308024	-40.2824875344708	-74.7088772821671	92.272556732477
5383	1651814235136	9.40757176845029	-1.58774449780925	1.91835798531431	-0.0335316926253284	0.0775500813957192	-0.0814850976174757	-0.0126743858305337	-0.0211780423621128	0.0149791818984815	0.57080078125	-0.477783203125	-0.160888671875	0	0	0	0.220994616749995	-0.592190083284666	0.393271045343633	0.667690174797524	-0.0107024196927484	0.263424785019307	0.964620568332571	-0.786908067013876	0.592998528523698	-0.170670557616756	-0.616977432554227	-0.76089429476522	0.200944569253646	-40.3426249645935	-74.7137179804404	92.326532870676
5384	1651814235137	9.40773588908322	-1.58941965831956	1.91616469333927	-0.0338208508722338	0.076981878688083	-0.0814815867500353	-0.0179696329109327	-0.0202750751053628	0.0143885467207784	0.572998046875	-0.4755859375	-0.163330078125	0	0	0	0.220923690463253	-0.592338870495896	0.393204916047462	0.667620610442676	-0.0109508870084919	0.263300033611759	0.964651838941789	-0.786746790710913	0.59316523397641	-0.170834693513323	-0.617178714295792	-0.760807529866627	0.200654770983485	-40.4106128581325	-74.7205153122948	92.3816107864774
5385	1651814235137	9.40793112031141	-1.59085953328296	1.91401002419127	-0.033824504721393	0.0767879066841046	-0.0814800669041933	-0.0185672878933271	-0.0193549034479636	0.008784135689592	0.56884765625	-0.475830078125	-0.160888671875	0	0	0	0.220876056554511	-0.592455362108917	0.393147193850748	0.66756699702472	-0.0111361442486523	0.263185775040894	0.964680897554936	-0.786622591309664	0.593298103216422	-0.170945194612386	-0.617333690262036	-0.760743457767413	0.200420823098641	-40.4619001554111	-74.7268344668873	92.4229033192143
5386	1651814235137	9.38905175607224	-1.60546429452295	1.91899596126735	-0.0277781693764091	0.0573087868180382	-0.0961912111772083	-0.0229023013425085	-0.0210440350290963	0.00936119279638081	0.568603515625	-0.4736328125	-0.163330078125	0	0	0	0.220817658517621	-0.592619702953394	0.393028007299789	0.667510625260889	-0.0113382537012234	0.262978951400294	0.964734945528257	-0.7864225321906	0.593537094329505	-0.171036015265245	-0.617584848313113	-0.760628548488216	0.200082898716453	-40.5246746823097	-74.7385946602157	92.4687603298516
5387	1651814235138	9.40371759761253	-1.61867666628573	1.9321718036389	-0.0280099585873843	0.0418362497916496	-0.0771457081277518	-0.0270870943082503	-0.0212914617270456	0.00309773575402274	0.572998046875	-0.475830078125	-0.160888671875	0	0	0	0.220762227620049	-0.592753287284892	0.392923683349186	0.667471765944071	-0.0114909610474736	0.262815857352422	0.964777582108083	-0.786246001872899	0.593750035839086	-0.171108502068034	-0.617806751624719	-0.760518717761238	0.199815158538376	-40.5745659849254	-74.7478781165684	92.5035190935882
5388	1651814235138	9.38976174441839	-1.6072196806524	1.91404631546082	-0.0276931676581106	0.056037522787392	-0.0961835536747273	-0.0244424460157423	-0.0244340846783892	0.0011123127414097	0.568603515625	-0.4716796875	-0.1611328125	0	0	0	0.220743516437426	-0.592910596209758	0.392770750829807	0.667428244941446	-0.0116236756104407	0.262530245900638	0.96485375065481	-0.78605492566205	0.59400687448686	-0.17109496458044	-0.618047363887051	-0.760416795612579	0.199458649706059	-40.622882515908	-74.7644763853723	92.5351474439013
5389	1651814235139	9.38063211862187	-1.57006112213203	1.87290057503819	-0.0335062135565493	0.104831357351336	-0.119545745558682	-0.0308716669015293	-0.0262446829203066	-0.00144081783561768	0.564697265625	-0.482177734375	-0.16552734375	0	0	0	0.220698673777182	-0.59306320872693	0.392634299139956	0.667387768082685	-0.0117713248132118	0.262302129887301	0.964914000607685	-0.785855184415595	0.594260805063738	-0.171130723986459	-0.618298524209199	-0.760297105230306	0.199136251695022	-40.6746098407828	-74.7776182699895	92.5695369371139
5390	1651814235139	9.41462816750546	-1.56935479560454	1.8782578753757	-0.041394879401223	0.107539921621921	-0.0857828445871611	-0.0331389456513165	-0.0262868539522359	-0.000811088826786289	0.57080078125	-0.4736328125	-0.156494140625	0	0	0	0.220623869930774	-0.593274854841422	0.392500334894246	0.66730318576908	-0.0120631325584118	0.262052258965256	0.964978287011726	-0.785614636596188	0.594537190249347	-0.171275135896169	-0.618598515677752	-0.760167180942204	0.198700109259316	-40.7606173034773	-74.7916528229906	92.6356536544649
5391	1651814235140	9.4104025563064	-1.59557859481448	1.8978644763864	-0.035379732385118	0.0736170636773745	-0.0814610928019483	-0.0367093786921669	-0.0289686742127773	0.00161231352585928	0.57080078125	-0.475830078125	-0.160888671875	0	0	0	0.220555590718255	-0.593451706267624	0.392353842153161	0.6672546487501	-0.0122529302486042	0.261821666986095	0.965038486484838	-0.785378033540545	0.594827387901148	-0.171352627743742	-0.618895152778167	-0.760019600602064	0.198340607461934	-40.8247565210209	-74.8048066212057	92.6794166857116
5392	1651814235141	9.44911307358691	-1.56971140392196	1.8802782457107	-0.0467393403323507	0.110448766495425	-0.0520114767491631	-0.03483437383659	-0.0257249197457769	0.00234411347349625	0.56884765625	-0.477783203125	-0.160888671875	0	0	0	0.220541590748246	-0.593556387877389	0.392252776336085	0.667225584504082	-0.0123428522668395	0.261634435965861	0.965088118212397	-0.785249915890911	0.594998332413734	-0.17134629852493	-0.619055913138092	-0.759950265702765	0.198104442320359	-40.8574819476937	-74.8156596974334	92.7009801015043
5393	1651814235141	9.46886411942102	-1.59929675439389	1.87517131786178	-0.0233777051302566	0.0997176746980926	-0.0288785929242383	-0.0366976165520215	-0.0304775295121829	0.0046942779421425	0.568603515625	-0.4736328125	-0.163330078125	0	0	0	0.220467292956897	-0.593741185684741	0.392115025338374	0.6671666838668	-0.0125655773488709	0.261411138448833	0.965145752185013	-0.785013186148564	0.595279959280288	-0.171452814652131	-0.619351599528708	-0.759806545624703	0.197731154315873	-40.9285803294686	-74.8282721547152	92.7519899199517
