// Start Time : 01/07/2022 06:20:40																																
// Update Rate : 100Hz																																
// Filter Profile : 46.1 human																																
// Firmware Version : 4.4.0																																
PacketCounter	Time_Of_Arrival	Acc_X	Acc_Y	Acc_Z	FreeAcc_X	FreeAcc_Y	FreeAcc_Z	Gyr_X	Gyr_Y	Gyr_Z	Mag_X	Mag_Y	Mag_Z	VelInc_X	VelInc_Y	VelInc_Z	OriInc_q0	OriInc_q1	OriInc_q2	OriInc_q3	Mat[1][1]	Mat[2][1]	Mat[3][1]	Mat[1][2]	Mat[2][2]	Mat[3][2]	Mat[1][3]	Mat[2][3]	Mat[3][3]	Euler_X	Euler_Y	Euler_Z
17367	1656656469614	6.56561697396265	0.686229179124203	7.61272284105455	-1.73472347597681E-15	-6.93889390390723E-16	0.263608783181477	-0.158120567953445	0.0663174288612674	0.141630659047684	0.277099609375	-0.329833984375	0.6083984375	0	0	0	-0.311976034742484	0.158278809124299	-0.786054453949749	-0.509644157971336	-0.285867571984088	0.702457730096954	0.651792044071541	-0.899974511114399	-0.430421301655763	0.0691620013111051	0.329128562468105	-0.566825052823174	0.7552375446571	5.23235217427452	-40.6768509730361	112.144033286049
17368	1656656469615	6.59138210398275	0.586854509641743	7.63837994270073	0.204278117125955	0.0836142923160378	0.29111480144142	-0.120677862537611	0.0463969721263039	0.114824209470627	0.273193359375	-0.326904296875	0.613037109375	0	0	0	-0.314325961787128	0.15536210618223	-0.783546411618845	-0.512949146162123	-0.276164726396292	0.706170238734556	0.651963678298141	-0.90150761253857	-0.425491578828342	0.0789996258293268	0.333192239449645	-0.565933309031855	0.754123611418437	5.98031393792014	-40.6898189355032	111.359169349113
17369	1656656469615	6.55790169587782	0.696252312414746	7.67489349063791	0.112305491911026	-0.00919269432207359	0.305717760973348	-0.0778194351209319	0.0448585249248544	0.0847476760136926	0.276123046875	-0.333251953125	0.61572265625	0	0	0	-0.313884738263143	0.155685093504467	-0.783773668516224	-0.512774179621598	-0.277078023597751	0.706063450112589	0.651691777801647	-0.90153214941708	-0.425649584747804	0.0778602245786705	0.332366593397387	-0.565947732055822	0.754477045491967	5.89193047359731	-40.6692764412677	111.426359195084
17370	1656656469616	6.55665558615683	0.752155276943034	7.64667224326154	0.0419449667974867	-0.0192160457609339	0.288051718227415	-0.0677945284553976	0.0232936126970851	0.0641137812190878	0.28759765625	-0.332275390625	0.607177734375	0	0	0	-0.313567410360972	0.155986655554482	-0.783924509987744	-0.512646081706391	-0.277738948141195	0.705926993531465	0.651558252567682	-0.901576320063816	-0.425724316400023	0.076934683504397	0.331694461493723	-0.566061733585093	0.754687284896883	5.82076503182208	-40.6591907243484	111.476592791738
17371	1656656469617	6.57470174064591	0.776115343537982	7.60136641866095	-0.00754073051012511	0.00731939641793171	0.267477103616379	-0.0420473223284413	0.0144583856941461	0.0451234482634174	0.27734375	-0.334716796875	0.612060546875	0	0	0	-0.313367752962133	0.156185143388132	-0.784030006747636	-0.512546389029904	-0.27819370099174	0.705816722839969	0.651483705466195	-0.901590272558399	-0.42580480015447	0.0763233423893567	0.331275180411376	-0.566138698487268	0.754813704776584	5.77386504781247	-40.6535605346398	111.511601093379
17372	1656656469618	6.5083112698226	0.766751502546491	7.64789867656313	0.030304466539099	-0.0637056074134234	0.258628332021772	-0.0215607372897844	-0.00806943120169479	0.0273315715495141	0.275390625	-0.342529296875	0.6123046875	0	0	0	-0.313322099674795	0.156333570861759	-0.784070827390533	-0.512466598045291	-0.278414495486527	0.705654693734637	0.651564902303107	-0.901585744422895	-0.425875601018994	0.0759810365165079	0.331101969423915	-0.566287405534491	0.754778152953978	5.7484123215231	-40.6596929704725	111.531603375024
17373	1656656469618	6.56438799813581	0.748729892204471	7.59487135348939	0.0122687909873422	0.0112048960513257	0.253770829032975	0.00270448167703612	-0.0237141216111223	0.0121724293705419	0.279541015625	-0.3388671875	0.614501953125	0	0	0	-0.313412479609744	0.156402799867708	-0.784066973382606	-0.512396099779315	-0.278445709111637	0.705468539605149	0.651753117909456	-0.901542896902928	-0.425976802248975	0.0759221245067143	0.331192379322341	-0.566443204190072	0.754621563636827	5.74516904118159	-40.6739102263862	111.53895819401
17374	1656656469620	6.54866738499591	0.871661961849748	7.60505345957083	-0.0892766616768114	-0.0605132767863852	0.260546673045527	0.0171906969409536	-0.0331578382708572	0.00048496218731858	0.2822265625	-0.338134765625	0.610595703125	0	0	0	-0.313584193283947	0.156421088884824	-0.784030402262343	-0.512341414491245	-0.278342457439132	0.70528012865737	0.652001086278074	-0.901484852539547	-0.426077435898391	0.0760465598170216	0.331437078536027	-0.566602116779752	0.754394793349084	5.75624033858515	-40.6926456605588	111.536927771599
17375	1656656469620	6.55716386085137	0.839709410404258	7.60744052564204	-0.0588689158090236	-0.0449164328461646	0.265466055886121	0.0245601330467482	-0.039697452912518	-0.00484689995277715	0.271728515625	-0.33056640625	0.6123046875	0	0	0	-0.313806511337074	0.156418898819451	-0.783974930489141	-0.51229084502762	-0.278167127086685	0.705075821350065	0.652296815534057	-0.90141689713294	-0.426182436385996	0.0762634150777429	0.331768936116031	-0.566777396394412	0.754117203069131	5.77465471808635	-40.7149965944343	111.530269076922
17376	1656656469621	6.54379677987242	0.921839612870149	7.5625338343306	-0.139749101056626	-0.066670261157998	0.229175271796731	0.0319348792021358	-0.0462376646372785	-0.0101756127294418	0.27783203125	-0.33984375	0.609619140625	0	0	0	-0.314077471627276	0.156391419041715	-0.78390106361201	-0.512246218467541	-0.277918306963844	0.704862668022223	0.652633154140168	-0.901338753929518	-0.426291071431645	0.0765791948406524	0.332189502120602	-0.566960793747022	0.753794131732673	5.80087113843257	-40.7404258676102	111.518681526437
17377	1656656469621	6.61075568497237	1.0157719759973	7.62094265635896	-0.218761728173559	-0.0954469653153005	0.324160323781488	0.0335957606538356	-0.0431952134322428	-0.0106931910162453	0.281005859375	-0.33154296875	0.603515625	0	0	0	-0.314341171401188	0.156353574650745	-0.783832082646815	-0.512201575426725	-0.27767834818502	0.704663323586463	0.652950484601488	-0.901256786820376	-0.42640621164863	0.0769021903308056	0.332612295562642	-0.567121982521877	0.753486375312126	5.82753301154701	-40.7644269238111	111.50732581094
17378	1656656469622	6.62113888473341	0.941766119235607	7.5687748183325	-0.167449458659411	-0.029739970470135	0.286016995574405	0.0256733728237683	-0.0457791180028406	-0.00605074937519688	0.282470703125	-0.333984375	0.6142578125	0	0	0	-0.314598538540371	0.156344230383608	-0.783761161927365	-0.512154939669907	-0.277450154639953	0.704442968429247	0.653285171973815	-0.901185633980856	-0.426507598794942	0.0771733197205767	0.332995292454395	-0.567319462384963	0.753168482348039	5.85038779242642	-40.7897501524463	111.497372959146
17379	1656656469622	6.60679963883904	0.956962953029157	7.55485529967836	-0.17803127655333	-0.0414526498835278	0.267392156246526	0.0232146118316594	-0.038305662046667	-0.00162380275200699	0.281005859375	-0.3369140625	0.615478515625	0	0	0	-0.314809359877568	0.156348790734592	-0.783714876859177	-0.512094829459263	-0.277307905149128	0.704232546962198	0.653572372075914	-0.901112797877353	-0.426627882553838	0.0773587443620828	0.333310742766344	-0.567490237472649	0.752900245138614	5.86642142516619	-40.8114880847968	111.493190973416
17380	1656656469623	6.60308823274073	0.926118904447828	7.57812132416104	-0.137445940080368	-0.046652385128962	0.280147909138302	0.0208033213812327	-0.0386439411488214	-0.00347936654651008	0.2841796875	-0.330810546875	0.60205078125	0	0	0	-0.315034714347745	0.156334101945353	-0.783653504826326	-0.512054647179567	-0.277106334115288	0.70404549955142	0.653859322908665	-0.901048176148082	-0.426719373741498	0.077606445182596	0.333652909253616	-0.567653512836004	0.75262555464955	5.88720676261052	-40.8332142650193	111.484177902972
17381	1656656469623	6.64276077655026	0.924784104273603	7.51253565397563	-0.1660650792004	0.0165446629712334	0.25666395458526	0.0207887865373586	-0.0307034471691767	0.000485547987911574	0.28076171875	-0.334228515625	0.612060546875	0	0	0	-0.315207858858615	0.156332016927728	-0.783622621144744	-0.511995990050036	-0.277008223772901	0.70386911882354	0.654090748695283	-0.900977440130891	-0.426840813311983	0.0777597097882367	0.333925285561559	-0.567780929283239	0.752408612394152	5.90044026946657	-40.850741612439	111.482155847353
17382	1656656469623	6.62016051652069	0.840390955498117	7.55651286805107	-0.0654036088401367	0.0097850159915978	0.268448217357054	0.0165099706019735	-0.030323932045781	-0.00418094262515371	0.279296875	-0.348388671875	0.6142578125	0	0	0	-0.315401287248207	0.156303086501782	-0.783564578395961	-0.511974535143449	-0.276808206733646	0.70373383219123	0.654320953442841	-0.900926610925349	-0.426902841029331	0.0780077306915803	0.334228153229897	-0.567901978998605	0.752182746304381	5.92089156852861	-40.8681810838449	111.471807783001
17383	1656656469624	6.62881627112215	0.875110786728172	7.5284063142062	-0.105352741855747	0.0152532143878681	0.255708370468442	0.0274276371190369	-0.026346996077461	-0.00790905269151369	0.28076171875	-0.33935546875	0.610595703125	0	0	0	-0.315580896965158	0.156250598705977	-0.783524202942877	-0.511941667846464	-0.276648852386494	0.703617966323346	0.65451292572434	-0.900856782687246	-0.427002958253208	0.0782657698447555	0.334548157310153	-0.567970273086548	0.75198889574938	5.94185763232509	-40.8827277159462	111.463783664093
17384	1656656469624	6.6240570773557	0.845114596498869	7.55257030594922	-0.0642892501100074	0.010040545843495	0.268455134152186	0.0218396192148737	-0.0241948297211464	-0.0163341742114971	0.273193359375	-0.33349609375	0.60546875	0	0	0	-0.315781153572811	0.156162970836047	-0.783445791698772	-0.511964921705941	-0.27634836398171	0.703566880663893	0.654694758003692	-0.900820172967749	-0.427010090964581	0.0786473024888736	0.334894905453917	-0.568028191771589	0.75179077917577	5.97217650946447	-40.8965089418939	111.444003496855
17385	1656656469625	6.64451325978502	0.87988164969239	7.50371919353165	-0.113781113528857	0.0365736794577093	0.247892376790384	0.0321742507905351	-0.0214006517106343	-0.0167963029361594	0.282470703125	-0.33203125	0.611328125	0	0	0	-0.315960453006135	0.15606519525911	-0.783394111214108	-0.511963195434937	-0.276125357312413	0.703517045339056	0.654842388645159	-0.900758764509293	-0.427074682697569	0.0789991364412491	0.335243844401034	-0.568041356167116	0.751625293929788	6.00001015711728	-40.9077001081527	111.429648593995
17386	1656656469625	6.60884884077502	0.886311052224492	7.56530393846543	-0.0838547545043536	-0.0264355384687844	0.271385345365495	0.0251653001859886	-0.0179841321213299	-0.0197096095934034	0.279296875	-0.332275390625	0.6103515625	0	0	0	-0.316156545764568	0.155941198522609	-0.783315910786165	-0.511999575275986	-0.275802946974854	0.703511165924288	0.654984560016368	-0.900718488593466	-0.427077555041085	0.079441590404716	0.335617250369953	-0.56804647820401	0.751454762347098	6.03472657698855	-40.9184792240022	111.407055103327
17387	1656656469626	6.64614428481909	0.90833741076087	7.52783853083466	-0.122760001027937	0.0118117844087195	0.269447968729603	0.0309063962406445	-0.0114321784818131	-0.0212324337714606	0.27392578125	-0.33251953125	0.61328125	0	0	0	-0.316296992256904	0.155815846607747	-0.783267566548357	-0.512024954302583	-0.275573317721348	0.703536912681249	0.655053554341159	-0.900673247193223	-0.427103736234698	0.0798129080085268	0.335927147385359	-0.567994904017015	0.751355269270295	6.06352070581556	-40.923710853139	111.39013102004
17388	1656656469627	6.63499216010728	0.89111554721339	7.52108485733915	-0.101394499316918	0.0158948179715416	0.255748017771003	0.0214155241735265	-0.00861010572337989	-0.0213712249395626	0.279052734375	-0.33642578125	0.615478515625	0	0	0	-0.316457213889648	0.155673072449531	-0.783193303139156	-0.512082977855448	-0.275251711135797	0.703592184245847	0.655129402320621	-0.900647651385926	-0.427073836609641	0.0802604892617605	0.336259280273171	-0.567948920548037	0.751241452582649	6.09818557865283	-40.9294626519322	111.365892722206
17389	1656656469628	6.64120373670108	0.948598022438474	7.52121260281036	-0.151623609550531	-0.00358530548393921	0.264567260653997	0.0255126937832619	-0.00510034601885015	-0.0223618424209764	0.2841796875	-0.3310546875	0.613525390625	0	0	0	-0.316559911356331	0.155550830249087	-0.783147826009507	-0.512126199630007	-0.275033156349195	0.703658725695393	0.655149723850461	-0.900623353835611	-0.427061389722692	0.0805986596291674	0.336503101671432	-0.567875837803352	0.751187523461783	6.12412120753333	-40.9310037846298	111.348618520871
17390	1656656469629	6.6650678860252	0.883682594985936	7.50994312397376	-0.0984596966834172	0.0488525465338404	0.266558080787689	0.0225896623062262	0.00182196485359782	-0.0262719055073083	0.282958984375	-0.334716796875	0.61376953125	0	0	0	-0.316699764656045	0.155361407991697	-0.783072554081744	-0.512212326108555	-0.274679584098538	0.703792986180752	0.655153843522447	-0.90060467157116	-0.427002731778601	0.0811165371414218	0.336841730822738	-0.567753555388597	0.751128183947287	6.1636523146114	-40.9313162143684	111.319937281512
17391	1656656469629	6.6580454596163	0.854856965041536	7.53609081255836	-0.0585028725164684	0.0433853518085568	0.279275190739559	0.0267448372881048	0.00558207698709483	-0.0318960032497173	0.280517578125	-0.337890625	0.61328125	0	0	0	-0.316771185833082	0.155191879770013	-0.783020458466461	-0.512299187879823	-0.274411115847154	0.703960858358485	0.655085986263411	-0.900602121504133	-0.426930045102248	0.081526408796458	0.337067290376528	-0.567600076187608	0.751142992558705	6.19443377251159	-40.9261702099423	111.296343448624
17392	1656656469630	6.66369109779644	0.803894956087579	7.51453276604395	-0.0157938264784958	0.0839557579717481	0.262625487522076	0.0260290891111427	0.00853129692466231	-0.0389186233061756	0.271484375	-0.329345703125	0.607421875	0	0	0	-0.316912563317501	0.154954317005467	-0.782922243947977	-0.512433748678172	-0.273956160854334	0.704177621180946	0.655043433489642	-0.900605500378207	-0.42680162571401	0.0821590224892981	0.337428147341732	-0.567427748806685	0.7511111737058	6.24238455477236	-40.9229433939305	111.258230648789
17393	1656656469630	6.66694438054861	0.90632009999823	7.56963035915929	-0.0865531644876835	0.0145810723392108	0.314561068178268	0.0304365553732501	0.0167304628248681	-0.041884201898576	0.28076171875	-0.32763671875	0.60693359375	0	0	0	-0.316957499975034	0.154725950847469	-0.782864981940686	-0.512562428778128	-0.273635399629287	0.704451251973979	0.654883273310607	-0.900617454221473	-0.426679273478828	0.0826619545813754	0.337656436665072	-0.567180069445211	0.751195646687847	6.27959197171952	-40.9107997121613	111.228045142993
17394	1656656469631	6.66054882596057	0.902021357963992	7.51177206437118	-0.0945913512154586	0.0487344875123294	0.26659569807587	0.0351312572865443	0.0214224191564069	-0.0461352969639475	0.274169921875	-0.329833984375	0.612060546875	0	0	0	-0.317074664392841	0.154418739819571	-0.782778409933721	-0.51271480467638	-0.273174372531657	0.704759618899599	0.65474395129732	-0.900608699316622	-0.426556763716394	0.0833864380041434	0.338052855197465	-0.566889060483873	0.751237019985406	6.33383747051905	-40.9002378376515	111.187005479919
17395	1656656469631	6.72716194777638	0.898902153175971	7.6105162147832	-0.0727060513393409	0.0456996280285104	0.384141182831234	0.0267553692718014	0.0263452235710721	-0.0481774267625289	0.276123046875	-0.33056640625	0.612060546875	0	0	0	-0.317077325701966	0.154170093194972	-0.782717291774797	-0.512881266032081	-0.272829552958039	0.705114389394349	0.654505716477519	-0.900649752808288	-0.426368778635168	0.0839028448357078	0.338221906149034	-0.566589236108655	0.751387103779886	6.37147835628221	-40.882181380032	111.152923845935
17396	1656656469632	6.6320800091472	0.871893690625772	7.50337863262415	-0.0528245962572113	0.0562162615209893	0.239149256150815	0.0315390968820422	0.039478897327493	-0.0577471075009848	0.28662109375	-0.333984375	0.6142578125	0	0	0	-0.317139469805966	0.153808904047293	-0.782621974189428	-0.513096699699777	-0.272308666896774	0.705563755576249	0.654238318008079	-0.90067925270023	-0.426149195585934	0.084697974337147	0.338562953803655	-0.566194886870767	0.751530755453922	6.4301369115142	-40.8619203966328	111.103835944898
17397	1656656469632	6.64369414437474	1.01830661937925	7.59280856499011	-0.153628894366034	-0.0419910308654597	0.326395032678343	0.0375245625557492	0.0422848906707727	-0.0559114467485153	0.276123046875	-0.333740234375	0.60986328125	0	0	0	-0.317113203678549	0.153464868321807	-0.782574418800457	-0.513288446473155	-0.271948373539805	0.706041343260167	0.653872849823598	-0.900704287442707	-0.42596700981629	0.0853457270781208	0.338785874427166	-0.565736447611029	0.751775500487395	6.47680539725992	-40.8342386168406	111.065359686056
17398	1656656469633	6.57726162640339	0.911580714227335	7.5074730222939	-0.0619757045470651	0.011435821111646	0.209763646383251	0.0372321092881031	0.045670231339589	-0.0522935769198675	0.269287109375	-0.33447265625	0.615478515625	0	0	0	-0.317174809261577	0.153067739578127	-0.78249635976799	-0.513487930160164	-0.271460571899426	0.70650641006067	0.653573140855116	-0.900703334479843	-0.425800825360547	0.0861809745777458	0.339179393774046	-0.565280770648942	0.75194081494065	6.53821978199533	-40.811546282599	111.01824582912
17399	1656656469633	6.54200108867187	0.97533091048833	7.57372402700458	-0.0835420533462246	-0.0712412323873632	0.242076910670105	0.035162004028088	0.0419340921258244	-0.0577373556437034	0.279296875	-0.32666015625	0.6181640625	0	0	0	-0.317145156503457	0.152730970773078	-0.782441477341199	-0.513690115545582	-0.271082829794329	0.706989130548607	0.653207829619964	-0.900740681063618	-0.42559143151496	0.0868225713630808	0.33938226952472	-0.56483475699285	0.752184400546222	6.58435491972716	-40.7838973914975	110.978462686251
17400	1656656469634	6.55084489683412	0.980577100221802	7.55495142048853	-0.0905169194687844	-0.0503524683678776	0.234285225520843	0.0348477752677152	0.0371264816344411	-0.0534278114567608	0.277587890625	-0.32275390625	0.610595703125	0	0	0	-0.31723629358374	0.152352392889738	-0.782352638371454	-0.513881534643196	-0.270573804772009	0.707409731999045	0.652963465474324	-0.900736565754862	-0.425429033467049	0.0876571537036822	0.339799139615357	-0.564430339861645	0.752299764828044	6.64607313685382	-40.7654089070908	110.931116459808
17401	1656656469635	6.49999638406233	1.01356717917173	7.55605548845674	-0.102196865986341	-0.0948432318956812	0.204887301238415	0.0348720787000808	0.0371261365108167	-0.053413067558722	0.27587890625	-0.333251953125	0.60888671875	0	0	0	-0.317221205396043	0.152035800349334	-0.782300886874408	-0.514063366380773	-0.270219124384696	0.707846495158309	0.652636931309335	-0.900762414558981	-0.425247941514808	0.0882681185666244	0.340012789957439	-0.564019084366403	0.752511644518437	6.69011002154112	-40.7407115000882	110.894265855953
17402	1656656469636	6.50964994626697	1.08426595952814	7.50557763941304	-0.179773524521389	-0.0837997341483775	0.179585990679827	0.028226576856369	0.0327711866391178	-0.0450220450816455	0.2763671875	-0.322509765625	0.613037109375	0	0	0	-0.31728936637115	0.151705159627445	-0.782221076849894	-0.514240400456827	-0.269768537051592	0.708230491663267	0.652406703748092	-0.900768227556973	-0.425084710160827	0.0889920749918555	0.340355015595354	-0.563659968301717	0.752626005060411	6.74346206450479	-40.72330375256	110.8520874332
17403	1656656469637	6.47515663768132	1.14612010827814	7.57096702120156	-0.201323753197109	-0.166475278835786	0.211909341605205	0.0207190770800463	0.0308691163881676	-0.0344052737297732	0.27685546875	-0.32568359375	0.61181640625	0	0	0	-0.317247880068898	0.151490133982323	-0.782197352228217	-0.514365457690322	-0.269563917053631	0.708550750451559	0.652143487782586	-0.900790445880541	-0.424957830482087	0.0893723386865041	0.340458319377042	-0.563353065445189	0.752809043795616	6.7703786047574	-40.7034072935744	110.829019632441
17404	1656656469638	6.49679685721447	1.16855599618692	7.55733116762396	-0.227715008148584	-0.148778950058279	0.21792363075641	0.00258359943975244	0.0215713340368668	-0.0236909700468517	0.278564453125	-0.331298828125	0.616943359375	0	0	0	-0.317291212618064	0.151288866746567	-0.782132718000504	-0.514496235775387	-0.269239819536633	0.708803422604801	0.652002781956949	-0.900813934547324	-0.424810604342995	0.0898343239697868	0.340652572133619	-0.56314621417662	0.752875930387797	6.80444991114257	-40.6927737969686	110.799340007052
17405	1656656469638	6.53103381016447	1.12215332293545	7.55393952510254	-0.196227959235714	-0.100397811872842	0.233558082792989	-0.00494092186440593	0.019668509068368	-0.0130849208078311	0.2763671875	-0.328369140625	0.61669921875	0	0	0	-0.317211438770608	0.151236666467081	-0.782126587343945	-0.514570087741913	-0.26918905582872	0.708969892219927	0.651842729611758	-0.900865894479501	-0.424690191034409	0.0898826001115161	0.340555270676717	-0.563027471412206	0.753008747658011	6.80688269346495	-40.6806802974055	110.791288485012
17406	1656656469638	6.54225600341837	1.03308730856049	7.53908729293921	-0.121269903436896	-0.0433534573003398	0.221735080946663	-0.0140561524763504	0.023031344789534	-0.00495650668812455	0.276611328125	-0.32421875	0.616455078125	0	0	0	-0.317217703011167	0.151088731140298	-0.782086873626828	-0.514670036352756	-0.268975365153943	0.709177318874672	0.651705288711113	-0.90088939984746	-0.424573898006135	0.0901958667254708	0.340661917717238	-0.562853920236511	0.753090248437467	6.82965066644426	-40.6702970614994	110.770635246867
17407	1656656469639	6.56403039135733	0.986036409433268	7.55699684599433	-0.0802163860689174	-0.0160340010523816	0.245158919465339	-0.0139727596260595	0.0232719433123189	-0.00958035149160321	0.27880859375	-0.331298828125	0.614501953125	0	0	0	-0.31709789428975	0.151068105998525	-0.782088664805693	-0.514747193454684	-0.268968504535065	0.709349133869956	0.651521104682046	-0.900962647095849	-0.424427508361089	0.0901531956418554	0.340473570349024	-0.562747808902301	0.753254705574049	6.82497375027751	-40.6563850609931	110.765548989109
17408	1656656469639	6.49018311243096	1.08031142148865	7.5681305303706	-0.139388969958339	-0.111857888818449	0.213987425175976	-0.0189231615333761	0.0222023297769627	-0.0063658089259455	0.2744140625	-0.3291015625	0.613037109375	0	0	0	-0.317092225328118	0.150939562153904	-0.782041402297791	-0.514860189085691	-0.268743012662216	0.709560445212893	0.651384040128799	-0.901007491826626	-0.424272468542868	0.0904343524819676	0.340532954084517	-0.562598299878183	0.753339538426499	6.84529318515959	-40.6460340255576	110.743970003489
17409	1656656469640	6.47030970718922	1.1136007427589	7.5853037359066	-0.160245997370369	-0.148516502480804	0.216974184019907	-0.0209539083452379	0.014227860823193	0.000767882539610031	0.274169921875	-0.3310546875	0.62353515625	0	0	0	-0.316982021373261	0.150985848979419	-0.782050207676424	-0.514901101384866	-0.268798507837548	0.709637427325199	0.651277271155367	-0.901076625758216	-0.424160258401233	0.0902717547474745	0.340306151423239	-0.562585812949698	0.753451343068171	6.83209768569887	-40.6379720069457	110.745829758341
17410	1656656469641	6.47599768701933	1.14382891893842	7.56007606697216	-0.196128350755712	-0.141762548883685	0.204451799966812	-0.03172952811303	0.00634535315291713	0.0101159423903269	0.27294921875	-0.3408203125	0.61279296875	0	0	0	-0.316997263303963	0.150947422515976	-0.78201724293424	-0.514953048779315	-0.268672185221372	0.70970448721326	0.651256322593291	-0.901104166574665	-0.424076466377343	0.0903904400182036	0.340332980873366	-0.562564388754096	0.753455221387163	6.84096027201234	-40.636390316188	110.735116978511
17411	1656656469641	6.50503121132088	1.14796849036251	7.57754983628712	-0.205259823059469	-0.133913575404546	0.236813034574911	-0.03952409195508	-0.00012844697184093	0.020381419638124	0.2724609375	-0.337646484375	0.614501953125	0	0	0	-0.316880399031975	0.151134256630124	-0.782039881085289	-0.514935795584559	-0.268855878270068	0.709617689594305	0.651275096510277	-0.901183623787724	-0.423999125797114	0.0899600885954925	0.339977341798621	-0.562732152927237	0.753490498364393	6.80838097204551	-40.6378078117831	110.750408498677
17412	1656656469642	6.51865114299323	1.12037505437939	7.53022266436925	-0.200622951418924	-0.0863472244515906	0.20752214063509	-0.0483355468253479	-0.000278907363996258	0.027231049477604	0.27490234375	-0.336181640625	0.613037109375	0	0	0	-0.316851082702341	0.15120561127412	-0.782019003406309	-0.514964593754733	-0.268833717138754	0.709604873509474	0.651298208212616	-0.901243520080971	-0.423896660596485	0.089842855293058	0.339836063479762	-0.562825501045175	0.753484509019148	6.79964516077165	-40.6395528664928	110.749186589753
17413	1656656469642	6.48380100113761	1.13999342553443	7.50889384061242	-0.221946528350405	-0.109790299300582	0.170369728149254	-0.0569880743757695	0.00376738162067791	0.0413661913433995	0.27197265625	-0.336669921875	0.6181640625	0	0	0	-0.316657635318048	0.151484371076716	-0.782088714924302	-0.514895784894698	-0.269220545384909	0.70945099999088	0.651306054443372	-0.901325730922058	-0.423869632034329	0.0891429291469615	0.339311397864071	-0.563039797572981	0.753560854628547	6.74648510978547	-40.6401453084278	110.780616536778
17414	1656656469643	6.5479640230969	1.04784257692144	7.57985695765361	-0.134744267902737	-0.0665679560964761	0.257339679323032	-0.0704761897134717	-0.00108508286269888	0.0524678048521891	0.273681640625	-0.334716796875	0.606201171875	0	0	0	-0.316573970471552	0.151656920192043	-0.782114180910764	-0.514857754914914	-0.269404826847701	0.709333835792301	0.651357466120824	-0.901376369291031	-0.423843341523676	0.08875507157207	0.339030500331282	-0.563207183233865	0.753562199555482	6.7173883487198	-40.6440273577185	110.796765528233
17415	1656656469643	6.56771195965947	0.982722275776791	7.53791878675466	-0.10372440325524	-0.00496519495950324	0.232710240457221	-0.0702080788943816	0.00335460347467336	0.0551460731185619	0.2802734375	-0.34033203125	0.612060546875	0	0	0	-0.316337259567669	0.15201040689107	-0.782208633272492	-0.514755503554851	-0.269915019538417	0.709119286726892	0.651379858008765	-0.901465508893642	-0.423839215513606	0.0878649854489157	0.338387083829603	-0.563480395918753	0.753647148812057	6.6498861312756	-40.6457182195232	110.838533999843
17416	1656656469644	6.50259262283553	0.947462059388087	7.55786394906613	-0.0516047892111595	-0.0494141881528107	0.202181155052903	-0.070408210663732	-0.00108503097717883	0.0525083676476862	0.27099609375	-0.333740234375	0.62060546875	0	0	0	-0.316231993627955	0.152215832496335	-0.782214370676945	-0.514750759931452	-0.270057962712164	0.70901985112641	0.651428850669388	-0.90156191581463	-0.423723990974881	0.08743049482288	0.33801598886504	-0.563692141315632	0.753655333087073	6.61722370490378	-40.6494179148934	110.851293838484
17417	1656656469644	6.52673423729044	0.89247059679494	7.57436903007726	-0.0105308570663766	-0.0220842379838437	0.2255010058037	-0.0608796840866257	-0.00388462311372361	0.0526907078655723	0.272216796875	-0.333984375	0.60400390625	0	0	0	-0.316049277653419	0.152548044563974	-0.78229784273182	-0.514637769165459	-0.270521641286304	0.708774634629139	0.651503306900353	-0.901625431796681	-0.423754121296216	0.086625778045112	0.337475365520527	-0.563977802746529	0.75368389638892	6.55660474719903	-40.6550408921386	110.890611080329
17418	1656656469645	6.53354465792401	0.850997100032106	7.57956428931421	0.0235242701059476	-0.00487086182709186	0.230251183818646	-0.0562245790732383	-0.0075044891704693	0.0514564855828264	0.26904296875	-0.3359375	0.609619140625	0	0	0	-0.315996661368728	0.152708151672955	-0.782338625199238	-0.514560595010747	-0.270747008132007	0.708610724779933	0.651587982021174	-0.901631789149705	-0.423815228949632	0.0862598893175321	0.337277592469866	-0.564137831063677	0.753652660832895	6.5294189487645	-40.6614361817885	110.910928893454
17419	1656656469645	6.55203709338565	0.831431722517609	7.59041808452437	0.0341695291638505	0.00686398850228151	0.24880846135316	-0.0391740453685088	-0.00826066852850342	0.0386965839554963	0.272216796875	-0.338134765625	0.611328125	0	0	0	-0.315897332819956	0.152944530528876	-0.782395720807403	-0.514464558313596	-0.271070186712869	0.708400199336312	0.651682523515648	-0.901659276390201	-0.423868377640996	0.0857096711899433	0.336944362135574	-0.564362256016703	0.753633691397079	6.48828850978321	-40.6685773773182	110.939409608296
17420	1656656469646	6.54747330998607	0.772142113090012	7.58903622806577	0.0873034016927387	0.0277172640731833	0.23970981686487	-0.0341458907676707	-0.0150054812847332	0.0292077596611337	0.2724609375	-0.330322265625	0.613037109375	0	0	0	-0.315925678109985	0.153032297955872	-0.782387983006483	-0.514432819462502	-0.271099680341216	0.708278447014333	0.651802581165383	-0.901665777032086	-0.423879980084413	0.0855838127963598	0.336903235140323	-0.564506336526529	0.753544163386183	6.4796051994148	-40.677647038977	110.944777975078
17421	1656656469647	6.59644326241898	0.741631241627753	7.58898161477364	0.0990460983311762	0.0722478180866166	0.269013476138383	-0.0174336032021664	-0.0204530334289188	0.0183970211065149	0.272216796875	-0.334228515625	0.61328125	0	0	0	-0.315945136274974	0.153183062726219	-0.782390326095181	-0.514372431017332	-0.271199346147016	0.708085140819936	0.651971125127058	-0.901674915332149	-0.423911903006271	0.0853290428304707	0.336798547666395	-0.564724828424972	0.753427240316006	6.4614738322196	-40.6903816437894	110.957033002596
17422	1656656469647	6.62797211626765	0.725808533844917	7.57771938364255	0.10304263751626	0.106365495651204	0.279721252111095	-0.00804631344571733	-0.0191171308242113	0.00827220744065215	0.279296875	-0.340087890625	0.611328125	0	0	0	-0.316075968093775	0.153142585439037	-0.782354113887058	-0.514359185202935	-0.271061221981913	0.708012667220168	0.652107258810586	-0.901631431016277	-0.423963954244842	0.0855296913628247	0.337026076945412	-0.564776618280947	0.753286661837261	6.47773721729239	-40.7006692158858	110.949243769475
17423	1656656469648	6.5928985950045	0.706802042379571	7.61258860842424	0.141923714085215	0.0681323694431495	0.281499167716696	0.00382311318314641	-0.0171827064785495	-0.0046236910182217	0.27001953125	-0.343017578125	0.613525390625	0	0	0	-0.316154922713236	0.153165081371356	-0.782318765440442	-0.514357727590862	-0.270964385823505	0.707935615960614	0.652231144050755	-0.901631193813924	-0.423953171832141	0.0855856204928404	0.337104571248994	-0.564881289960938	0.753173045385387	6.48290654622158	-40.7100325586759	110.944490456425
17424	1656656469648	6.5830345395015	0.841537465075247	7.57038873868091	0.0132450035511321	0.0276162723283766	0.25480369427841	0.0125761417733303	-0.0171603108966009	-0.00917379754619299	0.2685546875	-0.3310546875	0.606689453125	0	0	0	-0.3163402534991	0.153048779928428	-0.782236875901284	-0.514402940270314	-0.270636918114762	0.707938918222396	0.652363508037848	-0.901600877583544	-0.423931372007352	0.0860119141081543	0.337448538437978	-0.56489351199502	0.753009829957089	6.51632030772866	-40.7200381868439	110.921281173893
17425	1656656469649	6.54726263622836	0.845807408767664	7.6319809726801	0.0419609233270962	-0.0355414538347398	0.278206912979014	0.00449779945003801	-0.0238100670195952	-0.0141597381539813	0.27587890625	-0.336181640625	0.60107421875	0	0	0	-0.316453872928448	0.15307103580231	-0.78216704110498	-0.514432623495122	-0.270432044385023	0.707864641708484	0.652529047927107	-0.901624330159724	-0.423856667764668	0.0861341538268132	0.337550109811515	-0.565042630436281	0.752852408613988	6.52685415897991	-40.7325537572885	110.908817061132
17426	1656656469649	6.63343033484562	0.818256394994454	7.56827750360396	0.0255526686931809	0.0725960350992757	0.284086456155229	0.0241725986213737	-0.019788038517437	-0.0224191268693101	0.27490234375	-0.33984375	0.616943359375	0	0	0	-0.316614168530344	0.152974231051347	-0.782069627531885	-0.514510884833575	-0.270068035347223	0.707899054184007	0.652642463657614	-0.90163429006757	-0.423754868044043	0.0865298722021811	0.337814835757758	-0.565075871803393	0.752708705840177	6.55782023385103	-40.7411298627934	110.882174116992
17427	1656656469650	6.57497443735425	0.849039900058319	7.58689117642762	0.0232868312538265	0.00700798143731638	0.262603357592631	0.0119628110727467	-0.0220160605610419	-0.0224601724926697	0.2705078125	-0.3369140625	0.61865234375	0	0	0	-0.31674625945054	0.152949761027685	-0.781986905233715	-0.514562588776781	-0.269794298710857	0.70786988331446	0.652787304318558	-0.901654942071953	-0.423663425665823	0.0867621299319128	0.337978404369775	-0.565180971061015	0.75255635545133	6.57658782680199	-40.75208382096	110.863616704041
17428	1656656469651	6.60618982114733	0.838321128856171	7.57533516545236	0.0268543995724449	0.0407191602163042	0.273335058345795	0.0272996525570828	-0.0178760330135696	-0.0307593901648868	0.277099609375	-0.334716796875	0.61328125	0	0	0	-0.316990265963771	0.152724105059786	-0.781897586770503	-0.514615082192864	-0.269376976927699	0.707928472400648	0.652896103729972	-0.90157669112857	-0.423693329826639	0.0874267251707057	0.33851959221728	-0.565085161922431	0.75238503803581	6.62801337173938	-40.7603132513188	110.832540605075
17429	1656656469651	6.58961046169949	0.855036978653782	7.56315152983804	0.0161011718330448	0.0289840052049416	0.254795686735166	0.0183383176215082	-0.0141416226944394	-0.0295375727720826	0.266845703125	-0.332275390625	0.61669921875	0	0	0	-0.317112957331507	0.152643032629672	-0.781814204507608	-0.514690223835871	-0.269066691560493	0.707974088845678	0.652974582212678	-0.901594422818659	-0.423588156154795	0.0877528957224247	0.338719075688069	-0.565106860238409	0.752278953764165	6.65344955768246	-40.7662498829671	110.809374833341
17430	1656656469653	6.5836646753773	0.913667545298704	7.58398477053308	-0.0228647838358303	-0.0108126232863557	0.271736920715332	0.0189033999510103	-0.01308398353339	-0.0304812213079514	0.26806640625	-0.3310546875	0.615966796875	0	0	0	-0.317287972875551	0.152467589135641	-0.781737069604064	-0.514751523104634	-0.268718423459967	0.70804842991995	0.653037387736018	-0.901552959064229	-0.423569007449251	0.0882698019199589	0.339105692809369	-0.565028067281927	0.752163953063378	6.69330099267696	-40.7710012903324	110.782747146816
17431	1656656469653	6.5909638898929	0.861722495919142	7.56121316263485	0.0176571020934277	0.0297318931778408	0.254790897134004	0.0143153276671143	-0.00933868686052637	-0.0315372470864187	0.271484375	-0.333984375	0.607421875	0	0	0	-0.31738281577042	0.152386266311478	-0.78165327113891	-0.514844382130298	-0.268406820885022	0.708130026265921	0.653077058549006	-0.901589155412634	-0.423427376057037	0.0885790722901683	0.339256206051901	-0.565031966446217	0.752093148186574	6.71716492863869	-40.7740026695041	110.758515149702
17432	1656656469654	6.58448067812231	0.920473464038698	7.58245322322177	-0.0222427067847111	-0.0102667901157506	0.271738882462118	0.0184838962933457	-0.00556658143242846	-0.0371449473103432	0.28125	-0.340576171875	0.612548828125	0	0	0	-0.317499546625847	0.152217075593446	-0.781579410366329	-0.514934583303144	-0.268072825621599	0.708266831011342	0.653065889671481	-0.901582240969867	-0.423344673632394	0.0890435291014102	0.339538544102144	-0.56492245786146	0.752047999580322	6.75246307282267	-40.7731576507652	110.731217728803
17433	1656656469654	6.57926407564797	0.936440996590231	7.55005479751047	-0.0425992571234403	-0.000938710648122142	0.245401323306206	0.0225464580629646	-0.00217262971079611	-0.0358092853417186	0.27685546875	-0.33544921875	0.62158203125	0	0	0	-0.317590427771808	0.15207799846114	-0.781502501627407	-0.515036350680103	-0.267747755331683	0.708407359799195	0.653046822285492	-0.90160142614301	-0.42321967972435	0.0894425573813104	0.339744032900852	-0.564839902340789	0.752017205143547	6.78271657252339	-40.7717150688182	110.704453023241
17434	1656656469655	6.53763372357553	0.933711781447347	7.55383147966096	-0.0215478181264027	-0.0292908488979278	0.220832399872283	0.0214736223772791	-0.00416240492784421	-0.0362231097255613	0.27392578125	-0.330322265625	0.613037109375	0	0	0	-0.317769977774454	0.151860540999105	-0.781388659363474	-0.515162479544885	-0.267259721788777	0.708570797015678	0.653069419530536	-0.901597679968086	-0.42309199151325	0.0900821302674171	0.340138008146031	-0.564730548433426	0.751921234625365	6.83162437391134	-40.773424712882	110.665542217229
17435	1656656469655	6.55614459981688	0.969070918969539	7.50651611211001	-0.0712415253334047	-0.00278497257016069	0.200545410910401	0.0165189282240534	0.00283402245533127	-0.0313617884198358	0.279052734375	-0.337158203125	0.6123046875	0	0	0	-0.317822397086489	0.151739334298986	-0.781326435196364	-0.515260225517204	-0.266991647820315	0.70872055248524	0.653016568303752	-0.901625188322087	-0.422964148852921	0.0904065737006142	0.340275593860849	-0.564638386288198	0.751928196673397	6.85593276765276	-40.7694262064415	110.642568055848
17436	1656656469656	6.54853569210959	0.961122570763618	7.55945178225941	-0.0399036970467236	-0.0327202984496204	0.234686620051612	0.0129555182267219	0.000244287217558703	-0.0290092974709834	0.274658203125	-0.33154296875	0.620849609375	0	0	0	-0.317921757931015	0.151589896788615	-0.781240853218877	-0.515372669325326	-0.266633535093083	0.70887291487558	0.652997510347141	-0.90164782076205	-0.422823029808211	0.0908399294300162	0.340496351344344	-0.564552810656012	0.75189251805134	6.88880476580869	-40.7679844188532	110.61315195822
17437	1656656469656	6.54306078289264	0.976085351471384	7.52735647967687	-0.0602695567053931	-0.023399173153977	0.208355590586652	0.0124761357583388	-0.000563010305104183	-0.0326854106370941	0.27001953125	-0.340087890625	0.615234375	0	0	0	-0.317978061784668	0.151491129146121	-0.781166668326601	-0.51547941404989	-0.266341851828896	0.709008961681693	0.652968843222555	-0.90169238417551	-0.422662822961631	0.0911426486667407	0.340606609278561	-0.56450193121118	0.751880780027399	6.91164650800671	-40.765815729813	110.588875616747
17438	1656656469656	6.53073741546058	1.04587527294409	7.51711715410768	-0.119744818938641	-0.0538014924276492	0.199015930315454	0.00902762885211091	0.00090989309629341	-0.0207387229936328	0.275634765625	-0.337158203125	0.618408203125	0	0	0	-0.318056585201422	0.151327875844342	-0.781144547929701	-0.515512441985791	-0.266173861535715	0.709117812020581	0.652919140560537	-0.901641121767926	-0.422693592300572	0.0915063635225128	0.34087352929238	-0.564342144184874	0.7518797652049	6.93896909585422	-40.7620558546144	110.574084049323
17439	1656656469656	6.50607023263879	1.11558920741966	7.52796111630664	-0.171079137353232	-0.10605628151163	0.197466064681507	0.00211932991994824	0.000167416437878248	-0.0133843711763677	0.27880859375	-0.3349609375	0.618408203125	0	0	0	-0.318068150745201	0.151298066999244	-0.781113815165138	-0.515560621228953	-0.266059794639089	0.709176854830565	0.652901504247948	-0.901669240357657	-0.422612281520618	0.0916048061009005	0.340888202596469	-0.56432884746446	0.75188309280764	6.94633070408706	-40.7607217652398	110.564436431205
17440	1656656469657	6.57851722895726	0.933329016760842	7.52222425152547	-0.0252181503188326	0.0267406878794985	0.223771109642836	-0.00527331899298641	-0.00138325994392389	-0.00970924891186895	0.282958984375	-0.331787109375	0.616943359375	0	0	0	-0.318136131516911	0.151205549480648	-0.781073321170344	-0.515607166926177	-0.265877302475633	0.709246107429198	0.652900619638864	-0.901661901731847	-0.422572262441234	0.0918612975121023	0.341049959673932	-0.56427178036105	0.75185256725942	6.96586948936301	-40.7606548501669	110.549671622814
17441	1656656469657	6.54758487054512	0.969427850415495	7.55921483630357	-0.0365098788354545	-0.0309379365298938	0.234705171936705	0.00316172473834781	0.00203351838875093	-0.0106527897274078	0.28125	-0.3330078125	0.617919921875	0	0	0	-0.318140909010443	0.151171123259117	-0.781053469087624	-0.515644385146172	-0.265794460162471	0.709304234528375	0.6528712030922	-0.901679108807516	-0.422516319119607	0.0919496863382556	0.341069039472986	-0.564240607327881	0.751867307013172	6.97237074927631	-40.7584297131396	110.542260713579
17442	1656656469658	6.57177165346027	0.901600730294464	7.54854466831847	0.0175297744471788	0.0220228571777409	0.236233019557719	-0.00939075395548896	0.00316225541036577	-0.00709314877044634	0.269287109375	-0.3388671875	0.61669921875	0	0	0	-0.318200033669367	0.15109306353797	-0.780990251545887	-0.51572652802994	-0.265549773717995	0.709399145900001	0.652867650810386	-0.90171041751996	-0.422394068873789	0.0922039777679097	0.341176846539009	-0.564212816565341	0.75183924944705	6.99172093586319	-40.7581610151983	110.522410153744
17443	1656656469658	6.58266445216179	0.856194030213925	7.58586096830251	0.0682319696957463	0.028388502301479	0.267211674265402	-0.00251718441116102	0.0037812997220664	-0.0121325485054413	0.2724609375	-0.330322265625	0.61376953125	0	0	0	-0.318185090900622	0.151073748932621	-0.78096475236427	-0.515780016941934	-0.265458444103883	0.709473197337345	0.652824323010311	-0.90175085548464	-0.422295393013644	0.0922604773029751	0.341141039874516	-0.5641935689986	0.751869940624013	6.99568004269754	-40.7548837470095	110.513977084386
17444	1656656469659	6.57704492586679	0.869125418356252	7.55415474228793	0.0483913867846975	0.038441460549914	0.240885793174705	0.00431869493398807	0.0042756479004126	-0.0148588464918183	0.27685546875	-0.325439453125	0.615234375	0	0	0	-0.318199851923332	0.150958349108931	-0.780970055848793	-0.515796668211234	-0.265405302596321	0.709573656892992	0.652736739273394	-0.901713354225202	-0.422330747792994	0.0924649462258372	0.341281485237174	-0.564040747563612	0.751920862140552	7.0105597555723	-40.7482595006465	110.507550370017
17445	1656656469661	6.50284644805198	1.00866137022637	7.61813648963582	-0.0349643073210786	-0.10819679119895	0.253468013676253	0.0037997965217958	0.00334270944429673	-0.0162234535586556	0.279541015625	-0.338134765625	0.61181640625	0	0	0	-0.318205300054072	0.150908743311112	-0.780938545883271	-0.515855527995466	-0.265276922508034	0.709663007945062	0.652691787552926	-0.901742855729443	-0.42223925085756	0.0925950170157956	0.341303349713383	-0.563996835265601	0.751943876419518	7.02011047419899	-40.7448599102785	110.496089561549
17446	1656656469660	6.47557476587965	1.02520077533761	7.51630594173178	-0.074842782217816	-0.076048163729699	0.160655872545593	0.00672681079351679	-0.00356847882275095	-0.0123185541183026	0.266357421875	-0.337646484375	0.617919921875	0	0	0	-0.318287265308661	0.150823538980276	-0.780880652559502	-0.515917515975224	-0.265044666904578	0.709729589550808	0.652713746033805	-0.901750436615633	-0.422162753598839	0.0928695834886799	0.34146372370862	-0.563970317649685	0.751890953663599	7.04120876291777	-40.7465205555963	110.477873454266
17447	1656656469661	6.47300386417788	1.17863541253993	7.59211306136109	-0.185807533676716	-0.185857248105787	0.230224252191794	-0.00561565185372548	-0.0143948206516355	-0.00474435958670783	0.276123046875	-0.331787109375	0.61767578125	0	0	0	-0.318329335357273	0.150874614617506	-0.780843255889704	-0.515933226926297	-0.26495867920883	0.709670329882672	0.6528130828929	-0.901781593056574	-0.422099512034874	0.0928545118142863	0.341448175769414	-0.564092213050438	0.751806569830032	7.04085978033963	-40.7540335830108	110.47334873902
17448	1656656469662	6.53100965793211	0.964606143223834	7.52073030281796	-0.0318725388999486	-0.0145741427833097	0.194545409849724	-0.0160947887694235	-0.0177333745865567	0.00495675457391041	0.277587890625	-0.33740234375	0.6162109375	0	0	0	-0.318364374962009	0.150892705797237	-0.780860769638767	-0.51587980628378	-0.26502430044732	0.709582881216774	0.652881501389427	-0.901738329086628	-0.422198833611597	0.0928231154027013	0.34151150204417	-0.564127892929529	0.751751032184476	7.03901774640666	-40.7592086921773	110.480312592151
17449	1656656469664	6.51831245391852	1.00730269937231	7.59453889651215	-0.0425270315331104	-0.0853768598756613	0.24569117753645	-0.0136790189827183	-0.0173823785121276	0.00681653275566599	0.27783203125	-0.340576171875	0.612548828125	0	0	0	-0.318387848299445	0.15100095431227	-0.780842892871376	-0.515860704555304	-0.26503382310191	0.709458591857967	0.653012694402564	-0.901766067596552	-0.422172890584979	0.0926715155081355	0.341430859682362	-0.56430360347426	0.751655779704067	7.02851824119865	-40.7691331324756	110.484277413729
17450	1656656469665	6.53995591842537	0.927829974842843	7.52368499595728	-0.000600997963328114	0.00156110036281082	0.199191800728592	-0.0177631788112426	-0.0209079146774392	0.00780251835852739	0.275634765625	-0.337158203125	0.618896484375	0	0	0	-0.318440156939468	0.151099205651369	-0.780800556216409	-0.515863729983063	-0.264960957072657	0.709341265083192	0.653169702969541	-0.901805484127396	-0.422107284278974	0.0925867666374783	0.341383303670368	-0.564500141903265	0.751529792999784	7.02332024503368	-40.7810124069984	110.482219273672
17451	1656656469665	6.56428333664903	0.901292314654597	7.56546166454395	0.0303667640306439	0.00409913593397686	0.244022557581273	-0.0112604147929237	-0.0170319587075333	0.00867725600790313	0.27880859375	-0.335693359375	0.614990234375	0	0	0	-0.318466785489927	0.151200731897891	-0.780789829726042	-0.515833778469027	-0.264988839060158	0.709210714013054	0.653300144116502	-0.901820358218036	-0.422107703327817	0.0924398631262948	0.341322364747817	-0.564663837978322	0.75143449042651	7.01316816628788	-40.7908832053863	110.487653056939
17452	1656656469667	6.54812353803885	0.912764971842968	7.55346033503865	0.0208644492682594	-0.00685135121634675	0.225506800984226	-0.0123357353134486	-0.0190228870371698	0.00826118350181579	0.27587890625	-0.34130859375	0.619384765625	0	0	0	-0.318533839089823	0.151238410587359	-0.780774465916237	-0.515804584984395	-0.26496364692755	0.709104995632205	0.653425107396635	-0.901803201801143	-0.422145146544172	0.0924362508456929	0.341387244969786	-0.564768607855156	0.751326273035416	7.01389688431862	-40.8003408567178	110.488667540638
17453	1656656469667	6.5855681691759	0.863929998358081	7.54732203307391	0.0523074344918384	0.0416387208226277	0.240853447479953	-0.0112187644356059	-0.0169062077002633	0.00636734609516701	0.276611328125	-0.333984375	0.601318359375	0	0	0	-0.318561651644849	0.151335793483396	-0.780758090263553	-0.515783633125429	-0.264971435802478	0.708984928126305	0.653552224308442	-0.901824049426523	-0.422129442821368	0.0923044819024035	0.341326122769299	-0.564931062336866	0.751231903424114	7.00486897209112	-40.809962885111	110.492401240234
17454	1656656469669	6.59134780018956	0.872709919896398	7.60509380962325	0.0625626363583484	0.00757490102836271	0.288845617420835	-0.00301324627579897	-0.017925445476275	0.00276311591753167	0.27783203125	-0.336181640625	0.617919921875	0	0	0	-0.318614424441612	0.151403419652319	-0.780719994641532	-0.515788855077588	-0.264893411030981	0.708894717522643	0.653681696440144	-0.901851971166705	-0.422077722990668	0.0922681844285517	0.341312910530938	-0.565082892347225	0.751123706110647	7.00314037800663	-40.8197646247925	110.489258776355
17455	1656656469670	6.55811094181052	0.87663233010438	7.55538804489058	0.0511186249963514	0.00898762554366137	0.230145797046031	-0.00457080301821087	-0.0125269651704822	-0.00201086163904847	0.277099609375	-0.336669921875	0.608154296875	0	0	0	-0.318648293564959	0.151450899761929	-0.780694003293065	-0.515793333799196	-0.264841003632902	0.708834383735109	0.65376835288165	-0.901872666807174	-0.422039723539226	0.0922397128196348	0.341298894901276	-0.565186949769545	0.751051779938884	7.00166464840976	-40.8263257946574	110.487140684314
17456	1656656469671	6.58901542131529	0.862864497113182	7.54443460080889	0.0526884067540551	0.0421303229751604	0.240849410018759	0.00170332205092324	-0.0130897501173672	-0.00379597477400972	0.27783203125	-0.33642578125	0.607421875	0	0	0	-0.318715089928455	0.151449208528116	-0.780656395326016	-0.515809481421866	-0.264722540654405	0.708801644652288	0.653851821904389	-0.901878237114815	-0.422007432223026	0.092332944105565	0.341376071053831	-0.565252116923714	0.750967657376208	7.00944852450639	-40.8326462437699	110.47960509092
17457	1656656469671	6.56520313342321	0.865221402757849	7.58566839959098	0.0718197919787256	9.13619478328798E-05	0.256458932110746	0.00229719416456518	-0.0119052436041395	-0.007056039741295	0.276611328125	-0.336669921875	0.6162109375	0	0	0	-0.318767949009973	0.151460530862599	-0.780623558633262	-0.515823188681488	-0.264626865404876	0.708765940790134	0.653929249446656	-0.901888991906264	-0.421972291218564	0.0923884826266733	0.341421833490908	-0.565323117004455	0.750893404549591	7.01430938780558	-40.8385097580663	110.473763365019
17458	1656656469673	6.59597202140661	0.852197804555906	7.57474344575542	0.0730141050979128	0.0330610494390669	0.267163926462658	0.0047845206263423	-0.0113030810501148	-0.00982458803639309	0.2783203125	-0.3408203125	0.60205078125	0	0	0	-0.318828673170373	0.151451883098304	-0.780575680377904	-0.515860651215975	-0.2644721313829	0.708762151731422	0.65399595105385	-0.90191096348097	-0.421900231266016	0.09250302054804	0.341483682881942	-0.565381647323935	0.750821208540794	7.02358709125742	-40.8435614233713	110.462884748702
17459	1656656469674	6.57283832340084	0.833858414097389	7.58908991946079	0.102233148540103	0.0159210608671969	0.261095631322794	0.0087182065394471	-0.0119635311780753	-0.0180911105462254	0.280517578125	-0.336669921875	0.614013671875	0	0	0	-0.318906510037634	0.151421101113904	-0.780519121331703	-0.5159071517518	-0.264276897253922	0.708772443743532	0.654063715984659	-0.901929143352695	-0.421822921817595	0.0926781689522389	0.341586800021477	-0.565426428122252	0.750740575986138	7.0375007906702	-40.8486940141285	110.448757521596
17460	1656656469675	6.55431609192042	0.891981048626475	7.63117412323055	0.0708691341900038	-0.0463127910624691	0.285943256479019	0.0141049322687409	-0.010204066986779	-0.015326176445666	0.27587890625	-0.336669921875	0.613525390625	0	0	0	-0.318981430906796	0.151431115304035	-0.780434429505491	-0.515986012694985	-0.264018562879569	0.70877907121386	0.654160856872547	-0.901993926587832	-0.421654104041815	0.0928158011513071	0.341615507337813	-0.565544025478046	0.750638928108859	7.04879162488538	-40.8560522658473	110.430245828476
17461	1656656469676	6.60528897973485	0.868863993502512	7.51916338493046	0.0423908006998536	0.062769405124571	0.233050418650295	0.0115075527673716	-0.0148675600814628	-0.0221456735365985	0.272705078125	-0.33544921875	0.60791015625	0	0	0	-0.319080793598561	0.151391647183135	-0.780364574142605	-0.516041808134692	-0.263776598827182	0.708789157834841	0.654247533924998	-0.902013825544393	-0.421562842840511	0.093036702773678	0.341749856529501	-0.565599415904936	0.75053603263938	7.06635724020631	-40.8626185904573	110.412800968567
17462	1656656469677	6.57516287037069	0.906859754417582	7.55534199332999	0.0303469314302206	0.00536844056751064	0.244022019973611	0.015332129169325	-0.00770977702456862	-0.0241562612775323	0.273193359375	-0.3310546875	0.609619140625	0	0	0	-0.31912885677162	0.151320768307783	-0.780320913307855	-0.516098895667077	-0.263597405333725	0.708863875656486	0.654238804788124	-0.90202717083995	-0.421487909939931	0.0932465808539084	0.341852879127563	-0.56556162136741	0.750517595708763	7.08230849293731	-40.8619572746915	110.398103602114
17463	1656656469677	6.56870090253139	0.964414093150032	7.57652627324346	-0.0103275981887353	-0.0351449201692776	0.261057437184119	0.00553369342629561	-0.00961815047349052	-0.0223265772044295	0.27392578125	-0.33349609375	0.617431640625	0	0	0	-0.319191871087136	0.15129103885157	-0.780254681832581	-0.516168773245189	-0.2633726939169	0.708904464341179	0.654285323491289	-0.902067943420176	-0.421361638179539	0.0934226702912622	0.341918483783269	-0.565604835824271	0.750455141990212	7.09613120150053	-40.865481588399	110.381074497976
17464	1656656469678	6.57598717032399	0.911279331448323	7.55409270108963	0.0299626947632668	0.00638449123496676	0.24402257838665	0.0120324467957634	-0.00573885557863676	-0.0214596494065654	0.283935546875	-0.33837890625	0.60888671875	0	0	0	-0.319234346190405	0.151174241301607	-0.780239468262002	-0.516199722147829	-0.263254558133777	0.708998773285734	0.654230675756736	-0.90203881361673	-0.421368391242775	0.0936731423109075	0.342086270333543	-0.565481580903217	0.750471561958537	7.1148075692414	-40.8613414286045	110.370196759143
17465	1656656469679	6.58158017808287	0.901682894126063	7.58549916803163	0.0501551245100428	-0.00285417323593446	0.270343090124006	0.0109969072068266	-0.00760537249696904	-0.0241849708373786	0.2822265625	-0.326904296875	0.61474609375	0	0	0	-0.319304586991636	0.15111446139999	-0.780176162086638	-0.516269461031404	-0.263020848664889	0.709059172048461	0.654259217513634	-0.90206533479161	-0.421260526324269	0.0939026130003863	0.342196091349539	-0.565486215123721	0.750418000563783	7.13256122629462	-40.8635037445892	110.352005193629
17466	1656656469680	6.59971138541962	0.957663916675889	7.56458478434818	-0.00858814852353704	-0.00163463367069817	0.27176484903549	0.0124131913958072	-0.0089943381135119	-0.0273665269726212	0.274658203125	-0.3359375	0.60595703125	0	0	0	-0.31943273574499	0.151049705780232	-0.780052995628957	-0.516395234029582	-0.262597379212009	0.709130856964873	0.65435162117263	-0.902131739968294	-0.421039897310477	0.0942535336980031	0.342346228506701	-0.565560635628972	0.750293427436354	7.16011634430622	-40.8705047057793	110.320033343015
17467	1656656469681	6.62999832085656	0.946478682018858	7.55384105198708	-0.00760793530506561	0.0311915416158999	0.282469047834255	0.0120787515574271	-0.00561344523929983	-0.023765737142512	0.2802734375	-0.33837890625	0.60791015625	0	0	0	-0.319498483590341	0.150981428127956	-0.779994202155867	-0.516463330689748	-0.262372694072651	0.709200132453852	0.654366672082632	-0.902153481802595	-0.420940472826591	0.0944892248247454	0.342461187109597	-0.565547779116818	0.750250654687832	7.17823941889759	-40.8716451077483	110.302245563599
17468	1656656469683	6.58321841291541	0.953822910766472	7.52588037130781	-0.0105522095378062	0.0108776677830766	0.231574090321315	0.00798973294502869	-0.000947343046622866	-0.0234599924075564	0.27197265625	-0.336669921875	0.618408203125	0	0	0	-0.319499500808998	0.150993281346823	-0.779919332923073	-0.516572291265946	-0.262146273758104	0.709284877589714	0.654365565702601	-0.902253989653005	-0.420708193768739	0.094564019854699	0.342369784458232	-0.565614336910221	0.75024219594184	7.18394232141605	-40.8715612770674	110.283927493974
17469	1656656469683	6.56531383225014	0.968837653378617	7.51492442647185	-0.0214133968753619	-0.000880502101479773	0.213060567684156	0.00958497317713997	0.00197874077226411	-0.0216807848906448	0.27734375	-0.340087890625	0.618408203125	0	0	0	-0.319527233958128	0.150919544533235	-0.77987606909986	-0.516641998566028	-0.261966784153536	0.709387652717289	0.654326036599882	-0.902279271176989	-0.420608672791163	0.0947652952149636	0.342440536158582	-0.565559459778644	0.750251275673898	7.19898655823764	-40.8685662170905	110.268471976048
17470	1656656469685	6.53505098944802	0.98449659805282	7.52506288743727	-0.0234241495546149	-0.032683897282675	0.202355289042172	0.00412938486178471	-3.76653245009539E-05	-0.0198173408729709	0.282958984375	-0.33984375	0.607666015625	0	0	0	-0.319502464451264	0.150831022183742	-0.779891036890682	-0.51666057381433	-0.261960053350832	0.709496134658368	0.654211101520958	-0.902259667872004	-0.42062370842571	0.0948851286646459	0.342497331639142	-0.565412177809285	0.750336355913153	7.20718548262845	-40.8598585304643	110.265146684917
17471	1656656469686	6.57089475173875	0.87243881122018	7.5512340888077	0.0784303292973549	0.0259920862168864	0.234805681739916	0.00330972142690448	0.00253431148049267	-0.0198931152009114	0.277587890625	-0.328857421875	0.609375	0	0	0	-0.319509400066027	0.15078308825935	-0.779849177290241	-0.516733455704345	-0.261800558050586	0.709595092479058	0.654167618072034	-0.902301548758449	-0.420501992101637	0.0950262581956079	0.342508953039924	-0.565378527508953	0.750356407128841	7.21760144073696	-40.8565644452602	110.251215849666
17472	1656656469689	6.52304400640319	0.901367214331991	7.55036954972102	0.0663938323151555	-0.0192543191828865	0.205589269007234	0.0156963737344388	-0.00289034300096952	-0.0284204204134252	0.2734375	-0.33447265625	0.609375	0	0	0	-0.319581920741256	0.150736393049813	-0.779748138688619	-0.516854695206781	-0.261457239956069	0.709687721086986	0.654204440685718	-0.902378225152859	-0.420279527706074	0.0952819886501831	0.342569190740395	-0.565427676303095	0.750291871491323	7.23743534660219	-40.8593539287975	110.224386195734
17473	1656656469689	6.5275885554067	0.980100939763205	7.57759382069988	0.00596463918830937	-0.0636350852641282	0.236484384138478	0.0120994435997336	-0.0056116821245431	-0.0237540388394643	0.276611328125	-0.33544921875	0.614013671875	0	0	0	-0.319646451593769	0.150669763736732	-0.779689563120691	-0.516922579734813	-0.261234385087635	0.709756170039479	0.654219210310103	-0.90240039140315	-0.420179337711645	0.0955136521950806	0.342680798474798	-0.565416221248641	0.750249536558058	7.25524981575415	-40.8604728292618	110.206751544362
17474	1656656469690	6.51109452308675	0.973805857555481	7.53920723394014	0.00424073353945034	-0.0500460416035735	0.19629721474749	0.0124082680640264	-0.00911783224518078	-0.0250369370034306	0.289306640625	-0.33349609375	0.617431640625	0	0	0	-0.319679461114268	0.150610998903369	-0.779649933988498	-0.516979061068	-0.261075385117881	0.709830895735583	0.65420160710959	-0.902419867604826	-0.420097954853157	0.0956874645932498	0.342750675911281	-0.565382886005064	0.750242738302041	7.26837675923951	-40.8591392681097	110.193492368502
17475	1656656469690	6.48622218701103	1.06601201232529	7.57603065345033	-0.0573095579929332	-0.127230040672332	0.21648148778759	0.0110513078976963	-0.0157999317511893	-0.0234743814597865	0.27783203125	-0.33447265625	0.610107421875	0	0	0	-0.319780103669889	0.150575408649881	-0.779575327971506	-0.517039688636099	-0.260821291343921	0.709840730109156	0.654292283203608	-0.902444809261935	-0.419994013370014	0.0959082633016498	0.342878433585257	-0.565447757632347	0.750135463213593	7.28599917090333	-40.8660088808246	110.175167372886
17476	1656656469691	6.53669722974728	1.06435572524477	7.49054357349098	-0.0950217597163566	-0.0433703984963617	0.18524223064739	0.00875594474823856	-0.0202824623559884	-0.0150580754637085	0.2763671875	-0.33544921875	0.6025390625	0	0	0	-0.319924862766739	0.150574129861312	-0.779478338609961	-0.517096734894011	-0.260518097891272	0.709786591967435	0.654471782840458	-0.902476223295841	-0.419876796356924	0.0961256587323193	0.343026219197293	-0.565602749060063	0.749951027200384	7.30411277151562	-40.8796098592571	110.155016226207
17477	1656656469691	6.51208642776341	1.11063258771949	7.5847200376049	-0.0961994643356244	-0.135253625136309	0.244210958986546	0.00186579246608505	-0.0292323299248958	-0.00701112301910726	0.280517578125	-0.33544921875	0.607421875	0	0	0	-0.320042266446457	0.150635701231624	-0.779417443025977	-0.517097943052494	-0.26036532995739	0.709650730676093	0.654679872462158	-0.902489895595775	-0.419837205610673	0.096170209173887	0.343106227433586	-0.565802581503398	0.749763666404544	7.30926769625965	-40.8953806459252	110.147694155054
17478	1656656469692	6.56534657840767	0.99733794433859	7.47608921638817	-0.0451763753125304	0.00816766955626726	0.186725634560304	-0.0093911433307954	-0.029890246529866	0.000312541958615326	0.27490234375	-0.320556640625	0.623779296875	0	0	0	-0.320092549290132	0.150839272176486	-0.779335263781349	-0.517131337751898	-0.260231878807753	0.709472320704876	0.654926251883237	-0.902602429361034	-0.419645386968401	0.0959510484971462	0.342911393458642	-0.566168504378139	0.749576547716425	7.29459116564625	-40.914058218985	110.142854391509
17479	1656656469693	6.58449537728348	0.939276750335405	7.54324425231733	0.0257126531974576	0.00520860619707222	0.244035020554095	-0.00641905969320954	-0.0284747807563529	0.00121856564426015	0.277099609375	-0.33544921875	0.61279296875	0	0	0	-0.320179070534021	0.150945531299901	-0.77929041941889	-0.517114350578758	-0.260156222434959	0.709305318474362	0.655137165113044	-0.902623718125828	-0.419616390012199	0.0958775714640072	0.342912763549388	-0.566399197048436	0.749401618745121	7.29074838414804	-40.9300513579548	110.141829089116
17480	1656656469694	6.59273906584458	0.905076834891134	7.54662447423318	0.0570153491191209	0.0230847060848328	0.248680796492378	-0.0067237620175142	-0.0249686816006372	0.00250404434044852	0.281982421875	-0.3369140625	0.60693359375	0	0	0	-0.320250063420928	0.15089315973731	-0.779313818134869	-0.517050407685202	-0.260197545582915	0.709241966811377	0.655189338883164	-0.902536142714007	-0.419780260514114	0.0959846028153707	0.343111859846827	-0.56635710059664	0.749342302446765	7.29937110018348	-40.9340081904427	110.146425918867
17481	1656656469694	6.61815530424682	0.924588373046495	7.52997152973789	0.0275098948018421	0.0402768987854882	0.254732130301608	-0.000982882524369648	-0.0182595004852794	-0.00133703439109881	0.27880859375	-0.33837890625	0.60498046875	0	0	0	-0.320312659284034	0.150946053011189	-0.779283338340085	-0.517042133648958	-0.260134464668247	0.709144776647995	0.655319575508492	-0.902544503241766	-0.419765442224153	0.0959707933823397	0.343137698249316	-0.566489769781615	0.749230178765467	7.29941268375432	-40.9438863049345	110.144472924792
17482	1656656469695	6.60794074847482	0.903824376699119	7.52305612219981	0.0458592507324656	0.0429727604060839	0.240879315037507	-0.00180712446952714	-0.0156880780176514	-0.0014142272739928	0.2763671875	-0.3310546875	0.610595703125	0	0	0	-0.320332697561243	0.15110144353855	-0.779220476650617	-0.517079070744591	-0.260032394942095	0.709031733915113	0.655482382587059	-0.902642665971519	-0.419595176716954	0.0957919894547418	0.342956806534741	-0.566757344881561	0.749110633267407	7.28710958175537	-40.9562368832813	110.140156438136
17483	1656656469696	6.60270362446051	0.937469284883731	7.51711709469643	0.0152299585708834	0.0273428384629283	0.236223700979076	0.000889434994165292	-0.0106424218025516	-0.00153897223572887	0.281494140625	-0.335205078125	0.610107421875	0	0	0	-0.320370298886027	0.151128497669227	-0.779202843660807	-0.517074440689958	-0.259993788753691	0.7089775852029	0.655556262642168	-0.902645913076846	-0.41958839995482	0.0957910759362395	0.342977529023651	-0.566830096504428	0.749046097567841	7.28766191693536	-40.961842201636	110.138820970909
17484	1656656469697	6.62643643798042	0.91295530090354	7.55935450180181	0.0458783791791307	0.0300214736364361	0.281072174154438	-0.00175950040723447	-0.0072447901172099	-0.00672722120992996	0.285400390625	-0.332763671875	0.614990234375	0	0	0	-0.320378220388963	0.151148105552352	-0.779176251373246	-0.517103872915561	-0.259922761032258	0.708980992393816	0.65558074309855	-0.902679236681919	-0.419515669607326	0.0957956085489565	0.342943660038665	-0.566879665694755	0.749024092176672	7.28821485507545	-40.9636996516492	110.133672166305
17485	1656656469697	6.6037187949777	0.87198359905664	7.54747635369776	0.0851320769864722	0.0377239176773253	0.2533538668171	0.00631732689003641	-0.000426684415361467	-0.00410030927988153	0.277587890625	-0.34423828125	0.6103515625	0	0	0	-0.320391854738866	0.151123608156714	-0.779172508298802	-0.517108225409381	-0.259896285261902	0.708995479884021	0.655575571853537	-0.902670572332657	-0.419521476543315	0.0958518052180054	0.342986528528013	-0.566857248540534	0.749021428949371	7.29246998625656	-40.9633072800535	110.131407690446
17486	1656656469700	6.61490505796362	0.95975981277685	7.52209007261545	-0.0060216597060664	0.0231926974313198	0.250084257371112	0.00604514662549782	0.00320349141649081	-0.00512752389954703	0.274169921875	-0.33203125	0.6123046875	0	0	0	-0.320369807685394	0.151135963871745	-0.779166565680025	-0.517127227744369	-0.259885233298093	0.70901769276255	0.655555929622535	-0.902695291482301	-0.419474701499963	0.0958237211613123	0.342929841584659	-0.566864080844065	0.749042213496364	7.29015620523262	-40.9618169341945	110.130040305224
17487	1656656469698	6.59100101419251	0.940596021393408	7.53739597810128	0.0230966040102122	0.00598653350842135	0.244040935919619	-0.000923608343165945	-0.00149760133625311	-0.00965245593416962	0.27734375	-0.334716796875	0.610595703125	0	0	0	-0.320372746483601	0.151134391410373	-0.779141241105893	-0.51716402180695	-0.25980535571803	0.709048955483426	0.655553778013742	-0.902726315740502	-0.419399540562954	0.0958604415030709	0.342908699233204	-0.566880590692119	0.749039398087141	7.29294689145782	-40.9616536838446	110.123533596237
17488	1656656469699	6.58462689936734	0.974932937245212	7.53235504067208	-0.00841103389409648	-0.0087887184383665	0.239378596004276	0.00608231353803604	0.00332780057937929	-0.00743737447925295	0.2841796875	-0.329345703125	0.615234375	0	0	0	-0.320322005641669	0.151074744078711	-0.779172069585335	-0.517166433927567	-0.259865384640683	0.70913815123663	0.655433493442503	-0.902708411337009	-0.41943060264039	0.0958931367206876	0.342910346835675	-0.566746020744225	0.7491404688065	7.29443384839488	-40.9525279000378	110.125481527731
17489	1656656469700	6.59683114948414	0.90869694038024	7.54261238547646	0.0522381064174138	0.0224446506619819	0.248708181974465	0.00501220916338514	0.00133413097257211	-0.00784878805421781	0.278564453125	-0.333740234375	0.606201171875	0	0	0	-0.320327244171105	0.151045423334353	-0.779160863609111	-0.517188636139075	-0.259812742580698	0.709178360363178	0.655410857390455	-0.902714217168582	-0.4194023894767	0.0959618560832884	0.342934951433083	-0.56671658604088	0.749151473462984	7.29949878525312	-40.9508106826803	110.120682340258
17490	1656656469703	6.56638089156712	0.923368493196824	7.55309054762793	0.0515463373628049	-0.0104729949497733	0.238003029799291	0.00446730931081531	0.00859422723431028	-0.00990353116382674	0.27783203125	-0.333984375	0.60205078125	0	0	0	-0.320329321780794	0.150989152375415	-0.779135554173788	-0.517241906359794	-0.259699871825485	0.709270613153742	0.655355761316203	-0.902735624260437	-0.41932617234048	0.0960934643011767	0.342964093258967	-0.566657531942174	0.74918280294482	7.30909923064384	-40.9466311680658	110.110235635136
17491	1656656469704	6.59478536696361	0.932240175413147	7.57032107265144	0.0423118589726291	-0.0025750160096016	0.270379128763723	0.00257120796501626	0.00917165216013719	-0.0103930841636537	0.27490234375	-0.337890625	0.609619140625	0	0	0	-0.320300024707282	0.150944948689255	-0.779128256255196	-0.517283942281654	-0.259650434460129	0.709365730288222	0.655272395708322	-0.902756413466653	-0.419265891045497	0.0961611696614107	0.342946803206403	-0.566583068312567	0.749247033275425	7.31357308415187	-40.940307667272	110.104233916657
17492	1656656469705	6.577145923331	0.924163436857273	7.53314445002096	0.0396271727678434	0.0100920442106107	0.23019666548389	0.000121185224210266	0.00869015745746038	-0.00993364979971463	0.27734375	-0.332763671875	0.61279296875	0	0	0	-0.320196651450009	0.150993525025693	-0.779123650887537	-0.517340696667285	-0.259665415944018	0.709449502472514	0.655175759017474	-0.902839986887955	-0.419119117944246	0.0960162645065662	0.342715377301308	-0.566586770420153	0.749350119601033	7.30167755658566	-40.932978277445	110.10311706607
17493	1656656469705	6.58172090378162	0.913153300596736	7.56570990637376	0.0596924767121596	0.000792899562076756	0.256538097915239	0.00316472010549247	0.0103543801294147	-0.0136507077509476	0.28125	-0.33544921875	0.617919921875	0	0	0	-0.320165985562774	0.150939676097428	-0.779110434404941	-0.517395290729984	-0.259591709638105	0.709564639122901	0.655080275381234	-0.902867639755936	-0.419038654620077	0.0961073931377909	0.342698364992761	-0.566502099590623	0.749421911736443	7.30784009064181	-40.9257371393352	110.094867310871
17494	1656656469707	6.55777738807435	0.938671867391478	7.52350408204289	0.0283640472469942	-0.00101179399531427	0.211675818717049	0.000601109675460942	0.00950133424831924	-0.00626213823646997	0.2763671875	-0.33837890625	0.6142578125	0	0	0	-0.320110139575972	0.150873654523505	-0.779137875704909	-0.51740777879098	-0.259637377974472	0.709671622065086	0.654946273211819	-0.902856368496511	-0.419052661634613	0.0961521952023884	0.342693463351481	-0.566357709943509	0.749533277822747	7.31013535788739	-40.9155762310683	110.095332209006
17495	1656656469707	6.56763893480718	0.915592581103105	7.58813671946358	0.0687272925289686	-0.0195781306864498	0.264360957854549	-7.21442008227731E-05	0.0125673567777019	-0.0155787679233903	0.274658203125	-0.3330078125	0.607666015625	0	0	0	-0.320063700902594	0.15082332184948	-0.779120971697861	-0.517476631753941	-0.259554325906263	0.709807651178998	0.654831772466104	-0.902899933473269	-0.418940522349769	0.0962317456314168	0.342641594143665	-0.566270197927683	0.749623105901647	7.31525061484987	-40.9068952836711	110.085876090008
17496	1656656469708	6.5613530144282	0.928527553096843	7.5568265434762	0.0465405108134071	-0.00982474479977523	0.238028110819247	0.00395688272491674	0.00765991839173784	-0.0112603288235031	0.273681640625	-0.33349609375	0.614501953125	0	0	0	-0.319968356024654	0.150796264594813	-0.779147961158582	-0.517502842842004	-0.259622117586649	0.709922504034114	0.654680375699286	-0.902922635542357	-0.418902588469391	0.0961838635057242	0.342530393228203	-0.566154271943239	0.749761475454264	7.31031537846125	-40.895418790036	110.087712270338
17497	1656656469708	6.55971345107604	0.951204354813549	7.58424814683277	0.0361432943797977	-0.0347274878305714	0.259697545455937	0.00313114328892122	0.0102308287423212	-0.0113381047928698	0.27880859375	-0.34130859375	0.608154296875	0	0	0	-0.319935222887445	0.150746563646759	-0.779141132251322	-0.51754808736849	-0.259570860834357	0.710027734693898	0.654586575000711	-0.902944276453268	-0.418838901619822	0.0962580288089533	0.342512192229701	-0.566069421939882	0.749833853409308	7.31519264042177	-40.8883093125593	110.081324663665
17498	1656656469709	6.54752909592163	0.931363380650218	7.57896520352651	0.0537355548109538	-0.0307029532990236	0.24586413812591	0.000992026560697121	0.00624238238827822	-0.0121619990980758	0.280517578125	-0.33349609375	0.60498046875	0	0	0	-0.319834556195211	0.15075570007354	-0.779156945854641	-0.517583837928907	-0.259625654756391	0.710124319914983	0.654460059635115	-0.90299184962266	-0.418759379220239	0.0961576925166561	0.342345204300226	-0.566007095874568	0.749957151117499	7.30646154320348	-40.8787214876941	110.082711401386
17499	1656656469710	6.54155893717906	0.944269681084552	7.54738210334451	0.0331644850256124	-0.0214343941218557	0.219513578678818	0.00292873249655539	0.00578949082031773	-0.0139801849022106	0.289794921875	-0.328857421875	0.612060546875	0	0	0	-0.319819271296418	0.150714624905411	-0.779136393147056	-0.517636181522163	-0.259536834573165	0.710215491845262	0.654396352864786	-0.903021257889109	-0.418675770837551	0.0962455542555295	0.342334981122457	-0.565954551228785	0.750001471094099	7.31263792959886	-40.8738940673648	110.074018283104
17500	1656656469711	6.57658211008357	0.919944157523654	7.56935504827091	0.0557188146628314	0.000742517537042096	0.256560874359614	0.00462298830787449	0.000771577240451738	-0.0161320060873836	0.281494140625	-0.333251953125	0.6083984375	0	0	0	-0.319910369383285	0.150714607964933	-0.779032395853396	-0.517736408530387	-0.259212733686211	0.710236537704883	0.654501962719671	-0.903097201326958	-0.418468236456065	0.0964353671262091	0.342380203356352	-0.566081615658318	0.749884925014053	7.32802951543498	-40.8818969120557	110.050401920761
17501	1656656469712	6.5523870191879	0.967778268691179	7.55337053235847	0.0143232794753787	-0.0266598532510118	0.233349703657955	0.00944814986899707	0.00148997784443097	-0.0124283360714928	0.27587890625	-0.341796875	0.61669921875	0	0	0	-0.319928663299935	0.150662162614395	-0.779013111284571	-0.517769384574062	-0.259121029593828	0.710295989819674	0.654473757203697	-0.903100567000078	-0.4184315543083	0.096562934106615	0.342440736341886	-0.566034134311023	0.749893126310941	7.33753825789087	-40.8797594754975	110.042329198832
17502	1656656469712	6.55877487417663	0.935712641418022	7.55817823875907	0.0430570449586809	-0.0111402865786895	0.238042265505648	0.00655300507327753	-0.00799985244742185	-0.014946236746726	0.281005859375	-0.331787109375	0.607177734375	0	0	0	-0.319922489875357	0.150684624711152	-0.778988108211606	-0.517804279252803	-0.259056657718873	0.71031195119098	0.654481917310777	-0.903141552485082	-0.418345744526288	0.0965514070927118	0.342381343338628	-0.566077530053975	0.749887488695223	7.33672645295389	-40.8803778478422	110.037331967727
17503	1656656469713	6.58909557572059	0.923845170085999	7.5475322371664	0.0438799887054291	0.0216384005673853	0.248749871349254	0.0107093560596346	-0.00421636136391641	-0.0205574005837484	0.278564453125	-0.332275390625	0.606689453125	0	0	0	-0.319971789309225	0.150629631362695	-0.778939783105209	-0.517862513122741	-0.258872943096903	0.710372961960072	0.654488391225102	-0.903161892640514	-0.418258263315475	0.0967399651143615	0.342466633432153	-0.566065614645861	0.749857536403583	7.35118840734624	-40.8808684447275	110.022668483013
17504	1656656469715	6.52915136410113	0.953100879266078	7.56753201744661	0.0411902481338074	-0.0445888673770425	0.227336274844287	0.00683768917202093	-0.00331149259783794	-0.0169198897474624	0.2783203125	-0.33544921875	0.611328125	0	0	0	-0.320005596329543	0.150635568737659	-0.778875091398999	-0.517937192859382	-0.258674965141435	0.710408306849916	0.654528303412247	-0.903225206859253	-0.418099979368052	0.0968330157874633	0.342449248945209	-0.5661381852614	0.749810687497712	7.35863650418684	-40.8838930931393	110.007654593928
17505	1656656469715	6.55312713703698	0.974719623446642	7.55183575901732	0.0115799355585599	-0.0274305570407342	0.233351165614591	0.00905038074902192	-0.00739331273502583	-0.0177093548957687	0.277099609375	-0.337158203125	0.6025390625	0	0	0	-0.320061000848565	0.150600238237295	-0.778827572473981	-0.517984687353758	-0.25850563880569	0.710438987304321	0.654561899306454	-0.903244039217365	-0.418022863819799	0.0969901589966376	0.342527430031467	-0.566156630838061	0.74976104795737	7.37092970556012	-40.8864391837464	109.994800765622
17506	1656656469717	6.53494016905347	1.01102970380312	7.56718666659939	-0.0114593261875027	-0.0647404304501324	0.236472560346424	0.0133215403581745	-0.00773117376059996	-0.0130576676593567	0.277099609375	-0.34033203125	0.608642578125	0	0	0	-0.320059381703335	0.150646327726651	-0.778795187145457	-0.518020976993428	-0.258432519156906	0.710432946429599	0.65459732788148	-0.903296028461879	-0.417919902674498	0.0969496772224422	0.342445496403753	-0.566240217201055	0.749735352252307	7.36813678117978	-40.8891242716009	109.989749593909
17507	1656656469717	6.53564657993563	1.01246200695383	7.56638503427621	-0.0117599632763139	-0.0647849267504182	0.236471926264608	0.00327638510311817	-0.0142318336268109	-0.0115575551367931	0.283203125	-0.332763671875	0.61474609375	0	0	0	-0.320121207016417	0.150662023275335	-0.778748388350309	-0.518048564521445	-0.258296195231244	0.710398751931662	0.65468823785295	-0.903319186901405	-0.417853279079704	0.0970210479129267	0.342487258310214	-0.566332279157983	0.749646735121868	7.37436329809286	-40.8960147243985	109.98092505688
17508	1656656469720	6.5624505847704	0.923745027793159	7.527692870058	0.0483090156570357	0.0120651219366825	0.216407458480807	0.00513563925673995	-0.0149298283327975	-0.00875731495119462	0.27587890625	-0.33203125	0.617919921875	0	0	0	-0.320149568383484	0.150722582186923	-0.778713106491149	-0.518066457958512	-0.25822279800438	0.710342742425904	0.654777958451287	-0.903357820957054	-0.417779696714455	0.0969782054324635	0.342440701299528	-0.566456806205049	0.74957391416555	7.37185098065959	-40.9028157333057	109.977146861428
17509	1656656469721	6.54390535616847	0.981324891282191	7.56949308899181	0.0169752186752103	-0.0495369727373543	0.241176520135999	0.0125723595096346	-0.0132320349046182	-0.0147477023729605	0.274169921875	-0.3310546875	0.612060546875	0	0	0	-0.320233619762404	0.15069498720028	-0.778666683432077	-0.518092313897307	-0.258061566108805	0.710327245085744	0.654858330470315	-0.903357650010523	-0.417742750226483	0.0971388223146661	0.342562672025043	-0.566503485886991	0.749482899213151	7.38481251658495	-40.9089086942583	109.966060289779
17510	1656656469722	6.54512453301664	0.982794867212588	7.56824818618764	0.0160110219859597	-0.0474835402148896	0.241188009756868	0.00573182761575716	-0.0220656416695601	-0.00900565754702055	0.280029296875	-0.3369140625	0.6171875	0	0	0	-0.320260955421656	0.150636849112676	-0.778681445467856	-0.51807013676326	-0.258072507653011	0.710337003460023	0.654843433432085	-0.903309408334157	-0.417823746167005	0.0972390351348958	0.342681621346523	-0.566431512766023	0.749482920243626	7.39234659610737	-40.9077793151548	109.966587315517
17511	1656656469723	6.5538327640014	0.928940636434639	7.54503284011811	0.0562915544360385	-0.00700598869197307	0.22424228466158	0.010717567318064	-0.0208518324032985	-0.0145377788206014	0.2783203125	-0.339111328125	0.61181640625	0	0	0	-0.320369016583686	0.15063563491631	-0.778622611538804	-0.518092103305054	-0.257888531412293	0.710278472544831	0.654979386549983	-0.903314433427221	-0.41777895597261	0.0973846923725415	0.342806854844049	-0.566537938169914	0.749345197413124	7.40464262275197	-40.9180869525197	109.954991543948
17512	1656656469724	6.56603253281347	0.972933389660216	7.57601928120033	0.0243774013173259	-0.0354908477585872	0.259730232704669	0.00795369028161106	-0.0261468633132082	-0.00979019441706471	0.273193359375	-0.331298828125	0.61572265625	0	0	0	-0.320415058724894	0.150696532752611	-0.778598618335374	-0.518081978730114	-0.257850506914824	0.710184948864316	0.655095759786581	-0.903326702430579	-0.417763236662862	0.0973383109000098	0.342803128281621	-0.566666759656467	0.749249490317328	7.40209003710695	-40.9269113674531	109.95470158586
17513	1656656469724	6.59867744228313	0.939015301399177	7.5372819899293	0.0353066144345304	0.0221824229147469	0.248782424144837	0.0120295481667711	-0.0226078170808207	-0.0107864584230829	0.277587890625	-0.333740234375	0.607421875	0	0	0	-0.320529768844272	0.150701222022721	-0.77854797790082	-0.518085760344792	-0.257695624425193	0.710100786472309	0.655247921174512	-0.903317697910277	-0.417752573217635	0.0974675546637072	0.34294329238839	-0.566780081355594	0.749099617930992	7.41327555659747	-40.9384513244168	109.945838039508
17514	1656656469726	6.56222440934334	1.03102080250574	7.59442983233408	-0.0181479366734907	-0.074691010617433	0.276675794568113	0.00712926279149154	-0.0235771583660276	-0.00986593413221225	0.28076171875	-0.3369140625	0.615966796875	0	0	0	-0.320556300533709	0.15069667116265	-0.778543491011407	-0.518077411293342	-0.257678908191464	0.710078057983653	0.655279125139371	-0.903305127626229	-0.417772618416172	0.0974981318070134	0.342988959993492	-0.566793781610085	0.749068342977276	7.41588150723457	-40.9408180898671	109.945234268361
17515	1656656469726	6.58564123287182	0.866910922615414	7.52750223126311	0.103311830115896	0.0468145525633391	0.225869751262332	0.016191880177394	-0.02714057746184	-0.0133888572986519	0.280029296875	-0.336181640625	0.611083984375	0	0	0	-0.32070063560289	0.150692390253744	-0.778482498367484	-0.518080983610706	-0.257486393489732	0.709979666286103	0.655461387594972	-0.90328824762568	-0.417767795881154	0.0976750245760425	0.343177940533739	-0.566920578374853	0.748885811687032	7.43097665235682	-40.9546440691171	109.934051398568
17516	1656656469727	6.5858144460284	0.912447208579201	7.57927717083823	0.0813927770188466	-0.00287905258027255	0.269193425921289	0.0143366043525144	-0.0264445961899678	-0.0161837889625393	0.274658203125	-0.327880859375	0.606201171875	0	0	0	-0.320789626898852	0.150715900176997	-0.778435627128175	-0.518089477914286	-0.257354616297196	0.709902420526426	0.655596792854606	-0.903294810068439	-0.41773602061668	0.0977502080957535	0.343259504710278	-0.567040713185625	0.748757465415866	7.437892967017	-40.9649174522373	109.926649887757
17517	1656656469727	6.5880531616908	0.848946378101847	7.60875658466926	0.151467124625019	0.00729090514483555	0.286487570651074	0.0236749848196362	-0.0253197038441774	-0.0216868738643887	0.279296875	-0.330078125	0.608154296875	0	0	0	-0.320952011053519	0.150664850213745	-0.778361842077069	-0.518114613101352	-0.257094108583076	0.709848915978876	0.655756918236849	-0.90327366266359	-0.417714701201812	0.0980363133649173	0.343510275930978	-0.567123394759462	0.748579819021544	7.46116839728681	-40.9770684493513	109.909447177537
17518	1656656469729	6.58286341808405	0.952035877300135	7.57043908611483	0.0498070207541362	-0.0177632065573727	0.264475597573458	0.0272004456804175	-0.0228384471405523	-0.0217347591921955	0.285888671875	-0.3359375	0.610107421875	0	0	0	-0.321078173377142	0.150573660970792	-0.778309149519925	-0.518142110792225	-0.256875119209151	0.709857659115888	0.655833269151387	-0.903241323208732	-0.417712651291262	0.0983425289453311	0.343759051050911	-0.567113960986446	0.748472758405301	7.48526789756587	-40.9828630705718	109.893593759323
17519	1656656469729	6.6145213279838	0.941666175479577	7.55838290496076	0.0505297570048212	0.0150369833234331	0.275176585907978	0.0164490132561235	-0.0264128341107923	-0.0272192957210273	0.2822265625	-0.33056640625	0.610107421875	0	0	0	-0.321230019657028	0.150544378056501	-0.778213987616567	-0.518199434759098	-0.256561240572994	0.709821349964367	0.655995412308965	-0.903258844053747	-0.417611472101865	0.0986109477066396	0.343947365848809	-0.567233910749063	0.748295329413454	7.50722511347663	-40.9951705478152	109.8721263341
17520	1656656469731	6.64042469923346	0.898647470219756	7.57247685349833	0.0912028162648928	0.0415487974823224	0.298453391995116	0.0232235308907055	-0.0261355418653638	-0.0253387529062704	0.276123046875	-0.326904296875	0.614990234375	0	0	0	-0.321411414060297	0.150537366568214	-0.778105096884998	-0.51825250832008	-0.256218081063411	0.709740980679373	0.656216454594416	-0.903278692109785	-0.417505677773305	0.0988767586821603	0.344150983314911	-0.567412327475651	0.748066408356935	7.52950653441537	-41.0119524660913	109.849695712322
17521	1656656469731	6.60579060573907	0.993802579990073	7.51759547300557	-0.000937064484436094	0.00782014596138821	0.244066155766298	0.0269775256154338	-0.0190869958831257	-0.0250648105658777	0.28076171875	-0.342041015625	0.6142578125	0	0	0	-0.321560658657712	0.150452096769109	-0.778034859153012	-0.518290138169877	-0.255948150958936	0.709736638635774	0.656326479580624	-0.903254539969808	-0.417478998507257	0.0992094845733468	0.344415127490987	-0.567437388249462	0.747925818762794	7.55595523801957	-41.0203073496995	109.830526801264
17522	1656656469733	6.60601388221734	1.0187404966695	7.54303709046831	-0.0131335604988439	-0.0159305680732301	0.265716930159909	0.0155002700032204	-0.0158935232473614	-0.0233834945750221	0.281494140625	-0.332275390625	0.611328125	0	0	0	-0.321577735214845	0.150391361892573	-0.778020264349006	-0.518319078121278	-0.255866186939199	0.70980046524752	0.656289413228341	-0.903250519460679	-0.417455543047211	0.0993446962508409	0.344486565014093	-0.567374804792708	0.747940396964376	7.56598819245275	-41.0174925519619	109.823027482917
17523	1656656469733	6.62554391063586	0.987067259126333	7.52595119596094	0.00733513731909158	0.020717890232076	0.262608734761027	0.0189833174826375	-0.0135304254895426	-0.0211288346707505	0.284423828125	-0.326904296875	0.610595703125	0	0	0	-0.321680833103138	0.150328999865875	-0.777963643860438	-0.518358179490578	-0.25565247873857	0.709811720449873	0.656360519552187	-0.903243552115539	-0.417411979109079	0.0995907890216068	0.344663452771729	-0.567392775075814	0.747845266826793	7.5854660037066	-41.0228924317712	109.80746946269
17524	1656656469735	6.61396306820279	0.990374500339905	7.54616975959213	0.0170422507682601	-0.000255903397944519	0.270453828992103	0.00805155826299723	-0.00928053281317304	-0.0204003322977329	0.27294921875	-0.333984375	0.6064453125	0	0	0	-0.321756057365659	0.150284091203016	-0.777898056029753	-0.518422941144509	-0.255421387287168	0.709850762894554	0.656408264218481	-0.903270029575607	-0.417304692052722	0.0998000383830845	0.344765381943693	-0.56742284797918	0.747775462959581	7.60191887037387	-41.0265184542226	109.789952063784
17525	1656656469736	6.59655110404566	1.00505164291641	7.53469911478736	0.00600509901370963	-0.0120320885365978	0.251910236819599	0.0120445225856617	-0.00597775154160241	-0.0167916076069727	0.279296875	-0.3359375	0.60888671875	0	0	0	-0.321808821291188	0.150235949805731	-0.777859462006503	-0.518462051930611	-0.255272366494153	0.709886717725977	0.656427350817068	-0.903275733416155	-0.41725252018774	0.0999664134521567	0.344860795576972	-0.567416233811846	0.747736483850292	7.61483561854507	-41.0279680633124	109.778377833722
17526	1656656469737	6.60325246780034	0.973245700479989	7.53941078753286	0.0329849746288955	0.00391025755440734	0.256660277465311	0.00575097718802379	-0.00544171646241174	-0.0150012161613352	0.28662109375	-0.333984375	0.60888671875	0	0	0	-0.321711934181611	0.1502832496157	-0.777869431709001	-0.518493513462597	-0.255331815804678	0.709944679505978	0.656341539047348	-0.903336339141836	-0.417158842764315	0.0998096102054491	0.344657978616065	-0.567412594101235	0.747832752580145	7.60206383498208	-41.0214509914137	109.78113674705
17527	1656656469740	6.56698441559315	1.02173837483534	7.54411608878546	0.00107231315106772	-0.0445200079363648	0.241214261214424	0.0067767814224925	-0.00356406884917827	-0.0122885206033187	0.2822265625	-0.33447265625	0.61669921875	0	0	0	-0.321737046678696	0.150257242131931	-0.777842973444714	-0.518525161052057	-0.255233860300817	0.709975663506036	0.656346123463151	-0.90334894880849	-0.417108837085689	0.0999044278879609	0.344697480760361	-0.567410587893976	0.747816067962753	7.60936888833659	-41.0217991437502	109.773340368634
17528	1656656469739	6.60365676850965	0.975515164727653	7.53876333744009	0.0316715419500414	0.00337177023032376	0.256664689034213	-0.000108046583200897	-0.004207134508886	-0.00724101277452393	0.2763671875	-0.331787109375	0.615966796875	0	0	0	-0.321734903650413	0.150305983123273	-0.777820253071473	-0.518546446446445	-0.255192469301647	0.70995449441208	0.656385115215005	-0.903389218405067	-0.417035388630221	0.0998469063092207	0.344622581502155	-0.567491057633623	0.747789526420812	7.60530573319882	-41.0247603521494	109.770926114588
17529	1656656469739	6.56158921875618	0.990540283926915	7.56987462626617	0.0397525228498696	-0.0504933488448009	0.253816257180508	0.000443178577312272	-0.0031484768169159	-0.00819177648064147	0.2880859375	-0.328125	0.6083984375	0	0	0	-0.321738875775912	0.150310565763604	-0.777800213402855	-0.518572712032508	-0.255132876299404	0.709970427275517	0.656391047947344	-0.903413437059611	-0.41697815231015	0.0998668224995389	0.344603217006652	-0.56751318301008	0.747781659268555	7.60688407264052	-41.0252109221053	109.766257700503
17530	1656656469741	6.58047289322711	0.95675917654222	7.55367649005403	0.0604232441850952	-0.0133500658807833	0.250722144057731	0.00183359806525627	-0.00465851592299503	-0.00905793262128267	0.274169921875	-0.33642578125	0.609375	0	0	0	-0.321750613409034	0.150283165389651	-0.777782762042885	-0.518599544967326	-0.255062109461185	0.710008171659397	0.656377723947187	-0.903422974256084	-0.416938964320298	0.0999441324831445	0.344630599197897	-0.567494754344388	0.747783025942754	7.61269001167853	-41.0241990159155	109.760230525527
17531	1656656469742	6.60422609206348	0.977267188254555	7.53803766001826	0.0306749413337882	0.00383634995375758	0.256667608079471	-0.000946303441710395	-0.00163856012293996	-0.00732496953415422	0.28955078125	-0.332275390625	0.61865234375	0	0	0	-0.321744533131704	0.150290346623232	-0.777766387502537	-0.518625793403089	-0.255015483633756	0.710029224784528	0.65637306698167	-0.903449614418503	-0.416880196257771	0.0999484675977628	0.344595265948475	-0.567511587476384	0.747786534223461	7.61298104430533	-41.0238453410942	109.756357472727
17532	1656656469743	6.56766322835686	1.02469949748608	7.54312347084373	-0.00236345484418785	-0.044265420044953	0.241215164725887	-0.0036875845868676	0.00150100793752676	-0.00789874816072777	0.285888671875	-0.327392578125	0.612060546875	0	0	0	-0.321668688834763	0.150311817453377	-0.777778400121781	-0.518648602100874	-0.255065764324268	0.710086149461635	0.656291944345218	-0.903488570408027	-0.416819970145345	0.0998474618109718	0.344455888339474	-0.567484601404112	0.747871224314374	7.60452646075019	-41.0176847597133	109.758489763255
17533	1656656469744	6.60418927101018	0.977578120773456	7.53802960237091	0.0287247326504955	0.00415180451131518	0.256673235144415	-0.00644116885855043	-0.00379280166330862	-0.0031439961040113	0.278564453125	-0.33447265625	0.615478515625	0	0	0	-0.32165315986595	0.150352847671382	-0.777765479637541	-0.518665715687418	-0.255050240237416	0.710077641169659	0.65630718300638	-0.903523515363035	-0.416759793135128	0.0997824233619793	0.344375713633904	-0.56753944209799	0.747866531890712	7.59967807620114	-41.0188419638019	109.757598702886
17534	1656656469745	6.56226352775134	1.03630307551201	7.51100612556543	-0.0233608899037073	-0.034332541241393	0.21481059298179	-0.00292563934868897	-0.00130708273299411	-0.00320069243019016	0.275634765625	-0.3310546875	0.60205078125	0	0	0	-0.321624509020322	0.150339505027569	-0.777773896153048	-0.518674729371319	-0.255068400618053	0.710117591216816	0.656256899126078	-0.903529069180216	-0.41674911667931	0.0997767252085719	0.34434769079011	-0.567497295492623	0.747911416851005	7.5987984322762	-41.0150235485326	109.757871045557
17535	1656656469745	6.56140588621916	1.01320682511409	7.59596471465722	0.0262336871233674	-0.0739185399683266	0.275482094595439	-0.0108732490756558	-0.00394979633578629	0.00144200518335581	0.28125	-0.332275390625	0.61083984375	0	0	0	-0.321594614041283	0.15040523589662	-0.777769390378094	-0.518680966129864	-0.255093919188459	0.710089330079167	0.656277559955231	-0.903567385231013	-0.416696640778946	0.0996488329602111	0.344228227691835	-0.567571187492162	0.747910338469041	7.5891828216961	-41.0165924465174	109.760420231321
17536	1656656469746	6.56922522757186	1.00154207407386	7.51590370206762	0.00471539014353199	-0.0186110864793266	0.219572922852619	-0.00893185220929087	-0.00440066313508899	-0.000375188978140929	0.276123046875	-0.337158203125	0.609130859375	0	0	0	-0.321507716689171	0.150503000319482	-0.777776931521143	-0.518695170401369	-0.255176216623221	0.710082524084054	0.656252929487007	-0.903634028034399	-0.416608334194257	0.0994134762404653	0.343992211900483	-0.567644523333314	0.747963270008299	7.57093681608655	-41.0147221148253	109.766476194418
17537	1656656469747	6.55646669707579	1.02319886369903	7.56366751100718	0.00364732377839865	-0.0645411383010956	0.249075836524362	-0.0128515249815637	-0.00361922237511374	0.00556704408964041	0.2802734375	-0.33154296875	0.619384765625	0	0	0	-0.321467775302658	0.150582540092048	-0.777782365546034	-0.51868869267317	-0.255241019069915	0.710038968413008	0.656274855162943	-0.903668705064264	-0.416573877424848	0.0992425117311279	0.343853011723944	-0.567724288702024	0.747966736122773	7.5580328599018	-41.0163870536429	109.772225667368
17538	1656656469748	6.61613330541797	1.06050775424966	7.51171268939418	-0.0668104711994539	-0.00777534697634546	0.253056510166047	-0.0181212986694259	-0.00120814632962811	0.0100703250174291	0.28857421875	-0.3330078125	0.604736328125	0	0	0	-0.321303114041119	0.15066562767834	-0.777856979266844	-0.518654699534895	-0.255523223115695	0.710059685021511	0.656142611141603	-0.903697026429553	-0.41659434257332	0.0988981200948119	0.343568867726619	-0.567683360195679	0.748128355087543	7.5304981087712	-41.0063456661673	109.791856721002
17539	1656656469748	6.60550048473616	0.971296209210827	7.53769279661043	0.0229377464215885	0.00627509958392312	0.256686981323687	-0.0203868107682946	0.00274971535297371	0.0131618558128831	0.279052734375	-0.33154296875	0.611572265625	0	0	0	-0.321212271539894	0.150770009137427	-0.777887195542335	-0.518635316931043	-0.255680169288037	0.710021190163151	0.656123129109274	-0.903737898623645	-0.416571624753075	0.0986199373448556	0.343344523218531	-0.567748175664077	0.748182161913764	7.50902434694066	-41.0048665101936	109.80405832594
17540	1656656469751	6.55685570602423	1.10583677289034	7.4480559315283	-0.119794417621596	-0.0346685564176393	0.170960056535339	-0.0142714938511695	0.0100476252210339	0.0175798927227179	0.28125	-0.340576171875	0.614990234375	0	0	0	-0.321123905657251	0.150883529546971	-0.777920608302749	-0.518606907883768	-0.255852624621341	0.709965385886948	0.656116289476773	-0.903774619116846	-0.416562071213372	0.0983233373448404	0.343119326640999	-0.567824965697021	0.748227195453764	7.4862519872638	-41.0043472250543	109.817812665878
17541	1656656469752	6.62186889891016	0.974399773463093	7.57664067160838	0.0224876960944008	-0.00770934173572302	0.296888260549483	-0.0423744257386215	0.00244451493151881	0.0268750822164485	0.279541015625	-0.32958984375	0.61279296875	0	0	0	-0.320967106826367	0.151096677761378	-0.777968985631185	-0.518569347051068	-0.256131897269082	0.7098676107852	0.656113120093976	-0.903855864833781	-0.416511252537007	0.0977903477631159	0.342696697980763	-0.567984464284161	0.748299820609973	7.44541267602098	-41.0041065975209	109.840276700583
17542	1656656469754	6.60471078841441	0.962012248463745	7.53957514213992	0.0205611708444298	0.00611956508677356	0.256692210359343	-0.0085221368558425	0.00845158927716656	0.01674412729601	0.269775390625	-0.33154296875	0.6220703125	0	0	0	-0.320825424500132	0.151139595528014	-0.77805970481339	-0.518508404371268	-0.256440163181342	0.709882142308635	0.655976971195506	-0.903839841884849	-0.416611714519979	0.097510099714313	0.342508369137308	-0.567892616042881	0.748455739315876	7.42278456641988	-40.9937706592075	109.861913920578
17543	1656656469755	6.5645888089511	0.864218558633941	7.54913892169651	0.119454523581845	0.0122357963582762	0.228018700746217	-0.030255121029339	0.000559713717464232	0.0196318647477185	0.280029296875	-0.326416015625	0.60888671875	0	0	0	-0.320712354115376	0.151298845710499	-0.778095659897222	-0.518477954452792	-0.256648393328446	0.709804074258707	0.655980013695286	-0.90389771018972	-0.416578540066239	0.097114620269361	0.342199549555093	-0.568014521048556	0.748504490408889	7.39253690982452	-40.9940016172258	109.878793993574
17544	1656656469756	6.55143626992349	0.883790399764561	7.59750311035866	0.118208197513888	-0.0305065924562175	0.257543609266717	-0.021208127938576	0.00532058000963306	0.0130888767397428	0.282470703125	-0.32861328125	0.611328125	0	0	0	-0.320533669331265	0.151255052971706	-0.778196684495047	-0.518449607981797	-0.256936341617114	0.70994685775055	0.655712723322138	-0.903876206286213	-0.416663825868096	0.0969487489481126	0.34204023164835	-0.567773471890931	0.748760151551124	7.37755767919615	-40.9737145270867	109.89565918809
17545	1656656469756	6.58823240681619	0.879305028897394	7.53428581428205	0.0890557868782497	0.0326352566267393	0.233926503791219	-0.00959213197858043	-0.0058204312924066	0.00749612516770792	0.276611328125	-0.330322265625	0.605224609375	0	0	0	-0.320507580255164	0.151329586941647	-0.778207300178484	-0.518428051964749	-0.25701449187003	0.709884429849196	0.655749683359796	-0.903893548775918	-0.416663422104212	0.0967886623612718	0.341935671508643	-0.567851819525208	0.748748494230101	7.36562278338515	-40.9765193877396	109.902848345053
17546	1656656469757	6.58799965470617	0.900160759610653	7.56069752889867	0.0788422663036622	0.00831202316670925	0.255574190514842	-0.00484058140095677	-0.00916829345189286	0.00163185377158271	0.2744140625	-0.336669921875	0.6142578125	0	0	0	-0.320515322365723	0.151353253170312	-0.778196463390423	-0.518432623636089	-0.256995085757196	0.709862794977678	0.655780708928778	-0.903906941901611	-0.41663961500913	0.0967660662997134	0.34191485238101	-0.567896331658801	0.74872424176712	7.36415800981951	-40.9788739795208	109.90202247913
17547	1656656469757	6.57652060532454	0.90072430818081	7.58119943765793	0.0879636066249119	-0.0126857466393565	0.263453459401957	-0.00341488739272541	-0.0105558963893903	-0.00154422084541436	0.28271484375	-0.33544921875	0.611572265625	0	0	0	-0.320530649417711	0.151401183491654	-0.778180740664791	-0.518432752900107	-0.256975167008553	0.709811327939005	0.655844221039107	-0.903926206607764	-0.416610324715485	0.0967122037188433	0.341878891639456	-0.567982144147089	0.748675568842374	7.36057712845101	-40.9836943013328	109.901930710721
17548	1656656469758	6.61390765842473	0.897931022021598	7.51724847250961	0.0572682847380465	0.0512102967819728	0.239833566672171	-0.00476439116131471	-0.0089238983098773	-0.00298208650501546	0.282958984375	-0.33984375	0.611572265625	0	0	0	-0.320461046153395	0.151451012426597	-0.778206163875348	-0.518423065883112	-0.257084485317252	0.709811750964351	0.655800919183624	-0.903948350497224	-0.416600231190626	0.0965485732948251	0.341738126410432	-0.567989018876985	0.748734617466461	7.3476865779555	-40.9804078209354	109.90972099721
17549	1656656469758	6.58383308781846	0.933069392866718	7.55371190743299	0.045528196713653	-0.00644008073629981	0.250807348485724	-0.00206352972016817	-0.0121879449915934	-0.000105556039587438	0.27685546875	-0.33349609375	0.615478515625	0	0	0	-0.320484508286012	0.151500257497498	-0.778192936794267	-0.518414028601059	-0.257073149796587	0.70974529972623	0.655877279047069	-0.90395924184339	-0.416589133855624	0.0964944694754303	0.341717843753565	-0.568080190703694	0.74867470385373	7.34419531078893	-40.9862034148066	109.910629635676
17550	1656656469760	6.59684641284209	0.932333675883245	7.53188336901065	0.0341824754346479	0.0151105191593453	0.242932902724693	0.0015247860575895	-0.00945968971274755	-0.00477672555068691	0.278076171875	-0.330078125	0.605712890625	0	0	0	-0.320449562077775	0.151530303109228	-0.778210268878889	-0.518400832189953	-0.257145310697853	0.709734063465437	0.655861150200973	-0.903965340556895	-0.41659828884878	0.0963977634601858	0.341647409265696	-0.568087515163912	0.748701290807576	7.33665755107986	-40.9849792182561	109.916069720512
17551	1656656469760	6.57389013234131	0.912552232632735	7.54668666862278	0.0630731233050778	-0.00203307468815083	0.237052948804873	-0.0023500277711766	-0.00855931193891112	-0.00113671563004748	0.28076171875	-0.3330078125	0.607421875	0	0	0	-0.32045844967276	0.151569708707013	-0.778200226345223	-0.518398893856889	-0.257137937762571	0.709692685333887	0.655908814811014	-0.903979860812291	-0.416578420500851	0.0963474484291507	0.341614537467309	-0.568153774920658	0.748666010871605	7.33321164671302	-40.9885970784491	109.916613439953
17552	1656656469761	6.56815511086732	0.946280203792381	7.54096885505984	0.0319375193080791	-0.0176259133972879	0.232261034014874	0.00101287123774638	-0.0103968284592663	-0.00613296391802338	0.277587890625	-0.332763671875	0.605712890625	0	0	0	-0.320474777267377	0.151605454475801	-0.77817175706352	-0.518421083499972	-0.25707099463628	0.709669842380591	0.655959768989091	-0.904012739403198	-0.416510732711802	0.096331596751037	0.341577913093689	-0.568231928310426	0.748623406617222	7.33243099625252	-40.9924648444214	109.912426474326
17553	1656656469762	6.54530267269593	0.92686761364317	7.55564739195438	0.0608282425082245	-0.0347708628145748	0.226384754017843	0.00291403895805434	-0.0109692624712999	-0.00564532632987773	0.2822265625	-0.346435546875	0.61181640625	0	0	0	-0.320510083856158	0.151623438937008	-0.778150152254677	-0.518426426272289	-0.257014653378123	0.709633522816741	0.656021136278112	-0.904020887329778	-0.416488746614917	0.0963501905271383	0.341598745929202	-0.568293398903979	0.748567237822869	7.33437518700246	-40.997123337009	109.909344123473
17554	1656656469763	6.57609195241483	0.913734266058563	7.54462504614413	0.0588634318057257	-0.00268808106130931	0.237078333652253	0.000977119276294103	-0.0105191876704105	-0.0038248900915884	0.276123046875	-0.33984375	0.6025390625	0	0	0	-0.320455358472198	0.151753174939121	-0.778158332947626	-0.518410017251329	-0.257118834479863	0.709549913466468	0.656070747141986	-0.904070385764109	-0.416444055818746	0.0960785405674345	0.341389282989451	-0.568430531087977	0.748558674244703	7.3140036163743	-41.0008896205535	109.91894223355
17555	1656656469763	6.58819868218167	0.935098453593524	7.54965358199929	0.0385718037163627	-0.00649062238877603	0.25083638304522	0.00587807975208648	-0.0095447742485473	-0.00475197859179229	0.28564453125	-0.33984375	0.60986328125	0	0	0	-0.320491441548547	0.151758293418335	-0.778143722023854	-0.518408144368654	-0.257076463492766	0.709517617523829	0.656122276973859	-0.904066554422188	-0.416444832462005	0.0961112204213708	0.341431335839647	-0.568470273575498	0.748509312545777	7.31694169486021	-41.0048018133282	109.91675312153
17556	1656656469764	6.57109428346981	0.948563216532521	7.53812090871206	0.0249754247287333	-0.0197016432818843	0.232276900254797	0.00295284321994012	-0.0108471563037108	-0.0079511916836282	0.27734375	-0.336669921875	0.6181640625	0	0	0	-0.320462188618334	0.151907900923799	-0.778124989056547	-0.518410529125925	-0.257109017914651	0.709414897808903	0.656220584615987	-0.904137851402734	-0.416349025856607	0.095855278045097	0.341217963430725	-0.568668613020833	0.748455950605745	7.2981818260734	-41.0122660652546	109.921734187815
17557	1656656469764	6.57819259165903	0.915798202239423	7.54254324877309	0.0548746257475315	-0.00405336176674199	0.237100447332105	0.00401554203353242	-0.00885027503635325	-0.00754544261284068	0.285888671875	-0.336669921875	0.600830078125	0	0	0	-0.320492321406475	0.151915195153271	-0.778102819412922	-0.518423039440469	-0.257044448193588	0.709397550171312	0.656264632190243	-0.90414816437767	-0.416318651317699	0.0958899234409047	0.34123928335604	-0.568712490082602	0.748412890802065	7.30120670232762	-41.0156107610929	109.917573307138
17558	1656656469765	6.58388661242836	0.97093724229257	7.54241384303941	0.00309258498006068	-0.0239616426053872	0.246025514778974	0.0043061741073621	-0.012478863203292	-0.00651223963121297	0.271728515625	-0.332763671875	0.616455078125	0	0	0	-0.3205059468499	0.151981926984733	-0.778084910660361	-0.518421935981218	-0.25702926865467	0.709330348660007	0.6563432116848	-0.904174794309264	-0.416280380326986	0.0958049387590253	0.341180152398474	-0.568824315078648	0.748354863807713	7.2953651112992	-41.021578015594	109.918228071776
17559	1656656469766	6.59134660927087	0.938101875862623	7.54653265255136	0.0329824170178572	-0.00831891689965724	0.250854908746383	0.00218405945483804	-0.016472850648199	-0.00732151095878007	0.283447265625	-0.3291015625	0.620361328125	0	0	0	-0.320560602509906	0.152016909458766	-0.778049711936858	-0.518430713897299	-0.256940990012846	0.709268471038435	0.656444638672615	-0.904190999389618	-0.416240908253085	0.0958234987852701	0.341203699091939	-0.568930349240966	0.748263518714183	7.29764435039573	-41.0292810871156	109.913525357659
17560	1656656469767	6.56237840786106	0.952439373599997	7.55583910129014	0.0317936335564379	-0.0380552056323795	0.2401826967047	0.00620940122612432	-0.0130507650163276	-0.00602443124382655	0.272216796875	-0.329345703125	0.61328125	0	0	0	-0.320557593800841	0.151877485603714	-0.778081079698516	-0.518426361056708	-0.25695387443623	0.709384522835056	0.656314181756185	-0.904126448185649	-0.416334675056387	0.0960250177656613	0.341365013004281	-0.568717009687395	0.748352116846618	7.3119691011083	-41.0193734465629	109.911443586028
17561	1656656469767	6.55862852663117	0.94337520091861	7.49601917501367	0.021377576504062	-0.00388595851368548	0.192081301557106	0.00408804548736058	-0.0170449365306502	-0.00683285874100834	0.275390625	-0.32666015625	0.611083984375	0	0	0	-0.320618700855412	0.151905952403393	-0.778048253770716	-0.518429498669342	-0.256869007142485	0.709318554062259	0.656418694152337	-0.904134110509378	-0.416310873067746	0.0960560626872996	0.341408587154818	-0.568816706706648	0.748256460572412	7.31523239282558	-41.0273105938684	109.907089640507
17562	1656656469769	6.58904746977613	0.907800272758467	7.56946925842707	0.0716924151705551	-0.00743279271029017	0.263587610834984	0.00493003347885668	-0.0196138973958231	-0.00674963732998894	0.2802734375	-0.333740234375	0.6083984375	0	0	0	-0.320616904305813	0.151800908656941	-0.778066017094704	-0.518434718982697	-0.256860485653378	0.709412999036163	0.656319958334674	-0.904092748653755	-0.416363852568518	0.0962156125896471	0.341524512651157	-0.568660126149899	0.748322569608569	7.32661083765652	-41.0198121212663	109.904039079221
17563	1656656469770	6.55496028429346	0.934293916330672	7.54635469741534	0.0499878033825066	-0.0309450283335858	0.226457106694976	0.0115138652237175	-0.0237761828930331	-0.00751344963888569	0.269775390625	-0.331787109375	0.61279296875	0	0	0	-0.320723466954263	0.151815536900878	-0.778026918548889	-0.518423200207761	-0.256747686462364	0.709312799259051	0.656472374364308	-0.904076020588541	-0.416378856483684	0.0963078235146434	0.341653588438658	-0.568774120965984	0.748177001000672	7.33496740983636	-41.0313876855311	109.898574319637
17564	1656656469771	6.61593953358104	0.930107193212549	7.55084091994553	0.0398130503280892	0.0116923106088391	0.269436992809716	0.00906709020026696	-0.0242640772767999	-0.00704625298309632	0.2841796875	-0.338134765625	0.61279296875	0	0	0	-0.320726852986665	0.151799070381115	-0.77804215205236	-0.518403064838964	-0.256785096277678	0.709306796136422	0.656464228488003	-0.904050948654967	-0.416430609193996	0.096319416331145	0.3416918151869	-0.568743717926627	0.748182656009399	7.33578587872392	-41.0307689779033	109.90140125844
17565	1656656469771	6.57056323763037	0.936051896652455	7.52190453097369	0.0379215453480052	-0.00797598450478902	0.218565794222142	0.0121042886617583	-0.0225951059595133	-0.0107684068343942	0.275634765625	-0.3291015625	0.61865234375	0	0	0	-0.320832087575567	0.151802674366524	-0.777997501732409	-0.518403903279292	-0.256648329293397	0.709227545446105	0.656603323058452	-0.904040221112369	-0.416426682239932	0.0964370101659266	0.341822927379086	-0.568845415819744	0.748045439274149	7.34597675536963	-41.0413344923087	109.893681504206
17566	1656656469772	6.61370685958628	0.945044754228793	7.51549522961708	0.0183003771294237	0.0225688578573369	0.242960375496079	0.0143398852435171	-0.0266733275794272	-0.0115519604480373	0.275634765625	-0.33447265625	0.60595703125	0	0	0	-0.320915669584031	0.151744114718173	-0.777983977463454	-0.518389609728027	-0.256570691082915	0.709203492543439	0.65665964292122	-0.903991749264312	-0.416491872348845	0.0966097175723192	0.342009353292107	-0.568827677272777	0.747973713327663	7.35968640524787	-41.0456129873107	109.888757068546
17567	1656656469773	6.59211454776112	0.926979584947814	7.52901044573082	0.0471465816343584	0.00548049683356312	0.237138996245561	0.0133201161804362	-0.0285495351160915	-0.0142585200361703	0.277099609375	-0.333251953125	0.611572265625	0	0	0	-0.321049566360077	0.151752263029131	-0.777921950599548	-0.518397401016767	-0.256382621118136	0.709105438290073	0.656838967309368	-0.903985431248725	-0.416470770569197	0.0967596886702133	0.342167052298511	-0.568965354524282	0.747796853211088	7.37270971648608	-41.059237716611	109.877853463861
17568	1656656469773	6.61100648437089	0.937934371925896	7.5647976121363	0.0451460374050155	-0.00653185288235725	0.277367591249915	0.0140540147582356	-0.0230451336842656	-0.0125824227644528	0.27783203125	-0.336669921875	0.610107421875	0	0	0	-0.321070892628185	0.151749970052018	-0.777918993413389	-0.518389301763502	-0.256372027448179	0.709084770966462	0.656865413251108	-0.90397476433007	-0.416488956812721	0.0967810637854624	0.342203169179516	-0.568977799598974	0.747770856992304	7.37457403742282	-41.06124726825	109.877630417447
17569	1656656469774	6.60111227335132	0.963128578559871	7.49939164911564	0.00433039389238577	0.0120153304403735	0.224394456663013	0.00933812454676511	-0.0195766539880169	-0.0090224217005733	0.2841796875	-0.328369140625	0.611572265625	0	0	0	-0.321154899657114	0.151758715059423	-0.777882324831063	-0.518389729397837	-0.256263237762134	0.709016305931067	0.65698175841916	-0.903968525559073	-0.416482761716702	0.0968659588884844	0.342301121485491	-0.569067647223678	0.747657645659484	7.3820769285545	-41.0700887349173	109.871624319583
17570	1656656469775	6.59612160200361	0.953518655249472	7.55105019731771	0.0332801163663345	-0.0176651384906429	0.258804928147185	0.0106967597853182	-0.0212068744908456	-0.00758276426936599	0.2822265625	-0.33544921875	0.608642578125	0	0	0	-0.32122921758786	0.151753638383936	-0.777858628889178	-0.518380725401492	-0.25618642660023	0.708958435558398	0.657074159799633	-0.90394924565513	-0.416504513538921	0.0969523155021512	0.342409515208511	-0.569123823831242	0.747565246010258	7.38948855242935	-41.0771114785692	109.867628907017
17571	1656656469775	6.59837006437591	0.932982856759059	7.52278662305368	0.0430019458879703	0.00730510088234595	0.237156424599053	0.00689271879189123	-0.0200653908103428	-0.00855233718197226	0.280517578125	-0.3310546875	0.607421875	0	0	0	-0.321308335567115	0.151773743597632	-0.777820626006477	-0.5183828295848	-0.256080390973494	0.708885376161025	0.657194306749461	-0.903950051913606	-0.416487945492034	0.0970159518080141	0.342486696098188	-0.569226944833839	0.747451368498901	7.39539919396029	-41.0862440794143	109.861935574941
17572	1656656469775	6.61109033027879	0.954837114360537	7.52713830981115	0.0220287612162474	0.00334671788585557	0.250887729013566	0.00843149339685756	-0.0172496828746493	-0.00448964663268949	0.27783203125	-0.33544921875	0.608642578125	0	0	0	-0.321358122005267	0.151815179590695	-0.777801683140672	-0.518368257487504	-0.256046614101234	0.70880132431064	0.657298116582405	-0.903949488331272	-0.416493001750428	0.0969994950427615	0.342513436164081	-0.569327903890545	0.747362217334187	7.39503086981682	-41.0941358867908	109.861691484498
17573	1656656469776	6.61220934058487	0.955761538116723	7.52603798995934	0.0214833684279174	0.00345526592558862	0.250888871393791	0.00571887967114264	-0.0139899782154635	-0.00736514285540157	0.281982421875	-0.3310546875	0.604736328125	0	0	0	-0.32140955795582	0.151826196796901	-0.777775631909023	-0.518372229608563	-0.255972255250584	0.708757795298568	0.657374012374571	-0.903951358492989	-0.416478075073672	0.0970461460420151	0.342564075788179	-0.569393010658228	0.747289404041667	7.39926094696524	-41.0999062193262	109.857498519475
17574	1656656469777	6.61318036011475	0.956382589951504	7.52510585268796	0.0198548852690729	0.00347402152621502	0.250892209604501	-0.000571902147956471	-0.0134582409730477	-0.00556086793841697	0.28125	-0.332763671875	0.611083984375	0	0	0	-0.321399999418541	0.15189777636975	-0.777762222309785	-0.518377306076792	-0.255974017836659	0.70870868066466	0.657426275823468	-0.903988461612321	-0.416424068156987	0.0969322275168293	0.342464835369045	-0.569493635969834	0.747258211815374	7.3909764293301	-41.1038800872093	109.858893135936
17575	1656656469777	6.62072230583157	0.923276277015128	7.52926113026704	0.0496974161083501	0.0192237105502501	0.255745311376653	0.00510649620003827	-0.0152902114856905	-0.00179830969481785	0.2822265625	-0.333740234375	0.615234375	0	0	0	-0.321450394934826	0.151923717749013	-0.777748146654405	-0.518359573999749	-0.255945991278086	0.708634517816968	0.657517125029449	-0.903978274098518	-0.416445072056234	0.0969369997366513	0.342512670578102	-0.56957055938522	0.747177655163125	7.39212436303437	-41.1107884077281	109.858804436445
17576	1656656469779	6.61519978985016	0.957237113050247	7.52322198545445	0.0185027753610938	0.00444286675571922	0.250894405320665	0.000487979487073483	-0.0114603996799886	-0.00515911791354796	0.2724609375	-0.3330078125	0.61669921875	0	0	0	-0.321450852287598	0.151922112171386	-0.777749358018057	-0.518357943413103	-0.25594878412823	0.708634130548554	0.657516455250343	-0.903976100303851	-0.416449428667846	0.096938554980291	0.342516320753804	-0.569567855820463	0.747178042793923	7.3922378568847	-41.1107374739823	109.859014194661
17577	1656656469779	6.61589175718025	0.957530558954694	7.52257612904536	0.0179489880661181	0.00455659698237482	0.25089535741764	-0.00226115296146858	-0.00832158708495003	-0.00572852750046396	0.280029296875	-0.336669921875	0.61279296875	0	0	0	-0.321457889706655	0.151952056924356	-0.777730860910665	-0.518372554760528	-0.255909439232775	0.708616291461755	0.657550994514156	-0.904001041683711	-0.416400933735001	0.0969142869724816	0.342479890718173	-0.569625503168186	0.747150795083602	7.39067425336694	-41.1133640841269	109.856660867
17578	1656656469780	6.62377413860468	0.902353546450985	7.50032135762301	0.0561263686031544	0.0472905007073211	0.234106136462586	-0.00284044728311821	-0.00950140367152371	-0.00246866925583691	0.28271484375	-0.336669921875	0.605224609375	0	0	0	-0.321344480014632	0.151941005578231	-0.777796959258569	-0.518346936092156	-0.256108358016001	0.708686534606075	0.657397828276288	-0.903988148327823	-0.416460769335502	0.0967773490405485	0.34236520944334	-0.569494357542298	0.747303311976003	7.37885694045241	-41.101717039133	109.869072289045
17579	1656656469780	6.61152808463873	0.925084583697261	7.54774319446862	0.0548356548097644	0.00154823711918774	0.263696068125343	0.00015574393598764	-0.00795310354689916	-0.00389003705481529	0.285888671875	-0.343994140625	0.606689453125	0	0	0	-0.321354064597903	0.151963095241124	-0.777786313277742	-0.518350493130819	-0.256088662874888	0.708663921426611	0.657429877032685	-0.903999754725065	-0.416439967911549	0.0967584445040953	0.342349295608996	-0.569537706911569	0.747277565702288	7.37768280859669	-41.1041539151476	109.868248255454
17580	1656656469781	6.60553169623176	0.958627766518256	7.54217212871735	0.0216397964276152	-0.0162063190382866	0.258839118538647	-0.00558982622179504	-0.00636279939357668	-0.00303756791474643	0.28125	-0.329833984375	0.608154296875	0	0	0	-0.321308998470064	0.152157881332769	-0.777781799320882	-0.51832806145882	-0.256193096413012	0.708512871639174	0.657551981269865	-0.904071657480609	-0.41636799970533	0.0963956791648188	0.342081182602285	-0.569778202060235	0.747217013300974	7.35091468822301	-41.1134391255608	109.879621552893
17581	1656656469781	6.63584618616923	0.945044059812747	7.53149323961203	0.0220577831380601	0.016736991593251	0.269484359522423	-0.00153626626883601	-0.00281624469466616	-0.0040593783784824	0.278564453125	-0.335693359375	0.60791015625	0	0	0	-0.321294051459412	0.152174243287881	-0.777777499796409	-0.518338974983556	-0.256189679019585	0.70851942571202	0.657546250656599	-0.904090142326955	-0.416335413385514	0.096363053647854	0.342034885517644	-0.569793863559289	0.747226264353114	7.34836395556075	-41.113003321388	109.87920766611
17582	1656656469783	6.59545772665841	0.915626369281764	7.50927713915324	0.0499229965957607	0.0130626697831147	0.223497889799598	-0.0108564738975893	-0.00395470665471765	0.00147494461776425	0.28125	-0.332275390625	0.6064453125	0	0	0	-0.321220099330144	0.15224243032472	-0.77779226914365	-0.518342624386156	-0.25627714306161	0.708519114848028	0.657512501659966	-0.904132429212704	-0.41628633230659	0.0961781679003209	0.341857538150198	-0.569830109269153	0.747279780390311	7.33389924015762	-41.1104368216829	109.885470590257
17583	1656656469783	6.60562116819326	0.979375311961657	7.56838606685323	0.00891952446928166	-0.0403722725937984	0.280486825940194	-0.00401930961161991	-0.00342592445006383	-0.00128425566834609	0.286376953125	-0.3310546875	0.6083984375	0	0	0	-0.321198753609163	0.152274456369692	-0.777792429455044	-0.518346204094962	-0.256297146760528	0.708510775578725	0.657513690694914	-0.904152237948557	-0.416259405275318	0.0961084706592283	0.341790144935499	-0.569860148114143	0.74728770123447	7.32856556157451	-41.1105272421576	109.887116780816
17584	1656656469784	6.61875109267545	0.956096056529351	7.5202429810103	0.0096788004309776	0.00511725392414093	0.250906440108892	-0.0103770105291321	-0.00313697189203725	0.00513503725776748	0.282470703125	-0.333740234375	0.61279296875	0	0	0	-0.321188310742993	0.152351685457151	-0.777779671783365	-0.518349124761477	-0.256304507802146	0.708455663270692	0.657570203445977	-0.904189985234012	-0.416206297594752	0.0959832716934854	0.341684752195377	-0.569967447335506	0.747254065960856	7.31944821693121	-41.1148249127703	109.889068954815
17585	1656656469785	6.60189596530763	0.945920737455431	7.48255309861367	0.00883717228044121	0.0182772013149405	0.210684575172303	-0.0103763681233028	-0.0031369813323166	0.00513541618161536	0.279541015625	-0.332763671875	0.609619140625	0	0	0	-0.321144770371548	0.152418033426436	-0.777791897656674	-0.518338252002544	-0.256382985947904	0.708422076615774	0.657575794779455	-0.904215093996636	-0.416188399194729	0.0958242149166022	0.341559406699759	-0.570022260739985	0.747269559098847	7.30730028186493	-41.115250136698	109.895550257474
17586	1656656469786	6.62415210168765	1.007934332643	7.52064675532737	-0.041968839107663	-0.01346297030724	0.259725825764898	-0.0137376085294977	-0.00129976181197859	0.0101336022939791	0.28173828125	-0.335205078125	0.601806640625	0	0	0	-0.321056323476907	0.152476155608271	-0.777834229848922	-0.518312425089104	-0.256550134307488	0.708415424105653	0.657517768182745	-0.904229159855589	-0.416206503938348	0.095612617087247	0.341396624256399	-0.570017309358782	0.747347718252828	7.29058388934588	-41.1108373167359	109.907674670221
17587	1656656469787	6.62077990344197	0.908388771761823	7.46663807974527	0.0282602962129582	0.0558509101725968	0.207625141542648	-0.0159405610225233	0.00289879329139117	0.00861317620449012	0.276123046875	-0.3310546875	0.606201171875	0	0	0	-0.320972093306	0.152553850808297	-0.777861050208494	-0.518301480309349	-0.256680981655803	0.708402009924435	0.657481152574912	-0.904264125267756	-0.416181796225394	0.0953892249907976	0.341205605771584	-0.570052019403164	0.747408475844648	7.2731476386432	-41.1080529172002	109.917377370722
17588	1656656469787	6.60706068067338	0.950882046694357	7.54181340045928	0.0156315101572707	-0.0149315758746947	0.258852206392195	-0.013556352872406	0.00314495568462222	0.0127579606860341	0.279541015625	-0.33544921875	0.602294921875	0	0	0	-0.320852622107877	0.15266630159413	-0.777906952430538	-0.518273449642467	-0.256892452564394	0.70837027312609	0.657432752429266	-0.904303805822045	-0.416171263506534	0.0950584357494984	0.340941189343877	-0.570099145397224	0.74749319048814	7.24738190610702	-41.1043725547274	109.933317510988
17589	1656656469787	6.6188904667375	0.947981281290572	7.52114758632208	0.00549438088649177	0.00620465350124333	0.25090898291387	-0.0176944561528766	0.00779323510918949	0.0130612297291799	0.276123046875	-0.33349609375	0.608154296875	0	0	0	-0.320741161667721	0.152745488828307	-0.777951863354887	-0.518251696723998	-0.257080572109478	0.708366215253942	0.657363586252442	-0.904333277359122	-0.416167988970598	0.0947920271809756	0.340721151243615	-0.570106577793113	0.747587845709286	7.22638022390513	-41.0991134945961	109.946868920792
17590	1656656469788	6.59485820762454	0.925599510528086	7.53742068532423	0.0328798783762315	-0.0107145627248768	0.245165454236854	-0.0210185525252439	0.00975136327682481	0.0157554949629363	0.281005859375	-0.33349609375	0.60791015625	0	0	0	-0.320552005935513	0.152868843693332	-0.778026422172285	-0.518220430435134	-0.257387993940687	0.708373545794177	0.657235376554072	-0.904383203757937	-0.416157404214977	0.0943611979448192	0.340356344638553	-0.570105196026169	0.747755056237165	7.19228940624402	-41.0893661653818	109.96864725885
17591	1656656469789	6.56990940552652	0.969262392379304	7.52242965038499	-0.00864278019275279	-0.0380572358294797	0.221683737890286	-0.0161840735914881	0.010484488801751	0.0194327347261218	0.2734375	-0.333984375	0.612548828125	0	0	0	-0.320428693716984	0.1529455709065	-0.778093453850222	-0.518173408868445	-0.257643541168966	0.708358375808847	0.657151593709829	-0.904390973790319	-0.416207941363481	0.0940633620097197	0.340142282318023	-0.57008715208065	0.747866209165824	7.16877017926882	-41.0829972336949	109.987298244305
