// Start Time : 29/04/2022 04:55:25																																
// Update Rate : 100Hz																																
// Filter Profile : 46.1 human																																
// Firmware Version : 4.4.0																																
PacketCounter	Time_Of_Arrival	Acc_X	Acc_Y	Acc_Z	FreeAcc_X	FreeAcc_Y	FreeAcc_Z	Gyr_X	Gyr_Y	Gyr_Z	Mag_X	Mag_Y	Mag_Z	VelInc_X	VelInc_Y	VelInc_Z	OriInc_q0	OriInc_q1	OriInc_q2	OriInc_q3	Mat[1][1]	Mat[2][1]	Mat[3][1]	Mat[1][2]	Mat[2][2]	Mat[3][2]	Mat[1][3]	Mat[2][3]	Mat[3][3]	Euler_X	Euler_Y	Euler_Z
4984	1651208173068	9.00649858254622	-2.25887605959149	2.79491658708422	-6.59194920871187E-15	2.08166817117217E-15	-0.115724151448731	0.0133260972951956	0.011655726446709	-0.0309134548491169	0.329833984375	-0.322509765625	-0.0546875	0	0	0	0.199468296448508	-0.562258165065832	0.444380146602826	0.668284699685684	-0.0272159177558904	0.369639548937609	0.928776559610494	-0.818250262337391	0.525477368034362	-0.233109510463368	-0.574217556336878	-0.766315952818993	0.288156309057468	-38.9717839601018	-68.2448991342484	94.2109902367068
4985	1651208173069	8.95827647518749	-2.2309803966629	2.82034312866506	-1.73472347597681E-16	-2.60208521396521E-15	-0.159588099836888	0.0164383182573351	0.00405040391521364	-0.0307843349215149	0.3359375	-0.33056640625	-0.059814453125	0	0	0	0.196633048169116	-0.561488640201814	0.441234888318159	0.671846503766226	-0.0199154394896398	0.372069788442044	0.9279910817452	-0.813698679782902	0.533294435397168	-0.231282303028091	-0.580945637550964	-0.759711206777357	0.292131902584081	-38.3688373295666	-68.1237958657811	93.0638949906661
4986	1651208173069	9.00719653836036	-2.22792332680497	2.79565292102696	-0.00917503247446286	0.0274957676822393	-0.122069952023876	0.0164072553907373	0.00398501166501255	-0.0338353783328101	0.331298828125	-0.3291015625	-0.05615234375	0	0	0	0.198087050841189	-0.561861661902075	0.442714220353894	0.670132160301326	-0.0233688160378368	0.370759034589921	0.92843504711258	-0.815949112937566	0.529531278770968	-0.231999288575592	-0.577651230011143	-0.76297730180729	0.290145986347355	-38.6456572344657	-68.1921668788054	93.6065625976127
4987	1651208173070	9.00712402636527	-2.17569649736516	2.79395163826762	-0.047753472606938	0.0546174960357107	-0.134730978802187	0.0226177427487847	-0.00505569128739545	-0.0306535258010636	0.328125	-0.3271484375	-0.055908203125	0	0	0	0.198260137904462	-0.56179816512304	0.442670035492309	0.670163397284368	-0.0231478773167542	0.370558146339499	0.928520778419719	-0.816086873106571	0.529472314790683	-0.231649052260816	-0.577465489288206	-0.763115802517304	0.290151478764976	-38.6029149705318	-68.2053930662184	93.5744850964682
4988	1651208173071	9.03326767844454	-2.19529149194891	2.81880343583208	-0.0440535809572172	0.0328888172709817	-0.098684112812057	0.0195784002269781	-0.00660536673093909	-0.0305886271851998	0.331787109375	-0.32763671875	-0.05712890625	0	0	0	0.198424447086168	-0.561746682540265	0.442619849106426	0.67019107173295	-0.0229433323359775	0.370351192314742	0.92860842008479	-0.816208291856907	0.529430815951106	-0.231315878022621	-0.577302024771567	-0.763245049425409	0.290136806907111	-38.5641242679676	-68.2189218711335	93.5449549504098
4989	1651208173071	9.03281386931334	-2.14433421885251	2.79200737950247	-0.0676777044518109	0.0778765593281617	-0.118639966812859	0.0196200552543593	-0.00962341936722495	-0.0289974696327611	0.332275390625	-0.328369140625	-0.05517578125	0	0	0	0.198592933484407	-0.561706730767763	0.442568232490457	0.670208739849402	-0.0227621835990706	0.370124219947401	0.928703367500157	-0.816328169631825	0.529388412720662	-0.230989670640603	-0.577139673271001	-0.763384549414925	0.2900927907605	-38.5289538847313	-68.2335874556729	93.5191876893951
4990	1651208173073	9.08167384435706	-2.09179418589792	2.7882151884041	-0.107390933193554	0.124252036310082	-0.0864561017924945	0.0150995955061792	-0.0126454344313195	-0.0258317706619813	0.33251953125	-0.32421875	-0.0537109375	0	0	0	0.198745653891111	-0.561689723493249	0.442510424480644	0.67021589343094	-0.0226216425039238	0.369888256232432	0.928800807058088	-0.816421821750764	0.52936937857071	-0.230702123962531	-0.577012712389933	-0.763512107915121	0.290009639162944	-38.5021829379336	-68.248647757812	93.499738822221
4991	1651208173073	9.10884607262145	-2.16059653495084	2.81426818047534	-0.0650585587083516	0.0753444333249569	-0.0377475054511205	0.0135687883823756	-0.0157760452062739	-0.0288002000931621	0.323486328125	-0.32373046875	-0.057373046875	0	0	0	0.198906910046191	-0.561683940185287	0.442436335886386	0.670221814895067	-0.022477519949278	0.369615334096944	0.92891294850343	-0.816506601956244	0.529372259646612	-0.230395268350956	-0.576898370650151	-0.763642269336268	0.289894384947616	-38.47612822878	-68.2659926798511	93.4800583250115
4992	1651208173073	9.13385277379702	-2.13262780411341	2.81173556561374	-0.0848307002832296	0.0984361852814242	-0.0216538235859272	0.0196302676526157	-0.0127070079325113	-0.030458078633662	0.33203125	-0.32421875	-0.049072265625	0	0	0	0.199092321250996	-0.561651917260335	0.442372601058181	0.670235669962215	-0.0222927886583817	0.369346625401451	0.929024274106115	-0.816628961171181	0.529337458903819	-0.23004128841955	-0.576732322096058	-0.763796389691525	0.28981874291336	-38.4405051042618	-68.2832244537229	93.4540319192396
4993	1651208173074	9.10949433284698	-2.0809358327249	2.80961121956758	-0.122828516308252	0.115917132194215	-0.0567367921036492	0.0149808308101646	-0.00667792393651087	-0.0320673998362985	0.329345703125	-0.32666015625	-0.064453125	0	0	0	0.199247345711821	-0.561609229652248	0.442300552745195	0.670272921605444	-0.0220694115785928	0.369125870761507	0.929117340601893	-0.816722464103391	0.529341432536179	-0.2296999443392	-0.576608496036487	-0.76390034646877	0.289791136792405	-38.401738801124	-68.2976399442255	93.4215447100328
4994	1651208173074	9.06180137668448	-2.12890590744199	2.78812084377505	-0.0679180666498224	0.0871494003405323	-0.096211967354149	0.0120568850830348	-0.00643444885568819	-0.0198303339565149	0.333984375	-0.318603515625	-0.056640625	0	0	0	0.199370549193987	-0.561582185245883	0.44225264721246	0.670290555924905	-0.0219239095039403	0.36894964813854	0.929190776606457	-0.816801442898664	0.529327960295318	-0.229450023596118	-0.576502163977486	-0.763994808613282	0.289753666657094	-38.3749851215369	-68.3090212146773	93.4006594567655
4995	1651208173074	9.11176804036014	-2.12477715040344	2.81100534884728	-0.0840328944484585	0.0885631655266387	-0.0440722915767449	0.0151376123461955	-0.00945853908152866	-0.0197965589173968	0.322265625	-0.324951171875	-0.058349609375	0	0	0	0.199497782786556	-0.561560672592959	0.442219372299165	0.670292676689463	-0.0218167244794469	0.368772595319837	0.929263581269631	-0.816893031649527	0.529285322853162	-0.229222210648682	-0.576376444153847	-0.764109821919137	0.289700491320383	-38.3524051105846	-68.3203102518725	93.3856934772843
4996	1651208173076	9.16117499243314	-2.12194688068608	2.80946766503524	-0.0848671265758802	0.107484163518634	0.000779855239899873	0.0151878047440425	-0.00779707146120629	-0.0137283594766673	0.337158203125	-0.326416015625	-0.053955078125	0	0	0	0.199624099504338	-0.561536470318171	0.442194628896551	0.670291669032768	-0.0217185946446972	0.36860632722857	0.92933184502293	-0.816991176133007	0.529228258144248	-0.229004080536594	-0.576241026626415	-0.764229563880297	0.289654022799384	-38.3303359137485	-68.3309002638797	93.3720169252268
4997	1651208173076	9.08692161187889	-2.07425329597683	2.78421889984065	-0.106753791795322	0.123555368222448	-0.0864402128155976	0.0152542685133825	-0.00610101258975512	-0.00613479750630345	0.337158203125	-0.32568359375	-0.0595703125	0	0	0	0.199705936711728	-0.561517065374357	0.44221080614247	0.670272875078716	-0.0217036235516054	0.368527233807567	0.929363562157928	-0.817080399888393	0.529134283545837	-0.22890288354378	-0.576115069099007	-0.764332773024012	0.289632248270923	-38.3201112155767	-68.3358223384992	93.3704194181655
4998	1651208173077	9.06230367663174	-2.07499414379106	2.75996961826363	-0.0907363018773463	0.131232357104625	-0.116145409028316	0.0122636178442266	-0.00911121167802858	-0.00298230083262457	0.32958984375	-0.328125	-0.053955078125	0	0	0	0.199805621066702	-0.561513328742646	0.442205222721275	0.67024998055392	-0.0216853547152392	0.368389045086242	0.929418773670579	-0.817163122632864	0.529064509576354	-0.228768825926171	-0.575998417011524	-0.764447680464255	0.289560990869005	-38.3106413893863	-68.3443929661811	93.3688492573955
4999	1651208173077	9.08848577904091	-2.14717338156066	2.76184925241688	-0.0334447802378584	0.100185731646285	-0.0747418543813989	0.0123382001311553	-0.0151789893758013	-0.0013207901693558	0.331298828125	-0.324951171875	-0.057373046875	0	0	0	0.199884238261433	-0.561535594973815	0.442220270095134	0.670197955524364	-0.0217619834112191	0.368266012502339	0.929465739074678	-0.817234471134425	0.528975048023268	-0.228720829305991	-0.575894291747755	-0.764568860603419	0.289448133744101	-38.3156582414925	-68.3516860711922	93.3818528991521
5000	1651208173078	9.06411277544393	-2.12258504591707	2.76016730837961	-0.0515582477490116	0.103337437599872	-0.103480690887725	0.0107629077641402	-0.015296087755286	-0.00588016602568596	0.333251953125	-0.32568359375	-0.05322265625	0	0	0	0.200010896702523	-0.56155410775337	0.442187025209838	0.670166591230601	-0.0217447623972182	0.36804406146508	0.929554051214117	-0.817311824020028	0.528932551872654	-0.228542639099443	-0.575785157524353	-0.764705122507867	0.289305250531139	-38.3076979694905	-68.3654061143006	93.3812160340447
5001	1651208173079	9.06477517178889	-2.14702996464694	2.73530243769925	-0.0173147789889059	0.107643177830968	-0.104449693567949	0.0169367626548812	-0.0259882790454438	-0.00876049953883439	0.329833984375	-0.3271484375	-0.052978515625	0	0	0	0.200149702954549	-0.561594975698786	0.442179228885827	0.670096044771958	-0.0218227743763694	0.367798969579655	0.92964922658746	-0.817411239847172	0.528835251898283	-0.228412217977037	-0.575641061330781	-0.764890315225539	0.289102359354172	-38.3113412628044	-68.3802016993137	93.39557419438
5002	1651208173080	9.11501508424884	-2.14367685609891	2.75666007105787	-0.0327598131393113	0.108054043747495	-0.0522941427812125	0.0184315626866103	-0.0244835164098926	-0.0103376873631109	0.33935546875	-0.32275390625	-0.057373046875	0	0	0	0.20034373789666	-0.561625681380098	0.442136460652778	0.670040544192192	-0.0218161116484502	0.3674623327931	0.929782496743618	-0.817535086018889	0.528755473694058	-0.228153527622651	-0.57546541199331	-0.765107236285755	0.28887796139987	-38.3013999221638	-68.4009355630944	93.3976424117201
5003	1651208173080	9.06611965176481	-2.11971760767251	2.73046233498646	-0.0359468704085937	0.120217288593041	-0.11075931315349	0.0183978801735362	-0.0245531234789771	-0.0133886525492802	0.3359375	-0.31591796875	-0.051025390625	0	0	0	0.200497249191144	-0.561653847659069	0.442118667306648	0.669982755371764	-0.0218479211424856	0.367203662940271	0.929883938061627	-0.817643868753331	0.528663874171556	-0.227975902314274	-0.575309631617478	-0.76529470014444	0.288691616953096	-38.29767771304	-68.4167302809778	93.4049760437764
5004	1651208173080	9.09140638081979	-2.11775459413878	2.72812981918132	-0.0357993289462297	0.128609377972631	-0.0883146617168702	0.0184343514139487	-0.0229229219721508	-0.00884692779826195	0.330322265625	-0.332763671875	-0.056884765625	0	0	0	0.200693726312946	-0.561684336220054	0.442074472657212	0.669927529878053	-0.02183826586023	0.366862674083545	0.930018746321002	-0.81776876387401	0.528584377686945	-0.227712108806886	-0.575132453419376	-0.765513118130301	0.288465469327323	-38.2872523793569	-68.4377373805376	93.4066308064003
5005	1651208173081	9.11760273355287	-2.13936876519273	2.75144447236237	-0.0320339200314547	0.106807442788289	-0.0522780123040771	0.0199800994814146	-0.0213131746272902	-0.00584872048144536	0.331787109375	-0.325439453125	-0.050048828125	0	0	0	0.200824189063208	-0.56170568836333	0.442089598798853	0.669860546219325	-0.0219129874117058	0.366668581543051	0.930093528787241	-0.817884938974077	0.528452863441948	-0.22760008286329	-0.574964388099007	-0.765696886783023	0.288312729494767	-38.288298631706	-68.4493991017527	93.4200644315619
5006	1651208173083	9.11768355647571	-2.1395995711311	2.72563869699741	-0.0162922082594047	0.123167325348109	-0.0595488811269007	0.0215435302254026	-0.019667868003751	-0.00132539240528351	0.32763671875	-0.3251953125	-0.053955078125	0	0	0	0.201013329127428	-0.561729682946018	0.44207438081424	0.669793734397524	-0.0219399897498558	0.366366993536739	0.930211730143535	-0.818027608091433	0.528327766681629	-0.227377666786804	-0.574760358105868	-0.765927540306558	0.288106809620948	-38.2809641119201	-68.4678439154583	93.4270808860206
5007	1651208173083	9.14306089370105	-2.16294071575932	2.72498708074661	0.0024274148355168	0.119230536136581	-0.0308057587001755	0.0276857370506524	-0.0179794096967749	0.00314287251059732	0.333251953125	-0.321533203125	-0.061279296875	0	0	0	0.201136958055675	-0.561731851877162	0.442144593261417	0.669708450999732	-0.0220690295272984	0.366245869482913	0.93025637381446	-0.818186013201126	0.528104165507612	-0.227327161103892	-0.574529899777	-0.766139643576948	0.288002501381528	-38.2848641137378	-68.4748142849404	93.4483260515757
5008	1651208173083	9.12062203092987	-2.15951732127663	2.79819632250004	-0.0410906992189916	0.0542002813566248	-0.0313511639756978	0.0306505880882824	-0.00723697062569281	0.00438480103848173	0.328857421875	-0.32861328125	-0.05078125	0	0	0	0.201321822289233	-0.561707067679541	0.442178761454111	0.669651130744885	-0.0220737739244796	0.366043234282264	0.930336014105071	-0.818378796114209	0.527894933578102	-0.227119099093909	-0.574255077970921	-0.76638064285233	0.287909387977989	-38.2683607698479	-68.4872541383413	93.4509703127612
5009	1651208173084	9.09528834629699	-2.1617253319347	2.74976677665633	-0.0106187323179158	0.080320454758632	-0.0683567207208835	0.0322190683758191	-0.0133607053383169	0.00298277324707844	0.330810546875	-0.325439453125	-0.059814453125	0	0	0	0.201450859830258	-0.56168357274496	0.442265774402388	0.669574566403446	-0.0221749021985742	0.36595655089712	0.930367710407002	-0.818563105625134	0.527637071731811	-0.227054096293407	-0.573988428299579	-0.766599584783193	0.287858230364214	-38.2653366914978	-68.4922070232527	93.467561193149
5010	1651208173085	9.12052543542977	-2.1594990636025	2.77317156746411	-0.0253167250663263	0.0701585559631007	-0.0386228150891394	0.0321892474673696	-0.0103097842145843	0.00291128229297944	0.34326171875	-0.327880859375	-0.06103515625	0	0	0	0.201657491261996	-0.561664901446745	0.442292173407829	0.6695105884472	-0.0221796563500046	0.3657107166564	0.930464257543974	-0.818766456479066	0.527423779120195	-0.22681632869634	-0.573698137167021	-0.766863631254759	0.287733589401473	-38.2482139438364	-68.5073002417781	93.4706285300635
5011	1651208173085	9.09468345182815	-2.13736600364587	2.72364812630602	-0.0141408048150809	0.109852998940179	-0.0819324078643913	0.0352775433956638	-0.0102090504623217	0.00592477692701581	0.333740234375	-0.317138671875	-0.057861328125	0	0	0	0.201781517460486	-0.561627033655942	0.442400779164946	0.669433226597261	-0.0222867486778485	0.365663651895209	0.9304801956603	-0.818967472286919	0.527131539611185	-0.226769969976443	-0.573406993477883	-0.767086979181502	0.287718588556342	-38.2439722897002	-68.5097928193657	93.4877926171787
5012	1651208173086	9.07072988340117	-2.08614693298837	2.77029443627241	-0.0812201442305071	0.0894767982959632	-0.102379539019077	0.0352864260952243	-0.014858751035445	0.00298258951293819	0.333984375	-0.327392578125	-0.052978515625	0	0	0	0.202015505239137	-0.56162229022159	0.442422113419086	0.669352532173459	-0.0223138466319096	0.365359902387845	0.930598857712405	-0.819185545238549	0.526904818401531	-0.226509061225972	-0.57309435062711	-0.767387421106441	0.287540277538464	-38.2291746354169	-68.52835915972	93.4949188303306
5013	1651208173087	9.07157642698541	-2.10988877658147	2.77073502041482	-0.0619264042910976	0.0759074270188378	-0.0960776055319314	0.0307230735652854	-0.0164263574400927	0.00307552428057015	0.33642578125	-0.327880859375	-0.050537109375	0	0	0	0.202146050401648	-0.561612414951073	0.442502025223192	0.669268576397556	-0.022433093907605	0.365249937870541	0.930639156270194	-0.819360864026105	0.526657863960775	-0.226449263259275	-0.572839009495799	-0.767609260766075	0.287456939359677	-38.2298943296839	-68.534667913766	93.5146044983203
5014	1651208173088	9.09547491755066	-2.06008564020344	2.76675428247924	-0.100002388818466	0.110379836198729	-0.0862100077833965	0.0276824362302005	-0.0195424356891649	0.00166146390495933	0.328857421875	-0.3271484375	-0.049072265625	0	0	0	0.202380546162977	-0.5616328186521	0.442489088665015	0.66918913466977	-0.0224560331493974	0.364890667525385	0.930779526702254	-0.819544893852842	0.526491041894358	-0.226171063057867	-0.572574792961518	-0.76789451330106	0.287221383095344	-38.2184895548566	-68.5566567644511	93.5216446650054
5015	1651208173088	9.09583349449579	-2.05980751358953	2.76578234910747	-0.100001310567369	0.110379577719876	-0.0862099937641503	0.0231182510950732	-0.0133333347495121	0.0076725479393217	0.3408203125	-0.326904296875	-0.0546875	0	0	0	0.202465882417525	-0.561634011068267	0.442566164108496	0.66911134682843	-0.0225951440046763	0.364828632961394	0.930800477029814	-0.819675535547916	0.52628551368637	-0.22617598128031	-0.572382281252351	-0.768064858365096	0.287149608136526	-38.2260555482016	-68.5599404496229	93.5440061473087
5016	1651208173090	9.07155820013474	-2.08591123200665	2.74233771694389	-0.0638690910415157	0.102595519040637	-0.10959482354788	0.0170100374393154	-0.0149519308086551	0.00626114119476598	0.330322265625	-0.32275390625	-0.05322265625	0	0	0	0.202654715692104	-0.561663362427851	0.442534844034743	0.669050256205868	-0.0226056417572289	0.364508643507963	0.930925579071028	-0.819803559617912	0.526187956045796	-0.225938838073818	-0.572198487064186	-0.768283595894336	0.286930667027985	-38.2180825515784	-68.579558514259	93.5487531512407
5017	1651208173090	9.04905367527022	-2.10874351020537	2.79182583333397	-0.0739072686136145	0.0436641869802334	-0.111187782406768	0.00943524306296682	-0.0149084454815515	0.0109339185787944	0.33203125	-0.322021484375	-0.052001953125	0	0	0	0.202688600211059	-0.561703362647338	0.442582818549913	0.668974672509782	-0.0227804377698238	0.364451655578101	0.930943630087986	-0.819855128813435	0.526075560137793	-0.226013434963527	-0.572117662210598	-0.768387594754164	0.286813327470309	-38.23866857213	-68.5823906252757	93.5766803488894
5018	1651208173092	9.07264890663569	-2.08581360607048	2.76425478232692	-0.0774542118502154	0.08226725770583	-0.102285013503678	0.00793451633696762	-0.019536322658784	0.00953990670400878	0.330078125	-0.329833984375	-0.054931640625	0	0	0	0.202850113786407	-0.561768567363297	0.442535874374944	0.668902016703967	-0.0228438467724141	0.364116642043964	0.931073160203464	-0.81993591328905	0.526027662456091	-0.225831787908239	-0.571999350317366	-0.768579188709666	0.286535816118862	-38.2432370239574	-68.6027237079833	93.5899013468163
5019	1651208173092	9.09730940361574	-2.11167551873272	2.73859704022842	-0.0437673496993191	0.0961730588622983	-0.0808344879453902	-0.00121196034850189	-0.0227071888885345	0.00820687265205564	0.334228515625	-0.318115234375	-0.05419921875	0	0	0	0.202873303109721	-0.561855419550494	0.442536897794032	0.668821354696397	-0.0230408367748544	0.363985325302877	0.931119650101357	-0.819927184640105	0.526007033952372	-0.225911513918127	-0.57200396128774	-0.768655503588433	0.286321820814179	-38.273883584296	-68.610025985145	93.6220790525357
5020	1651208173094	9.12367625228902	-2.15943179538754	2.76284041528636	-0.0191944927340931	0.0581261147603153	-0.0385299122269327	-0.0012938303333556	-0.0182062157268948	0.00504407563175248	0.336181640625	-0.322998046875	-0.052734375	0	0	0	0.203019304106209	-0.561932364035254	0.442442154426259	0.66877508954553	-0.0230460835271979	0.363622347887888	0.931261330750159	-0.819954817892666	0.526056204293762	-0.225696625004995	-0.571964137554675	-0.7687936381374	0.286030360819962	-38.2757448551223	-68.6322947657855	93.6265084886733
5021	1651208173094	9.12405317850255	-2.15999706529111	2.76115328793732	-0.019192311265075	0.0581263942040041	-0.0385299096050371	-0.00127456204604284	-0.0181685380122757	0.00656941565110742	0.335205078125	-0.323486328125	-0.057373046875	0	0	0	0.203036831394455	-0.562002516210202	0.442442099662922	0.668710853296524	-0.0232036795614674	0.363517247745737	0.931298448321574	-0.819946088253858	0.526042067086328	-0.225761281030957	-0.571970280357297	-0.768853012120592	0.285858433741403	-38.3004806050989	-68.6381324104422	93.6522935734036
5022	1651208173096	9.09981195730417	-2.18664690998866	2.73706759914567	0.0170970471539796	0.0501108725145732	-0.0619572457559059	-0.001303547731481	-0.015117597596093	0.00649474527468211	0.33544921875	-0.330078125	-0.051025390625	0	0	0	0.203173664496903	-0.562073910883444	0.442348593935789	0.668671146530281	-0.0231987197055595	0.363174250561613	0.931432382480357	-0.819968715330794	0.52609636699586	-0.225552473966757	-0.571938043220409	-0.768977942702369	0.28558676151818	-38.3011911093537	-68.6592094838118	93.6549542992826
5023	1651208173097	9.12492700089197	-2.21117814764399	2.73631422470463	0.0358471250223256	0.046119169107131	-0.0332392708215501	0.00173430824592196	-0.0135651428328323	0.00641707963995443	0.32861328125	-0.3251953125	-0.0556640625	0	0	0	0.203191524361953	-0.56212185107324	0.442361080625235	0.668617157513577	-0.0233286022118619	0.363103625051088	0.931456673063004	-0.819977208238027	0.526059757551081	-0.225606980068151	-0.571920583900434	-0.769036337867111	0.285464457946921	-38.3198635099625	-68.6630341926829	93.6760742491761
5024	1651208173098	9.14956305369473	-2.21086800358563	2.73478590031756	0.0366252834725569	0.0531052916719845	-0.0107827662753959	0.00615712923101243	-0.00761133712307403	-0.00141981085518363	0.329345703125	-0.33642578125	-0.059814453125	0	0	0	0.203352948999833	-0.562145022568334	0.442279321209706	0.668602687524512	-0.0232360487361421	0.362790589384956	0.931580954234707	-0.820045981804349	0.526073160326707	-0.225325581571229	-0.571825737236156	-0.769174894440521	0.285281103469437	-38.3029860364855	-68.6826133008705	93.6646803758341
5025	1651208173099	9.09996583413507	-2.18817051091204	2.70983285454523	0.0333685429952574	0.0654114958783427	-0.0692141484784283	0.00769252548019052	-0.0106865980597251	-0.00289075301487954	0.326171875	-0.332763671875	-0.06103515625	0	0	0	0.2034104875897	-0.562160688063121	0.442280427524456	0.668571280989323	-0.0232732315496346	0.3626932246477	0.931617937508661	-0.820090743298423	0.526024393934611	-0.225276518398983	-0.571760027852139	-0.769254159417016	0.285199068669838	-38.3049321758419	-68.6884429127933	93.6715113113882
5026	1651208173100	9.14913762854593	-2.16142532734861	2.73126885243671	-0.00101194767820872	0.0778797620440572	-0.0232929959005439	0.00920554191310661	-0.00293232284049905	0.00147771782872891	0.32958984375	-0.328369140625	-0.048095703125	0	0	0	0.203541810891847	-0.562174630382758	0.44222468001644	0.668556466244426	-0.0232059653232658	0.362452254104605	0.931713392985153	-0.820156423326849	0.52601612720645	-0.225056604423062	-0.571668544218698	-0.76937337971444	0.285060832345755	-38.2912254239413	-68.7034964320529	93.663355788574
5027	1651208173101	9.10149758235509	-2.18493874228133	2.75833222412938	0.00443097547992779	0.0272660338038319	-0.0546727558684967	0.0075030981482592	0.00292893100349482	-0.00780391833610193	0.3349609375	-0.323486328125	-0.046875	0	0	0	0.203582237053491	-0.562140411434335	0.442222813251377	0.668574164942657	-0.0231257174550523	0.362433891180321	0.931722531506071	-0.820201101172207	0.525986512392668	-0.224962980103166	-0.571607693114857	-0.769402276643948	0.285104861177466	-38.2753280597413	-68.7049381272351	93.650906429748
5028	1651208173102	9.07609708061715	-2.16140803587248	2.73372031598542	0.00175459283193111	0.0465794713637976	-0.0906362967850373	0.00909773438720739	-3.26637033279151E-05	-0.00469853677674971	0.32568359375	-0.33349609375	-0.061279296875	0	0	0	0.203749854843136	-0.562131662659856	0.442157385022469	0.66857373367248	-0.0229903185892823	0.362161138211312	0.931831935072334	-0.820298116890016	0.525965687042987	-0.224657729624626	-0.57147392300774	-0.76954493437543	0.284987980973335	-38.2489238522292	-68.7222048915051	93.6323142519453
5029	1651208173103	9.10075287673446	-2.13482026554434	2.75638329785018	-0.0330319441226625	0.0518422366655683	-0.067174002926059	0.0106778914194843	-0.00146860177774388	-0.0016306474156448	0.333251953125	-0.33056640625	-0.051513671875	0	0	0	0.203793309123583	-0.562111197777553	0.442180741263832	0.668562248818247	-0.0229856132230955	0.362141699345917	0.93183960592991	-0.820359703707952	0.525888958423655	-0.224612466128408	-0.571385699958408	-0.769606518295509	0.284998576979088	-38.2422754081189	-68.7234160561511	93.6317672377866
5030	1651208173104	9.0764099086022	-2.13488050942704	2.75713322270936	-0.0316168674967057	0.0399330626812336	-0.0896157823079964	0.0106976382909091	-0.00143053117699161	-0.000105311876099266	0.33935546875	-0.327392578125	-0.049560546875	0	0	0	0.203931209111033	-0.56211615982989	0.442130516510629	0.668549243645264	-0.0229079415437159	0.361905988541422	0.931933088623902	-0.820438101081262	0.525865336641113	-0.224381304955431	-0.57127624535631	-0.769733527382811	0.28487496961722	-38.2256786214803	-68.7381814829468	93.6218787954282
5031	1651208173105	9.07688712548971	-2.15914200618095	2.75839563193468	-0.0123219868225813	0.0263570083558996	-0.0833670346404904	0.0122976040103852	-0.00282797222840544	0.00448804364374216	0.326416015625	-0.320556640625	-0.055908203125	0	0	0	0.20396575975412	-0.562103009022757	0.44217762186547	0.668518606186009	-0.0229616840620813	0.361908400321489	0.931930829429831	-0.820507469503103	0.525753839138643	-0.224388932705226	-0.571174451069589	-0.769808554387204	0.284876352190974	-38.2264902134915	-68.7378245319223	93.6303289747752
5032	1651208173106	9.10011152331396	-2.13561908585398	2.73236890657234	-0.016292243922585	0.0649927743243234	-0.0743995789462666	0.0122540355429005	0.0017484325866027	0.00437438719004796	0.32861328125	-0.324951171875	-0.052734375	0	0	0	0.204097480912095	-0.562095789533975	0.442153303090617	0.668500559640432	-0.0229024400915319	0.361714791775527	0.9320074504255	-0.820604130476246	0.525689349702788	-0.224186459569675	-0.571037949074472	-0.769943580413427	0.284785083347028	-38.210273585699	-68.7499337853172	93.6229202117001
5033	1651208173107	9.10004247011728	-2.13592067453314	2.73236315220032	-0.0162958419096776	0.0649986811086104	-0.0743996243897253	0.0108741439514544	-0.00730285530705796	0.00919869134995854	0.33349609375	-0.326171875	-0.0546875	0	0	0	0.204123985696412	-0.562105477926806	0.442207544244822	0.668448440764919	-0.0230201610047188	0.361707465817459	0.932007393403738	-0.820664307962283	0.52557177255275	-0.224241846078176	-0.570946727658636	-0.770027285924125	0.284741660296177	-38.2213993701627	-68.7499247710979	93.6415659724964
5034	1651208173108	9.07559950282807	-2.13683692420543	2.73277623353129	-0.0149251703567341	0.0531605023216723	-0.096844860977308	0.00928490729336515	-0.00277830494761419	0.00757968929017971	0.327392578125	-0.323974609375	-0.058349609375	0	0	0	0.204240626522058	-0.562124027421739	0.442185426814242	0.668411843541202	-0.0230227477834575	0.361506825560485	0.932085172158468	-0.820741079735358	0.525515629581968	-0.224092398576806	-0.57083625771261	-0.770159813375282	0.284604688546084	-38.2162326872796	-68.7622237275338	93.6439899652467
5035	1651208173109	9.1004042444504	-2.16105862970134	2.73331519679586	0.00383610180977132	0.0491335196283207	-0.0681445322377101	0.00615870604542684	-0.00139504649890686	0.00300664346158048	0.335205078125	-0.32373046875	-0.05517578125	0	0	0	0.204255711418178	-0.562118066701986	0.442211758980035	0.668394826176908	-0.0230559213859899	0.36151245232324	0.932082169824249	-0.820775754784141	0.525456729145675	-0.224103516603496	-0.570785060112445	-0.770197359519472	0.284605766880551	-38.2175088065868	-68.7617488500242	93.6491697873059
5036	1651208173110	9.10126424209602	-2.13416032080495	2.78072316054394	-0.0446973999110887	0.0246820802170792	-0.059869035782695	0.00767387862787833	-0.00450973649932202	1.17939338226894E-05	0.327880859375	-0.33837890625	-0.054931640625	0	0	0	0.204381811235749	-0.562145380408424	0.442155901096132	0.668370260893863	-0.023018539177328	0.3612631278914	0.93217975695692	-0.820832291994131	0.525452468723724	-0.223906345447833	-0.570705261298512	-0.770317243438225	0.284441293042926	-38.2090948458052	-68.7771893406152	93.6457766865575
5037	1651208173111	9.10119127183676	-2.15956112340487	2.75739512687663	-0.0104602041516124	0.0289971021881504	-0.0608842237636029	0.00765953645671048	-0.00298427474454441	-2.64428307085658E-05	0.334228515625	-0.3232421875	-0.0556640625	0	0	0	0.204413960420577	-0.562138415211077	0.44217456520155	0.668353939778897	-0.0230358879344027	0.361240345929268	0.932188157154968	-0.820876104960639	0.52539317334799	-0.223884867072293	-0.570641540874587	-0.770368370243893	0.284430669858307	-38.2074635357193	-68.7785189427369	93.6487465147103
5038	1651208173113	9.05362259939374	-2.18325009319352	2.78410054192028	-0.00422707201600467	-0.0236883902613743	-0.0923324333744553	0.00458174848444141	-0.00461372392774832	-0.00299758732702199	0.33544921875	-0.32275390625	-0.05419921875	0	0	0	0.204535917378117	-0.562162169243543	0.442100492385689	0.668345650547692	-0.0229582997925487	0.360987172378936	0.932288140999603	-0.820916592384937	0.525424426269247	-0.223662962125461	-0.570586421865906	-0.770465725167248	0.284277507947373	-38.1948493186876	-68.7943507151261	93.639033603972
5039	1651208173114	9.07711925767573	-2.15926106754394	2.75753843198869	-0.00913368673382941	0.0173453186308702	-0.0833432797245699	0.0061079232269526	-0.00460037515548305	-0.00301823130272279	0.336181640625	-0.31982421875	-0.05126953125	0	0	0	0.204574761107481	-0.562161053078682	0.442103266091967	0.668332865891017	-0.0229606949754348	0.360936359419044	0.932307755483978	-0.820952211969049	0.525387738457265	-0.223618402511704	-0.570535075301573	-0.770514548031436	0.284248235038569	-38.192168914439	-68.7974578604624	93.6399232175957
5040	1651208173115	9.10275067084044	-2.18154692992263	2.78238357562339	-0.00436335046755543	-0.00680186087799123	-0.047401404712355	0.00453855509912022	-3.73611798212791E-05	-0.0031126713160909	0.32275390625	-0.326904296875	-0.054443359375	0	0	0	0.204695723119485	-0.562165442600103	0.442032318287542	0.668339064900565	-0.0228451105288592	0.360709208948623	0.932398502521632	-0.821000656091877	0.525414181051864	-0.223378291349689	-0.570470002385429	-0.770602884064975	0.284139352165641	-38.1729254912083	-68.8118388247965	93.6239232819163
5041	1651208173115	9.05350521527359	-2.18291716737398	2.75926294468068	0.0116370781434132	-0.00797185945377145	-0.0995819385951933	0.00294137832275641	-0.00329557496508719	-0.0106417784850714	0.3330078125	-0.322265625	-0.05078125	0	0	0	0.204742718160829	-0.562159011628369	0.442001834725756	0.668350239847489	-0.0227767525118395	0.360628136345183	0.932431534656145	-0.821019992662773	0.525429594918362	-0.22327093951508	-0.570444906360846	-0.770630318674348	0.28411533001026	-38.1618978419214	-68.8170758416626	93.6139185155358
5042	1651208173116	9.05379411571284	-2.18196610223463	2.75906724165988	0.0121834137843864	-0.00942242711240741	-0.0995839073567541	0.00603371949407006	-0.00319102374138553	-0.00763255394678178	0.3291015625	-0.32177734375	-0.04638671875	0	0	0	0.204866415220673	-0.562158094069101	0.441957514601693	0.668342415588238	-0.0226963348806197	0.360423278754095	0.932512700457819	-0.821092532830984	0.52540661440345	-0.223058158493035	-0.570343693672671	-0.770741817778984	0.284016058374454	-38.145086191827	-68.8299493687238	93.6032339867576
5043	1651208173117	9.0301176090339	-2.20601307177347	2.7607205311294	0.0320171990775046	-0.0325404566952023	-0.115831607456361	0.00454214712396318	-0.00469117596826018	-0.00604803776717389	0.333740234375	-0.330078125	-0.0517578125	0	0	0	0.204908890067084	-0.562157459010552	0.441945564673381	0.66833783067832	-0.0226737817113474	0.360355758005856	0.932539343564083	-0.821120001880993	0.525392929274005	-0.222989265167269	-0.570305043054911	-0.770782717463816	0.283982676100551	-38.139760379071	-68.834176800997	93.6003356042982
5044	1651208173117	9.07970990341298	-2.22873991026633	2.76019486700287	0.0510391951308616	-0.0285068637202594	-0.0646787715096622	0.00760368120120021	-0.00775382839835001	-0.00753787538217568	0.332275390625	-0.327392578125	-0.05908203125	0	0	0	0.205052141351495	-0.562160211729464	0.441898696589335	0.668322570042414	-0.0225971233981372	0.360117434810481	0.932633262949402	-0.821206055601428	0.525358322559628	-0.222753781473805	-0.570184166965091	-0.770917677876733	0.283859031350901	-38.1224762078161	-68.849085315755	93.5905634341272
5045	1651208173118	9.05569096737715	-2.22821664666283	2.76038020325064	0.0515706290726517	-0.0380283940073217	-0.087149773452504	0.0121822144848915	-0.00771293496496309	-0.00760036215786749	0.327880859375	-0.327392578125	-0.060791015625	0	0	0	0.205131226565301	-0.562150948336023	0.441900117837525	0.668305152627081	-0.0225788057198173	0.360018824300634	0.932671777037054	-0.821277678488695	0.525290931485994	-0.222648629267723	-0.570081724271605	-0.771009651980937	0.28381498234545	-38.1136562704374	-68.8552018398022	93.5886405629775
5046	1651208173120	9.0808459118217	-2.17550175668165	2.80547070151175	-0.0174696362219243	-0.0383671275281333	-0.0626381893555656	0.0168104035865062	-0.01068375714644	-0.00606041117713883	0.329345703125	-0.32470703125	-0.0556640625	0	0	0	0.205260178709716	-0.562176180391004	0.441869225989162	0.668264759179157	-0.0225809413505592	0.359786497281849	0.932761372196223	-0.821356030295461	0.525239692319589	-0.222480419608795	-0.569968747024786	-0.771152995186871	0.283652402474074	-38.1085707382179	-68.8694372199475	93.5912905786411
5047	1651208173121	9.05491661110244	-2.17884538956525	2.7323365562384	0.0278610019686076	0.00582450788056128	-0.106826510804964	0.015339554669263	-0.0121446358534816	-0.00295006025742227	0.33056640625	-0.328125	-0.05908203125	0	0	0	0.205346392940178	-0.562179875126716	0.441890390964591	0.668221167939275	-0.0226266592486581	0.359677807221342	0.932802181217267	-0.821444245384665	0.525131482559238	-0.222410156579133	-0.569839789779253	-0.771277382669544	0.283573293817936	-38.1075431083716	-68.8759242198053	93.5996270772464
5048	1651208173122	9.12873370023783	-2.15113968288406	2.75258427124209	-0.00791191116994334	0.029024868214827	-0.0383845282726991	0.019947768103185	-0.0151543131479021	-0.00293548180524718	0.33349609375	-0.324951171875	-0.061767578125	0	0	0	0.205489337054988	-0.562206960378285	0.441886091136603	0.668157278280289	-0.022679967675555	0.35944374477583	0.932891104796141	-0.821553887079165	0.52502162963343	-0.22226447993814	-0.569679585110218	-0.771461264587267	0.283394932117821	-38.1068189268994	-68.890066095851	93.6104287238509
5049	1651208173123	9.10450207978846	-2.1008362133195	2.77416443961488	-0.0609392400467822	0.0287814311841198	-0.0660511647276269	0.0184421178530258	-0.0151286873164211	-0.00138902765037976	0.329345703125	-0.32275390625	-0.05908203125	0	0	0	0.20558802442571	-0.562215576104459	0.441918065930437	0.668098520581034	-0.0227558620203346	0.359320032946958	0.932936913551344	-0.821659191317671	0.52488397443407	-0.22220033012011	-0.569524665020667	-0.771612549992087	0.28329442039653	-38.1086572371781	-68.8973547768498	93.6237221192914
5050	1651208173125	9.15297689602582	-2.1008491444743	2.74761851818155	-0.047024058950406	0.0644954025446153	-0.0283330269688005	0.00926679048753012	-0.00903043655121003	0.00163260353396619	0.324951171875	-0.324951171875	-0.05810546875	0	0	0	0.205665163322837	-0.562258682262751	0.441889188797137	0.668057602037245	-0.0228017619112738	0.359140816233495	0.933004798363267	-0.821688911102501	0.524871570839198	-0.222119714334363	-0.569479949625031	-0.771704417662574	0.283134029631092	-38.1143179808869	-68.9081604238369	93.6328189207497
5051	1651208173125	9.17841276710537	-2.07340455381532	2.79386125337496	-0.096745475566418	0.0517961373593973	0.00239722868697356	0.00311176119016419	-0.00607425833286272	0.000114280601664125	0.332763671875	-0.328857421875	-0.04833984375	0	0	0	0.205688379454389	-0.562272818215783	0.441892065830117	0.668036653642223	-0.0228386398958559	0.359094224276287	0.933021829658405	-0.821706163436514	0.524847385427637	-0.222113040995385	-0.569453578001009	-0.771742547810593	0.283083136906216	-38.1184839082736	-68.9108722299742	93.6391494619494
5052	1651208173127	9.22756532569826	-2.12255172899113	2.7704217680092	-0.0438290939710957	0.0606395398250881	0.0525458492589195	-0.00306720673968932	0.00149792060923276	3.55717575135145E-06	0.329833984375	-0.32958984375	-0.0537109375	0	0	0	0.205724877007178	-0.562277099264075	0.441865755677874	0.668039214854024	-0.0228017647952008	0.359018530807744	0.933051860326571	-0.821716079167963	0.524863857879206	-0.222037420109734	-0.569440747364513	-0.771766561356999	0.283043477247118	-38.1129075505891	-68.9156546708583	93.6340534395408
5053	1651208173127	9.17748421505308	-2.10042213476547	2.74656903754955	-0.047159369170827	0.0730997254473113	-0.00584977211696902	-0.00466763446565162	0.00911138707993785	-0.000171318259933083	0.33837890625	-0.3271484375	-0.05322265625	0	0	0	0.205689277038183	-0.562257380223406	0.441861623180172	0.668069506605717	-0.0227501113102077	0.359087925076887	0.933026416828242	-0.821689181267027	0.524900454544187	-0.22205044969112	-0.569481625536852	-0.771709384991061	0.283117119391644	-38.1073021018313	-68.9116026784911	93.6251442703573
5054	1651208173130	9.12831689433995	-2.10156447840532	2.74895251679054	-0.0453642334240598	0.0527856577344111	-0.0507901023336163	-0.0108259609532055	0.0167231559429275	0.00124319962834879	0.333251953125	-0.32275390625	-0.05908203125	0	0	0	0.205669944349797	-0.562231349375651	0.44180442642717	0.668135190331826	-0.0225904828628113	0.359101988405118	0.93302488284478	-0.821638349756324	0.525017445561021	-0.22196194283319	-0.569561315657699	-0.771623252487942	0.283191567540772	-38.0888962665113	-68.9113584084265	93.5996345944621
5055	1651208173131	9.17748879109952	-2.15007844975093	2.75152905117221	-0.0078214325393405	0.0446319042929944	0.00657923422398632	-0.0123203325063845	0.0198788546774599	0.00576199023964948	0.341064453125	-0.3291015625	-0.0537109375	0	0	0	0.205568336188372	-0.562198563904056	0.441809730253563	0.66819053880928	-0.0225261260050179	0.359285716640124	0.932955704985826	-0.821566610197119	0.525091642820037	-0.222051957095113	-0.569667340345593	-0.771487226374453	0.283348867801924	-38.084727932181	-68.9003453975053	93.5875759069931
5056	1651208173132	9.15448539334347	-2.19800593944342	2.80525436429515	0.00221766389013733	-0.0294863715979354	0.0109784480372337	-0.0153301032787149	0.0261503401372038	0.0132743594040191	0.33935546875	-0.32568359375	-0.05615234375	0	0	0	0.205476918747538	-0.562174560929132	0.441763502335852	0.668269411921657	-0.0223904579037999	0.359406278672926	0.932912533009037	-0.821461864984799	0.525248487731959	-0.222068526610563	-0.56982371990867	-0.771324285230129	0.283477997812311	-38.0741298295241	-68.8934752631598	93.5648318071368
5057	1651208173133	9.05472612626978	-2.1782192454482	2.7844524327141	-6.71165091213968E-05	-0.0360386855402326	-0.0923694579875072	-0.0122922775581025	0.02770295354602	0.013193667583874	0.33642578125	-0.33251953125	-0.052490234375	0	0	0	0.205337369157576	-0.562123208921304	0.44180143440464	0.66833042380058	-0.0223420188999638	0.359688878058085	0.932804773354419	-0.821388481507345	0.525296114770895	-0.222227258124785	-0.56993139643165	-0.771160101929501	0.283708125638922	-38.0714334642799	-68.8763363300018	93.5543519583641
5058	1651208173134	9.05578327992294	-2.25173960877935	2.8144159811328	0.0437371708931525	-0.096046552663323	-0.0665424312541312	-0.00911261182124245	0.0186556780439977	0.0164360515496497	0.333251953125	-0.33056640625	-0.058349609375	0	0	0	0.205269035796658	-0.562104204107955	0.441786381170559	0.668377348568527	-0.0222726857272325	0.35979484417195	0.932765564103745	-0.821325196149902	0.525378832710663	-0.222265616569245	-0.570025306139843	-0.771054312125198	0.283806973334545	-38.0665450001804	-68.8701034777675	93.5423090898716
5059	1651208173134	9.07821725392314	-2.22975065413904	2.78971971511818	0.0388384142304269	-0.055035144772744	-0.0574931128047868	-0.00150141321874384	0.0186834737093921	0.0148082344406174	0.3427734375	-0.327880859375	-0.0556640625	0	0	0	0.205181030845091	-0.56206069139422	0.441850675179823	0.668398462456289	-0.0222884799348289	0.360016239735393	0.932679757896022	-0.821313007966475	0.525337450848961	-0.222408420885039	-0.570042249844041	-0.770979163053259	0.283977047541594	-38.0677467202103	-68.8564695122831	93.5426402755334
5060	1651208173136	9.02870158470987	-2.23180916168481	2.79236743496296	0.0403909858972548	-0.0752088463425486	-0.102463248866446	0.00158324047192158	0.0110044962132882	0.0119107430901432	0.330078125	-0.321044921875	-0.0556640625	0	0	0	0.205156849331822	-0.562049586223079	0.441839830431518	0.668422391937128	-0.0222443462585754	0.360054628064699	0.932665992662282	-0.821287917175824	0.525376462832974	-0.222408923836497	-0.570080122579734	-0.770934651647144	0.28402185959741	-38.0634210679692	-68.854283100226	93.5352672573885
5061	1651208173136	9.05168689188974	-2.18357899985973	2.79013014628621	0.00125539245559043	-0.0385091728118468	-0.092379012260011	0.00773064652293448	0.00648090282905148	0.0119460125800936	0.33740234375	-0.32470703125	-0.0615234375	0	0	0	0.205134765832165	-0.56202361179215	0.441907746770966	0.668406112314135	-0.0223059937361724	0.360166514047101	0.932621319080043	-0.821328842035623	0.52527454238158	-0.222498513177603	-0.570018750466915	-0.770951838498995	0.284098375270178	-38.067130388495	-68.8471888211213	93.5439414037378
5062	1651208173137	9.04955104221632	-2.16262428692195	2.74084473271931	0.0120203437941628	0.0100017765807585	-0.113032570720678	0.00929051030693933	0.0050077369511287	0.0134899365214077	0.327880859375	-0.329833984375	-0.047119140625	0	0	0	0.205136732749651	-0.562020101250069	0.441936595168288	0.668389386898626	-0.0223490967161527	0.360189525165062	0.93261140022913	-0.821353394405331	0.525221933455718	-0.22253206985933	-0.569981683367819	-0.770976929991037	0.284104653335322	-38.0707102168332	-68.8456139901954	93.5505457692716
5063	1651208173138	9.07409577540008	-2.1621480938	2.76521649407944	-0.00344362391900433	0.00158260417623705	-0.0833242691537848	0.00782283753355269	0.00511252192583477	0.0180860307233631	0.333251953125	-0.33349609375	-0.0478515625	0	0	0	0.205100825235359	-0.562005041708301	0.442023409506341	0.668355661329067	-0.0224687229143204	0.36032230068547	0.932557234768638	-0.821393092048689	0.525097913872328	-0.222678174012682	-0.569919770516248	-0.770999364769945	0.284167969164451	-38.0827682357844	-68.837016030848	93.568189551443
5064	1651208173139	9.12160895937506	-2.16423155136665	2.74047117477923	0.0109388702867266	0.0385530628630194	-0.0455883037350659	0.00168767980579129	0.0127669449597591	0.0210223179499838	0.329345703125	-0.325439453125	-0.053955078125	0	0	0	0.205054014976708	-0.561952589819442	0.442139181834541	0.668337550661219	-0.0225555386361891	0.360535166139233	0.932472863762687	-0.821457705215376	0.52493158965723	-0.222831920339574	-0.569823206107929	-0.771013112830702	0.284324275474308	-38.0866711642016	-68.8236300262311	93.5798313352436
5065	1651208173140	9.09728755873873	-2.21507930879786	2.74490689451501	0.0500621373228873	0.00184252584368707	-0.0556785417881862	0.00468770068116798	0.0142390796552767	0.0178925931609697	0.333984375	-0.32568359375	-0.053955078125	0	0	0	0.204987884527919	-0.561913295168926	0.442226605109223	0.668333034977876	-0.0226218431080583	0.36073846295164	0.932392628435941	-0.8214801336108	0.524831193860679	-0.222985667776105	-0.569788243382729	-0.770986367777058	0.284466831818337	-38.0919141437194	-68.810907658385	93.5883090878484
5066	1651208173140	9.12084925778313	-2.21593575263908	2.74604352752367	0.0497410149736945	0.0108418892389806	-0.0331973319906407	0.00147690907507537	0.0232091374896553	0.0115970509140536	0.333984375	-0.33251953125	-0.058837890625	0	0	0	0.20493252600386	-0.561848383935463	0.442278775545728	0.668370060637486	-0.022568243658241	0.360929766958182	0.932319890220999	-0.821493801162505	0.524784288974897	-0.22304570091506	-0.569770663539078	-0.770928760242232	0.284658106509572	-38.0807040855085	-68.7993803508559	93.5779367111423
5067	1651208173141	9.12104808263534	-2.23984638626602	2.77381325837381	0.0541058444411544	-0.0206728881458559	-0.0197759112929923	0.00755708300209904	0.0216547821493491	0.00850640194786798	0.342041015625	-0.32666015625	-0.056396484375	0	0	0	0.204885986097156	-0.561768314442713	0.442350434509042	0.668404209052315	-0.0225150920442907	0.361140874478463	0.932239421721249	-0.821534694729393	0.524695651581316	-0.223103605007947	-0.569713801821687	-0.770890226940639	0.284876187178378	-38.0666229630302	-68.7866349356787	93.5674507383036
5068	1651208173142	9.11984348401846	-2.21591619487212	2.77475378988341	0.0349448249933911	-0.00801916640427351	-0.025971752073179	0.00597968758543755	0.0230889226453114	0.00543625863379958	0.328369140625	-0.328369140625	-0.056396484375	0	0	0	0.204846866017697	-0.561710382383704	0.442346401586341	0.668467552547389	-0.0223777853480623	0.361259210011324	0.93219687722332	-0.82151765577494	0.524734844972686	-0.223074166414532	-0.569743780986649	-0.770808099109944	0.285038415610163	-38.0471202898288	-68.7798992587064	93.5445920669991
5069	1651208173143	9.07111940283862	-2.26551378496815	2.78098967577507	0.0745819863072247	-0.0542409373519714	-0.0585519171434061	0.010462102924196	0.0275838473006209	0.000684578653148151	0.33642578125	-0.3212890625	-0.05029296875	0	0	0	0.20481895835245	-0.561596235347808	0.442405795739681	0.668532702744246	-0.0222264393217828	0.361474372793945	0.932117086641104	-0.821576596548326	0.524652612390714	-0.223050515165664	-0.569664709631151	-0.770763202368162	0.285317725485173	-38.0169396563363	-68.7672722493976	93.5185893209824
5070	1651208173144	9.09446365248362	-2.21496261934462	2.8049486223791	0.020632678574291	-0.0358524345950331	-0.0412313011543457	0.0135650800667961	0.0261621735178392	0.0037359641761649	0.325439453125	-0.3349609375	-0.05224609375	0	0	0	0.204814153551263	-0.561487442785112	0.442471790680442	0.668581878719247	-0.0220988679066436	0.361656091539407	0.932049629306125	-0.821658392834191	0.524539753914245	-0.22301464536823	-0.569551688192019	-0.770754771646614	0.28556602819943	-37.988288255454	-68.7566025841818	93.4966907663049
5071	1651208173144	9.11766397918787	-2.1900157548005	2.80574349393831	0.000810304218099371	-0.0127604649997141	-0.0249400278235914	0.0181388016874461	0.0246339981880924	0.00219291295630315	0.331787109375	-0.319091796875	-0.052001953125	0	0	0	0.20481428290894	-0.561367626350567	0.44255463107797	0.668627621410804	-0.0219764268060554	0.361856284965428	0.931974820312146	-0.821760716322567	0.524393016055878	-0.222982711932654	-0.569408782663087	-0.770760659182109	0.285834995204054	-37.9581459168611	-68.7447760875338	93.4754455544455
5072	1651208173146	9.06804077303462	-2.19069428840931	2.80967556666326	0.00162423320793914	-0.0317169113801828	-0.0699068352698013	0.0135700472371897	0.0277274690855101	0.00522100643669872	0.333251953125	-0.325439453125	-0.054443359375	0	0	0	0.204791914372934	-0.561251287711748	0.442660325170641	0.668662172078843	-0.0219023428765449	0.362100977733928	0.931881521064053	-0.821859880352982	0.524224216654584	-0.223014142464265	-0.569268499429489	-0.770760567619428	0.286114527698747	-37.934903885133	-68.7300352689065	93.4614232088968
5073	1651208173147	9.09107774139047	-2.1661577212843	2.81068403355322	-0.0182025152102699	-0.00862160177580138	-0.0536160927005689	0.0182027626646745	0.02788387214133	0.0097410129424658	0.333984375	-0.321533203125	-0.059326171875	0	0	0	0.204763755466472	-0.561128127950746	0.442772151381562	0.668700119957146	-0.0218239080331308	0.362366175930936	0.931780270009701	-0.8219609870392	0.52404925281642	-0.223052721140309	-0.569125515878269	-0.770754912513532	0.286414056939516	-37.9106434130058	-68.7140491194861	93.4465393159737
5074	1651208173148	9.04022148982042	-2.16973936913178	2.76589492086934	0.0126664168529394	0.00748178718330593	-0.113031121754558	0.0181936634944322	0.0247529148559592	0.00676982936623045	0.33447265625	-0.32421875	-0.0498046875	0	0	0	0.204755646285181	-0.561036819630684	0.442827932593597	0.668742278047311	-0.0217177817328624	0.362524607664719	0.931721120719149	-0.822026434037772	0.523957094858438	-0.223028035212281	-0.569035042593818	-0.770743064571488	0.286625624666051	-37.8870624030041	-68.7047155550879	93.4283240985801
5075	1651208173149	9.0399387820873	-2.16881438602983	2.79273522123134	-0.00227481876305877	-0.0104446070503821	-0.105808139263447	0.0152201077575559	0.0217983083924472	0.0114618933481978	0.323486328125	-0.331298828125	-0.054443359375	0	0	0	0.204726283795921	-0.560942602150323	0.442930371103479	0.66876246318859	-0.0216878331060832	0.362751023278299	0.931633690355662	-0.822109800722497	0.523799670154492	-0.223090522214775	-0.568915734930208	-0.770743537538001	0.286861091631872	-37.8720390410433	-68.690926469628	93.4214759134147
5076	1651208173150	9.06357122656019	-2.14351052976297	2.81762632337462	-0.0372911433400137	-0.00515374197688749	-0.0822936887043983	0.0152420603990187	0.0234042286551289	0.0144724593555533	0.333740234375	-0.32275390625	-0.0498046875	0	0	0	0.204687802173645	-0.560847518185772	0.443065985863152	0.66876415660328	-0.0217148129680537	0.363016009006766	0.931529840693557	-0.822210592414722	0.523590871624872	-0.22320918635249	-0.568769029236645	-0.770760647903036	0.287105929972366	-37.863116181777	-68.674558859535	93.4232274525212
5077	1651208173150	9.06292991356147	-2.16887794953613	2.8215340234538	-0.0179940598744021	-0.0187701773000677	-0.0761013351632709	0.0121683645371909	0.0279969142339938	0.0159131354704511	0.326416015625	-0.32080078125	-0.056396484375	0	0	0	0.204621870014284	-0.560743865106389	0.443181345000265	0.668794814200261	-0.0216867736213922	0.363313854018736	0.931414369294326	-0.822275687127161	0.523440371511227	-0.223322349601968	-0.568675987016728	-0.770722531752019	0.287392416114812	-37.849499310209	-68.6563736134424	93.416021576727
5078	1651208173151	8.98852881283335	-2.17133017032808	2.82600950708738	-0.016318357855822	-0.0476011109930316	-0.143554952666188	0.0106933303917132	0.0281065101400614	0.0205066431240833	0.328857421875	-0.322998046875	-0.051025390625	0	0	0	0.20455366432299	-0.560650064810347	0.443299209566444	0.668816203480417	-0.021685368748159	0.363605338376441	0.931300651071613	-0.822337439015953	0.523287218419608	-0.223453850786585	-0.568586740238409	-0.770689071508623	0.287658606480384	-37.8401409124693	-68.6384788944853	93.413069008023
5079	1651208173152	8.98644302501363	-2.14998039490567	2.80267945351784	-0.0206893497470511	-0.0161051556043507	-0.156968956078492	0.00314169075174127	0.020461849927994	0.0223206538947047	0.328857421875	-0.332763671875	-0.057373046875	0	0	0	0.204456399234513	-0.560598157996202	0.443402690762233	0.66882085784471	-0.0217524818478459	0.36387817440969	0.93119251700265	-0.822349697615307	0.523183269273738	-0.223652054727999	-0.568566446746088	-0.77063087203947	0.287854572126645	-37.8458479722786	-68.6214761430484	93.4210459566133
5080	1651208173153	8.98714447754259	-2.22387023844805	2.83257420040229	0.0218503291585783	-0.0748410233849675	-0.131170846555687	-0.001383232762583	0.0158918051524683	0.0240187823694512	0.33349609375	-0.325439453125	-0.0498046875	0	0	0	0.204341118593629	-0.560587759159502	0.443501461584822	0.668799316016815	-0.0219043642946905	0.364124688767676	0.931092589302851	-0.822329207873871	0.523102321648062	-0.223916580368539	-0.568590250270243	-0.770569381766659	0.287972143064865	-37.8673273694318	-68.6057751932008	93.442548826114
5081	1651208173153	9.06042511031724	-2.24775733479396	2.85781233760375	0.0246483844566417	-0.07787473799141	-0.0503036770359362	0.00163972213570376	0.0111758815157179	0.018004157972025	0.324951171875	-0.32666015625	-0.04443359375	0	0	0	0.204271323817518	-0.56056605089825	0.443576893707507	0.668788806885237	-0.0219895161017205	0.36430338440072	0.931020679306208	-0.822333661617293	0.523025531269276	-0.224079545277089	-0.568580522136229	-0.770537045024231	0.288077857692359	-37.8773367997804	-68.5944832634081	93.4542080820264
5082	1651208173155	9.03484406107946	-2.25072270999658	2.83501152667458	0.0405128391870541	-0.0689357936001839	-0.0800075332413872	0.00618121151365397	0.00956217298723314	0.013417303562132	0.32861328125	-0.331298828125	-0.046142578125	0	0	0	0.204253517641873	-0.560497258664296	0.443694905972611	0.668773619377056	-0.0220446931124684	0.364495822911313	0.930944051265049	-0.822429969754549	0.522830661889755	-0.224180828434221	-0.568439070046306	-0.770578285489622	0.288246647121462	-37.8736202457059	-68.582456710035	93.461030663256
5083	1651208173155	9.03422505768034	-2.25170840840962	2.83620119155829	0.0405077688598484	-0.0689442401979978	-0.0800075719674229	0.00460275952933637	0.0140866505333857	0.0117878954983414	0.33349609375	-0.326171875	-0.04931640625	0	0	0	0.204204646315851	-0.560452399368502	0.443761237965578	0.668782127560513	-0.0220618565573056	0.364665201731183	0.930877309387011	-0.822453137690842	0.522752852204552	-0.224277265487377	-0.568404882797231	-0.770550936770803	0.288387140930216	-37.872031849258	-68.5719870032892	93.4621138712536
5084	1651208173157	9.00884432998804	-2.22871233442646	2.83653377602552	0.022014425837498	-0.0642725810702376	-0.108680822674012	0.00314017956058629	0.00801478507636812	0.0134917385966099	0.333740234375	-0.326904296875	-0.052978515625	0	0	0	0.204168938458578	-0.56040087831884	0.443863869440159	0.668768095496323	-0.0221285580298362	0.364851084375023	0.930802886302943	-0.822516894125472	0.522599819948613	-0.22440006031163	-0.568310026128086	-0.770566748841427	0.28853180029634	-37.8733055861575	-68.5603181018629	93.4707907411072
5085	1651208173157	9.00839733285092	-2.22977515828656	2.83711805465321	0.0220142332549406	-0.0642724588734998	-0.108680821427775	0.00315915127925083	0.00339792849409458	0.0120877486152535	0.329345703125	-0.322021484375	-0.050048828125	0	0	0	0.204138131445568	-0.560394829853499	0.443916673322212	0.668747519703752	-0.0222087563599839	0.36494044160264	0.930765945457725	-0.822532255354841	0.522531220872904	-0.224503479068701	-0.568284664619608	-0.770570955393429	0.28857051592676	-37.8823740248376	-68.5545283409813	93.4824878547821
5086	1651208173158	9.03276896517386	-2.25483080239942	2.83835746377539	0.0410234381430115	-0.0683707685835354	-0.0800056864067162	0.00621634934726734	0.00498552725369146	0.0135389127746015	0.329833984375	-0.33349609375	-0.055419921875	0	0	0	0.204113422060544	-0.560371089442722	0.443979891240784	0.668732987989476	-0.022267803418803	0.365049477173486	0.930721775906349	-0.822566519933283	0.522439134217112	-0.224592233443909	-0.56823275619745	-0.770581747937128	0.288643906103022	-37.8862885061152	-68.547607575137	93.4906836140026
5087	1651208173160	9.05689974316509	-2.22983622042121	2.86143726183301	0.00626897507495279	-0.0631845540740847	-0.05648963811608	0.00775420728711015	0.0034707818395283	0.0135626209979803	0.333251953125	-0.326904296875	-0.0517578125	0	0	0	0.204093831711314	-0.56035599933816	0.444050381160548	0.668704808457587	-0.0223591740061917	0.36514684410427	0.93068138993882	-0.822607656213661	0.522329933697132	-0.224695536899641	-0.568169614883116	-0.770609643467198	0.288693723726252	-37.89426624521	-68.5412815065663	93.5040388860679
5088	1651208173162	9.05600914110928	-2.23226905528199	2.837365671595	0.0207480074064903	-0.0450609817424629	-0.0637125675645311	0.00934718844347666	-0.00101323031973372	0.0167181232174168	0.33154296875	-0.32275390625	-0.05810546875	0	0	0	0.20405805809524	-0.560368331562076	0.444136749356344	0.66864803131387	-0.0225402382929697	0.365246979069268	0.930637728624017	-0.822637673295776	0.522205713595159	-0.224874300806209	-0.568118998214465	-0.770646376082664	0.288695283817469	-37.9162037663888	-68.5344443850487	93.5313770212182
5089	1651208173163	9.07996105301624	-2.23308498902397	2.83737617471757	0.0202274824570635	-0.0355615401747247	-0.041229390983462	0.0107895294806948	0.00810860486957514	0.0149322130360159	0.328369140625	-0.330322265625	-0.0537109375	0	0	0	0.20403433242554	-0.560332584973711	0.444225108679492	0.668626531201864	-0.0226171059292547	0.365387217155503	0.930580812212858	-0.822695556801056	0.522068088020715	-0.224982071041661	-0.568032118228525	-0.770673142784769	0.288794770816687	-37.9199420522857	-68.5255347025325	93.5420327217267
5090	1651208173165	9.0549525281845	-2.23455192759906	2.83894050034861	0.0201334296501422	-0.0452085386171284	-0.0637119621196795	0.00926824072366638	0.00966461369261666	0.0164334708414523	0.326904296875	-0.32666015625	-0.05615234375	0	0	0	0.203971929257039	-0.560327252283868	0.444297763633619	0.668601764620268	-0.0227342648436498	0.36553447623728	0.930520123309516	-0.822698598891826	0.521989898610653	-0.225152306516872	-0.568023035257766	-0.770656273853901	0.288857644846343	-37.9349064207795	-68.5160383530249	93.5589031103998
5091	1651208173165	9.07749102614842	-2.18822369452428	2.81237421830512	-0.00407007483448543	0.00939590509033963	-0.0608408780677418	0.00933863589751479	0.00673689038325335	0.0210908810436343	0.3330078125	-0.325439453125	-0.049560546875	0	0	0	0.203929046983277	-0.560306035437628	0.444400933099856	0.668564059091301	-0.0228700853757113	0.365695631742855	0.930453472302136	-0.822746335045951	0.521841508912939	-0.225321787104405	-0.567948437240005	-0.770680312775447	0.288940180897319	-37.9478743387763	-68.5056136834831	93.5785362170889
5092	1651208173167	9.0771994979768	-2.21413452558493	2.81454613888059	0.0150357255424078	-0.00410170384395059	-0.0546461022695528	0.00776944838077484	0.00817004695117824	0.0180160332688602	0.335205078125	-0.326171875	-0.050048828125	0	0	0	0.20387434971648	-0.56028586607116	0.444491438871975	0.668537477317536	-0.0229857818991755	0.365862537264238	0.9303850050689	-0.822774203666608	0.521725220594408	-0.225489254680783	-0.567903392850635	-0.770679828477617	0.289029995617146	-37.9598824344042	-68.4949099566532	93.5949556737842
5093	1651208173167	9.1012377142947	-2.23970018501847	2.81643452438025	0.0338108641621588	-0.00821244997391067	-0.0259679290879173	0.00622692721490084	0.0127774247825021	0.0194350407396411	0.3369140625	-0.328857421875	-0.052490234375	0	0	0	0.20381227893025	-0.560249781826275	0.444586369751311	0.668523519969357	-0.0230737164100762	0.366061320064711	0.930304634817815	-0.822804459281466	0.521607029577218	-0.22565222906536	-0.567855990016449	-0.77066543755907	0.289161473841738	-37.9673214917319	-68.4823518600854	93.6067178311322
5094	1651208173168	9.05162599189671	-2.24184053148729	2.81885186485085	0.0354219888346047	-0.0273162055620701	-0.0709366664665474	0.00620052104581587	0.0142615814127276	0.0178687724162519	0.322265625	-0.328369140625	-0.049072265625	0	0	0	0.203754641064677	-0.560193805647384	0.444652990001471	0.668543689553388	-0.023066762805895	0.366255725420382	0.930228288137082	-0.822824076605736	0.521535529454712	-0.225745942320813	-0.567827846632741	-0.770621460324836	0.289333892717811	-37.9622951005919	-68.4704289210175	93.6037249671634
5095	1651208173169	9.07519104501186	-2.24304575626551	2.81983250479022	0.0349039391949411	-0.0178301256946076	-0.0484533701778016	0.00620593072100638	0.0158281602760537	0.0193530012175689	0.33447265625	-0.329833984375	-0.052978515625	0	0	0	0.203686224951623	-0.560147240506005	0.444750372083378	0.668538777671245	-0.0231356490295905	0.366477186571431	0.930139351638596	-0.822854293914379	0.521418056593309	-0.22590710755779	-0.567781254296625	-0.770595666988302	0.289493981436929	-37.9667556934011	-68.456547775604	93.6122801656659
5096	1651208173170	9.07341784622574	-2.22151775915387	2.79597733691417	0.0300501951815996	0.0142617171635604	-0.0618702271344187	0.0046228308427937	0.0218788989476505	0.017679617412449	0.332275390625	-0.3359375	-0.052001953125	0	0	0	0.203585390736863	-0.560080559980658	0.444882157051397	0.668537673843118	-0.0232207346619022	0.366792525523333	0.930012925018775	-0.822889404114466	0.52126571003163	-0.226130688190169	-0.567726893918106	-0.770548702396828	0.289725510020543	-37.9720290826974	-68.4368298474808	93.6224209875417
5097	1651208173170	9.04880121417018	-2.2463408328885	2.82433313131061	0.0349355753748575	-0.0267622453793451	-0.0709333723890282	0.00461278665039047	0.0234042280059764	0.0176384800446537	0.33056640625	-0.32080078125	-0.0498046875	0	0	0	0.20349942362049	-0.56001046524418	0.444977347715741	0.668559214597323	-0.023233122326276	0.367063798407605	0.929905581188517	-0.822911026002138	0.521166289211985	-0.22628111338138	-0.567695046051205	-0.770486772688272	0.289952526806251	-37.9687426960324	-68.4201016056941	93.6216769188188
5098	1651208173171	9.02387058554005	-2.24682597494636	2.85124564444042	0.0204773637823844	-0.0539120705882859	-0.0861904265954489	0.0061846084434571	0.0188785878342637	0.0192713103431231	0.324951171875	-0.3251953125	-0.06103515625	0	0	0	0.203415595750461	-0.559948049667871	0.445088038542171	0.66856332162729	-0.0232903607603388	0.367334742703661	0.929797153092269	-0.822943407153655	0.521037466704336	-0.226459945492929	-0.56764575900643	-0.770444770955818	0.290160554157265	-37.9707658191175	-68.4032169208035	93.6279049112182
5099	1651208173171	8.99949155646968	-2.24581867742761	2.90239754351975	-0.00887648386007096	-0.0992448981584049	-0.0942238791209977	0.00612923232282894	0.0202797561821472	0.014654278508478	0.323486328125	-0.3330078125	-0.048095703125	0	0	0	0.203350028629816	-0.559881881642146	0.445174325386718	0.668581232522708	-0.0232958027493397	0.367566404986542	0.929705460616174	-0.822974391631526	0.520937171745467	-0.226578052362877	-0.567600613365582	-0.770402103462279	0.290362088930205	-37.9659604331619	-68.3889481500932	93.6264693871805
5100	1651208173172	8.97351031217108	-2.22424978724162	2.87870318865027	-0.014220403992962	-0.0768054057182471	-0.130125462199242	0.00773887433741788	0.00965250143225587	0.0164526894380886	0.3359375	-0.330322265625	-0.05029296875	0	0	0	0.203262816581004	-0.559889896142848	0.4452943599423	0.668521102581127	-0.0235275255985442	0.367767758433085	0.929619993005914	-0.82298694749405	0.520794320798269	-0.226860661373225	-0.567572849767884	-0.770402590391138	0.290415063185416	-37.9955338833612	-68.3756561374721	93.6604443601026
5101	1651208173173	9.0208974315978	-2.20196453585474	2.85300604574831	-0.0196567972779406	-0.026295955264509	-0.0985840245535581	0.00315991752333629	0.00962613188107216	0.0164991425512915	0.3232421875	-0.330810546875	-0.0537109375	0	0	0	0.203205413027053	-0.559868420220932	0.445367897733356	0.668507552555986	-0.0236104245842218	0.367927019457865	0.929554869926356	-0.823000193745057	0.520709991570151	-0.227006135984497	-0.567550199494769	-0.77038354929987	0.290509824311647	-38.0042844359945	-68.3655333469718	93.6717209677753
5102	1651208173174	8.99699465926724	-2.25118074817555	2.88116056622849	0.00397140536415892	-0.0804524609334126	-0.101440004147982	-0.00444328842760233	0.0050067352018617	0.0167001992930205	0.31982421875	-0.32373046875	-0.048828125	0	0	0	0.203106894426719	-0.559886621512496	0.445439457393527	0.668474569661866	-0.0237786783034329	0.368096233330165	0.929483586442648	-0.822963565036049	0.520662558466587	-0.227247598082324	-0.567596287057359	-0.770334773471361	0.290549120975314	-38.0300798541217	-68.354458144336	93.696119044318
5103	1651208173175	9.06890299247514	-2.22894656003498	2.85441257442358	-0.00199933065637616	-0.0204342601829478	-0.0474196454739584	-0.00445259475075475	0.00653208518409984	0.0166588926347711	0.328125	-0.32861328125	-0.04541015625	0	0	0	0.2030303156968	-0.559892735356228	0.445489241085524	0.668459536457086	-0.02388107805527	0.368232665553858	0.929426919198071	-0.822933460816736	0.520636053970203	-0.22741727809145	-0.567635634169584	-0.770287480961125	0.290597631606758	-38.046192058675	-68.3456576910798	93.7106200188109
5104	1651208173176	9.04530846559651	-2.30258743498036	2.88372450704371	0.0413706465742018	-0.0874918709232961	-0.0440633760011373	-0.00446740047646092	0.00649063167829685	0.0151336141633158	0.325927734375	-0.333984375	-0.05224609375	0	0	0	0.202953677404693	-0.559860967672343	0.445614080699716	0.668426205939778	-0.0240324240817302	0.368468574102002	0.929329517712632	-0.822971942999811	0.520475791820117	-0.227644747719639	-0.567573452187355	-0.770282973996218	0.290731003409799	-38.0612338232425	-68.3305391383962	93.7316857575328
5105	1651208173176	9.02004691983949	-2.27987472104616	2.88354473304481	0.0225656193766381	-0.0833997764639896	-0.0727468871292398	-0.00757695992464227	0.0109673423791897	0.011989927985419	0.330078125	-0.332763671875	-0.052001953125	0	0	0	0.202869723775744	-0.559854142738343	0.445644593809318	0.668437065132085	-0.0240715302655155	0.368615818171694	0.929270111444616	-0.822925639339829	0.520489542367362	-0.227780658536556	-0.567638928851615	-0.770203229595817	0.290814428067735	-38.0698542445519	-68.3213230894133	93.7362520383608
5106	1651208173178	9.01925680040535	-2.25675935460197	2.88280552578036	0.00216524699620853	-0.0689721375507867	-0.0789439030229531	-0.00448821540769556	0.00488224615352505	0.0121242294289243	0.3271484375	-0.32568359375	-0.05517578125	0	0	0	0.202769389221561	-0.559874135150702	0.44572948553108	0.668394160142178	-0.0242676429650954	0.368795297413387	0.929193795777119	-0.822896643115218	0.520419601045828	-0.228045069223186	-0.567672613620408	-0.770164571668337	0.290851055167937	-38.0986227968488	-68.3094892539012	93.7647765167766
5107	1651208173180	9.01901813157065	-2.28241864796063	2.88474998802799	0.0214315591857911	-0.0825567030250407	-0.0727371432887018	-0.00911176140206522	0.0124847686539821	0.0119639878069258	0.32568359375	-0.3369140625	-0.05810546875	0	0	0	0.202676616740814	-0.559865885711912	0.445757604283926	0.668410455682411	-0.0242993035218579	0.368954639717258	0.929129709824985	-0.822841533896017	0.520444694499103	-0.228186612366686	-0.567751137333957	-0.770071291374275	0.290944758085027	-38.106923982184	-68.2995565552521	93.7680507078784
5108	1651208173181	9.01808651922702	-2.25942927645509	2.88437492856177	0.000384930497233406	-0.0687941774335449	-0.0789424104301695	-0.00757076581504051	0.0125340010610687	0.013474193645255	0.330078125	-0.329345703125	-0.04736328125	0	0	0	0.202527324042253	-0.559915636333845	0.4458023493708	0.668384192288107	-0.0244905090313195	0.369138055376467	0.929051834420592	-0.822730917440902	0.52048589662352	-0.228491288461644	-0.567903206941322	-0.769955536046655	0.290954326410299	-38.1431387158668	-68.287492446228	93.7957327650946
5109	1651208173182	9.01819615027211	-2.28376391128691	2.91103300961789	0.00469144767661182	-0.100293209442772	-0.0655097376675968	-0.00607340855476445	0.0124595493377671	0.0104086682628651	0.326904296875	-0.3330078125	-0.04296875	0	0	0	0.202448656997476	-0.559899952401323	0.445833730414041	0.668400231452694	-0.0245113437478056	0.369288750363128	0.928991395483788	-0.822692724029523	0.520493652210037	-0.22861111048665	-0.567957635617798	-0.769878027264252	0.291053169161829	-38.1482766450822	-68.2781339115469	93.7974067476141
5110	1651208173183	9.01686484087624	-2.2619097443959	2.88624956336902	0.000667998363452528	-0.0671498343231718	-0.0789309430854619	-0.00757665735361719	0.0109674502624571	0.0119897740282023	0.326416015625	-0.327880859375	-0.04736328125	0	0	0	0.202361455736307	-0.559826496182153	0.44596161921275	0.668402849779861	-0.0245749432768867	0.369589424894133	0.928870135793676	-0.82273864380284	0.52033615084285	-0.228804314031688	-0.567888365928025	-0.769840208830684	0.291288270809394	-38.1493155251767	-68.2593692823576	93.8041427059585
5111	1651208173183	9.01595865612426	-2.23878098927789	2.88594586139915	-0.0186925393963287	-0.0535368647739895	-0.0851430449320087	-0.0091428767255194	0.0154947469607793	0.0103565294037121	0.326171875	-0.33544921875	-0.05078125	0	0	0	0.202265867884655	-0.559806754686326	0.445988108371615	0.668430642092012	-0.0245779908026549	0.369764637119836	0.928800320576894	-0.822683833457125	0.520366251759952	-0.228932903265537	-0.567967633352812	-0.769735719039291	0.291409832192861	-38.1533405091014	-68.2485725424154	93.8028155531126
5112	1651208173184	9.03934587449934	-2.29129759670569	2.84029415446502	0.0486259389227505	-0.0340812067811889	-0.0646843300759574	-0.0121417013934403	0.010985250116078	0.0135589412937967	0.3232421875	-0.32861328125	-0.0498046875	0	0	0	0.202134598622543	-0.559791544509078	0.446091839378434	0.668413869975638	-0.0247290049277892	0.370041467123707	0.928686055093009	-0.822654423770252	0.520287349759337	-0.229217740874566	-0.568003675486801	-0.769656018159632	0.291550061471687	-38.1745608119591	-68.2309126793249	93.8232580941863
5113	1651208173185	9.06374416857431	-2.26558653802411	2.88810999354775	-0.00114495034755739	-0.0467676126312131	-0.0339690802392969	-0.013698797214421	0.0139875178112181	0.0119667174001633	0.328369140625	-0.33056640625	-0.049072265625	0	0	0	0.202022357601642	-0.559788517290573	0.446110065972829	0.668438173637932	-0.0247547501053204	0.370214403438011	0.928616442797704	-0.822573587523489	0.520345552133584	-0.229375673260117	-0.568119613687083	-0.769533496257201	0.291647565877391	-38.1844269616276	-68.2201606965532	93.8254441527234
5114	1651208173186	9.06305777378394	-2.2668776142435	2.8892507179949	-0.00164245828284844	-0.045707929228294	-0.0339641405318751	-0.0152919255650337	0.0184337724834283	0.00728336039858717	0.32470703125	-0.332275390625	-0.04052734375	0	0	0	0.201885207564409	-0.559752848956511	0.446174019081614	0.668466794798593	-0.0247890144367428	0.370493392723077	0.928504254546956	-0.822516673108494	0.520342215326469	-0.229587241386962	-0.568200516738403	-0.769401471858278	0.291838222103489	-38.1919006127255	-68.2028432537548	93.827847357623
5115	1651208173187	8.98931862699858	-2.29327113181266	2.89331190719526	0.0192205166253246	-0.0878121117223306	-0.0951714841956086	-0.015258267409043	0.0200811576238	0.0118186883435203	0.324462890625	-0.324462890625	-0.04833984375	0	0	0	0.201754378355875	-0.559732696117575	0.446193970179606	0.668509850852286	-0.0247795002553776	0.370713084610597	0.928416816556868	-0.822427173213235	0.52041222357919	-0.229749129073108	-0.568330468237963	-0.769248286607035	0.29198895942237	-38.1971490809564	-68.1893553456605	93.8241217111233
5116	1651208173189	9.0628875959258	-2.31579740142595	2.94331661539412	0.00736409582865905	-0.106841324430007	-0.00705162233404444	-0.0152557843604267	0.0169897933489811	0.0103742107973312	0.32958984375	-0.331787109375	-0.04052734375	0	0	0	0.201632932306565	-0.559649407281197	0.446314828337931	0.668535545461081	-0.0248087701290229	0.371067152313057	0.928274578666767	-0.822442156528012	0.520294469230278	-0.229962093515291	-0.568307508388053	-0.769157223045238	0.292273403078523	-38.1958356693706	-68.1674311129337	93.8249830102592
5117	1651208173189	8.98747858502687	-2.27167768691693	2.89474061201415	0.000161824847555267	-0.0723664073329454	-0.101375571473397	-0.0137533357642929	0.0215731860567309	0.0102392389290066	0.335693359375	-0.3388671875	-0.04833984375	0	0	0	0.201508154230592	-0.559618602563063	0.446336057929197	0.668584779093997	-0.0247777138848229	0.371291566033383	0.928185669942775	-0.822362412735728	0.520357174341608	-0.230105352459889	-0.568424249143291	-0.769006491587486	0.292442966887889	-38.1970270255452	-68.1537375487626	93.8179068313915
5118	1651208173190	8.98632130845456	-2.27429480287297	2.87157991979278	0.0157738490836711	-0.0525788435241828	-0.108598266891551	-0.013705826741748	0.0124208178991709	0.0104804263791796	0.33251953125	-0.329833984375	-0.0576171875	0	0	0	0.20140491359653	-0.559533604826717	0.44645100224491	0.668610281437033	-0.0247927046717308	0.371617825848671	0.928054693057779	-0.82238909518659	0.520235126747379	-0.230285885404036	-0.568384990928897	-0.768931469254345	0.292716411697588	-38.1928410250998	-68.1335795786123	93.816865855076
5119	1651208173191	9.01059790650547	-2.27398199951115	2.89631748461149	0.000259452615261096	-0.0608933128823683	-0.0788897728592577	-0.0137325492599506	0.0123403395076124	0.0074298000204966	0.332275390625	-0.33251953125	-0.0458984375	0	0	0	0.201308702306399	-0.5595299111348	0.446454432246196	0.66864005627013	-0.0247905630535815	0.371758152773968	0.927998547320832	-0.822311114022614	0.520306492606881	-0.230403093525269	-0.568497897743144	-0.768815341676539	0.292802169842392	-38.1988526884823	-68.1249438901706	93.8151007582757
5120	1651208173191	8.98484247683556	-2.27795677785855	2.84861620142427	0.0306018674111213	-0.0343267963563789	-0.115833196676714	-0.0121563034518887	0.00785143719820198	0.0105867059509943	0.331787109375	-0.325927734375	-0.049072265625	0	0	0	0.201201177884797	-0.559540443059506	0.446460184103899	0.668659765956091	-0.0248244068186325	0.371899531987746	0.927940993239009	-0.82222031685876	0.520382780055365	-0.230554793414773	-0.568627733557538	-0.768695323472925	0.292865157197084	-38.2111911159958	-68.1160949499585	93.818845670325
5121	1651208173192	9.03422128982984	-2.27598657902898	2.89657667758548	-0.000377991288561846	-0.0510286932629601	-0.056416478869183	-0.0121708684448255	6.43217426489433E-05	0.00468494905960137	0.33203125	-0.33203125	-0.0458984375	0	0	0	0.201145330189496	-0.559571598722769	0.446446245261863	0.668659802992065	-0.0248692480111416	0.371930888827177	0.92792722475396	-0.8221517447862	0.520452612469087	-0.230641684695351	-0.568724915093727	-0.768632872124481	0.292840364091606	-38.2240424521032	-68.1139785496485	93.8254017357374
5122	1651208173193	8.98459159106629	-2.25419290341583	2.87156705798173	-0.00275940451561069	-0.0378339528873925	-0.114814916416449	-0.00909171319433198	0.000158060566062249	0.00770832790896944	0.335205078125	-0.32666015625	-0.0537109375	0	0	0	0.201095753804717	-0.559546530809845	0.44646807870252	0.668681114104519	-0.024852130883303	0.372044681753771	0.927882064903345	-0.82213440736185	0.520453505002787	-0.230701463719011	-0.568750725557638	-0.768577194502315	0.292936355320761	-38.2221322757968	-68.1070382420897	93.8216108166816
5123	1651208173193	9.00859850378625	-2.2304790836902	2.86966855766523	-0.0226481898508872	-0.0146560204991811	-0.0985660029634481	-0.00910494169653492	0.000118188696240206	0.00618300711979667	0.33203125	-0.329833984375	-0.05615234375	0	0	0	0.201046116142339	-0.559571631639405	0.446467803311218	0.6686752192619	-0.0249078206582615	0.372084506055948	0.927864602635081	-0.822083319034084	0.520493919581073	-0.230792322760175	-0.568822131281793	-0.768530545933103	0.29292009649699	-38.2346448895722	-68.1043551467108	93.8297402712338
5124	1651208173195	8.98367399958311	-2.23295270949083	2.84524733179271	-0.0071519735838254	-0.00699162683921086	-0.128276769582589	-0.0105746133816765	-0.00591067548242264	0.00940594004411876	0.329833984375	-0.329345703125	-0.05029296875	0	0	0	0.200977532037773	-0.559656785870335	0.446386753066628	0.668678682426714	-0.0249537025681601	0.372021732561839	0.927888540305261	-0.821935491011487	0.520693796605279	-0.230867968311946	-0.569033708442519	-0.768425533593508	0.292784627290585	-38.2566588519193	-68.1080332736892	93.8374193313966
5125	1651208173196	9.03203478442899	-2.23512619859051	2.81904389275602	0.00666515927738032	0.0300363012984115	-0.0905732381763133	-0.00898597650639224	-0.0103610048147795	0.0140869935394282	0.327880859375	-0.335693359375	-0.05029296875	0	0	0	0.200929774180014	-0.55972498912242	0.446401836823993	0.668625876316525	-0.0251333267358561	0.372020807336939	0.927884063229648	-0.821882470006054	0.520705251856268	-0.231030833842689	-0.569102382163295	-0.768418219199462	0.29267032479975	-38.2871859276989	-68.1073453069077	93.864968377551
5126	1651208173196	9.05655658716835	-2.21090347838974	2.84068623363012	-0.0286182583153183	0.0361821868051257	-0.0670893196337623	-0.012039895030935	-0.00728387288042893	0.0155607560138374	0.322021484375	-0.328125	-0.043701171875	0	0	0	0.200836227413859	-0.559780726814572	0.44646768378969	0.66856335150574	-0.0253757095631627	0.372135363322027	0.927831528203989	-0.821832360731733	0.520662834179277	-0.231304526454866	-0.569163987105889	-0.768391491669179	0.292620695290236	-38.3249084192511	-68.0992740831717	93.900929574069
5127	1651208173197	9.03232431424473	-2.21188939645521	2.86472363490423	-0.0430412849081444	0.00880054051646678	-0.0823200397444275	-0.0181264806422938	-0.00261516764638548	0.0200736270539444	0.329833984375	-0.3349609375	-0.0537109375	0	0	0	0.200723695098959	-0.55984942242048	0.446485313947494	0.668527850482298	-0.0255610227106761	0.372225644875951	0.92779022597496	-0.821725823944978	0.520721725310055	-0.231550329414721	-0.56930949788312	-0.768307851116205	0.292557244882549	-38.3605635002019	-68.0929305965016	93.9283782215397
5128	1651208173198	9.10511454198775	-2.213517388508	2.8630520911108	-0.0451648065491429	0.0387319883699507	-0.0149173658701045	-0.016641921633762	0.00345345207826357	0.0183773165106798	0.329345703125	-0.32763671875	-0.054931640625	0	0	0	0.20058617712045	-0.559867315354938	0.446589060980614	0.668484843027807	-0.0257864003805838	0.37247274769165	0.927684813814716	-0.821679325618596	0.520646792321314	-0.231883599024374	-0.569366443871065	-0.768238875528022	0.292627549490916	-38.3939701091203	-68.0767485668492	93.9602851221441
5129	1651208173199	9.08057153588302	-2.26461856326356	2.86616209094079	-0.00603619107320229	0.00212380725238513	-0.024933767963347	-0.0212620077722549	0.0094970741630562	0.0167366980415722	0.3310546875	-0.330078125	-0.046875	0	0	0	0.200445230202708	-0.559899001060552	0.446599515864933	0.668493598121617	-0.0258760379187943	0.372639666244145	0.927615281139265	-0.82155600287554	0.520741164236382	-0.232108539284756	-0.569540310075407	-0.768093951942853	0.292669636600758	-38.4170027364607	-68.0660806809224	93.9722332564916
5130	1651208173200	9.05469537287158	-2.2693937696411	2.81813505728938	0.0246812417155129	0.0285974846362955	-0.0618866652071954	-0.0227947734027534	0.00792637181344264	0.0152640644833707	0.32958984375	-0.333251953125	-0.04736328125	0	0	0	0.200301867978849	-0.559926151528075	0.446586615772544	0.668522446243931	-0.0259138011044297	0.372797845509557	0.927550667778183	-0.821414861834682	0.52087911259402	-0.232298460650038	-0.569742134363811	-0.767923639723833	0.292723733038286	-38.4346639196079	-68.0561719486614	93.9763292220124
5131	1651208173200	9.07937881993626	-2.26860075688261	2.86679132761329	-0.00574527676354911	0.00237739933090742	-0.0249336511884817	-0.0228347327027901	0.0108993181901688	0.0121357208145161	0.325927734375	-0.32958984375	-0.053955078125	0	0	0	0.200165543952089	-0.55995194935667	0.446578476928997	0.668547106320719	-0.0259570432891161	0.372951323931969	0.927487758345671	-0.821283670052011	0.521002837916283	-0.232484787005686	-0.569929263338519	-0.767765167782813	0.292775138852058	-38.4521349025979	-68.0465286059308	93.9813093532317
5132	1651208173202	9.03015684059724	-2.29502078663245	2.86951525908831	0.0142395763195765	-0.0295331481470385	-0.0636414834510788	-0.0213347952642284	0.0139173117605119	0.0105194871255817	0.319580078125	-0.3349609375	-0.052978515625	0	0	0	0.200013800959869	-0.559955696621855	0.446611140027385	0.668567563414318	-0.0260237851516557	0.373181708862663	0.927393214756676	-0.821177177864536	0.52106593805805	-0.232719424952279	-0.570079648085086	-0.767610383180182	0.292888194492638	-38.4695105365744	-68.0320436536103	93.9890570037051
5133	1651208173202	9.02933387151356	-2.27225018017745	2.86893538244207	-0.00511597118016821	-0.0158864409940275	-0.0698693692185728	-0.0197822244281112	0.0109108502935326	0.012108339139304	0.32470703125	-0.330810546875	-0.048583984375	0	0	0	0.199887587717186	-0.559974600118984	0.446611708943571	0.668589097228403	-0.0260671426878257	0.373335494587074	0.927330099022736	-0.821063382589793	0.521165867422214	-0.232897102610271	-0.570241550434814	-0.767467749886258	0.292946798996377	-38.4852264366358	-68.0223787905025	93.9940409682975
5134	1651208173203	9.00418050124883	-2.29952363644311	2.84670514450287	0.0280083366143215	-0.0196694447704422	-0.0933440659681057	-0.0167492909680352	0.00932000347285456	0.00906921174607059	0.33154296875	-0.33447265625	-0.0458984375	0	0	0	0.199741116875533	-0.559999585736551	0.446714064035957	0.668543562676873	-0.0263059820652575	0.373585738327218	0.927222568440874	-0.821005509146636	0.521100062443588	-0.2332481058276	-0.570313904142672	-0.767390657383707	0.293007900408414	-38.5214433873271	-68.0059220136465	94.027825255531
5135	1651208173204	9.0035438843202	-2.27634518537905	2.84588583453344	0.00863422887632179	-0.00601516317780158	-0.0995773962778745	-0.0152296057067796	0.00776191339638657	0.00756875757552484	0.325439453125	-0.33203125	-0.04150390625	0	0	0	0.1996493087262	-0.560014553928127	0.446709865552964	0.668561252939089	-0.0263320091873317	0.37369277769196	0.927178695394273	-0.820918851965406	0.521180899085608	-0.233372468205051	-0.570437431958982	-0.767283636166695	0.293047705827664	-38.5325328844621	-67.9992109221298	94.030646199204
5136	1651208173204	9.00318989931794	-2.27737089670786	2.84618507099114	0.00953494063987877	-0.00386284829013966	-0.0995771442779354	-0.0137099388186382	0.00620388615289373	0.00606824655270233	0.3310546875	-0.328857421875	-0.054443359375	0	0	0	0.199584180943031	-0.55992597893261	0.446829093386168	0.668575212027303	-0.0263466811598921	0.37397297591327	0.927065297418921	-0.820982447489229	0.52101983204199	-0.233508362877076	-0.570345222918939	-0.767256507242206	0.293298105667316	-38.5249396124498	-67.9818738751023	94.0298729641411
5137	1651208173204	9.05168351498833	-2.27813884633818	2.84547381227552	0.00838947526579908	0.0153342739908992	-0.0546493112254094	-0.0121324324987161	0.00327285063424524	0.0107071121440348	0.3291015625	-0.3310546875	-0.05029296875	0	0	0	0.199503999189486	-0.559951169541714	0.446840574011438	0.668570372850455	-0.0264236217080098	0.374063742994272	0.927026487427919	-0.82091373369188	0.521063311449061	-0.233652877786248	-0.57044056136629	-0.767182730279334	0.293305684072535	-38.54149279505	-67.9759433209635	94.040625058742
5138	1651208173205	9.02770001177136	-2.32717999168884	2.87284146366177	0.0326606760267648	-0.0393687999388003	-0.0573946699817736	-0.007546823052233	0.00485281737180095	0.012155052205003	0.337890625	-0.32958984375	-0.041015625	0	0	0	0.199422755701163	-0.559972061794082	0.446843127697812	0.668575406179345	-0.0264749815213569	0.37415430784075	0.926988473109376	-0.820838994555302	0.521123567475583	-0.233781035242301	-0.570545721542879	-0.767097634819539	0.293323709037277	-38.5550889978105	-67.9701358243212	94.0474760862525
5139	1651208173205	9.02615516345388	-2.25680439972588	2.84532560095312	-0.0104248499899703	0.0193367444777613	-0.0833483316015115	-0.00598728557024559	0.00958634617271744	0.0181298335094124	0.326171875	-0.32421875	-0.0546875	0	0	0	0.199328305692442	-0.559969933556925	0.446902614598057	0.668565593735913	-0.0265765468446524	0.374331707552541	0.926913944160197	-0.820803139930986	0.521092559230402	-0.233975960718497	-0.570592580250784	-0.767032148893062	0.293403800124067	-38.5707407646471	-67.9587541601351	94.0610323869956
5140	1651208173206	8.97663885246643	-2.25910496474143	2.84680674919101	-0.00751995888891976	0.000392992988884708	-0.128274532516045	-0.00748201870987636	0.00813137960057909	0.0212314143398078	0.32666015625	-0.3359375	-0.056396484375	0	0	0	0.199251312128264	-0.559918290111676	0.446932338765812	0.668611925992129	-0.0265140140725219	0.374519675642021	0.926839802562858	-0.820777491599483	0.521100798360973	-0.234047574717656	-0.57063238283629	-0.766934788951806	0.293580846027165	-38.5624400841572	-67.9474371885399	94.0494822675166
5141	1651208173206	9.00109844836883	-2.30894418403689	2.87351224660577	0.0156329557593284	-0.0350044619609304	-0.0860950107932421	-0.0104663124897095	0.0036960838111262	0.0274720917730194	0.322509765625	-0.328857421875	-0.040771484375	0	0	0	0.199129407174756	-0.559954505578854	0.447004314731372	0.668569797023249	-0.0267238114130452	0.374700350455439	0.926760748668248	-0.820713985418441	0.521069243619533	-0.234340345421668	-0.570713931880184	-0.766867974766413	0.293596861760343	-38.5958339348156	-67.9353764793588	94.0794553773181
5142	1651208173207	9.04937017173926	-2.33568006615164	2.87401200059145	0.0332067812654296	-0.0280268935223167	-0.0349290263111559	-0.00742635974037104	0.00366811807565024	0.0259207703945061	0.327880859375	-0.33251953125	-0.045166015625	0	0	0	0.199003891403324	-0.559958180269316	0.447176103603714	0.668489207034497	-0.0270392625694471	0.37499708401221	0.92663156932086	-0.820732511599081	0.520861967144269	-0.234735927345743	-0.570672430282	-0.766863741589692	0.29368857511162	-38.6342312687739	-67.9156819422356	94.1241895590376
5143	1651208173207	9.02413899692123	-2.31384463563161	2.87332722199159	0.0144014828621133	-0.0239063029509393	-0.063626299497848	-0.00592003868688719	0.0020719615769913	0.0228946869912369	0.32958984375	-0.331298828125	-0.05322265625	0	0	0	0.198913347248404	-0.559984923150563	0.447244590069931	0.668447935731478	-0.0272216750055239	0.375142495053595	0.926567368740588	-0.82069639694367	0.520811513879231	-0.234974022084361	-0.570715694942387	-0.766826887514899	0.293700732260988	-38.6614064976593	-67.9059001985862	94.1503114960825
5144	1651208173208	8.99876401356603	-2.31710482535736	2.84957490853885	0.0300516294695508	-0.0147573896270654	-0.0933414694455479	-0.00292850718901499	0.00498137237262359	0.0166922285128034	0.336669921875	-0.330078125	-0.05908203125	0	0	0	0.198841533527512	-0.559960255228167	0.447339808996485	0.668426250528974	-0.0273367842964101	0.375340630751684	0.926483734952351	-0.820714054207786	0.520698279662832	-0.23516322582833	-0.570684800437291	-0.766806828649234	0.293813114218468	-38.673210666748	-67.8931637347971	94.1656073847573
5145	1651208173208	8.97384908044521	-2.31896790461556	2.85017830154016	0.0305713135436661	-0.0241938372569241	-0.11580252408366	-0.00748457044636724	0.00195481600081567	0.0183313331935214	0.326904296875	-0.32958984375	-0.04638671875	0	0	0	0.19875881609474	-0.559986087979481	0.447388767488422	0.668396443003137	-0.0274822560107439	0.375461777904984	0.92643034219362	-0.82067046541029	0.520676447499616	-0.235363600037128	-0.570740495153285	-0.766762342810084	0.293821028588109	-38.6962666659504	-67.8850362759523	94.1863494571146
5146	1651208173210	9.02238305515224	-2.34480742287371	2.85053880900072	0.0492285427452015	-0.0192224721348908	-0.0646467297428508	-0.00291343327165063	0.00040459735818005	0.0168048234152136	0.33251953125	-0.32861328125	-0.049560546875	0	0	0	0.198698106803621	-0.560017893801253	0.44737678550283	0.668395865313528	-0.0275320591688732	0.375500596785777	0.926413130051299	-0.820598577883618	0.520746148291623	-0.235460024239408	-0.570841448822092	-0.766695996372071	0.293798041950131	-38.7099058498917	-67.8824168440738	94.1934768709323
5147	1651208173210	8.99773893169038	-2.37094533371121	2.85202969160729	0.0690732125201215	-0.0422263579986723	-0.0808732141461661	-0.00443490428884153	-0.00112502511122787	0.0168551478660189	0.32421875	-0.326171875	-0.052490234375	0	0	0	0.198636838653637	-0.560045823327075	0.447425690972029	0.668357937905873	-0.027682146335798	0.375589560674624	0.926372592797567	-0.820572488062078	0.520707314775783	-0.235636763206859	-0.570871693649155	-0.766678794705603	0.293784164207175	-38.732207837329	-67.876248841276	94.2152597260638
5148	1651208173211	8.99775024802178	-2.34671455882021	2.87486894473127	0.0353644558046528	-0.0467969287610184	-0.0798558374318663	0.00164618339781754	-0.00579786237705005	0.0123397995047057	0.328125	-0.32861328125	-0.050048828125	0	0	0	0.198618535023295	-0.560068124650535	0.447427763111633	0.66834330257178	-0.0277358149052943	0.375590876857999	0.926370453864208	-0.820550518583333	0.520718148684241	-0.235689321106158	-0.570900666512279	-0.766670791703908	0.293748746591266	-38.7418165444483	-67.8759234342291	94.2233877429265
5149	1651208173213	8.972809760929	-2.34905691474944	2.85045501958768	0.0508081239192468	-0.0383324175004152	-0.109573105134652	0.00469876686867307	-0.00579002543394462	0.0123139538931523	0.318603515625	-0.332275390625	-0.05908203125	0	0	0	0.1986111631029	-0.560086635245772	0.447482045347835	0.668293637558597	-0.0278744397792231	0.375619891526227	0.9263545286211	-0.820577723784436	0.520626849964464	-0.235796272923968	-0.570854810644308	-0.76671857952309	0.293713133819967	-38.7578964430716	-67.873500787145	94.2440928170788
5150	1651208173215	8.97276507790073	-2.34987228940604	2.84992355541867	0.0490194809384007	-0.0383314035272262	-0.109563900172709	0.00620846997181484	-0.00891222686149445	0.0093251950105737	0.3271484375	-0.333251953125	-0.047119140625	0	0	0	0.198576056735518	-0.560176800196428	0.447530522603025	0.668196029284616	-0.0281632322792909	0.375600836258567	0.926353520071818	-0.820551636489474	0.520567962060072	-0.236016967040656	-0.570878134282641	-0.766767897527334	0.293539004426127	-38.8006577286668	-67.8733473688349	94.2881172106328
5151	1651208173215	9.02175971121904	-2.30048567788594	2.87026105236724	-0.00566418804835659	-0.00992522556226998	-0.0698617759851601	0.00471667397672992	-0.0118917459338965	0.0124640022069098	0.331298828125	-0.330810546875	-0.05322265625	0	0	0	0.19858160857906	-0.560216477538004	0.447579264591705	0.668128464396341	-0.0283393995950815	0.375583514970615	0.926355170392495	-0.820578272018582	0.520476293283403	-0.236126507662665	-0.570831129075481	-0.766838608451796	0.293445686058127	-38.8225389536875	-67.8735984125314	94.315037597285
5152	1651208173216	8.99698257866619	-2.30265434909843	2.84547068970707	0.00999591688031522	-0.0010551613803996	-0.0995768969333675	0.00468224286297395	-0.00891607330158377	0.00933815511451282	0.3193359375	-0.332763671875	-0.0419921875	0	0	0	0.198586046688172	-0.560223725126615	0.447636737560893	0.668082563050303	-0.0284585420178016	0.375611368222683	0.926340224457572	-0.820621827557946	0.520369866493207	-0.236209691124854	-0.570762584199138	-0.766897191354699	0.293425919732044	-38.8342812744815	-67.8713249635298	94.3327895177623
5153	1651208173217	9.02107734070047	-2.30450201283425	2.81973071868867	0.0243349329083261	0.0265096825366881	-0.0843703381225627	0.00164241165035839	-0.0134996587351212	0.00947731410693824	0.329345703125	-0.33544921875	-0.045166015625	0	0	0	0.198593355738557	-0.56027250832166	0.447665344255562	0.668020310340939	-0.0286190880569903	0.375566289285653	0.926353555696199	-0.820631879508282	0.520312837218096	-0.236300380365247	-0.570740103841925	-0.766957960893725	0.29331079095091	-38.8560093150545	-67.8733527879206	94.3576596238357
5154	1651208173219	9.02131059163684	-2.25541994667502	2.84073078965362	-0.0289373218316267	0.0384121666100229	-0.0896013109315774	-0.00447935659386927	-0.00741186425820793	0.00938008120377461	0.33251953125	-0.33056640625	-0.052734375	0	0	0	0.198573611576855	-0.560210900368239	0.447861768828208	0.667946183398034	-0.028832833738648	0.375808914895704	0.926248523444714	-0.820781321819074	0.519976713614786	-0.236521117558877	-0.570514407751051	-0.767067061464173	0.293464535787864	-38.8674770948032	-67.857381035335	94.3872554500056
5155	1651208173219	9.02140656369173	-2.28107415845361	2.84102888836127	-0.00963756520570048	0.0249822312148329	-0.0833603780262333	-0.0105408445407793	-0.00883821983316072	0.0140471455938544	0.326416015625	-0.330810546875	-0.060546875	0	0	0	0.198516842246247	-0.560275019636479	0.447877424436314	0.667898778555715	-0.0290045698967261	0.37582551407201	0.926236426565925	-0.820721624822762	0.519993752049745	-0.236690752623571	-0.570591578516009	-0.767047378459594	0.293365931431843	-38.896958341037	-67.8555422233883	94.413090043611
5156	1651208173221	9.02154055399573	-2.23250961636683	2.86200489799847	-0.0640741861505136	0.0329517846347334	-0.0885846443610472	-0.0136370690793792	-0.00743210065122914	0.00946040108479899	0.322998046875	-0.333984375	-0.0478515625	0	0	0	0.198431085856684	-0.560417611892029	0.447774085891269	0.66787391957705	-0.0291390634290517	0.375704717136575	0.926281210272455	-0.820521818180354	0.520246944339952	-0.236827073610575	-0.570872017944902	-0.766934861918709	0.293114408893945	-38.9371032158323	-67.8623503920538	94.4348918125974
5157	1651208173221	8.99648885681721	-2.28512923507271	2.81512352603213	0.00491522781510718	0.0322216200223763	-0.113074730460202	-0.0166801981357316	-0.00587573302713016	0.0109753298687515	0.326171875	-0.330810546875	-0.0517578125	0	0	0	0.198355767387713	-0.560483245653307	0.447764431628072	0.667847688215476	-0.0292689097785521	0.375726712456813	0.926268194675155	-0.820427049654885	0.520324006625642	-0.236986042465839	-0.571001564897117	-0.766871805242202	0.293027041771932	-38.9642500265595	-67.8603715125128	94.4543150090601
5158	1651208173223	8.97258184549415	-2.30988000612757	2.84009430399779	0.00927228814165994	-0.00774718560574467	-0.12203413371958	-0.0212684539520522	-0.00744811490440634	0.00952777347418004	0.3212890625	-0.33154296875	-0.04541015625	0	0	0	0.19825686072321	-0.560549867329577	0.447805449200601	0.667793638094299	-0.0294917481939161	0.375817546209095	0.926224275621106	-0.82034897411139	0.520328993684851	-0.237245229678703	-0.571102265328073	-0.766823910876731	0.292956126825944	-39.0016578706171	-67.8536953389911	94.4870095124959
5159	1651208173223	8.99709011371938	-2.33585603980545	2.83953376319414	0.0280051508088611	-0.0116267015739549	-0.0933311080376882	-0.022746859889716	-0.0103907639615674	0.0141916448820992	0.320556640625	-0.33154296875	-0.048828125	0	0	0	0.198162178459189	-0.56064725543844	0.447785520283149	0.667753348042826	-0.0296744344118116	0.375822397778649	0.92621647214366	-0.820218723718036	0.520439757706117	-0.237452529700476	-0.5712798554165	-0.766746362186809	0.292812811995306	-39.039849694571	-67.8525093255772	94.5146316349534
5160	1651208173225	8.99662082401482	-2.33889249824248	2.81373960997427	0.0423540611706288	0.00824347392735756	-0.100588066610058	-0.0181679837248014	-0.0103817596280162	0.014150671965601	0.326171875	-0.32568359375	-0.05810546875	0	0	0	0.198070262002628	-0.560687690289202	0.447911979862426	0.667661848216664	-0.029991655492237	0.375996365192203	0.926135645552576	-0.820218596061126	0.520286059211864	-0.237789552472987	-0.571263472730709	-0.766765381294722	0.292794970536739	-39.0813196802172	-67.8402284224054	94.5605883741233
5161	1651208173226	8.99750130187208	-2.41253135122344	2.83992780689512	0.0853827708999884	-0.0501837097714274	-0.0745808745687704	-0.0135813074489864	-0.0195628645106842	0.0128047760240071	0.32666015625	-0.33740234375	-0.049072265625	0	0	0	0.198030331945469	-0.560793423424827	0.447904969281855	0.66758959126521	-0.0302162505278349	0.37592517514975	0.926157244150618	-0.820141606324369	0.520330252244375	-0.237958345461948	-0.571362165162974	-0.766770298908307	0.292589447746059	-39.1209095576876	-67.8435095101215	94.5954614046152
5162	1651208173227	9.0215640027192	-2.39076516843859	2.81197746030805	0.0796267517403878	-0.00928739966977919	-0.0656280496758441	-0.0135881771084042	-0.0165119018450514	0.0127314144602036	0.328125	-0.330810546875	-0.0517578125	0	0	0	0.197962050443573	-0.560925334729222	0.447884453950743	0.667512779916858	-0.03047543046369	0.375853335058921	0.926177908753572	-0.820021052693897	0.520421084986842	-0.23817507728541	-0.571521409290016	-0.766743871723932	0.292347590886174	-39.169644708392	-67.8466491446923	94.6355899949105
5163	1651208173228	9.04661942277116	-2.39088406577621	2.83409734714542	0.0641118919733568	-0.0175136764331054	-0.0359118248342156	-0.0074935811446335	-0.0180631940290112	0.0111865702579534	0.330322265625	-0.326904296875	-0.05224609375	0	0	0	0.197943507460161	-0.56101113326019	0.447890429027828	0.667442162136731	-0.0306786561132301	0.375784889817921	0.926198972491127	-0.819978935584807	0.520425062879274	-0.238311349130314	-0.571570962572709	-0.766774719530865	0.292169752424973	-39.2027690462306	-67.8498498559111	94.6672125728584
5164	1651208173230	9.04646972379242	-2.39307091532597	2.80789663688774	0.0798272025742657	-8.42644354399624E-05	-0.0431779749794376	-0.00753553543070176	-0.0181729261499387	0.00661042800563783	0.32666015625	-0.334716796875	-0.05224609375	0	0	0	0.197945633286694	-0.561089179158344	0.447815162637324	0.667426429957829	-0.0307189737129537	0.375637044762408	0.926257607394502	-0.819897656357646	0.520558212749675	-0.238300189337113	-0.571685383539987	-0.766756778738232	0.291992918588291	-39.2184460116827	-67.8587619559078	94.6751502253209
5165	1651208173231	9.02183285106556	-2.37074170928892	2.78105293614085	0.0759320443581047	0.0219413142167797	-0.079142669196127	-0.00753874912705257	-0.0166474388724263	0.00657396680217991	0.326904296875	-0.329833984375	-0.05517578125	0	0	0	0.197936991336259	-0.561165687731435	0.447806520228877	0.667370465943886	-0.0308752172931805	0.375554796374307	0.926285763615825	-0.819856587857117	0.520580535802509	-0.238392703518498	-0.571735862356372	-0.766781912060937	0.291828036747311	-39.2451955425877	-67.8630427178941	94.6998473351651
5166	1651208173232	9.07087034559936	-2.34678764782391	2.77741556798094	0.0547119715761289	0.0545718801083316	-0.0404733523743026	-0.00758796875048144	-0.0137057962130609	0.00192502719564441	0.3251953125	-0.33935546875	-0.05224609375	0	0	0	0.197913327148238	-0.561260827069814	0.447776385699664	0.667317695961802	-0.0310348151866923	0.375456216655689	0.926320392532154	-0.819780207389124	0.520653246693719	-0.238496558214858	-0.57183673528322	-0.766780820105645	0.291633197868046	-39.276174040023	-67.8683086414766	94.7252664937699
5167	1651208173232	9.09613263365986	-2.37019271599637	2.8013272882964	0.0585221818817419	0.0327870262704952	-0.00450827172525514	-0.00915577751826432	-0.00767907074577408	-0.00125658275483012	0.316162109375	-0.3330078125	-0.054931640625	0	0	0	0.197901079118129	-0.561303551338018	0.447745840768749	0.667305888040482	-0.031076029340769	0.375401714735981	0.926341099689362	-0.819732028826507	0.520717649916333	-0.238521550350466	-0.571903559454206	-0.766763771730836	0.291546972278419	-39.2874195241762	-67.8714580902598	94.7321969794815
5168	1651208173234	9.07203795992409	-2.36995476829822	2.80104271948711	0.056193863911377	0.0245509485384389	-0.0269509013417508	-0.00619634309817135	-0.00484094482083246	-0.0105105588015447	0.331787109375	-0.3349609375	-0.047119140625	0	0	0	0.197860344010323	-0.561373836827244	0.447817029328331	0.66721106693274	-0.0313613528611833	0.375429714911545	0.926320136188431	-0.819724196803678	0.520622385023331	-0.238756305439634	-0.571899210282094	-0.766814750362859	0.291421399187953	-39.3271454052269	-67.8682696556232	94.7750909425652
5169	1651208173234	9.07179743978225	-2.34608971047928	2.77497611965871	0.0517115299081329	0.0561436641389065	-0.0404659182079676	-0.00157420646941397	-0.00472427644911699	-0.00597824622965449	0.327392578125	-0.3359375	-0.051025390625	0	0	0	0.197879336851346	-0.561385584843127	0.447795732476069	0.66720984341797	-0.0313495857868787	0.375374226603861	0.926343021495032	-0.819720655590513	0.520645500046985	-0.238718055620193	-0.571904931146123	-0.766826221045146	0.291379986355223	-39.3266369893867	-67.8717504082987	94.7740098992152
5170	1651208173235	9.07244930667363	-2.34446867605745	2.79913329100374	0.0372784794774613	0.0394130361792427	-0.0332152959970369	-0.00464007225090549	0.00137246685960671	-0.00609379927585145	0.337646484375	-0.3359375	-0.049560546875	0	0	0	0.197887509972158	-0.561327638731819	0.447839431997867	0.667226841891577	-0.0312977497128223	0.375461522358528	0.926309395445782	-0.81978043718729	0.520560753089694	-0.238697585131701	-0.571822075184168	-0.766841018445745	0.29150363078556	-39.3123126766895	-67.8666362160136	94.7650495002416
5171	1651208173235	9.07285315663228	-2.31870771370705	2.82237993371428	0.00298329415329475	0.0351721514017583	-0.0322143481146337	-0.00459659364967385	0.00148116765990228	-0.00151765116574037	0.320068359375	-0.32470703125	-0.05126953125	0	0	0	0.197870059009745	-0.561329373847583	0.447831096277028	0.667236152355877	-0.0312867134736089	0.375477642516148	0.92630323411426	-0.819758747824647	0.52058949790959	-0.238709384045136	-0.571853772327321	-0.766813611405508	0.291513547606721	-39.3127454747209	-67.8656992595784	94.7631734150824
5172	1651208173237	9.0737444607845	-2.31624209870103	2.87137606149411	-0.0258722126455351	-0.000545821277205328	-0.0176913540659527	-0.00463576641449742	0.00598531572652691	-0.0046768424081021	0.3251953125	-0.325927734375	-0.055908203125	0	0	0	0.197867722483736	-0.56128103718277	0.447796535172571	0.66730070042341	-0.0311162792270519	0.375511082134338	0.926295419594291	-0.819748684136993	0.52065325497308	-0.23860486780786	-0.571877497391472	-0.766753947026187	0.291623923396266	-39.2898159375507	-67.864510956221	94.7369245181623
5173	1651208173237	9.07275602355351	-2.31821515411872	2.8230967087125	0.00388970817091841	0.0354295189999405	-0.0322155955169592	-0.00617986101527523	0.00747190970373781	-0.00622375579886602	0.32470703125	-0.33251953125	-0.05126953125	0	0	0	0.197845040525453	-0.561261331586457	0.447773833677387	0.667339232683898	-0.0310313769206959	0.375548551378206	0.926283077252379	-0.819719634950574	0.520711867626675	-0.238576761209546	-0.571923748171819	-0.766695791347827	0.291686115210557	-39.2805204090423	-67.8626342597559	94.7235889655596
5174	1651208173238	9.09795546064492	-2.3154686574596	2.87209090932148	-0.027054674518677	0.00882071773133427	0.00476062763418206	-0.00464620694727049	0.0105618573105201	-0.00478500985092429	0.3193359375	-0.333740234375	-0.057373046875	0	0	0	0.197799601966908	-0.561265535109712	0.447729187994603	0.667379120723322	-0.0309608533685968	0.375574024727121	0.926275108976248	-0.8196464224969	0.520827783358852	-0.23857527568786	-0.572032488279051	-0.766604573448252	0.291712633119482	-39.277792997718	-67.8614227356268	94.7125840850443
5175	1651208173239	9.02399323353481	-2.31656603873623	2.85023667299309	-0.010503386590301	-0.00183552928446763	-0.0698609085350412	-0.00313401591176429	0.0166667538553081	-0.00494354863847902	0.32763671875	-0.333984375	-0.0498046875	0	0	0	0.197762881948954	-0.561209846737919	0.447728161245808	0.667437520727667	-0.0308339968962998	0.375688194465675	0.926233040424774	-0.81963410114176	0.520858672301385	-0.238550170266084	-0.572056994434067	-0.766527640745955	0.291866700895292	-39.2600136467806	-67.8550275317326	94.6919416436549
5176	1651208173240	9.02379499382729	-2.34078428879403	2.85251176970766	0.00699090621987478	-0.0147932563235491	-0.0636000815812547	-0.00614393693214479	0.0106310444501278	-0.00172014111442527	0.320068359375	-0.333740234375	-0.053955078125	0	0	0	0.197683882395473	-0.561228049424397	0.447778698686311	0.66741171414887	-0.0309653729158383	0.375814018260256	0.926177612210133	-0.819596977138069	0.520830639287694	-0.238738853656693	-0.572103085768922	-0.766485008893359	0.291888318360679	-39.2801329772294	-67.8466040869774	94.7102725811644
5177	1651208173240	8.97502274634059	-2.31540291767304	2.87758583254167	-0.0261681922517782	-0.0381789803672699	-0.107509275777149	-0.00769134441235121	0.0136431639475086	-0.00330321148367038	0.324951171875	-0.334228515625	-0.045654296875	0	0	0	0.197633732024147	-0.561194661960914	0.447767698769348	0.667462019362589	-0.0308707213492446	0.375913873981127	0.926140247431175	-0.819557855722587	0.52088999181002	-0.238743664953757	-0.572164241880574	-0.766395704437765	0.292002918705566	-39.269677188003	-67.8409274646267	94.6946973961717
5178	1651208173241	8.97464605219334	-2.29104060088801	2.87723615581422	-0.0466044770847636	-0.0230342959113422	-0.113773808969434	-3.38527678167879E-07	0.00613802351856173	0.00138181105889826	0.32861328125	-0.330322265625	-0.052978515625	0	0	0	0.197593131038568	-0.561155895898032	0.447906975047525	0.66741318294519	-0.0310331955946925	0.376116938817151	0.926052368446838	-0.819639140702129	0.520672592540303	-0.238938758694429	-0.572039001992221	-0.766443800752655	0.292122030130506	-39.2811611881854	-67.8275819411683	94.716758086279
5179	1651208173242	8.92601614856575	-2.29063364627102	2.90287160148304	-0.0604326380896176	-0.0599587927115579	-0.151415030126016	-0.0060284907345472	0.00325513743192325	0.00913690155768999	0.328125	-0.332763671875	-0.053466796875	0	0	0	0.197536546760691	-0.561165634246824	0.447932671231066	0.667404499294111	-0.0311010940316775	0.376203117221104	0.926015084403681	-0.819606003420668	0.520671269475326	-0.239055282936297	-0.572082792178574	-0.766402403268724	0.292144887268441	-39.2926547451244	-67.8219221966934	94.7259533691675
5180	1651208173243	8.97414063250677	-2.29287308576904	2.87735291905694	-0.0467244788925711	-0.023232175548004	-0.113774858305373	-0.0105479669996189	-0.00427325025874677	0.0139345066846331	0.32373046875	-0.332275390625	-0.055419921875	0	0	0	0.197465577155774	-0.561232958324525	0.447914928784055	0.667380797522085	-0.0312204338746467	0.376211264719111	0.926007758502663	-0.819508024856691	0.520759124821824	-0.23919977238763	-0.57221663878654	-0.766338709849147	0.292049824657678	-39.3187638402378	-67.8208102808766	94.7439027230367
5181	1651208173244	9.0227488320811	-2.29441693288682	2.87574224614663	-0.047950817837617	-0.00394244578119434	-0.0688727167523027	-0.0120428723569173	-0.005729869809674	0.0170351557853405	0.324951171875	-0.33349609375	-0.052490234375	0	0	0	0.19738695568786	-0.561294053646818	0.447940940162818	0.667335215008959	-0.0314042010664519	0.376269278239651	0.925977972960691	-0.819437776219826	0.520774607700659	-0.239406639168866	-0.572307178933905	-0.766299705224553	0.291974750130004	-39.3502675774216	-67.8162900146845	94.7709650305926
5182	1651208173245	8.99832963069935	-2.34494753954956	2.87781317444075	-0.0101182733924256	-0.0403937582620975	-0.0787883726911218	-0.0120913355504502	-0.00278603630651272	0.0123875996295958	0.33154296875	-0.329833984375	-0.0537109375	0	0	0	0.197285595570226	-0.561384157112547	0.447973349269952	0.667267637659282	-0.0316645870262053	0.376330221444078	0.925944338692295	-0.81934225256263	0.520796544248726	-0.239685695576895	-0.57242958265105	-0.766254868778291	0.291852443847074	-39.394770860862	-67.8111867153391	94.8095629836574
5183	1651208173246	8.99762198292376	-2.32288605217608	2.85182013266588	-0.0146244294355445	-0.00879503787957559	-0.0923176303592203	-0.0121505557368429	-0.00140307277771985	0.00625040849076922	0.320068359375	-0.32666015625	-0.049560546875	0	0	0	0.197226934408476	-0.561420776956063	0.447967431043125	0.667258142153775	-0.0317362161466548	0.376365234061932	0.925927655475415	-0.819274429071008	0.520853434136915	-0.239793890702319	-0.572522682917512	-0.766199002046654	0.29181649509177	-39.4109155061758	-67.8086557982796	94.8199452667734
5184	1651208173246	9.02103076929183	-2.30158202900119	2.80074522469835	-0.00413067533964195	0.0499759038857959	-0.0906538819636342	-0.0152045200918943	-0.00754567212114279	0.00489529919487027	0.324462890625	-0.33740234375	-0.052978515625	0	0	0	0.197181750816983	-0.56147498908341	0.447901405781346	0.667270203499023	-0.0317396653342424	0.376317281591608	0.925947027221305	-0.819167767141261	0.521007375687687	-0.239823859855167	-0.572675093679891	-0.766117887830934	0.291730387557068	-39.4227223355309	-67.8115946026094	94.8210780005955
5185	1651208173247	9.02158965998665	-2.30108324359111	2.82426211995595	-0.019117447071987	0.0321943812475201	-0.0833955789022571	-0.018322556098941	-0.00311566434166705	-0.00128401233467088	0.33203125	-0.334716796875	-0.0517578125	0	0	0	0.197127661258548	-0.561523601050739	0.447851081583024	0.667279056583272	-0.0317586916241479	0.376299625983817	0.925953550125903	-0.819066962850256	0.521140187783302	-0.239879584467795	-0.572818204907613	-0.766036223792077	0.291663861259491	-39.435663117161	-67.8125842476159	94.824179620932
5186	1651208173248	9.04674692775074	-2.32457803028197	2.84843505116328	-0.0158281452254985	0.0109505113446956	-0.0474170284220285	-0.0213969763261344	-0.00624221568844707	-0.00423587253809758	0.332275390625	-0.330078125	-0.052734375	0	0	0	0.197071665863977	-0.561583887665135	0.44782357976962	0.667263319110853	-0.0318448429655291	0.376287951897288	0.925955335441967	-0.818977040955435	0.521233599831839	-0.239983626096078	-0.572941979928492	-0.765978401564487	0.29157259125702	-39.4566511833721	-67.8128551203163	94.8373534503044
5187	1651208173249	9.04659667352504	-2.32566539894673	2.82311552567355	-0.00100643477989083	0.0290152252954569	-0.054676846151553	-0.0275819559715082	-0.00185117205726297	-0.011910993294113	0.3251953125	-0.33642578125	-0.050537109375	0	0	0	0.197013567110666	-0.561638536710966	0.447713274147192	0.667308498827864	-0.0317700435328675	0.376224922664457	0.925983515998013	-0.818826568841425	0.521476957053466	-0.239968400881527	-0.573161159267879	-0.765843711750891	0.291495616910992	-39.462290452121	-67.8171311620877	94.8268495499183
5188	1651208173250	9.07199554961041	-2.37287539786048	2.84852447006425	0.0225412150358267	-0.00607047682283108	-0.0124226950050161	-0.0275992459076294	-0.000360588268829108	-0.013471280988788	0.328857421875	-0.33154296875	-0.046630859375	0	0	0	0.196965845863627	-0.561664900700213	0.447605618243072	0.667372613613926	-0.031636500322686	0.376181858113658	0.926005583932132	-0.818697067146968	0.521707332160926	-0.239909507553332	-0.573353507089898	-0.765707952940078	0.291473989769292	-39.4574758167385	-67.820480237551	94.8072031558893
5189	1651208173250	9.04742071522198	-2.37356413373241	2.82410251291688	0.0379462249946547	0.00241892313855557	-0.0421327465794601	-0.0230271942240192	0.0026985088363553	-0.0135835109912193	0.324462890625	-0.333740234375	-0.053955078125	0	0	0	0.196917536765321	-0.561692326829317	0.447507007622783	0.667429915289874	-0.0315215837808592	0.376144989540177	0.926024479481923	-0.81857326721702	0.521921923685562	-0.239865195003394	-0.573536568976731	-0.765579814532869	0.291450427390693	-39.4545554155477	-67.8233482470403	94.790290141485
5190	1651208173251	9.04771759707603	-2.39737362656281	2.82509521500275	0.0575996212738947	-0.0102245792154922	-0.0358609490331165	-0.018441239965373	0.00579247814539716	-0.0121698985990761	0.3271484375	-0.33447265625	-0.06005859375	0	0	0	0.196881793014915	-0.561661109836785	0.44747512627586	0.667488103744589	-0.0313943818773713	0.376206954278662	0.926003628685607	-0.818530339764316	0.52200714188727	-0.239826242734189	-0.573604807922539	-0.765491261459631	0.291548714552287	-39.4405113866601	-67.8201834858946	94.7702666554253
5191	1651208173251	9.02338235772143	-2.39711882594182	2.8256070123797	0.058104892012251	-0.0196533790154398	-0.0583088377273366	-0.0153288972128275	0.00441025159181017	-0.00606232878491916	0.322509765625	-0.328369140625	-0.05908203125	0	0	0	0.196834241707374	-0.561672685976659	0.447425199827387	0.667525853940259	-0.0313310312256234	0.376222942714415	0.925999278540564	-0.818448611642254	0.522133943701812	-0.239829136960587	-0.573724878825388	-0.76539691808218	0.291560150238497	-39.4397480517592	-67.8195232692481	94.7604836464609
5192	1651208173252	9.0237170578492	-2.37136269268098	2.84912646211791	0.0215119923600024	-0.0254153565647253	-0.0573173832166862	-0.00464907904149211	0.00595631383552637	-0.00619599034899123	0.327880859375	-0.33544921875	-0.04638671875	0	0	0	0.196767981365765	-0.561786604941033	0.447325157185307	0.667516573402645	-0.0314079714840647	0.376110679817124	0.926042275414442	-0.81827714466742	0.522365130516764	-0.239910785366433	-0.573965202640535	-0.765294340072958	0.291356344036138	-39.4689755253105	-67.8260496762079	94.7735379584534
5193	1651208173253	9.02307236341859	-2.34782183656132	2.82411141342126	0.0169999447091272	0.00617717030185882	-0.0708507615045466	-0.00767704058452953	0.00754439803567578	-0.00315098771112122	0.327392578125	-0.332763671875	-0.049072265625	0	0	0	0.196730494452844	-0.561774477951636	0.447308972243715	0.667548673749546	-0.0313517614551248	0.376164680718301	0.926022245971315	-0.818237363991956	0.522423591805221	-0.239919167414415	-0.574024984840517	-0.765227890046769	0.291413096949012	-39.4644818165749	-67.8230092213699	94.764353351834
5194	1651208173254	9.04786831807279	-2.37100263232269	2.84971432286572	0.0217902738057434	-0.0139634282418734	-0.0348667216500047	-0.00154434958551419	0.00762478220776794	-0.000156526713211639	0.323486328125	-0.331298828125	-0.056884765625	0	0	0	0.196728269402083	-0.56165956981233	0.447419924000662	0.667571664515153	-0.0312921215090586	0.376381096480135	0.925936322510287	-0.818358357129327	0.522226799250606	-0.239934927555486	-0.57385573313164	-0.765255800603222	0.291673031312581	-39.4412638523981	-67.8099705912153	94.7526100573417
5195	1651208173254	8.9981836549966	-2.34824848528388	2.82581413259029	0.0184484320652791	-0.00152450830843212	-0.0933014353415497	5.13317217377169E-05	0.00779865829190936	0.00745661059007672	0.336669921875	-0.330078125	-0.05419921875	0	0	0	0.196686290827615	-0.561639044507718	0.447461713717097	0.667573292936656	-0.0313208031163684	0.376493578482026	0.925889622284397	-0.818360380274781	0.522185035515667	-0.240018909005138	-0.573851283250862	-0.765228968378289	0.291752173369864	-39.4434748804162	-67.8028870209839	94.7555315281843
5196	1651208173256	8.9977534496218	-2.3244168773943	2.82526724573773	-0.000704991609983863	0.0108394256673445	-0.0995777699000157	-0.00149538877602058	0.00467624413571885	0.00448795033636254	0.33544921875	-0.33984375	-0.05126953125	0	0	0	0.196656019723903	-0.56166853913364	0.447385844612412	0.667608244477457	-0.0312512836241581	0.376445958031192	0.925911333743043	-0.818267955271836	0.522344631893581	-0.239986747357448	-0.573986855813868	-0.765143467732645	0.291709724107668	-39.44379823745	-67.8061799852019	94.7456219297488
5197	1651208173256	8.99762038827237	-2.25062434186649	2.84674909181898	-0.0736733853658661	0.0336520313818807	-0.111146107565274	-0.00302157776022788	0.00467332776457561	0.00450189869409844	0.3291015625	-0.330810546875	-0.055419921875	0	0	0	0.196619255056608	-0.561662663525458	0.447405423165926	0.667610895854906	-0.0312731205535875	0.376518081749324	0.92588126995131	-0.818252859731267	0.522338511725405	-0.240051529280885	-0.574007185906626	-0.765112157323551	0.291751841884945	-39.4473270556169	-67.8016203510472	94.7480172686137
5198	1651208173258	8.99792274102459	-2.27464167979884	2.87244198149837	-0.0688871634346744	0.0020863648325281	-0.0976072548500291	-0.00909530301206459	0.00320452228389871	0.0076425071108719	0.325439453125	-0.330810546875	-0.05517578125	0	0	0	0.196568390399045	-0.561671365683379	0.447396321247687	0.667624652481717	-0.0312763825891906	0.376571954417941	0.925859250122818	-0.818199299560402	0.52239479925993	-0.24011159885571	-0.57408335117037	-0.765047212171922	0.291772289734594	-39.4523906022606	-67.7982812711272	94.7478340403352
5199	1651208173259	9.04669731785145	-2.32439664590158	2.87363502717166	-0.0314740522675588	-0.00568401248351351	-0.040159167679521	-0.0182352403134298	0.00169607968191211	0.00928528572879954	0.323974609375	-0.334228515625	-0.057861328125	0	0	0	0.196474188567407	-0.561714094254297	0.447386034106435	0.667623326456895	-0.0313539743948195	0.376646062850014	0.925826480302455	-0.818095346351969	0.52248725942659	-0.240264579191654	-0.574227248192648	-0.764947584528819	0.291750339085707	-39.4724123446801	-67.7933129483788	94.7586264433556
5200	1651208173260	9.02194855774464	-2.32558784390535	2.87425148485948	-0.0326672523850683	-0.0156695747913477	-0.0626143669554864	-0.0152442440154357	0.0107531582203661	0.00447796875896832	0.326416015625	-0.330322265625	-0.052001953125	0	0	0	0.196345722205891	-0.561792280090324	0.447358142723499	0.6676140228765	-0.0314797476602065	0.376714116732331	0.925794523499588	-0.817936160588446	0.522638099020858	-0.240478387082281	-0.574447093028662	-0.764811016988147	0.291675582804724	-39.5046302638263	-67.7884689056357	94.7767679110382
5201	1651208173261	8.99732975278824	-2.35068173497056	2.87626081836098	-0.0128456443042088	-0.0386493713799903	-0.0787845072995417	-0.01375233508691	0.00760330709571796	-4.46520816778623E-05	0.324951171875	-0.338134765625	-0.056640625	0	0	0	0.196279213441464	-0.561796680117484	0.447334954082241	0.667645414449926	-0.0314481418695741	0.376784240657381	0.925767060531531	-0.817860282607323	0.522731818454079	-0.240532750595756	-0.574556848802988	-0.764712417819883	0.291717921159547	-39.5069051998144	-67.7843068438515	94.7711101527934
5202	1651208173262	8.97256193060371	-2.32708933817358	2.87583236665509	-0.0328047977296171	-0.0343650482569844	-0.107515185122766	-0.0213390961539607	0.00616521758093685	0.0046340127933261	0.325439453125	-0.3349609375	-0.0537109375	0	0	0	0.196153339103662	-0.561858833288239	0.447332780090928	0.667631562218702	-0.0315839293757987	0.376885993098731	0.925721018239927	-0.817727938116234	0.522834502829211	-0.240759427386561	-0.574737744218489	-0.764592068267331	0.291677038028926	-39.5373402762402	-67.7773307128555	94.7903276180566
5203	1651208173263	8.94724579040793	-2.35451520527429	2.82836146994867	0.0168264529621606	-0.0215012195867544	-0.138193462347962	-0.0198403628509141	-3.50127487640014E-05	0.000177920332013776	0.322265625	-0.328857421875	-0.0595703125	0	0	0	0.196082746501652	-0.561902821543286	0.447285874309214	0.667646704709538	-0.0315988684297276	0.376898983060871	0.92571521975262	-0.817616777121813	0.522973806335622	-0.240834390517158	-0.574895048928846	-0.764490388726053	0.291633551332125	-39.5502917133155	-67.7764522982694	94.7924184607735
5204	1651208173264	8.97173703048127	-2.35505619585183	2.82714354331973	0.0144716840382518	-0.0123114255561085	-0.115742765584764	-0.0228795117189206	-0.00614270987136213	0.000338639380077636	0.329833984375	-0.341552734375	-0.050048828125	0	0	0	0.195976982624234	-0.562050208422651	0.447205762043135	0.66760736356707	-0.0317868607850536	0.376817911679254	0.925741787389506	-0.817413527399226	0.523200057353839	-0.24103283014912	-0.575173643959967	-0.764375536907498	0.29138517098711	-39.5974378049419	-67.7804773080922	94.8218284931261
5205	1651208173265	8.9958239530611	-2.35698206654327	2.80116435330015	0.0286761021009517	0.0153168872528924	-0.100546628927448	-0.0228217500046767	-0.00753544526200155	0.00647363524659183	0.332763671875	-0.32861328125	-0.058837890625	0	0	0	0.195895258101771	-0.562132633029143	0.447163992545754	0.667589929902709	-0.031897466691473	0.376806122407928	0.92574278162704	-0.817282591346616	0.523338823247562	-0.241175541802269	-0.575353558692764	-0.764286348300007	0.291263901473927	-39.6258105911597	-67.7806279489955	94.8386777281116
5206	1651208173267	9.0208895281471	-2.38118409474077	2.82499622892959	0.0326401385363991	-0.00677547131698809	-0.0645604734466403	-0.0182841649498133	-0.00762664900295174	0.00185587464012652	0.3310546875	-0.32958984375	-0.0556640625	0	0	0	0.195848834210473	-0.562203673793254	0.447093897082543	0.667590675866067	-0.0319318472701734	0.376737565655351	0.925769498176515	-0.817165302060365	0.523500562659887	-0.241221951744396	-0.575518224071582	-0.764209374136999	0.291140526623536	-39.6431515525434	-67.7846762433571	94.8447455462209
5207	1651208173267	9.02148211137793	-2.38086384140055	2.84828021094126	0.0176209518236161	-0.0245700407830963	-0.0573074132607303	-0.0167442363128608	-0.00759112702985786	0.00336748951572578	0.323486328125	-0.338134765625	-0.04248046875	0	0	0	0.195796327274068	-0.562269666977472	0.447058577513633	0.667574151757328	-0.0320171002629409	0.376708829875397	0.9257782470898	-0.817070172802607	0.523604852994946	-0.241317820801653	-0.575648536875645	-0.764152089190399	0.291033239646057	-39.6647127526057	-67.7860020973422	94.857987212287
