// Start Time : 29/04/2022 04:55:25																																
// Update Rate : 100Hz																																
// Filter Profile : 46.1 human																																
// Firmware Version : 4.4.0																																
PacketCounter	Time_Of_Arrival	Acc_X	Acc_Y	Acc_Z	FreeAcc_X	FreeAcc_Y	FreeAcc_Z	Gyr_X	Gyr_Y	Gyr_Z	Mag_X	Mag_Y	Mag_Z	VelInc_X	VelInc_Y	VelInc_Z	OriInc_q0	OriInc_q1	OriInc_q2	OriInc_q3	Mat[1][1]	Mat[2][1]	Mat[3][1]	Mat[1][2]	Mat[2][2]	Mat[3][2]	Mat[1][3]	Mat[2][3]	Mat[3][3]	Euler_X	Euler_Y	Euler_Z
4984	1651208173068	5.91267493287878	0.490319965940105	7.79955622307335	2.9330108220621E-13	-7.09525618597035E-15	-0.0130335148066401	0.0137864237695387	-0.00939101213837579	-0.00886083436202848	0.42431640625	-0.477294921875	0.5947265625	0	0	0	-0.244210188245689	0.205900214426324	-0.671601264946628	-0.668519428721625	0.0131136852425658	0.797391127691921	0.603320330121211	-0.998522848191442	-0.0213737502418121	0.0499528221450155	0.0527271552334262	-0.60308419999102	0.795932971312398	3.59117801042363	-37.1080707329579	89.0578135809554
4985	1651208173069	5.93718155330368	0.516775702471671	7.79657867072943	-5.10794748512233E-14	8.86030344145888E-15	0.000763642213284399	0.0168431262797328	-0.00770662597625229	-0.00589741193113291	0.431396484375	-0.483154296875	0.591552734375	0	0	0	0.244562299426337	-0.207210077323644	0.666980144553581	0.672599994295359	0.0244029412536281	0.795870136894553	0.604975389299116	-0.998573228792871	-0.00934646305882564	0.0525751877454629	0.0474974019958212	-0.605395217050593	0.794506531109664	3.7859360995457	-37.2270709285444	88.2437491333128
4986	1651208173070	5.93791911127224	0.492073034084013	7.77380606583848	0.00971033732789557	0.0257451743533565	-0.01818264613485	0.0183632484063504	-0.00610203369915362	-0.00444792406714265	0.423583984375	-0.48291015625	0.592529296875	0	0	0	0.244417926567614	-0.206535351505246	0.669261786440879	0.670590550950718	0.0188636196405665	0.79663937544365	0.60416046665904	-0.998563144954953	-0.015302923171865	0.0513562674552245	0.0501578460322269	-0.604261140701608	0.795206051565417	3.69516384445357	-37.1684538636105	88.6435470102431
4987	1651208173070	5.93818954392863	0.493903112596362	7.77348343421116	0.0097103373278954	0.0257451743533579	-0.0181826461348518	0.0182846352884402	-0.00172221165401947	-0.00921456722050027	0.421875	-0.48095703125	0.5966796875	0	0	0	0.244494511517457	-0.206468677844218	0.669247664321185	0.67059725824907	0.0189564978032283	0.796630380500407	0.604169420098101	-0.998552214633117	-0.0153400046596124	0.0515573373556523	0.0503401029915282	-0.604272058966557	0.795186237877633	3.70968299488882	-37.1690976338213	88.6368554169114
4988	1651208173071	5.93828098507958	0.495722167367919	7.77329778345478	0.00963533217069164	0.0258465657787624	-0.01818283971817	0.0167767689105239	-0.00160875116154433	-0.00615448754136497	0.421630859375	-0.48095703125	0.59326171875	0	0	0	0.244557265242215	-0.206408572040579	0.669246945953649	0.670593595806828	0.0190080534397647	0.796628000138001	0.604170938808347	-0.99854286374118	-0.0153994613020761	0.0517204588453002	0.0505058726881695	-0.604273684672545	0.795174490810836	3.72144189790352	-37.1692068326755	88.6331454242198
4989	1651208173072	5.91367781021685	0.523457500527077	7.79576255425293	-0.0155370503792901	-0.00784062438071846	-0.0137484612216099	0.0213414746386191	-3.66210336161604E-05	-0.00625203190661339	0.424560546875	-0.482177734375	0.592041015625	0	0	0	0.244635395908222	-0.206329635067264	0.66924795949967	0.670588378565693	0.0190705007970743	0.796628744114006	0.604167989925558	-0.998530871963123	-0.0154786164512898	0.051927932457585	0.0507189682063274	-0.604270681469897	0.795163209523674	3.73638090235548	-37.1689948011814	88.6286578747238
4990	1651208173073	5.93757722234344	0.55014056499404	7.79319099977339	-0.0399971956369913	0.012246560018533	3.67186414536036E-05	0.0167769707014668	-0.00160890768946142	-0.00615435748669166	0.42724609375	-0.477783203125	0.594970703125	0	0	0	0.244703601790768	-0.206271523729461	0.669242591695595	0.670586727597195	0.0191328239177786	0.796619629460692	0.604178037507853	-0.998521168674568	-0.0155309985376239	0.0520985968448288	0.0508862531309484	-0.604281353379643	0.795144411537904	3.7487141637063	-37.1697172480308	88.6241622606901
4991	1651208173073	5.91380541291423	0.526892537109042	7.79543433274485	-0.0155361909359042	-0.00784624614747898	-0.0137484643587999	0.0167962416086899	-0.00147875327394284	-0.00310527659419248	0.419189453125	-0.4765625	0.5927734375	0	0	0	0.244768068439201	-0.206216477970069	0.669247691108196	0.670575040418678	0.0191645843199371	0.796611177043833	0.60418817541945	-0.998512013016109	-0.0156077587622173	0.0522509112737714	0.0510536832203429	-0.604290518273504	0.795126713772325	3.75972588477653	-37.1704461967882	88.6218646393678
4992	1651208173074	5.93903799342298	0.506652416845746	7.82140031923098	0.00799235059253584	-0.00313805969162916	0.0210859731449293	0.0152257624593668	0.0014888891328561	-0.00474879429884525	0.42529296875	-0.4794921875	0.595458984375	0	0	0	0.244820094319023	-0.206154152903062	0.669248914037393	0.670573991233045	0.0192127126011818	0.796620472512899	0.604174390758024	-0.998503189144843	-0.0156619750452112	0.0524030896537702	0.0512079382721302	-0.604276861472462	0.795127173316891	3.7706421976424	-37.1694550365983	88.6184211641134
4993	1651208173074	5.91442507228393	0.50556203064962	7.79725585322033	0.00888744046311298	-0.00829920073224491	-0.0130410591235091	0.0199037798994756	-0.00436473070393374	5.21981337800073E-05	0.421142578125	-0.482421875	0.584228515625	0	0	0	0.244901379485131	-0.206102247178773	0.66926425894787	0.670544949819994	0.0192144308056372	0.796594088566896	0.604209122497412	-0.998492987163164	-0.0157826679575229	0.0525610309842246	0.0514058385282977	-0.604308501886594	0.795090356068279	3.78214848561064	-37.1719523819758	88.6182519110396
4994	1651208173074	5.91379856801742	0.529216977039348	7.77058379596314	-0.0146650412342324	0.00663212538277457	-0.0333828136598591	0.0168156854503971	-0.001347976671081	-5.62424810273634E-05	0.427734375	-0.473388671875	0.58984375	0	0	0	0.244962795494694	-0.206049978173682	0.669279574835276	0.67052329267995	0.0192165144058742	0.796585931153881	0.604219810881597	-0.998484245814064	-0.015883840936526	0.0526964368645743	0.0515745715949997	-0.604316604012174	0.795073270636099	3.79194478104397	-37.172720934434	88.6180879874893
4995	1651208173075	5.89071397055462	0.509953529521867	7.82145587524249	0.00812824522017295	-0.0424324782398695	-0.00789930053501564	0.0183598446367589	-0.00285636626245604	-1.93375918195522E-06	0.41650390625	-0.483154296875	0.590087890625	0	0	0	0.245033908480561	-0.205998111872715	0.669294982178105	0.67049786608969	0.0192180094721743	0.796568669686338	0.604242519677377	-0.998474759653486	-0.0159947789480985	0.0528424202825211	0.0517573419607359	-0.604336430740808	0.795046323199233	3.8025472236915	-37.1743538452531	88.6179505784432
4996	1651208173076	5.91586825249677	0.458937894925773	7.77635126156503	0.0585521487258277	0.00532114047728551	-0.0312609163003046	0.015322503573631	-0.00441286482392286	8.57375992309467E-05	0.429931640625	-0.481689453125	0.594970703125	0	0	0	0.24509966941774	-0.205960219840301	0.669305693661074	0.670474778293351	0.0192205525524067	0.796543609543647	0.604275473980832	-0.998466736727898	-0.0160879190316345	0.0529655974116665	0.0519109430421306	-0.604366988638866	0.795013079789299	3.81154387303249	-37.1767235377971	88.6177242959069
4997	1651208173076	5.89079570293922	0.537228357758613	7.81869161099885	-0.0162534923091505	-0.0419603952317529	-0.00860649764827315	0.0244662443324681	-0.00444839480591248	-0.00303002813180311	0.428466796875	-0.48291015625	0.591796875	0	0	0	0.245199694495197	-0.205889540617906	0.669315274492579	0.670450348806334	0.0192531207901439	0.796517213571379	0.6043092302988	-0.998453423408447	-0.0162116536992273	0.0531784126153731	0.0521543730073967	-0.604398470190672	0.79497321376722	3.82700453639405	-37.1791509790207	88.615337144554
4998	1651208173077	5.91620000232839	0.515244314634047	7.81997178098666	0.00806498108191573	-0.0227006277521081	0.00659352888463793	0.0199381946705033	-0.00741327971372212	0.000184075682308417	0.42431640625	-0.482421875	0.59375	0	0	0	0.245288470519028	-0.205846586498978	0.669328185789031	0.670418174548929	0.0192539250701658	0.796475972253864	0.604363559450481	-0.998443149709452	-0.0163333081224004	0.0533338527020802	0.052350388419389	-0.604449541870983	0.794921498114309	3.83840640878478	-37.1830579913949	88.6152076516015
4999	1651208173078	5.91646230434649	0.514942787115641	7.79509612930343	0.00889881821267008	-0.00821489316504107	-0.0130409984123681	0.0245003064267646	-0.00749754708771494	-0.00289860416599105	0.423583984375	-0.480712890625	0.5908203125	0	0	0	0.245398670660682	-0.205786168546041	0.669334485047819	0.670390104639739	0.0192867999218211	0.79643112653728	0.604421607846158	-0.998429735343494	-0.0164583208725192	0.0535461226978783	0.0525935635861907	-0.604505239312792	0.79486309054622	3.85391973403724	-37.1872326918458	88.6127660519175
5000	1651208173079	5.79752094080903	0.471935266693787	7.87318560462507	0.0554660001528533	-0.150711064963807	-0.0251834571663885	0.0216115237516487	-0.0195256348292054	0.00222667177357547	0.424560546875	-0.48046875	0.597900390625	0	0	0	0.245529876404962	-0.205780261929659	0.669341609577045	0.670336761099625	0.019272586977943	0.796318168709832	0.604570873904621	-0.998418977822512	-0.0166062210372505	0.0537008207266187	0.0528025767839798	-0.604649987683356	0.79473912718545	3.86562128389631	-37.1979686062254	88.6135913840143
5001	1651208173079	6.16100536766827	0.541341629761604	7.71462772244535	-0.0136487640153171	0.232249000030753	0.0722705391811331	0.0168302172581798	-0.00452967621005423	-0.00297574186937744	0.421142578125	-0.48193359375	0.59423828125	0	0	0	0.24560450611251	-0.205735464120201	0.669343389088231	0.670321395201106	0.0193046925742537	0.796291274774379	0.604605271696178	-0.998409502994659	-0.0166842918777776	0.0538525647903221	0.0529697382905774	-0.604683256029743	0.794702690760951	3.87668842434601	-37.2004428730408	88.611235829032
5002	1651208173080	5.79714718817959	0.546358967273507	7.84110134758646	-0.0169826049870182	-0.134895558387068	-0.0469406907111107	0.0306502586472545	-0.0120735954961758	-0.00427121807260189	0.4326171875	-0.478515625	0.59033203125	0	0	0	0.245749426875926	-0.20567121046888	0.669346742223938	0.670284649271204	0.0193485837169336	0.79621852850958	0.604699666914236	-0.998392856900001	-0.0168356842712891	0.0541134274110603	0.0532666462169661	-0.604774846197456	0.794613144748839	3.89584711206302	-37.2072332301935	88.6079524536885
5003	1651208173080	5.9704288355331	0.447848876170541	7.77304811328161	0.0826888267191374	0.0443092327423849	-0.00156790588475708	0.00324582317109912	-0.0199852912144641	-0.00372968794523104	0.42724609375	-0.47216796875	0.597900390625	0	0	0	0.245831024349398	-0.205722742324928	0.669313020235839	0.670272587609263	0.0193964684661826	0.796098275032685	0.604856440406337	-0.998390404943502	-0.0168256231797879	0.054161773617219	0.0532951810935237	-0.604933413604007	0.794490521515274	3.89991699200262	-37.2185121433321	88.6042980015751
5004	1651208173080	5.92232849264117	0.47486698750929	7.79517396497941	0.0574160764483889	-0.00892018879324055	-0.0116244724715298	0.0290171487353771	-0.00460133658382234	-0.00764488660274198	0.423095703125	-0.487060546875	0.591552734375	0	0	0	0.245942414818093	-0.205633610908243	0.669314684219652	0.670257413346716	0.0194653431055695	0.796078204251001	0.604880643709389	-0.99837431158915	-0.0169396358372146	0.0544222628764444	0.0535708351313727	-0.604956644276435	0.794454293316565	3.91879335518781	-37.2202535761938	88.5993086949261
5005	1651208173081	5.92173866825958	0.525561861413682	7.79037942832813	0.00861670594213972	-0.00802877302908526	-0.0130405920396708	0.0138068106998752	-0.00926911452328905	-0.00580211687631362	0.42578125	-0.484130859375	0.59765625	0	0	0	0.246025673653447	-0.205611332921427	0.66929803164677	0.670250320784258	0.0195282492160676	0.796023107437486	0.604951121916576	-0.998365774208595	-0.0169769745257459	0.0545670525576133	0.0537068745267151	-0.605028094191932	0.794390695355283	3.92950021778529	-37.2253247273742	88.5946866725208
5006	1651208173083	5.97243876549363	0.453273696348488	7.77118937393759	0.0822720208834157	0.0445419336197643	-0.00156545555817367	0.0213982696326654	-0.00620655891541987	-0.00751980004140362	0.420166015625	-0.47802734375	0.594970703125	0	0	0	0.246112827848437	-0.205555613162988	0.669291796803317	0.670241640453219	0.0195907612579523	0.79599471719135	0.604986456275509	-0.998354210134	-0.0170460665995325	0.0547567595937066	0.0538987307925947	-0.605063502301162	0.794350731731268	3.94331619357702	-37.2278672852542	88.5901396623992
5007	1651208173083	5.87381930133612	0.528459431786515	7.79019520689218	0.0084857023379468	-0.0471964570694165	-0.0420239259977713	0.0228910942220275	-0.0031416125102343	-0.00766609076492102	0.42626953125	-0.477783203125	0.587158203125	0	0	0	0.246207917408201	-0.205480109906494	0.669285769175996	0.67023588759244	0.0196689672226202	0.795977023255554	0.605007198451079	-0.998340342971099	-0.0171235588319777	0.0549849372944722	0.0541266230679943	-0.605084590931017	0.794319171676663	3.95985310751672	-37.2293598719196	88.5844823582891
5008	1651208173083	5.94809583542977	0.507644322507187	7.79069216004798	0.0323471386671283	0.0114218981377159	0.00216128912295943	0.0153416449651878	-0.0108449963196729	-0.00726975731638765	0.422607421875	-0.4853515625	0.599365234375	0	0	0	0.246286926206756	-0.205464081658724	0.669269414310189	0.670228104600711	0.0197259244340678	0.795920107805451	0.605080217736609	-0.998332576275934	-0.0171575979029505	0.0551151882919483	0.0542490096819997	-0.605158490666008	0.794254522255531	3.96952549892487	-37.2346145033823	88.580283516799
5009	1651208173084	5.92452992195454	0.511370166291012	7.81487076303054	0.0315739689408563	-0.0227107175587022	0.00730479917302773	0.0243972866911604	-0.00326046980869675	-0.0107280122258494	0.42333984375	-0.48388671875	0.588134765625	0	0	0	0.246390610339438	-0.205380153480238	0.669254508874547	0.670230603631379	0.0198347898150463	0.795902224196812	0.605100182309971	-0.998317189667226	-0.0172198610247025	0.0553738674938185	0.0544919253461096	-0.605180242493803	0.794221319385986	3.98826239202642	-37.2360512625903	88.5724194153546
5010	1651208173085	5.90056855109144	0.51305003250944	7.81477494726624	0.031166380641117	-0.0422166896626156	-0.00718466795866135	0.0183793422090632	-0.00928783056787626	-0.00736044702527497	0.43603515625	-0.485595703125	0.587158203125	0	0	0	0.246469960637219	-0.205351896480469	0.669244826443351	0.670219754553812	0.0198839217813675	0.795856058945903	0.60515928737291	-0.998308354315181	-0.0172721584354062	0.0555166844065598	0.0546356967477106	-0.605239461686098	0.794166314230725	3.99879139800446	-37.2403049447042	88.5688017010147
5011	1651208173085	5.94948505563389	0.514075956075122	7.78920951206316	0.0318756578066032	0.0115642327586593	0.00216266500231477	0.0228699289044669	-0.00327713014943664	-0.0107168169933055	0.428955078125	-0.471435546875	0.595458984375	0	0	0	0.246568531529204	-0.20527315736737	0.669228371590847	0.670224049689226	0.0199926350445883	0.795838096800216	0.605179327328175	-0.998293700697958	-0.01732530816521	0.0557630777823044	0.0548633000351667	-0.60526156112741	0.794133780247926	4.01664482935567	-37.2417472377311	88.5609475900606
5012	1651208173086	5.92540357197535	0.515691181138405	7.7892086970294	0.0314517341746184	-0.00796260140134895	-0.0123269568209192	0.0183446975172348	-0.00623911468394278	-0.00749569206153049	0.42724609375	-0.484130859375	0.594482421875	0	0	0	0.246637723213148	-0.20523619744697	0.66922113780565	0.670217133069466	0.0200423439432395	0.795808967820688	0.60521598721897	-0.998284921657667	-0.0173741955953077	0.0559048523686601	0.0550047237990208	-0.605298458666126	0.794095873491486	4.02701496831101	-37.2443857534164	88.5573183148973
5013	1651208173087	5.92522880276272	0.54180112057292	7.78661229115202	0.00705270719250497	-0.00751845183010932	-0.013038936826014	0.0198862991121923	-0.00449305857747869	-0.0030027893590792	0.430908203125	-0.483642578125	0.598388671875	0	0	0	0.246722539832076	-0.205181057020327	0.669225873967499	0.67019806907456	0.0200749269049173	0.795782193988535	0.605250111144604	-0.998273360042475	-0.0174705640975058	0.0560809951732498	0.0552023182418035	-0.605330883997263	0.794057444357663	4.03985604283822	-37.2468418315548	88.5549253352218
5014	1651208173088	5.95013359205203	0.517500418680982	7.76376742690988	0.0316241407299043	0.0263708715886205	-0.0174698874547499	0.0183414041257052	-0.0029854629342335	-0.00305886106587171	0.421630859375	-0.48291015625	0.598388671875	0	0	0	0.246769694968928	-0.205139505281507	0.66924068557292	0.670178637224202	0.0200693762934939	0.795777194975712	0.605256867860067	-0.998266047553289	-0.017556755162339	0.0561841494596461	0.0553364114984367	-0.605334962070388	0.794045002035601	4.04732541169386	-37.2473281573456	88.5553156498997
5015	1651208173089	5.92628527306983	0.52081396263098	7.7881970065794	0.0308504879926364	-0.00776295649134797	-0.0123248855452296	0.018330792445954	-0.00305413972942288	-0.00458327461163179	0.43359375	-0.481689453125	0.59228515625	0	0	0	0.246846085706893	-0.205082795727218	0.669240304187831	0.670168241651656	0.0201169242945743	0.795759425057776	0.605278652183144	-0.998254966542137	-0.0176311495564715	0.0563574692412164	0.0555187457610822	-0.605356159625914	0.794016113735787	4.05991633812004	-37.2488961414673	88.5518620621724
5016	1651208173090	5.92707185999716	0.498010371591428	7.79012290834299	0.0546056166543915	-0.00804435353600147	-0.0116076533606986	0.0168357191847727	-0.00286447680508568	2.13564134449181E-06	0.422119140625	-0.4765625	0.597412109375	0	0	0	0.246884500142497	-0.205052406939748	0.669264073993325	0.670139652057288	0.0200782193401467	0.795752265379988	0.60528935002257	-0.99824930934133	-0.0177327142975071	0.0564257675463957	0.0556343554621231	-0.605362604548926	0.794003107995211	4.06488633214198	-37.2496661586274	88.5546340971244
5017	1651208173091	5.92717276556901	0.499548753523504	7.78994764093657	0.0546056461362359	-0.00804535893618987	-0.0116076543501951	0.0213713990401989	0.00016532202528275	-0.00169648583003029	0.4248046875	-0.477294921875	0.595947265625	0	0	0	0.246957321305909	-0.204978284758479	0.669280464408416	0.670119126866364	0.0200951254774546	0.795753504616496	0.605287159803188	-0.998237057135831	-0.0178485171706693	0.0566057258199532	0.0558476829675211	-0.605357572287134	0.793991968461764	4.07786379621393	-37.249508508723	88.5534198478467
5018	1651208173092	5.92692306927299	0.527922633449689	7.81195492033472	0.0287009843199627	-0.0218241640792829	0.00731562664861585	0.0213500405160319	2.7114611511012E-05	-0.00474526025891178	0.4228515625	-0.485107421875	0.591796875	0	0	0	0.247002270516563	-0.204914394075735	0.669298103889865	0.670104482591834	0.0201002784600132	0.795770678017162	0.605264410661932	-0.998227960410091	-0.0179401470218106	0.0567370265377599	0.0560081945909755	-0.605332288196278	0.793999938920475	4.08724975906095	-37.2478710667154	88.5530802728735
5019	1651208173093	5.92724636516197	0.503151196477149	7.78965978388177	0.0539437651077064	-0.00778513795137838	-0.0116037789502048	0.0198906643420023	-0.00283042003398052	-2.18928913363093E-05	0.428466796875	-0.474853515625	0.5947265625	0	0	0	0.247078433869886	-0.204857150640806	0.669314942420014	0.670077087506376	0.020102111369246	0.795753646587847	0.605286741190192	-0.998216782377357	-0.0180604892606052	0.0568952907353809	0.0562064097652072	-0.605351098677298	0.793971590695469	4.09875791182936	-37.249478377396	88.552917428971
5020	1651208173094	5.95186874867805	0.505387782742189	7.78899004858574	0.0530403621779473	0.012057919849582	0.00289032972174752	0.0213965759503956	-0.00295248115348503	-0.00308296072944097	0.4306640625	-0.477783203125	0.5947265625	0	0	0	0.247127938862375	-0.20481365016602	0.669335309121583	0.670051784940851	0.0200832253375731	0.79574828676889	0.60529441445004	-0.998208987634522	-0.0181639484065013	0.0569990173945912	0.0563514069540701	-0.605355048779361	0.793958301078611	4.10627337816396	-37.2500306925544	88.5542666591984
5021	1651208173095	5.90315480127703	0.506106291853327	7.78958971579112	0.0531774512039319	-0.02723930287571	-0.0260884606210645	0.0198336580606383	7.91929967382359E-05	-0.00320925716217286	0.424560546875	-0.47998046875	0.59228515625	0	0	0	0.247197401129147	-0.204742936041523	0.669345006310862	0.670038086635979	0.020115185335617	0.795749451277724	0.605291822272625	-0.998197138033787	-0.0182585851965853	0.057176023714285	0.0565495618026455	-0.605350670981556	0.793947550032185	4.11903687467175	-37.249844109227	88.5519690482586
5022	1651208173097	5.92810900407021	0.484072659981872	7.7913216358011	0.0765883991090099	-0.00786894783733914	-0.010872857334963	0.0198337502217315	7.91776879450893E-05	-0.0032092801330707	0.427734375	-0.48193359375	0.599853515625	0	0	0	0.247229632850506	-0.2046983068931	0.669367470466396	0.670017388787127	0.0200915852730324	0.795760714885276	0.60527779807828	-0.998190663918482	-0.0183506037559561	0.0572595302790155	0.0566720977836366	-0.60533308185417	0.793952223591404	4.12500784903529	-37.2488346644019	88.5536876863097
5023	1651208173098	5.90351248044984	0.511854209760296	7.81365956960756	0.0514149469821935	-0.0415547801352271	-0.00644651075712765	0.0198409771098326	-0.00151494306817178	-0.00466403013822648	0.4228515625	-0.48193359375	0.594482421875	0	0	0	0.247305978603789	-0.204631138617347	0.669370278088539	0.670006925984099	0.0201390558396792	0.795752436757306	0.605287103633223	-0.998178452711589	-0.0184336324830122	0.0574454326798914	0.0568699830506831	-0.605341441327364	0.79393170010998	4.13846051160182	-37.2495044656668	88.550256853057
5024	1651208173099	5.90378494028258	0.513720341314614	7.81333123928459	0.0501905197454311	-0.0411744342362027	-0.00643856305538115	0.0198841095169585	-0.00615765313923848	-0.00597909724977129	0.424560546875	-0.4912109375	0.592041015625	0	0	0	0.247344750443215	-0.204606238219871	0.669383594802225	0.669986913841866	0.0201237805823292	0.795739939852596	0.605304040609727	-0.998173055579072	-0.0185076451243306	0.0575153734917178	0.0569700322188273	-0.605355610526027	0.793913723419394	4.14357511528977	-37.2507235816198	88.5513332579921
5025	1651208173100	5.92887239004975	0.489393817896319	7.79040829278865	0.0753654259257011	-0.007485353331644	-0.0108630772486826	0.0153129770206347	-0.00613823759406818	-0.0044175323431308	0.418701171875	-0.490478515625	0.58984375	0	0	0	0.247421022753067	-0.204569979566722	0.669376971550911	0.669976440568791	0.0201711868348019	0.795703774458849	0.60535000333164	-0.998163428734739	-0.0185653850856869	0.0576636455067703	0.0571217363022679	-0.605401379077188	0.793867921919794	4.1544585490307	-37.2540320570813	88.5478560755598
5026	1651208173100	5.92869083898503	0.543943356500746	7.83424173846414	0.0230886972997915	-0.0352118403963221	0.0269681157418784	0.013720759331388	-0.0016528657110359	-0.0061394871455867	0.4248046875	-0.48291015625	0.602294921875	0	0	0	0.24740622407318	-0.204570920892966	0.669396077209044	0.669962529125324	0.0201192602842964	0.795716339560479	0.605335214837272	-0.998164815933686	-0.0186018957860086	0.0576278552892426	0.0571158086494811	-0.605383743116414	0.793881797229711	4.15181670032715	-37.2529675400699	88.5516155873755
5027	1651208173101	5.92914146647975	0.489878789505905	7.7654585008551	0.0744233763912868	0.00734425123363525	-0.0304865589447285	0.0138257008412236	-0.00753848298884206	-0.00128601640471385	0.42626953125	-0.479736328125	0.6005859375	0	0	0	0.247478426939161	-0.204548675984572	0.669396922824828	0.669941808715748	0.0201351977312191	0.795671201321743	0.605394014836238	-0.998156739582343	-0.0186756241752613	0.0577437813795686	0.0572511749981757	-0.60544079846743	0.793828534705354	4.16041748532007	-37.2572002167566	88.5503865442998
5028	1651208173102	5.93011727177109	0.49587589356601	7.81376694416995	0.0713103642223253	-0.0209856602212963	0.0087998865179415	0.019822934174994	9.49308982962797E-06	-0.00473602646106173	0.4189453125	-0.489990234375	0.591796875	0	0	0	0.247480493787554	-0.204502110011925	0.66942763369403	0.669924574442639	0.0200910604949637	0.795711478912536	0.605342540727986	-0.998152611577927	-0.0187599031170408	0.0577878017855245	0.0573385846385445	-0.6053852561484	0.793864584390678	4.16338958446157	-37.2534948762065	88.553635994291
5029	1651208173104	5.90545806128665	0.494881691310336	7.78967462072713	0.0722263777060073	-0.0261487508263969	-0.025324447629874	0.0183209835936432	-0.00312660186903593	-0.00610702774539609	0.427001953125	-0.48388671875	0.5966796875	0	0	0	0.247557863960879	-0.20444378738916	0.669422521732494	0.669918897469248	0.0201524503905703	0.795694260787966	0.605363132419169	-0.998140930012496	-0.0188228172231275	0.0579688311558411	0.0575201058504353	-0.605405933982215	0.793835683578206	4.17653748890752	-37.2549771379717	88.5491870152411
5030	1651208173105	5.93024981215114	0.470560150728228	7.76699641400338	0.0955754494148974	0.00799509032037761	-0.0297264513065922	0.0183247793414236	-0.00146083057135768	-0.00312898028190776	0.431396484375	-0.48681640625	0.59814453125	0	0	0	0.247549298737199	-0.204429990168044	0.669458897091875	0.669889922986713	0.0200663284488473	0.795714536617389	0.605339341756636	-0.998140539445196	-0.0189117404014984	0.0579466098321522	0.057556980277255	-0.605376512833757	0.793855447629229	4.1748385763756	-37.2532646057063	88.555421258692
5031	1651208173106	5.92981950675168	0.525553119312498	7.81094660677128	0.045038972057224	-0.0200612936067928	0.00807742630905039	0.0197902581463771	-0.000203326508372291	-0.0093094293937744	0.419677734375	-0.476318359375	0.593017578125	0	0	0	0.247624654441122	-0.20435326546449	0.669448372705638	0.669895999158592	0.0201572383515466	0.795715759548356	0.60533471381412	-0.998127386526592	-0.0189581864106229	0.058157608561701	0.0577529740154989	-0.605373452650844	0.79384354681383	4.19004880116959	-37.2529314752915	88.5488816590704
5032	1651208173107	5.93073188435793	0.476351614744771	7.79098718517195	0.0931297648983883	-0.00606948887670598	-0.0100722652436573	0.013761116545553	-0.00303599519744157	-0.00302029145862126	0.421875	-0.482666015625	0.59716796875	0	0	0	0.247616901815265	-0.204353160743562	0.669473084372934	0.669874200824092	0.0200911499886129	0.795722901656163	0.605327522480213	-0.998128087814074	-0.0190166815287998	0.0581264667793754	0.0577638815243288	-0.605362230076778	0.793851311259051	4.18777231685601	-37.2524138287318	88.5536503084269
5033	1651208173107	5.90590140959071	0.501564690784798	7.78891101885046	0.0687863259371971	-0.0252660527961023	-0.0252973476839173	0.0167757307708935	-0.00161985037344805	-0.00616503173322331	0.42626953125	-0.4833984375	0.5947265625	0	0	0	0.247683611236251	-0.204295199231533	0.669468291069775	0.669872008332959	0.0201513576461251	0.795714991900498	0.605335918684665	-0.99811728271608	-0.0190699280458316	0.0582943203733868	0.0579293770766285	-0.605370951986562	0.793832600591835	4.19992090293158	-37.2530182046246	88.5493034308268
5034	1651208173108	5.93028202300863	0.503789859968433	7.78841745323667	0.0668739615908956	-0.00510897824459287	-0.0107999387185771	0.0167391267006904	0.00142845580531028	-0.00630715091108478	0.421142578125	-0.480712890625	0.592529296875	0	0	0	0.247661719964974	-0.204271562824456	0.669495728921459	0.669859888365597	0.0200971951543572	0.795756175295069	0.605283580007497	-0.998117161651221	-0.0191217171601705	0.0582794264741695	0.0579502749280741	-0.605315181878508	0.793873602170491	4.19863559839889	-37.2492508391501	88.5532757754981
5035	1651208173109	5.93002246450282	0.531961657543152	7.81035866943751	0.0415803037676105	-0.0191272280710548	0.00809454267953313	0.016797888721574	-0.00147695346414659	-0.00311627256678719	0.429931640625	-0.4775390625	0.5947265625	0	0	0	0.247724678384782	-0.204216888083729	0.669501481861839	0.669847529013398	0.0201264568123976	0.795748700749357	0.605292434276102	-0.998106952434489	-0.0191995009920851	0.0584285089968299	0.0581157228133351	-0.60532254576991	0.793855892681108	4.20943098770313	-37.2498881608172	88.5511566287861
5036	1651208173111	5.95535288129804	0.483136558927574	7.79003454433676	0.0897028235074739	0.0144008652575744	0.0044422032587228	0.0183363347079216	-0.00138807861089962	-0.00160466847638493	0.424072265625	-0.494384765625	0.596435546875	0	0	0	0.247732693219892	-0.204198437562652	0.669533390948397	0.669818295668408	0.020056073004224	0.795758171858912	0.605282319133322	-0.998104687413671	-0.0192928977696812	0.0584364360524107	0.0581789214278513	-0.60530712536316	0.793863021613981	4.20996236217161	-37.2491600830883	88.5562383766835
5037	1651208173112	5.90582073330115	0.53414724105248	7.81042240805834	0.0401802527981351	-0.0384817322112371	-0.00638150134681936	0.0106993358551682	-0.00147466128612924	-0.00154140450943237	0.4296875	-0.47802734375	0.59619140625	0	0	0	0.247773634170332	-0.204166190184772	0.669538142991041	0.669808232313974	0.0200696837310864	0.795750322213636	0.605292187700973	-0.998098317880804	-0.0193461974197309	0.0585275361595414	0.0582834079172092	-0.605315743511014	0.793848785990924	4.21657721499067	-37.2498704125055	88.5552447609757
5038	1651208173114	5.90575452179822	0.53268312941122	7.78584614307119	0.0387181672384154	-0.0236471907760075	-0.0260112362000324	0.00615045736089361	-0.00624265732338923	-0.00433733351123621	0.42626953125	-0.4794921875	0.59814453125	0	0	0	0.247728352991342	-0.204227726305429	0.669558787324936	0.669785584533045	0.0199641322481521	0.795735650949717	0.605314965312447	-0.998107644040959	-0.0193566131196833	0.0583648219010451	0.0581598171471001	-0.605334696953813	0.793843397864623	4.20492511788551	-37.2515099472746	88.562813408465
5039	1651208173115	5.93239575903266	0.461030455567538	7.79190437576282	0.111782526831191	-0.00531453953907218	-0.00926353753431286	0.00616150981705857	-0.00617080938992984	-0.00281308687725322	0.4306640625	-0.47900390625	0.5986328125	0	0	0	0.247770823518918	-0.204225177930686	0.669548910595041	0.669780525271473	0.0199926660403473	0.795699561028211	0.605361463824805	-0.998103723104946	-0.0193722493324983	0.0584266538477554	0.0582172760325065	-0.605381635446031	0.793803391423874	4.20957521294561	-37.2548570256427	88.5606949178208
5040	1651208173115	5.9326212198416	0.48866523934557	7.81350284607526	0.0848528131477409	-0.0189218246531097	0.00963704433653056	0.013776484047184	-0.00622772208844865	-0.00592542439194504	0.4189453125	-0.48193359375	0.592041015625	0	0	0	0.247773280433117	-0.204234294277888	0.669561392998834	0.669764358225851	0.0199517880925472	0.795689111208992	0.605376547658855	-0.998104315489691	-0.0194081149822555	0.0584046271599283	0.0582211435198998	-0.605394221459273	0.79379350908845	4.20804611560308	-37.2559428294129	88.5636176988385
5041	1651208173116	5.93230885456731	0.514156059893854	7.81092136789939	0.0604196124694464	-0.018466598360692	0.00887798136330176	0.00761119046072284	-0.00172503686779803	-0.00608933847370429	0.42724609375	-0.478515625	0.599853515625	0	0	0	0.247809278161856	-0.204207780545494	0.669547439263344	0.669773073956756	0.0200108178811636	0.795680527726541	0.605385881041621	-0.998098858494595	-0.0194064235344037	0.0584983708951695	0.0582943894342532	-0.605405557062715	0.793779488043167	4.21485019964206	-37.256614697082	88.5593542411987
5042	1651208173117	5.90764795436054	0.51260772644497	7.78686730492756	0.0596448141998145	-0.0230112915808799	-0.0252318090489254	0.0167757798887199	-0.0016202406116925	-0.0061663316867301	0.42333984375	-0.4775390625	0.6015625	0	0	0	0.247795472413824	-0.204187315961793	0.669570413487795	0.669761453976945	0.0199660027642041	0.795711522515734	0.605346621093496	-0.998098292194387	-0.0194542695340139	0.0584921406305717	0.0583194466046141	-0.605363282940575	0.793809887703058	4.21424210914476	-37.2537885928333	88.5626352436898
5043	1651208173119	5.9576258818261	0.466745868850624	7.79055830886714	0.108212396123963	0.0154279512933911	0.00525582743444808	0.0152111291423257	0.00141046900624414	-0.00629731823741075	0.425537109375	-0.48681640625	0.595703125	0	0	0	0.247846412248207	-0.204124507867973	0.669567599924769	0.669764563376068	0.0200248288372858	0.795722248574733	0.605330578571088	-0.998088356282764	-0.0194972298666462	0.0586471745295243	0.0584691310248983	-0.605347801805456	0.7938106824467	4.22536737584871	-37.2526338118146	88.5584215271813
5044	1651208173117	5.90777702316199	0.518167515064468	7.81112594932014	0.0565714540152506	-0.0367625652807673	-0.00557446061666411	0.0182585001464329	0.00304199274613752	-0.00487080337225132	0.427490234375	-0.483154296875	0.591796875	0	0	0	0.247805009014349	-0.204095754805041	0.66961081399951	0.669745442801124	0.0199325612909496	0.795785681534538	0.605250230949971	-0.998089482971552	-0.0195719294353752	0.0586031019636084	0.0584814242470454	-0.605261999998999	0.793875200755919	4.22186165807631	-37.2468504547172	88.565175375799
5045	1651208173118	5.93061214150023	0.540061395238526	7.75989262294399	0.0337988792831071	0.0123032817170347	-0.0311503536199762	0.0182696798954499	0.00311442663261702	-0.00334659873114654	0.42236328125	-0.483154296875	0.58837890625	0	0	0	0.247857205156251	-0.204020549429465	0.669623339430663	0.669736518753725	0.0199603974004539	0.795806482101013	0.605221963895584	-0.998078334805133	-0.0196572217162808	0.0587642002158776	0.0586619137791354	-0.605231886701625	0.793884842525263	4.23337407070115	-37.2448159204382	88.5632100015387
5046	1651208173120	5.93101505435777	0.517170458031277	7.76225744157482	0.056091926718954	0.0117759160501901	-0.0303686004878365	0.0152557441879163	0.001700260241485	-0.000200279623676098	0.421630859375	-0.4814453125	0.59423828125	0	0	0	0.24783322092071	-0.204039226063891	0.669666005267045	0.669697043613747	0.0198308712338539	0.795811290692771	0.605219899005323	-0.998082085051102	-0.0197477280045102	0.0586700838477745	0.0586420331004248	-0.605222617591715	0.793893377670631	4.22657324030723	-37.2446673011619	88.5725383099112
5047	1651208173122	5.90671051149988	0.520251534068514	7.78707150895412	0.055250428924243	-0.022338652385116	-0.0252044578459731	0.018273216193309	0.00478366318371481	-0.000370709608667573	0.4248046875	-0.482666015625	0.591796875	0	0	0	0.247876441553265	-0.203962861318214	0.66969053671553	0.669679778669957	0.0198274724731039	0.795841244264881	0.605180622014828	-0.998071597355204	-0.0198562904868887	0.0588116849013146	0.0588214067169387	-0.605179677166234	0.793912841851556	4.2366335403531	-37.2418404184058	88.5728365524532
5048	1651208173123	5.93200193523479	0.473366473403081	7.79146453152446	0.101914070770266	-0.00325492927986474	-0.0091550808601486	0.0106547279063383	0.00317148467934607	-0.000234397056935259	0.42724609375	-0.481689453125	0.5859375	0	0	0	0.247821252147428	-0.203975232352288	0.669733603516022	0.66965336696858	0.0197020098165486	0.795879930155795	0.605133842702915	-0.998077520110221	-0.0199169453889506	0.0586905370311587	0.0587630382112844	-0.60512680659642	0.793957463141822	4.22770130323469	-37.2384737094187	88.5819324451081
5049	1651208173124	5.93210202051258	0.476828679775017	7.81588667470875	0.100955087430808	-0.0177109674709168	0.0104882295992201	0.0213800276541063	0.00351356872365391	0.00424907982747312	0.423583984375	-0.4775390625	0.59033203125	0	0	0	0.247874012438072	-0.20389880034105	0.669775343557969	0.669615368953802	0.0196525367625715	0.795901300041767	0.605107344518823	-0.998066155129148	-0.0200810737606882	0.0588277184865884	0.0589722628403835	-0.605093274684526	0.793967506354663	4.23749364115976	-37.2365667007401	88.5855298223214
5050	1651208173125	5.88251526965607	0.472517271343007	7.76806809961579	0.1012408557916	-0.0284504837049331	-0.0577357410256472	0.0198758970091161	-0.00129550807863541	-9.24129633228233E-05	0.420166015625	-0.481201171875	0.5888671875	0	0	0	0.247897660093897	-0.203909803942462	0.669807371996315	0.669571225782222	0.0195577525510741	0.795869959676	0.605151635212591	-0.998065012746166	-0.0201903309212786	0.058809700469263	0.059023085713525	-0.605130860081199	0.793935083952235	4.23637285450033	-37.2397542193453	88.5922936532202
5051	1651208173126	5.93140400998437	0.504428759344033	7.81342519217217	0.0747613167023702	-0.0176303445928399	0.00972144109591077	0.0228605915209334	0.00156805014643613	-0.00483636352735512	0.426513671875	-0.487060546875	0.600341796875	0	0	0	0.247971074156173	-0.203824419776749	0.669817552348571	0.669559854568862	0.0196001049368833	0.795880765253762	0.605136053615672	-0.998051006498958	-0.0202904141047924	0.0590126047711242	0.059245458162462	-0.605113300626042	0.793931904569012	4.25095259531484	-37.2386328255144	88.5892656363819
5052	1651208173127	5.88228265637273	0.502633329687206	7.78980303504666	0.0732216261115059	-0.0419872072296881	-0.0388551370033685	0.0153014417156649	-0.00294538180780051	-0.0015050646431209	0.422119140625	-0.48388671875	0.594970703125	0	0	0	0.247926292066286	-0.203855005731673	0.669865375386034	0.669519282171417	0.0194470309941338	0.795893539179478	0.605124191615141	-0.998057601940299	-0.0203741348776201	0.0588720463137431	0.0591847631970608	-0.605093686068821	0.793951380680804	4.24076084760199	-37.2377791389496	88.6003013206433
5053	1651208173128	5.93107180739224	0.505285879605309	7.78890533952586	0.0729059532019659	-0.00266364110921068	-0.00989947518104905	0.0213364292864627	0.00322130453425957	-0.00184902812351996	0.4287109375	-0.481689453125	0.5966796875	0	0	0	0.24798543210223	-0.203773318881526	0.669886310069357	0.669501300640066	0.0194575321873385	0.795913882677337	0.605097096177685	-0.9980451408123	-0.0204888859065365	0.0590432253121994	0.0593910880699865	-0.605063052016727	0.793959319954157	4.25300392130796	-37.2358291659484	88.5995815801736
5054	1651208173130	5.90674859025969	0.535316181720352	7.83547109437629	0.0443576553738263	-0.0504332303263909	0.0141299410936071	0.0168291355499657	-0.00292778785038413	-0.00151725735211858	0.427001953125	-0.478515625	0.59130859375	0	0	0	0.247956337906534	-0.203795164157805	0.669931884434077	0.669459823870321	0.0193176025689999	0.795920357541438	0.605093062827609	-0.998049567891959	-0.0205821505788252	0.0589358558792952	0.0593623640167796	-0.605051369330457	0.793970371115749	4.24523930947119	-37.2355389028033	88.6096600837832
5055	1651208173132	5.93175463523322	0.483922777755168	7.79100430552611	0.0947453018585678	-0.00271460331355267	-0.00908301367783437	0.0152641083453785	0.000102628954800498	-0.00165160449128376	0.433837890625	-0.48486328125	0.5966796875	0	0	0	0.248005085826727	-0.203744815443219	0.669943523802067	0.669445444005526	0.0193274501913557	0.795921778619111	0.605090879115603	-0.998040780382096	-0.0206616953605057	0.0590567103649394	0.0595067253627632	-0.605046788822668	0.793963055168173	4.25395177237533	-37.2353817507531	88.6089540849441
5056	1651208173133	5.90738683024374	0.511117511192654	7.81306806332218	0.0673309719331227	-0.0367693255877967	-0.0047004496468972	0.0154021198034069	-0.00722178396360821	0.00481327297520079	0.43115234375	-0.47900390625	0.59326171875	0	0	0	0.248013013546325	-0.203812295131905	0.6699913983951	0.669374050543725	0.0191441488592869	0.795853509319453	0.605186494618283	-0.998045915373279	-0.0207978576235033	0.0589219816790398	0.0594798484460585	-0.605131920181198	0.793900186929472	4.24461742015711	-37.2422630805407	88.6220234907005
5057	1651208173134	5.93274029432413	0.488297079240803	7.81469404019725	0.0915029702336361	-0.0175607161644673	0.0105810930063974	0.0137885307415632	-0.00121736297175114	0.00300683233038034	0.4306640625	-0.48828125	0.598388671875	0	0	0	0.248056690872009	-0.203777773193167	0.670015083251444	0.669344668673489	0.0191088147359894	0.795845167627228	0.605198580933378	-0.998038927993484	-0.0209046673416221	0.0590024837863068	0.0596083166093702	-0.605139210469563	0.793884994532125	4.25047642763831	-37.2431329624566	88.6245514161809
5058	1651208173134	5.9085010692388	0.488946890377937	7.81490297466559	0.0890080492831388	-0.0374298849991512	-0.00387301878689072	0.0183567672673191	-0.00291109359585387	-0.00153018795261426	0.429443359375	-0.48486328125	0.591064453125	0	0	0	0.248048415719084	-0.203820081557086	0.670058798179938	0.66929109122636	0.0189571626714394	0.795814271795409	0.60524397625271	-0.998043265083288	-0.0210136191181813	0.0588903118810352	0.0595841170559586	-0.605176067453347	0.79385871562663	4.24256513657946	-37.2464002652642	88.6354102019725
5059	1651208173135	5.90973915924563	0.468256627199993	7.84127393401537	0.112376703948947	-0.0523618371054897	0.0165795350500524	0.0153648347290527	-0.0041731277715023	0.00466603866143733	0.43408203125	-0.482177734375	0.59033203125	0	0	0	0.248105639426795	-0.20379293348611	0.670085658940857	0.669251254483355	0.0189072998858471	0.795786983568481	0.605281414545337	-0.998035687861416	-0.0211423972671621	0.0589725766164943	0.0597267089836485	-0.605207465106615	0.793824063891494	4.24865472693508	-37.2490949721043	88.6389514611147
5060	1651208173136	5.88395548056469	0.486089664469127	7.76613965984546	0.0882394260727871	-0.0289955698042307	-0.0576110768511917	0.019895469939752	-0.00281968494900258	-1.91310519952786E-05	0.422607421875	-0.479736328125	0.592041015625	0	0	0	0.248121040396783	-0.203854884888156	0.670127236411606	0.669185043346755	0.0187453458531615	0.795716875235051	0.605378614153994	-0.998039619748714	-0.0212691273364765	0.0588603570681154	0.0597120542326812	-0.605295199624538	0.793758270439309	4.24094965142784	-37.2560915864591	88.6504866018733
5061	1651208173137	5.88471160627534	0.489746542972991	7.7900518607189	0.0871937645012815	-0.04350621429501	-0.0379702467065996	0.0107642410502077	-0.00764621205189443	-0.0027671493167583	0.4306640625	-0.4794921875	0.5888671875	0	0	0	0.248182182633742	-0.203846890002453	0.67011964391413	0.669172408651074	0.018772216553455	0.795668820237018	0.605440940462654	-0.998033484572655	-0.0213094658728968	0.0589497271917103	0.0598060829467657	-0.605356948557498	0.793704099318959	4.24765414069839	-37.260578295709	88.6484712541748
5062	1651208173138	5.93488181970125	0.44109974342681	7.76921596043703	0.13472533945603	0.00924374537885404	-0.0269900806996155	0.0168669052706853	-0.00597724516156311	-0.00136924979693995	0.421142578125	-0.484619140625	0.599609375	0	0	0	0.248197816989867	-0.203881780337584	0.670143594755303	0.669131994225565	0.0186795641096355	0.795623014344617	0.60550399910311	-0.998035065559802	-0.0213891879001897	0.058894062128644	0.0598087100489236	-0.605414338850803	0.793660126575683	4.24389208525965	-37.2651179956413	88.6550620261989
5063	1651208173138	5.90937178908854	0.517387863311061	7.78642959230981	0.0606079143452704	-0.0236006716412251	-0.024295239016201	0.0183233027522393	-0.00313601950611397	-0.00610359738687375	0.429443359375	-0.48974609375	0.597900390625	0	0	0	0.248272489940956	-0.203829940313022	0.670137902304377	0.669125786430023	0.0187370946541585	0.795602368179904	0.605529349437704	-0.998023835404025	-0.0214480747327849	0.0590627129049739	0.0599778729979615	-0.605439387417754	0.793628252341016	4.2561707328004	-37.2669430869323	88.6508863305093
5064	1651208173139	5.93459317755433	0.495300503379862	7.78812709711167	0.0813128298475775	-0.0033966856398383	-0.00896261341767257	0.0168183245495056	-0.00300383034337166	-0.00304236838160046	0.421142578125	-0.479736328125	0.59326171875	0	0	0	0.248186537519151	-0.203866649193096	0.670200450212761	0.669083842635321	0.0185394917627835	0.79564666957082	0.60547722041877	-0.998034500686285	-0.0215304017422647	0.0588521642821777	0.0598616963095553	-0.605378244572498	0.793683663882068	4.24075864744623	-37.2631901186905	88.665183314585
5065	1651208173140	5.91016871209806	0.522873044190164	7.81018581490092	0.0559654169257337	-0.0371225062708082	-0.00463034199792034	0.0214574517480773	-0.00257564146563681	0.00453892119807784	0.4267578125	-0.4794921875	0.59521484375	0	0	0	0.248258080508883	-0.203816051861712	0.670234737004708	0.669038369436148	0.0184888286314688	0.795627547546014	0.605503896603277	-0.998023474794365	-0.021693354451449	0.0589791669322769	0.0600608605933829	-0.605397558599768	0.793653884931097	4.25003556427716	-37.2651106162801	88.6687976910303
5066	1651208173141	5.91117613344065	0.499700905101768	7.81219931118933	0.0783985591381601	-0.0369645802097361	-0.00378071882684416	0.0107871179014331	-0.00749652956668548	0.000282986270420507	0.427734375	-0.48681640625	0.58935546875	0	0	0	0.248230063189111	-0.203853055682639	0.670265265603547	0.669006906648495	0.0183768108285154	0.795619270163932	0.605518182854641	-0.998029097737511	-0.0217473810909262	0.0588640084001774	0.0600017740822977	-0.605406498445052	0.793651534835962	4.2417800787328	-37.2661391459979	88.6768463765817
5067	1651208173142	5.91200831604341	0.502939615927554	7.83608358062594	0.0772994655276782	-0.0514733673734158	0.015861446365772	0.0153776479531061	-0.00409458822662811	0.00618988551371513	0.435791015625	-0.48291015625	0.58935546875	0	0	0	0.248284359594964	-0.203830102370993	0.670297161372323	0.668961793829929	0.0183100096472737	0.79559073007476	0.605557704736574	-0.998022035808192	-0.0218868155265494	0.0589320231061101	0.0601395010620228	-0.605438979192138	0.793616332295899	4.24685102502703	-37.2689845723217	88.681607169475
5068	1651208173143	5.93669459048799	0.475180758400958	7.78911834204359	0.100354588193033	-0.00446991915837307	-0.00807554602994465	0.0107795861853715	-0.00589748443278294	0.00173228472328966	0.419677734375	-0.485595703125	0.58984375	0	0	0	0.248272481166946	-0.203961953016936	0.670333006909329	0.668890093112929	0.0181063631388292	0.79548193453816	0.605706737156943	-0.998034495094843	-0.0219711301137887	0.0586891475683895	0.0599942181769716	-0.605578864612156	0.793520593633451	4.22992062111172	-37.279715311503	88.6960871849364
5069	1651208173143	5.91329654016719	0.451220771089285	7.7915826050869	0.1247104317483	-0.0246340048052508	-0.0217080434992383	0.0168940749790003	-0.00415234802183494	0.00465232014917439	0.4267578125	-0.47607421875	0.593017578125	0	0	0	0.248333525369951	-0.203933991863979	0.670360616026184	0.668848287446974	0.018055142886836	0.795451805717325	0.605747832514804	-0.99802639428672	-0.0221057906833453	0.0587762734894913	0.0601442276730135	-0.605613539147955	0.793482774279508	4.23637840329303	-37.2826745580114	88.6997252645636
5070	1651208173144	5.91267445179563	0.474220056683634	7.76455588999781	0.0989075683905681	-0.00927154380204417	-0.0421672532592492	0.0168712218155129	-0.00430359902390634	0.00160416352067186	0.41943359375	-0.49169921875	0.595458984375	0	0	0	0.248304439797689	-0.203961700883838	0.670406732416439	0.668804413023749	0.017908875406571	0.795452770565602	0.605750907536407	-0.998031154078182	-0.0222005633850611	0.0586596153649032	0.0601089649806451	-0.605608805075434	0.793489059498656	4.22796726556878	-37.2828959927355	88.7102569808469
5071	1651208173145	5.93820607403922	0.454298905131313	7.7906276339978	0.122008329206427	-0.00459445886409664	-0.00719652968939144	0.0198588161033297	0.000227480679696478	-0.000172871461793696	0.42333984375	-0.475830078125	0.595703125	0	0	0	0.248365067252932	-0.20390371775589	0.670426863554613	0.668779401505532	0.0179021890193006	0.795450231975441	0.605754438760902	-0.998020474269699	-0.0223147720144585	0.0587978221401805	0.0602880134587531	-0.605607941989007	0.793476134507546	4.2379612270818	-37.2831502797923	88.7107342385235
5072	1651208173147	5.91390268188696	0.455294116030911	7.79088557780376	0.119040591574417	-0.0230028899615847	-0.0216334991157634	0.0198963764147311	-0.00282041597740703	-2.16870461083097E-05	0.426025390625	-0.484130859375	0.5888671875	0	0	0	0.24829003014958	-0.203911082121186	0.670494488270114	0.668737222469249	0.0177148235751297	0.795511066077987	0.60568005479227	-0.998027420988798	-0.0224215957445629	0.0586390569391726	0.0602283320385859	-0.605524083576973	0.793544663032975	4.22619578457561	-37.2777939963326	88.7243208210792
5073	1651208173147	5.91429846545439	0.457049982072764	7.79048232699911	0.118819810418936	-0.0230543168379597	-0.0216309382826658	0.0229848856582044	-0.0075093447948665	-0.00286919274919383	0.427734375	-0.478759765625	0.587646484375	0	0	0	0.248388734768996	-0.203865377267832	0.670499854815576	0.668709121429934	0.0177377052874717	0.795463011419723	0.605742495846381	-0.998014463910766	-0.0225340377357025	0.0588162134809279	0.0604359465553651	-0.605583036920944	0.793483888782605	4.23924070784383	-37.2822902618674	88.7225964707579
5074	1651208173148	5.91343376095945	0.507467597210363	7.78526160389846	0.0673691662547656	-0.0228953423095129	-0.0233330729884287	0.0198547273990473	-0.00144869670818507	-0.00314616747376589	0.4287109375	-0.47998046875	0.596923828125	0	0	0	0.248394514951696	-0.203919674714767	0.67052628897368	0.668663911843102	0.0176225241188173	0.795408405377795	0.605817559417054	-0.998018520137323	-0.0226106785258072	0.0587178906255176	0.0604026498308588	-0.605651901566367	0.793433862412271	4.23244562603789	-37.2876958072105	88.7308015701622
5075	1651208173149	5.91443031770112	0.484771724699885	7.78729044400873	0.0915236424666298	-0.0234082405841044	-0.0224648262317473	0.0153542833195329	-0.00919728039976855	-0.00424962134099553	0.416259765625	-0.486083984375	0.591064453125	0	0	0	0.248474517361619	-0.203904824802582	0.670516838112053	0.668648193336641	0.0176599844608858	0.795349438949789	0.605893880899203	-0.998010050671896	-0.0226648319397496	0.0588408374432414	0.0605315100317209	-0.605727311052919	0.793366473288278	4.24163439586263	-37.2931923365816	88.7280102439987
5076	1651208173150	5.91432004107882	0.481327455625218	7.73814038074337	0.0903628530396934	0.00640451728099835	-0.0617147164145404	0.0153355398286968	-0.00767338287326659	-0.00432583595496826	0.425537109375	-0.47705078125	0.5966796875	0	0	0	0.24841784092087	-0.203951481781254	0.670553387621957	0.668618369281133	0.0175238948558961	0.795358251582042	0.60588626387255	-0.998018998608888	-0.0227065386781392	0.0586727493558288	0.0604234352283388	-0.60571417743158	0.793384738782888	4.22946451504928	-37.292643754632	88.7378231215586
5077	1651208173151	5.93992749856456	0.488251204013235	7.78584460165256	0.0880039562500426	-0.00293665480588962	-0.0079563322801448	0.0168372325986314	-0.00453137550085867	-0.00296799130595556	0.421142578125	-0.47802734375	0.58935546875	0	0	0	0.24848493646775	-0.203918119616046	0.670556017089524	0.668600975759017	0.017544056874581	0.795327652659439	0.605925846109579	-0.998009976649103	-0.0227802714126941	0.0587974977632676	0.0605664311086508	-0.605751586171751	0.793345273681749	4.23863442471721	-37.2954945301386	88.7363228013626
5078	1651208173152	5.91727922106155	0.469633381940689	7.83691029598691	0.108887998937755	-0.0514467717134413	0.0177454042089291	0.0138126409684546	-0.00601378003260091	-0.00134041347590264	0.419677734375	-0.477783203125	0.593017578125	0	0	0	0.248473025455709	-0.203933400026085	0.670578754569414	0.668577937038623	0.0174706045478691	0.795324422911995	0.605932207673792	-0.998012218495798	-0.022829420917959	0.0587403547286497	0.0605507201429423	-0.605753976347043	0.793344647949375	4.23453337742716	-37.2959527101624	88.7416066702504
5079	1651208173152	5.9162634827659	0.490375937692826	7.78554685814774	0.0861739370590964	-0.0221209051031355	-0.0224132830555597	0.0168066323381753	-0.00308444455917215	-0.00456876816355555	0.42626953125	-0.491455078125	0.588623046875	0	0	0	0.24853657955905	-0.203893340616539	0.670577942821114	0.668567346551654	0.0175054565080623	0.795303124832551	0.605959155904112	-0.998002938719363	-0.0228904175542176	0.0588741292225091	0.0606934370419033	-0.605779636844764	0.793314148546632	4.24430442091693	-37.2978936381009	88.7390633658906
5080	1651208173153	5.94242888602316	0.472854334058798	7.8357502283352	0.104667156561427	-0.03156660307179	0.0322647524686346	0.0092252490014427	-0.00774441060988958	-0.00427053936172372	0.427001953125	-0.481201171875	0.59521484375	0	0	0	0.248455904387694	-0.204005839945201	0.670607759200881	0.668533106242854	0.0173337011356526	0.795274065730338	0.606002230343815	-0.998019887586162	-0.0228902062510671	0.0585861966702755	0.0604635988628238	-0.605817793428455	0.793302561686292	4.22368379469777	-37.3009961493028	88.7513855442422
5081	1651208173154	5.91883672743881	0.446743963575373	7.81384126067098	0.129909990431442	-0.0372654339331468	-0.000956725345089282	0.0137964178322497	-0.00776839496459795	-0.00583567275818758	0.420166015625	-0.48486328125	0.599365234375	0	0	0	0.248525287002528	-0.203991138474599	0.670594188329898	0.668525415913496	0.0173821000040042	0.795224604854093	0.606065747616628	-0.998012429795581	-0.0229227674030478	0.0587003978530412	0.0605727048510329	-0.605881485580503	0.793245594288296	4.23218988693014	-37.3055713245294	88.7478224398051
5082	1651208173155	5.91909882600067	0.445443829005294	7.78900060165895	0.127784015877864	-0.0216033085677848	-0.020553483467852	0.00616529181593053	-0.00945810065046542	-0.00721398903074796	0.4228515625	-0.485595703125	0.594970703125	0	0	0	0.248437028669218	-0.204058370745174	0.670617181250614	0.668514637331387	0.0172655550806118	0.795243492817877	0.606044295195146	-0.998026114029929	-0.0228967220050185	0.0584774814415369	0.060380264342571	-0.605857679040423	0.79327844822967	4.21600210745429	-37.3040260666771	88.7562450279524
5083	1651208173156	5.94330502662217	0.498269783899912	7.80736823573713	0.0775209317495776	-0.0155620825463379	0.0117665293792442	0.0153242121466469	-0.00775031125732904	-0.00584995921956454	0.42529296875	-0.48095703125	0.59521484375	0	0	0	0.248510669327423	-0.204038552136065	0.670605698355005	0.668504834542317	0.0173125331520296	0.795194788524031	0.606106858977921	-0.998017817163759	-0.0229391108715346	0.058602336268359	0.0605038248340239	-0.605919999254559	0.793221432945309	4.2252736839933	-37.308532741153	88.7527855854713
5084	1651208173159	5.91992806389378	0.501324037997505	7.8315377840394	0.0734339754298366	-0.0489435435343911	0.0169652259513331	0.00772914820089931	-0.00920870669100826	-0.00265547962356049	0.427001953125	-0.482177734375	0.5927734375	0	0	0	0.248431810760532	-0.204126971975766	0.670640998054941	0.668471739449112	0.0171456620797548	0.795185842485341	0.606123339084319	-0.998032375577357	-0.0229554257397679	0.0583474569156484	0.0603108909838372	-0.605931121778692	0.793227629428496	4.20693006270599	-37.3097199022179	88.7647895312436
5085	1651208173158	5.94457690786762	0.473630805056538	7.78461540248854	0.0993066017531242	-0.000843676867894515	-0.00693929818391048	0.0137561135310845	-0.00144060435894516	-0.00157271527466906	0.425048828125	-0.476806640625	0.5966796875	0	0	0	0.24847388642591	-0.204097102349947	0.670650459398879	0.668455729188427	0.0171446682408556	0.795174683277747	0.60613800691348	-0.998025884194379	-0.023022621855047	0.0584319549642845	0.0604184974071654	-0.605943216776171	0.793210201153519	4.21309279886636	-37.3107765298331	88.7648437792165
5086	1651208173159	5.92117233359482	0.479176471996941	7.83339134552799	0.0953741866174475	-0.0491256410423523	0.0178976751941633	0.0137945328892925	-0.00448833670056246	-0.00141839876347385	0.423583984375	-0.48681640625	0.590576171875	0	0	0	0.248452708135308	-0.204126716499023	0.670681318127389	0.668423596940194	0.0170377062524704	0.795166767092699	0.606151407716752	-0.998030109160501	-0.0230843573297217	0.0583353551095082	0.0603789514212795	-0.60595125625583	0.793207070863118	4.20616926058036	-37.3117418975817	88.7725350788225
5087	1651208173161	5.92061964831074	0.475486644383861	7.78457520552241	0.0970374462283806	-0.0202430497199862	-0.0213846144460881	0.0152717299669033	-0.00150035177833101	-0.00311094658271258	0.423828125	-0.481201171875	0.5927734375	0	0	0	0.248501495651523	-0.204090235389834	0.670687128214969	0.668410770802083	0.0170519037305586	0.795155543189916	0.606165732051485	-0.998022458158897	-0.0231484345885734	0.0584407647671604	0.060501285851094	-0.60596354024846	0.793188364954956	4.21384130489121	-37.3127738084439	88.7714952134694
5088	1651208173163	5.92105507657493	0.478987336713129	7.80876145999071	0.0923261259589319	-0.0344410685554695	-0.00170538809685539	0.0107181103990499	0.000280635524348415	0.00294963660079307	0.423828125	-0.47607421875	0.58837890625	0	0	0	0.248394664903262	-0.204177475775255	0.670752424009091	0.668358312972592	0.0168054881439466	0.79517272571401	0.606150073701882	-0.998039108417963	-0.0232174477329511	0.0581282047636529	0.0602952206772739	-0.605938351980893	0.793223297667283	4.19120093218893	-37.311645797195	88.7892690615303
5089	1651208173164	5.92126809799876	0.453226479375104	7.78690255317087	0.117359961938193	-0.0204724355992782	-0.0204205727695079	0.0183444603132764	0.000292171133666455	0.00135545854204102	0.420654296875	-0.485107421875	0.591552734375	0	0	0	0.248442160424914	-0.20413130414693	0.67077884329186	0.668328247931142	0.016772308118617	0.795171253747816	0.606152923686342	-0.99803054259829	-0.0233355273691274	0.0582279074273477	0.0604460562926751	-0.605935747728694	0.79321380718135	4.19841413329387	-37.3118511058567	88.7916565305103
5090	1651208173165	5.89662098427753	0.480954332347852	7.80907752317836	0.0892474079475826	-0.0538820943483535	-0.0161431119451461	0.0182959432925127	-1.95423442386199E-05	-0.00474037172834185	0.421630859375	-0.48095703125	0.591064453125	0	0	0	0.248395672049427	-0.204158462658867	0.670810347170796	0.66830561149857	0.0166656005067289	0.795188481457639	0.606133266466083	-0.998036795604548	-0.0233738635285805	0.0581052245770807	0.0603722815467149	-0.605911661433283	0.793237824463763	4.18947344823612	-37.3104350402101	88.7993679162521
5091	1651208173166	5.92112562018833	0.482977550422255	7.80846219141927	0.0886662577171396	-0.0342654411618604	-0.00167101468538178	0.0153155108090476	-0.00286879962081156	1.50289727013442E-05	0.428466796875	-0.483154296875	0.5947265625	0	0	0	0.248444264911831	-0.204132126976663	0.670825516603679	0.668280366494341	0.0166464020187818	0.795168131716113	0.606160489971868	-0.998029956642535	-0.023462852988345	0.0581867697483352	0.0604905194549325	-0.605934927886446	0.793211043936807	4.19547313629073	-37.312396172586	88.8007199378836
5092	1651208173167	5.89807167888418	0.461682783311924	7.83535750033984	0.109173774813464	-0.0686618656838522	0.00447079167932252	0.0107587230883487	-0.00604829666268482	-0.00131098840702464	0.426025390625	-0.47900390625	0.596435546875	0	0	0	0.248389088967342	-0.204215123167335	0.670860167067328	0.66824073521009	0.0164856394242934	0.795142565734694	0.606198419537382	-0.998041799322246	-0.0235010065512588	0.0579678315679745	0.0603389633519466	-0.605966998150828	0.793198087903449	4.17981099637112	-37.3151286355401	88.8122604720549
5093	1651208173168	5.92221939384655	0.45822895822721	7.78588627979267	0.110617605753147	-0.0201223161281983	-0.0203413616565147	0.0123057250425881	-0.00755423366391856	-0.00124717526460538	0.431640625	-0.482666015625	0.59326171875	0	0	0	0.248444074488337	-0.20421370286622	0.670862353952611	0.668218532714009	0.0164809312216583	0.795093946809691	0.606262315052368	-0.998036684435428	-0.0235615121984087	0.0580312990037501	0.0604247914949268	-0.606028440660596	0.793144610826602	4.18465223957606	-37.3197319217821	88.8125269992706
5094	1651208173168	5.92206593473401	0.483631750795666	7.78297315143316	0.0838757205846633	-0.0199346274178345	-0.0212623883092231	0.0122427168674568	-0.00466332111218038	-0.00445111701099018	0.416015625	-0.483642578125	0.595458984375	0	0	0	0.248433452088759	-0.204272657189793	0.670880274712361	0.668186469789497	0.0163846770529772	0.795049922036913	0.60632265653443	-0.998042567608929	-0.0235990462297411	0.0579147499141883	0.0603537538057581	-0.606084735401037	0.793107002815767	4.17647495253928	-37.3240794202713	88.8193949193941
5095	1651208173170	5.92302569330678	0.460465554452677	7.78514094692393	0.107854865147743	-0.0204433274617195	-0.020311207502143	0.0107273429428747	-0.00460281064077588	-0.00291298593879136	0.4287109375	-0.483154296875	0.59228515625	0	0	0	0.248475049112326	-0.204265136010904	0.670878686840874	0.668174896057715	0.0163950835062234	0.795019014289984	0.606362901367	-0.998038173098966	-0.0236361249774164	0.0579753277983931	0.0604235572777964	-0.606123832655864	0.793071808358148	4.1810128712863	-37.3269791300535	88.8185993760766
5096	1651208173170	5.89952001698837	0.437102177013188	7.78779781930816	0.128839434807701	-0.0395662547562917	-0.0337802554342339	0.022929901451155	-0.00293538238485751	-0.00310524138564829	0.427490234375	-0.48876953125	0.591552734375	0	0	0	0.248404387882968	-0.204285805608378	0.670939593219386	0.668133693176768	0.0162147437550806	0.795063715641718	0.606309137449653	-0.998045677623031	-0.0237293553378156	0.0578078115243645	0.0603482183907846	-0.606061552785884	0.793125139414847	4.16869539809542	-37.3231053719414	88.8316563900762
5097	1651208173171	5.89990688836143	0.468368053180183	7.83357887425627	0.101934003482114	-0.0680904126197562	0.00455261336486323	0.0213899460213361	-0.00303208830752413	-0.00461490515391629	0.42431640625	-0.474609375	0.59228515625	0	0	0	0.248476992911482	-0.204235702423348	0.670945736410537	0.668115843729088	0.0162391932963266	0.795043207190085	0.606335375268496	-0.998034699923356	-0.0238179944276216	0.0579606840051289	0.0605229406917837	-0.606084979060156	0.793093923698618	4.17984440226776	-37.3249958149616	88.8298650075835
5098	1651208173171	5.92463270464997	0.443886059833852	7.81117494257899	0.124124395500811	-0.0345656318124838	0.000373305312209027	0.0183205520073385	0.000137206106905151	-0.00169559814977806	0.419921875	-0.481689453125	0.582763671875	0	0	0	0.248438286296122	-0.204283487278336	0.670988880462346	0.668072299248769	0.0160843582425801	0.795034489285622	0.606350933260826	-0.998041847277724	-0.0238953196037314	0.0578055774428791	0.0604463770824482	-0.606093371146217	0.793093349455297	4.16870136011433	-37.3261167956166	88.8410060742534
5099	1651208173172	5.89902821055469	0.493601360476101	7.80646986853693	0.0750958887450222	-0.0533867924441528	-0.0160217006085777	0.0213708050349324	-0.00150858446165094	-0.00469335125105418	0.42041015625	-0.4892578125	0.593994140625	0	0	0	0.248505361649965	-0.20422915985703	0.670996606848454	0.668056202046783	0.016108007723905	0.795022807055434	0.606365622664135	-0.998030971974394	-0.0239827223418383	0.0579569496171208	0.0606193951389636	-0.606105242751431	0.793071070990623	4.17969606023321	-37.3271752082571	88.8392853736754
5100	1651208173172	5.92460564821666	0.474153845707343	7.83258474498204	0.0932934956908677	-0.0481310267449434	0.0191048081475937	0.0168194565992146	-0.00300735273314112	-0.00304766547810894	0.4287109375	-0.48193359375	0.5908203125	0	0	0	0.248382681049829	-0.204336566112045	0.671052779934761	0.668012558299518	0.0158694685827362	0.795036040301595	0.606354561777565	-0.998050696811297	-0.024011579407342	0.057604258947158	0.0603569926469823	-0.6060867418744	0.793105223008074	4.15417203639874	-37.3263782390214	88.8564885137742
5101	1651208173173	5.90031207708406	0.445769673984434	7.78670638347582	0.119510172843478	-0.0393833717491706	-0.0336610528045842	0.0168265973755335	-0.00461043877464877	-0.00449259248807778	0.4169921875	-0.4873046875	0.590087890625	0	0	0	0.248443107796765	-0.204309634144431	0.671053320716497	0.667997781687497	0.0158900283022629	0.795005618345971	0.60639390976402	-0.998042900184621	-0.0240730741127049	0.0577135728735876	0.0604803802205639	-0.606124206661559	0.793067191168107	4.1622265015042	-37.3292134150113	88.8549636264698
5102	1651208173174	5.92454918623428	0.472195422239419	7.78327887399669	0.0905938018511339	-0.0189997114488746	-0.0201333985651786	0.016865684221856	-0.00765797716723412	-0.00433441025218551	0.412353515625	-0.478271484375	0.59619140625	0	0	0	0.248368189648781	-0.20441635421867	0.671093356684582	0.667952770121028	0.0156953214835356	0.794976293550781	0.606437424286951	-0.998058372878362	-0.0241061020311847	0.057431525944033	0.060275544053343	-0.60616135519936	0.793054392997069	4.1420232254782	-37.3323489308021	88.8689488347511
5103	1651208173175	5.92512396688863	0.473824772590406	7.78274229960826	0.0900557035863569	-0.0190579792506251	-0.0201285484706961	0.0183935587110143	-0.00763986022288079	-0.00434888506150008	0.419677734375	-0.48486328125	0.59326171875	0	0	0	0.248442694097872	-0.204395736601178	0.671092591227952	0.667932140720602	0.0157142337164299	0.794927367234613	0.606501066511966	-0.998049877087875	-0.0241780765033112	0.0575487920071096	0.06041113890321	-0.606222650053631	0.792997221217307	4.15074923883296	-37.3369350193989	88.8675166383107
5104	1651208173176	5.94963902431263	0.502773390015368	7.80366671636945	0.0608673884878543	-0.0106901790417624	0.0130126403798414	0.0121791290722467	-0.00177694677221733	-0.00765604683428998	0.420654296875	-0.484375	0.591796875	0	0	0	0.248280366708872	-0.204381524600611	0.671140563294567	0.66794864788357	0.0155970734051629	0.795087023832131	0.60629477635467	-0.998062703337563	-0.0241455923848813	0.0573396073835438	0.0602293243172273	-0.606014533573369	0.793170103817676	4.13481577944202	-37.3220706707128	88.87618355258
5105	1651208173177	5.90174287626989	0.478588190034307	7.80684173866767	0.0851474660655538	-0.0505137291050199	-0.0149023211422019	0.0153689685140931	-0.00583296381401842	0.00169640441626853	0.427978515625	-0.488037109375	0.591552734375	0	0	0	0.24833090665322	-0.204372230746802	0.671160424827578	0.667912745982311	0.0155513508896817	0.795049321970295	0.60634538929564	-0.998057087394673	-0.0242491101078905	0.0573936491280911	0.0603341179331315	-0.606059861972025	0.793127504200732	4.1389207687381	-37.3257173412762	88.8794240347964
5106	1651208173179	5.9503695692681	0.478391692707347	7.78139106646986	0.0811439379584181	0.00330376973146271	-0.00558747661715309	0.0152653298132919	0.000102145863035036	-0.00166961581000286	0.42236328125	-0.48193359375	0.59033203125	0	0	0	0.248221208010643	-0.204478845377383	0.671223506800504	0.667857497977902	0.0152948114231316	0.795051331647085	0.60634927953262	-0.998075275695867	-0.0243095283756584	0.0570507745326299	0.0600983592800232	-0.60605480517553	0.793149267373739	4.11416716065685	-37.3259976408024	88.8979075592959
5107	1651208173180	5.90160785686977	0.478499145078396	7.78221143295266	0.0810146328838951	-0.0360704089016708	-0.0345031267842533	0.0183784188306294	-0.0011450745969785	0.00295243639494151	0.42041015625	-0.48974609375	0.58349609375	0	0	0	0.248263655265423	-0.204446756041448	0.671256746312662	0.667818135384267	0.0152318089477354	0.795041459449246	0.606363809732236	-0.998068255297279	-0.0244409239920195	0.0571174141769528	0.0602308041123886	-0.606062471195196	0.793133362836759	4.11903860247562	-37.3270445806309	88.902432566822
5108	1651208173181	5.92668126637929	0.456050260043627	7.78418824979158	0.100099571030763	-0.0170679560137358	-0.0189746840689633	0.0168184744917048	0.000280273736488973	0.00136333797918013	0.423828125	-0.481201171875	0.597900390625	0	0	0	0.248144359855657	-0.204578974828749	0.671324622013424	0.667753750725803	0.0149413898731035	0.795028831110479	0.606387592692798	-0.998089306105705	-0.0245047428992799	0.0567208481325289	0.0599540816466497	-0.606076459927744	0.793143639459689	4.09048472498993	-37.3287582381666	88.9233373939468
5109	1651208173182	5.9270687495821	0.459830932170655	7.80840399690921	0.0983535588298984	-0.0315647250107328	0.000675545505842479	0.0152781291557113	0.000181785786373511	-0.000145917140788718	0.420166015625	-0.487060546875	0.598388671875	0	0	0	0.248173711245439	-0.204550867339874	0.671346352515232	0.667729605964619	0.0149060352699981	0.79502737508914	0.606390371766738	-0.99808396663398	-0.0245922319776821	0.0567769114564858	0.0600516915724389	-0.606074826226291	0.793137503434342	4.09454561640904	-37.3289584841219	88.9258824493929
5110	1651208173183	5.87864963230188	0.462534393347568	7.83354761277885	0.0942915524153193	-0.0835303163659776	-0.00855255080361949	0.0198868654141787	0.000397133147455788	0.00285793362185119	0.41943359375	-0.478759765625	0.595703125	0	0	0	0.248053724566361	-0.204541936182536	0.671437753433824	0.667685022548204	0.0146678792128788	0.79514308488217	0.60624444565164	-0.998092641282542	-0.0247186140150081	0.0565691571337005	0.0599660965632802	-0.605917869587327	0.793263892142911	4.07896600548187	-37.318444510905	88.94319364347
5111	1651208173184	5.87841004221136	0.461235391788025	7.80907490552544	0.0947343601894119	-0.0691036419689323	-0.0281923035009921	0.0137966102862611	-0.0044882985945897	-0.001414476030613	0.419921875	-0.486328125	0.59326171875	0	0	0	0.2480940807307	-0.204532710210985	0.67144871410217	0.667661831985834	0.0146459895685825	0.795114647645669	0.606282270966966	-0.998088066522282	-0.0247880971261383	0.056619446365006	0.0600475349649894	-0.605952347416997	0.793231395120277	4.08274658545335	-37.3211696827731	88.9447326823622
5112	1651208173185	5.92756008694304	0.463496743035507	7.80781426524835	0.090833139425601	-0.0281228261955679	0.00075850355812257	0.0122688318067498	-0.00450646949092826	-0.00139985803554175	0.416015625	-0.482421875	0.591796875	0	0	0	0.247975327529795	-0.204568198363091	0.671502148751413	0.667641335881179	0.014473432881428	0.795189451296416	0.606188301015065	-0.998100915261486	-0.0248137976825488	0.0563811883410892	0.0598755600793064	-0.605853127409172	0.79332017830994	4.06517040400796	-37.3143996829288	88.9572609879771
5113	1651208173185	5.90286216358142	0.461157143399237	7.78387703422784	0.0915169365017324	-0.0333596285868264	-0.0333366129556953	0.00761956010511316	0.00161454797112962	-0.000153759871956658	0.422119140625	-0.48291015625	0.59375	0	0	0	0.247972168838033	-0.204561025270053	0.671519325335128	0.667627430625556	0.0144331652838393	0.795198561385903	0.606177310454359	-0.99810032576969	-0.0248568016335667	0.0563726805375499	0.0598951036256598	-0.605839407254381	0.793329180844454	4.06451306521888	-37.3136079154513	88.9601733408392
5114	1651208173186	5.9279416933133	0.438200061598321	7.78589990363286	0.112034478378349	-0.0127536588439373	-0.0177889513882583	0.0122746071650351	-0.00282119101833965	0.00156751756428833	0.41748046875	-0.487548828125	0.599853515625	0	0	0	0.247844960267041	-0.204611286347354	0.671583113900736	0.667595100560888	0.0142206852453453	0.795267440649215	0.606091964931396	-0.998114945189007	-0.0249020064127589	0.0560931926971864	0.0597019957915779	-0.605747131994751	0.79341419433902	4.04399689957861	-37.3074598496336	88.9755667364064
5115	1651208173187	5.8798265496895	0.440608372665875	7.81084038915116	0.11071811677403	-0.0665516896513333	-0.0270327681262934	0.0153499539067976	-0.00430857054985716	0.00161872167895085	0.420166015625	-0.479736328125	0.59130859375	0	0	0	0.247884501607454	-0.204600486519403	0.671607485215222	0.667559211292701	0.0141640534378181	0.795240946998087	0.606128052318812	-0.998110105516106	-0.0250066806685811	0.0561327283192987	0.0597962946748309	-0.605777601219726	0.793383829557696	4.04699209203664	-37.3100594282594	88.9796115422479
5116	1651208173189	5.90360759536889	0.493440072391843	7.82925040754355	0.0568637911835954	-0.0584484428415051	0.00497925833501611	0.0168513895712969	-0.00116204859270686	0.0029663948504448	0.424072265625	-0.48779296875	0.603271484375	0	0	0	0.247745061565173	-0.204612814587638	0.671693605409944	0.667520547270257	0.0139225931158304	0.795354937468281	0.605984063194535	-0.998122194856432	-0.0250998301570821	0.0558755998720817	0.0596510313063436	-0.60562407644587	0.793511961153187	4.02786676149355	-37.2996876132722	88.9971466512372
5117	1651208173190	5.92926785074911	0.473485856311552	7.85539405213664	0.0791134382846287	-0.0536505572843461	0.0401540744834481	0.01689062476054	-0.00420940878445572	0.00312801676990874	0.4296875	-0.493896484375	0.59619140625	0	0	0	0.247786612046581	-0.204598409768042	0.671725601561196	0.667477341801289	0.013848413855275	0.795329744326796	0.606018827449088	-0.99811673147296	-0.0252269778045484	0.0559159185257951	0.0597596166941151	-0.605651878045403	0.793482571221731	4.03091241253201	-37.3021916187438	89.0024571575059
5118	1651208173191	5.85696940444221	0.448715722531294	7.85910947921857	0.0993371874496943	-0.112519368215146	-0.00205488634208528	0.0168456322023585	-0.00284833181294516	-5.00806023302615E-07	0.4267578125	-0.487060546875	0.581787109375	0	0	0	0.24766455476604	-0.204694614996651	0.671823059853621	0.667395054786017	0.0135077816805821	0.79535157430273	0.605997865580596	-0.998133977047336	-0.0253679108770843	0.0555430730280524	0.0595491704202249	-0.605617323358489	0.793524765807824	4.00390992047273	-37.3006817638372	89.0270158404227
5119	1651208173191	6.04833720780393	0.541628608287965	7.74756212657055	0.00341001739790381	0.104527723724191	0.030560345594127	0.0306800797853235	-0.00380213514772717	0.0075662896298945	0.425048828125	-0.486328125	0.593994140625	0	0	0	0.247745171297487	-0.204638929022366	0.671884882768933	0.667319970579284	0.0133872260703137	0.795327787354498	0.606031758936726	-0.99812101345362	-0.0256139311892863	0.055662995170492	0.0597931825583989	-0.605638206515102	0.793490477654716	4.01269931183962	-37.3031230713465	89.0356691450744
5120	1651208173191	5.78499604307289	0.395173310097598	7.81646903723276	0.145879532697822	-0.145101013311017	-0.0824667061349213	-0.0105012108526076	-0.0087781947635445	0.00973412858555228	0.428955078125	-0.477294921875	0.59375	0	0	0	0.247624449213636	-0.204926163551016	0.671941829675478	0.667219287173473	0.0129988900492679	0.795175640478655	0.606239828489392	-0.99815455399379	-0.02564738063197	0.0550426944124008	0.0593170734185793	-0.605836539551783	0.793374799287812	3.96870272260604	-37.3181118684774	89.0634582247447
5121	1651208173192	5.9802766177041	0.397255177554452	7.78803581533246	0.143973633136294	0.0267640272421157	0.0134806105940335	0.02144210842795	-0.00271439242602975	0.00147777634187703	0.42626953125	-0.48486328125	0.59423828125	0	0	0	0.247676102146578	-0.204892432195655	0.671974966160792	0.667177101306415	0.0129374721643037	0.795158702216162	0.606263358701404	-0.99814653807837	-0.0257876134426385	0.0551224774034956	0.0594652027337308	-0.605852818168606	0.793351279308854	3.97455428435497	-37.3198071127368	89.0678626150689
5122	1651208173193	5.927464564588	0.567616788448652	7.77042440844494	-0.0280204612828623	-0.00999968436578053	-0.023119697536325	0.0276443327167438	-0.00536303126368335	0.00767586276771415	0.4287109375	-0.4814453125	0.587158203125	0	0	0	0.247737279672367	-0.204909008998049	0.672046191790769	0.667077547509656	0.0127324282619239	0.795086649926906	0.606362189106944	-0.998141051805055	-0.0260396872798798	0.0551033155795936	0.0596013923667323	-0.605936592222632	0.793277076583946	3.97354752337036	-37.326927809512	89.0825502452936
5123	1651208173194	5.86133713251078	0.323646076877604	7.79721408725935	0.215892282407537	-0.0735997199727024	-0.0554059472310122	-0.0104820964364334	-0.0168851508709589	0.00100228749882488	0.4248046875	-0.483642578125	0.587646484375	0	0	0	0.247730831192562	-0.205029701141451	0.672027085691225	0.667062105822126	0.0126848354944127	0.794983249335521	0.606498745443399	-0.998151962467258	-0.0259819372519969	0.0549326747882873	0.0594285686454093	-0.606074724941216	0.79318451385298	3.96174250415367	-37.3367677571891	89.0858601507594
5124	1651208173195	5.95580033990608	0.498782984397198	7.80071173279807	0.0397666294465596	-0.00783797282139167	0.0143062092049586	0.0229833881793882	-0.00261550736535143	0.00298422046453408	0.424560546875	-0.482666015625	0.591552734375	0	0	0	0.247763936765104	-0.205130067889987	0.672078750858098	0.666966895378718	0.0124636157849358	0.794860889481033	0.606663683316373	-0.998156222158298	-0.0261536314326483	0.0547735678001828	0.0594038251987322	-0.60622780696394	0.793069373772214	3.9508757960135	-37.3486545347343	89.1016615942447
5125	1651208173198	5.90887791182258	0.449962881044676	7.80635361197485	0.0883026628359437	-0.0481334329907114	-0.0123635332360372	0.00170217882220346	-0.0136948574350135	0.000720103710403866	0.423095703125	-0.489990234375	0.591796875	0	0	0	0.247787633673591	-0.205200400689581	0.672074588925057	0.666940650340413	0.0124170849561015	0.794775483398399	0.606776521455827	-0.998159970261375	-0.0261659289606848	0.0546993412157393	0.0593505667117377	-0.606339240978568	0.792988168310556	3.94594143904602	-37.3567876618907	89.1049186852644
5126	1651208173196	5.93480316320631	0.400018449333285	7.78624956675923	0.133760337236144	-0.0149119673991082	-0.0152656943892602	0.0153371444404092	-0.00439251359470077	9.29555230442204E-05	0.416748046875	-0.482666015625	0.598388671875	0	0	0	0.24770789049195	-0.205307714442408	0.672136079093246	0.666875276614466	0.0121636671431861	0.794749185643237	0.606816098271166	-0.998174549028247	-0.0262522156616275	0.0543910915969793	0.059157542831708	-0.606369980368642	0.792979086756925	3.92381915296392	-37.359640481242	89.1231543310526
5127	1651208173197	5.91024433746477	0.424957781170527	7.78370505087736	0.108832573730694	-0.0341694678107586	-0.0308353240121466	0.0122671458078343	-0.00780411416984507	-0.00580780992486847	0.42578125	-0.490234375	0.589111328125	0	0	0	0.247752880447185	-0.205315933151638	0.672128475948354	0.666863696450435	0.0121773588268311	0.794700932240993	0.606879016136906	-0.998171387601073	-0.0262763559010679	0.0544374328482568	0.0592080476502194	-0.606432173796754	0.79292775564839	3.92740522682179	-37.3641760190067	89.1221141964701
5128	1651208173199	5.91101019722292	0.429030229561411	7.80763569517871	0.103458684332418	-0.0475071367887698	-0.0111404025137762	0.0214235363848632	-0.00119106972066337	0.00139123969521898	0.424072265625	-0.48095703125	0.587890625	0	0	0	0.24764164071554	-0.205357678506501	0.672210827568351	0.666809151828324	0.0119216543565864	0.794762438683567	0.606803543344262	-0.998182888439104	-0.0263875578328233	0.0541721147730657	0.0590660256388467	-0.606346734838548	0.793003683324272	3.90795018925076	-37.358735471506	89.1406120600198
5129	1651208173200	5.86267922794828	0.4026306748933	7.78667149531332	0.128775127822941	-0.0729015653539428	-0.0585357215396378	0.0183727946778798	-0.00612735224287426	-0.00442674873994465	0.423828125	-0.48486328125	0.595703125	0	0	0	0.247698812269859	-0.205342091136463	0.672216760726414	0.666786735475664	0.011918504412384	0.79472445466656	0.606853351648906	-0.998176423000604	-0.0264601500028225	0.0542557741401547	0.0591758212303921	-0.606393355518319	0.792959848015612	3.91418228618434	-37.3623259191034	89.1407980361835
5130	1651208173200	5.93498122385717	0.454689053332181	7.7795890195423	0.0761945047379132	-0.0129456455318808	-0.0174448401390244	0.0213898669285283	-0.00304436793412612	-0.00462194880628316	0.42431640625	-0.48828125	0.59716796875	0	0	0	0.247683829941683	-0.205374557468967	0.67225241401414	0.666746356107032	0.0117959659931728	0.794707780923185	0.606877580840185	-0.998179608789153	-0.0265411755248401	0.0541574980893041	0.0591466295220722	-0.6064116662317	0.792948023059691	3.90717240649573	-37.364072550228	89.14961265689
5131	1651208173201	5.91177150804201	0.461205802718751	7.82825284397851	0.073226795289681	-0.0615498514470721	0.00740148347940028	0.0168317778554838	-0.00622809426412766	-0.00593471123474221	0.419921875	-0.48486328125	0.586669921875	0	0	0	0.247737390721394	-0.205363239590473	0.672251635341169	0.666730728138867	0.0118073572120584	0.794669338394652	0.606927696625449	-0.998173950899597	-0.0265921519606427	0.0542367144984843	0.0592397675649969	-0.606459809113109	0.792904250126922	3.91308504682721	-37.3676854201549	89.148750397514
5132	1651208173202	5.9124876692122	0.435900172657962	7.80613632179427	0.0944719568509634	-0.0470590416207703	-0.0110475031603681	0.0153234684401893	-0.00776967192866393	-0.00583677859952627	0.41552734375	-0.491455078125	0.58984375	0	0	0	0.247651808956674	-0.205463880449423	0.672292243540348	0.666690568874825	0.0116154662123006	0.794654793254979	0.606950443200726	-0.998188799929209	-0.0266165584080565	0.0539507044847127	0.0590271178405077	-0.606477797100106	0.792906350702305	3.89250324160652	-37.3693252885931	89.1625674375979
5133	1651208173202	5.91375433743806	0.413281713010377	7.80820118832148	0.117939986886148	-0.0475515935681751	-0.00987518309386104	0.0168576334594552	-0.00935823389794419	-0.00729337975625361	0.41943359375	-0.486572265625	0.591796875	0	0	0	0.247716365146838	-0.205462148283138	0.672283470676259	0.66667596560608	0.011640481356721	0.794597790852285	0.607024587612769	-0.998183137044123	-0.0266569250121571	0.0540354815806154	0.0591178832041255	-0.606550706142169	0.792843816122632	3.89890754773691	-37.3746708292101	89.1607039989861
5134	1651208173203	5.91339471801909	0.436410098408075	7.78067803720865	0.089062347839922	-0.031167905148299	-0.030625317900693	0.0122874112111539	-0.00932934730502998	-0.00572295981498658	0.4287109375	-0.48828125	0.593994140625	0	0	0	0.247540318057602	-0.205596159082664	0.67233530144535	0.666647772618185	0.0113909236016932	0.794634985100749	0.606980631744896	-0.998208339543725	-0.0266219332673361	0.0535852921468969	0.0587397456996469	-0.606503514518294	0.792908020612794	3.86621112335849	-37.3715017261152	89.1787334295045
5135	1651208173204	5.93855472759629	0.438506477856929	7.77951486340307	0.08777708464621	-0.0115126576548259	-0.0161709410145363	0.0168774756812849	-0.0108818087789873	-0.00721080511713146	0.421142578125	-0.48974609375	0.598876953125	0	0	0	0.247608154780887	-0.205600570467925	0.672325876140083	0.666630724900779	0.0114126433914677	0.794569416610709	0.607066053867071	-0.998202928112551	-0.0266637640830514	0.0536652400763572	0.0588274245428853	-0.606587574775351	0.792837214218536	3.87230662541136	-37.3776605604174	89.1770997925984
5136	1651208173204	5.93893817171045	0.467030478239019	7.80059532511534	0.0579086229473081	-0.0248231857341047	0.00232265872352322	0.0152979059244621	-0.00463907318636373	-0.00447960257368205	0.42431640625	-0.483154296875	0.586669921875	0	0	0	0.247511231611241	-0.205679602861283	0.672387319005485	0.666580366072785	0.0111823884148834	0.794584346847735	0.607050796831614	-0.998216394133763	-0.0267330330661935	0.0533795412650727	0.0586428569556981	-0.606564968233116	0.792868182386223	3.85160377120732	-37.3765605090522	89.193715091287
5137	1651208173204	5.93895893971562	0.465833833971439	7.77589319867379	0.058159916225996	-0.0104035387601395	-0.0173181272600544	0.016879279395704	-0.00758456849162872	-0.00280560496937938	0.42529296875	-0.48583984375	0.59375	0	0	0	0.247562621637207	-0.205679132627668	0.672397017149166	0.666551643984581	0.0111566914608693	0.794537743803466	0.607112264665561	-0.998211604960955	-0.0268100006059654	0.0534304743454837	0.0587292087203823	-0.606622615420169	0.792817685539287	3.85551258556823	-37.3809925153143	89.1955205004588
5138	1651208173205	5.91559207287944	0.442162184796551	7.77868269520159	0.0795778578034853	-0.0310866105220429	-0.0305433044880594	0.0122772339559178	-0.00281784083214439	0.00156325304916444	0.431640625	-0.4873046875	0.600341796875	0	0	0	0.247517009460259	-0.2057803575173	0.672449874452862	0.666484013938993	0.010931221616764	0.794485905599542	0.607184201208861	-0.998222460392922	-0.0269070072476397	0.0531783088117505	0.0585869265371348	-0.606686211121245	0.792779548975805	3.83755500241359	-37.3861796780712	89.2117250388131
5139	1651208173205	5.9415441130806	0.395353080826909	7.78322179286335	0.126998557375613	-0.0123551562780565	-0.0136817736744259	0.0168534746448785	-0.00445413872663754	-0.00144836437687571	0.420654296875	-0.48193359375	0.58837890625	0	0	0	0.247556026375514	-0.205772194619827	0.67246784103346	0.666453914762531	0.0108896133942744	0.794457356740007	0.607222302490451	-0.998217944094621	-0.0269939668380734	0.0532189988806104	0.0586715638758049	-0.60671973272346	0.792747635453012	3.84063671623978	-37.3889272107936	89.2146969094579
5140	1651208173206	5.89225484859393	0.4468014267959	7.80283583203914	0.0749653866300407	-0.0652624583701552	-0.0253145504706893	0.0183953719159159	-0.00435215344442402	5.93374312024703E-05	0.423095703125	-0.49365234375	0.58349609375	0	0	0	0.247541296848773	-0.20581630119114	0.672522487344475	0.666390621583488	0.0107063083599979	0.794429288521771	0.607262283119983	-0.99822142495966	-0.0271263792591426	0.0530862157230625	0.0586460715888713	-0.606750578975482	0.792725913036852	3.83118744014913	-37.391810373998	89.2278870393885
5141	1651208173206	5.94032385267207	0.470776839157404	7.77455278802152	0.0501317315182839	-0.0110389522712958	-0.0172744454664819	0.0122696238276209	-0.00450891390765994	-0.00140051617811763	0.419189453125	-0.481689453125	0.600830078125	0	0	0	0.247564994708469	-0.205824245883362	0.672535783403893	0.666365945440532	0.0106639996957163	0.794400129615069	0.607301171724583	-0.998219642987025	-0.0271856131273831	0.0530894226164142	0.0586840989139796	-0.606786104411142	0.792695906403083	3.83156279175127	-37.3946148933074	89.2309096448482
5142	1651208173207	5.94181575511135	0.42338988829775	7.77966272970905	0.0944087934223151	-0.011145280484427	-0.0148024734128089	0.0168417403995687	-0.00123917560914869	0.00143144595600573	0.424560546875	-0.4873046875	0.591552734375	0	0	0	0.24743822420342	-0.205902420067354	0.672612241325976	0.666311707410212	0.0103939324577085	0.794442563524536	0.60725034329231	-0.998235080247147	-0.0272658039569898	0.052756994783173	0.0584695709924175	-0.606726947806954	0.79275703722693	3.80734890144025	-37.3909493336266	89.2504247458846
5143	1651208173208	5.96580409611198	0.449555948691702	7.77623138351528	0.0686390276820474	0.00896314803201021	-0.00157622446540095	0.0183956255807076	-0.00435219263858987	5.93848979851312E-05	0.42822265625	-0.484130859375	0.588623046875	0	0	0	0.247479199548927	-0.205891824211763	0.672637399962476	0.666274365922249	0.0103349697889454	0.794414226611987	0.607288419909305	-0.998230002010369	-0.0273740520753154	0.0527970108941523	0.0585666414082359	-0.606759176139477	0.79272520502675	3.81038081765156	-37.3936952624234	89.2546498702438
5144	1651208173208	5.943335144694	0.404450451742828	7.80612715498144	0.113063483483213	-0.0270828648099028	0.00611689423890382	0.0183978226298993	-0.00105229099507637	0.00446232876666823	0.42919921875	-0.48486328125	0.582275390625	0	0	0	0.247459578587566	-0.205986850241047	0.672713834355053	0.666175105779523	0.0100510291901891	0.794343581211193	0.607385587416095	-0.998237257832111	-0.0275602919348273	0.0525624141787062	0.0584923404220137	-0.606843229588206	0.792666348986073	3.79378027477832	-37.40070303877	89.2750607732753
5145	1651208173209	5.91840337232345	0.429341710358842	7.80381092543887	0.0879952929642749	-0.0463470031883147	-0.00955488338992794	0.0137441233457922	-0.00152896230758179	-0.00310753452126398	0.422119140625	-0.481201171875	0.597412109375	0	0	0	0.247478571259425	-0.205979715902652	0.672726899167751	0.666157062966534	0.0100217515456109	0.794332419056324	0.60740066886042	-0.998234682256367	-0.0276142481929271	0.0525830052133747	0.0585412985548527	-0.606855387495956	0.792653426808113	3.7953238156962	-37.4017907799376	89.2771620682135
5146	1651208173210	5.94302430206845	0.431477704964705	7.80304536822094	0.0850603409499181	-0.0274919204196769	0.00491094471268383	0.0260639369711544	-0.00409238147022619	0.00302666341056914	0.429443359375	-0.48388671875	0.59130859375	0	0	0	0.247517379070626	-0.206023885614758	0.672787134940047	0.666068147169168	0.0098232592307213	0.794255176430917	0.607504912153621	-0.998233145204163	-0.0278147637656568	0.0525064446755431	0.0586011210975628	-0.606947323603419	0.79257861122841	3.7901706600125	-37.4093097039453	89.291408332546
5147	1651208173210	5.87111865946658	0.409700718605624	7.83129398576469	0.108207094459302	-0.101481183120888	-0.0175330925006651	0.0137581767321661	-0.00144486260348573	-0.00158407233490555	0.419921875	-0.479736328125	0.590087890625	0	0	0	0.247534533518936	-0.206019093144082	0.672805118030647	0.666045089410184	0.00977881282371335	0.794243409753874	0.607521012708448	-0.998230770223532	-0.0278801442653413	0.0525169204607137	0.0586489914550281	-0.606959721578197	0.792565575951306	3.79098681568448	-37.4104710818885	89.2946036588838
5148	1651208173212	5.91899978130801	0.434219517105054	7.80308869105325	0.0822021370136078	-0.0475797558371567	-0.00951050013664911	0.0290445677130365	-0.0028715936283645	-0.00318429198792381	0.4248046875	-0.48046875	0.5908203125	0	0	0	0.247581363911384	-0.206013914716514	0.672842331831901	0.665991690400087	0.00968292687637407	0.794204391918452	0.607573555040498	-0.998225215879405	-0.0280266705224224	0.0525444965904487	0.0587593338085354	-0.60700402766116	0.792523470373911	3.79317254379779	-37.4142612321651	89.3014854078066
5149	1651208173213	5.89486939883078	0.435838179550431	7.80327622973096	0.0815095773256074	-0.0673179163964489	-0.0239497406563132	0.026050590216357	-0.00417626893697606	0.00150330246954613	0.41748046875	-0.485595703125	0.584716796875	0	0	0	0.247645449396606	-0.205981139273468	0.672879704550866	0.665940241208096	0.00960934693428778	0.794174761900066	0.607613452790892	-0.998215929110478	-0.0281907308066149	0.0526330843357631	0.0589289345025267	-0.60703519688529	0.792487003313515	3.79972327941655	-37.4171393914555	89.3067669950933
5150	1651208173215	5.92074775027617	0.416817640581203	7.8293261204047	0.100874901522868	-0.062575974545297	0.0114281977670512	0.0245285187556297	-0.0058031952583411	8.07720290944479E-05	0.42333984375	-0.490966796875	0.5927734375	0	0	0	0.247627112789758	-0.206039270478624	0.672924113589989	0.665884201180034	0.00944191273952766	0.794137252325445	0.607665100818544	-0.998220891005164	-0.0282920992789283	0.0524843774779403	0.0588719206810412	-0.607079551284165	0.792457264064089	3.78916082936435	-37.4208653610508	89.3188126361167
5151	1651208173216	5.94439692737065	0.467682967977371	7.82288090320268	0.0506544790947567	-0.042045055298876	0.0233542136483553	0.0199502175001258	-0.00746661254299935	-0.00130906269311659	0.428466796875	-0.483642578125	0.59326171875	0	0	0	0.247684287407661	-0.206035259064862	0.672941873701262	0.66584622880427	0.00939741328302013	0.794088224972263	0.607729857407046	-0.998215010261596	-0.028396543218412	0.0525397908416623	0.0589786564108482	-0.607138803976195	0.792403931586868	3.7934043295059	-37.4255372647174	89.3219808970072
5152	1651208173217	5.92151181687239	0.390584168156709	7.78257041785773	0.123073242394439	-0.034424035674362	-0.0265273303370392	0.0230007957265685	-0.00582125218284024	9.66466256723631E-05	0.41552734375	-0.482177734375	0.6005859375	0	0	0	0.247663010501371	-0.206108113455824	0.6730099644429	0.665762770480331	0.00915406665649626	0.794039245242293	0.607797565048346	-0.998220668711203	-0.0285587580200712	0.0523439958171906	0.0589211305170519	-0.607195252250379	0.792364957594158	3.77949421042668	-37.4304223856691	89.3394959331221
5153	1651208173218	5.92132778259743	0.443789514716235	7.80078369428539	0.0719187100547023	-0.0480220628031998	-0.00943182161463518	0.0230038363524447	-0.0107347027728433	-0.00574127406686064	0.42431640625	-0.490234375	0.5947265625	0	0	0	0.247745469566155	-0.206100031125936	0.67301207610808	0.665732457442197	0.00915504516516219	0.793971268653625	0.607886346038943	-0.998212664609202	-0.0286461445557239	0.0524487808808833	0.0590564252374132	-0.607280020216906	0.792289918958668	3.78739584387264	-37.4368284364474	89.339368785197
5154	1651208173219	5.94751640392803	0.397937120165436	7.80522435556064	0.116919459394151	-0.0269949218781093	0.00761982964336205	0.0244752626121212	-0.00284154076520035	-0.00161506024693354	0.42822265625	-0.482177734375	0.588134765625	0	0	0	0.247638817042954	-0.20606800134349	0.673076203820061	0.665717221473984	0.00900880534694959	0.794095968328481	0.607725624365694	-0.998217712660911	-0.0287131197105162	0.0523159142757516	0.0589935552093531	-0.607113786568005	0.792421990231732	3.77720136967037	-37.4252318604561	89.350022663402
5155	1651208173220	5.92217522653356	0.447889366611371	7.79990600559591	0.0674424533374515	-0.0458065506913992	-0.00938940239121955	0.0229586366764505	-0.00607889678635457	-0.00447413694212639	0.421630859375	-0.486572265625	0.5830078125	0	0	0	0.247703213254311	-0.206045862748708	0.673089020298064	0.665687157260694	0.00899254639666791	0.794056988449983	0.607776795545082	-0.99820987757243	-0.0288114222046352	0.0524112799632098	0.0591284569910249	-0.607160111539197	0.79237644117526	3.78428366353362	-37.4289238276254	89.3511637851401
5156	1651208173221	5.94715330586056	0.423399571987526	7.77746054026244	0.0890849352929738	-0.0136578144441659	-0.0132654840570723	0.0198825581654346	-0.00459200595758286	-0.00452711126527498	0.41943359375	-0.489501953125	0.595703125	0	0	0	0.247715473626777	-0.206165599868952	0.673119830743834	0.665614365091326	0.00881087778013595	0.793935639107704	0.607937965081459	-0.998217275976048	-0.0289065248294915	0.0522176480247891	0.0590308256396798	-0.607314262780749	0.792265579113073	3.77086920247722	-37.4405532945127	89.3641734133473
5157	1651208173222	5.92278677398435	0.4518447967373	7.79921349437182	0.0626518969801324	-0.047388894670456	-0.00936513726746746	0.025969533452601	-0.00138567177369322	-0.00324196090340795	0.42236328125	-0.482666015625	0.5947265625	0	0	0	0.247772555137889	-0.206120633405219	0.673145331657722	0.665581255649893	0.0087792939040936	0.793923758148318	0.607953937602346	-0.998207902170124	-0.0290317532242858	0.0523272524584056	0.0591938176135574	-0.60732382099863	0.792246090810146	3.77885400320362	-37.4417059178336	89.3664429601597
5158	1651208173223	5.94694327679018	0.451736770196461	7.77414853287593	0.060085169892425	-0.0117730571341338	-0.0145326022994503	0.021411023054403	-0.00457402655206559	-0.00454326444239432	0.417724609375	-0.48583984375	0.5966796875	0	0	0	0.247687678529223	-0.206130989600794	0.673191780708883	0.665562660774329	0.00864568302440122	0.793990412985721	0.607868798550975	-0.99821483813433	-0.0290727194183851	0.0521719648285674	0.0590964389239741	-0.607234716623139	0.792321658062003	3.76731382699672	-37.4355622424347	89.3761365835449
5159	1651208173224	5.92425878456912	0.434531273184106	7.82570628561105	0.0810502656055229	-0.0608581595774612	0.0116225460221813	0.0259497597205945	0.000137882029501037	-0.0033289269329739	0.420166015625	-0.4833984375	0.59326171875	0	0	0	0.247738845979589	-0.206080991857595	0.673219396493267	0.665531166192037	0.00861253796046196	0.793988445900268	0.607871838438628	-0.998205514304786	-0.0291977832441149	0.0522804042175227	0.0592585470746413	-0.607231288085938	0.792312177975384	3.77516660553803	-37.4357815935255	89.3785265690762
5160	1651208173225	5.92325135691771	0.45810008703456	7.79849572772682	0.0547817499009171	-0.0440799971290075	-0.00930256269731266	0.0229338528446584	-0.00294557330823349	-0.00312250614124632	0.42236328125	-0.48046875	0.585693359375	0	0	0	0.247645512542158	-0.20606355491682	0.673265741358941	0.665524419510788	0.00850210569487753	0.794088154041549	0.607743134728513	-0.998211012736088	-0.0292301167397443	0.0521572078218794	0.0591818236551303	-0.607099336094405	0.79241902290555	3.76578986841508	-37.4264952012053	89.3865716823357
5161	1651208173226	5.92423254253942	0.408912348426648	7.77955783353641	0.103705487318024	-0.0306163665660369	-0.0262902715207023	0.0259702183690807	-0.00138551381956995	-0.00324259382319527	0.4228515625	-0.487548828125	0.5947265625	0	0	0	0.247700944613308	-0.206018534541733	0.673292415918791	0.665490742331694	0.0084673721830284	0.794077768124519	0.607757189820653	-0.998201710579866	-0.0293568705921751	0.0522639373226394	0.0593434798755901	-0.607106804705249	0.792401210925904	3.77355815504535	-37.4275092658985	89.3890695307906
5162	1651208173227	5.89962443042955	0.437461948094776	7.8014630012607	0.0751936725329004	-0.0643700411411021	-0.0223876516781676	0.0228737054719861	0.00162436056238989	-0.00338338578681411	0.4248046875	-0.48583984375	0.589599609375	0	0	0	0.247665445815889	-0.206047550508655	0.673338915625744	0.665447923268341	0.00831822326666193	0.79408224920582	0.607753394608301	-0.998205683029812	-0.0294469366944707	0.0521372447133455	0.0592977362862479	-0.6070965816207	0.7924124677564	3.76438371252578	-37.4272354427291	89.399833385958
5163	1651208173229	5.92418231300139	0.440159220138482	7.80069407926907	0.073599921003304	-0.0447388261397458	-0.00793925842934762	0.022931598604409	-0.00625506102847292	-0.00751775336803918	0.424560546875	-0.480224609375	0.590087890625	0	0	0	0.247731158704539	-0.206024306109483	0.673342248498149	0.665427287302279	0.00832840335912605	0.794043331540678	0.607804101115868	-0.998197891835882	-0.0295210212112733	0.0522444067919633	0.0594273205847974	-0.607143884876084	0.792366516598024	3.77231677412949	-37.4308939812256	89.3990694885703
5164	1651208173231	5.92405586701009	0.439546501417559	7.77606733406846	0.0722454217165829	-0.0309964184824127	-0.0275618311348111	0.0229057128957306	-0.00312069506763009	-0.00616909921678415	0.4267578125	-0.487548828125	0.59033203125	0	0	0	0.247754832273658	-0.206066423137827	0.673368544323603	0.665378821315907	0.00822286554138746	0.793982432463004	0.607885088994967	-0.998198240869984	-0.0296153067988733	0.0521843417825528	0.0594361540340384	-0.607218931311713	0.792308344680468	3.76826812236993	-37.4367377297857	89.4066384485419
5165	1651208173232	5.92544587266812	0.420017917905197	7.80279300397435	0.0940726579643971	-0.0459603816634914	-0.00656987175010037	0.0168133306436906	-0.00471806374789347	-0.00601477319148489	0.424072265625	-0.482666015625	0.58935546875	0	0	0	0.247793370620258	-0.206061223464623	0.673372279613393	0.665362300336573	0.0082170904650497	0.793951847660032	0.60792511300448	-0.998194268125766	-0.0296635629501729	0.0522329025994999	0.0595036343861188	-0.607256565736693	0.792274435321828	3.77192558153056	-37.4396258643428	89.4070323080549
5166	1651208173232	5.92501552260735	0.446218756268279	7.79971692985785	0.0663455437296639	-0.0463510347449653	-0.00789497583426168	0.0228710991374689	-0.00168533175888313	-0.00778049269047812	0.4189453125	-0.4921875	0.592529296875	0	0	0	0.247797972094819	-0.20612289994895	0.673405006332551	0.665308359025037	0.00807809512578322	0.793890286225402	0.608007366580445	-0.998197632664014	-0.0297562750560964	0.0521157388774586	0.0594662132903744	-0.607332509859084	0.792219030284661	3.76375155961963	-37.4455616365185	89.4170166930239
5167	1651208173233	5.92582658655421	0.424142946506561	7.8022807341265	0.0895138993685316	-0.0468856942575048	-0.00653157862913289	0.019820721939042	-0.00333410062669688	-0.00918255162260265	0.411865234375	-0.48486328125	0.588134765625	0	0	0	0.247844886087414	-0.20609997684049	0.673402833702934	0.665300184538923	0.00810284621441737	0.793868408497892	0.608035602470981	-0.998191709628491	-0.0297969279976479	0.0522058800409798	0.0595621919691988	-0.607359113762959	0.792191423973333	3.77037371976893	-37.4475993685237	89.4152144559044
5168	1651208173234	5.92533166847213	0.450404376928441	7.79923616251038	0.0596190047332088	-0.0446155195393348	-0.00784371637773873	0.0213721750775545	-0.00152701013461149	-0.00471723575662931	0.42822265625	-0.490478515625	0.596923828125	0	0	0	0.247662201505162	-0.206166401593504	0.673460576893766	0.665289185369429	0.00789253244780508	0.793972827370069	0.60790201293427	-0.998211326950248	-0.0297714293689343	0.0518440810657919	0.0592609034675154	-0.607223856078883	0.792317697599205	3.74372369197372	-37.4379589485037	89.4304667750985
5169	1651208173235	5.92543025059312	0.452335217246653	7.79904951833085	0.0583803091535944	-0.0446725030692248	-0.00783652211564068	0.0198295394269319	-0.00163429016403979	-0.00622382277687952	0.424072265625	-0.48779296875	0.593505859375	0	0	0	0.247698821452217	-0.206142102551288	0.673471231602869	0.665272295838502	0.00788386751809772	0.793961193151977	0.607917320366551	-0.998205816566521	-0.0298364118910056	0.0519127758671737	0.0593548010334652	-0.607235878628858	0.792301454813834	3.74874672323506	-37.4390635384562	89.4310836683021
5170	1651208173235	5.95018369883455	0.427666559597009	7.77686348630767	0.0798447854351775	-0.0110577467981791	-0.0116316684122744	0.0183365233161745	-0.00308762499093503	-0.00459537198137257	0.433837890625	-0.48974609375	0.59228515625	0	0	0	0.247646978002389	-0.20621356262416	0.673530793512508	0.665209148363541	0.00766447356052569	0.793941359884191	0.607946027958306	-0.99821402231211	-0.029945511046609	0.0516917017289637	0.059245434461389	-0.607256439598131	0.792293881752271	3.73286323742458	-37.4411351328154	89.4469007808843
5171	1651208173236	5.90134710114441	0.455383577814004	7.79913421635179	0.0537153290568045	-0.0644532415115878	-0.0222467972656322	0.0229153586376087	-0.00141920016262062	-0.0032110403629685	0.415283203125	-0.47607421875	0.592529296875	0	0	0	0.247689564090177	-0.206182577521	0.673554988851446	0.665178398296985	0.00762484344024994	0.793929911799966	0.607961476503084	-0.998207002796629	-0.0300528863317077	0.0517648876257259	0.0593686898144321	-0.607266102439805	0.792277249135229	3.73821156135436	-37.4422499528911	89.4497525396637
5172	1651208173237	5.92637058852885	0.460640386840391	7.82261339615783	0.0496192093596045	-0.0593614023537152	0.0118407278360699	0.0198941752776079	-0.00289106190210702	-0.00156539048446644	0.4228515625	-0.480224609375	0.58642578125	0	0	0	0.24769492889672	-0.206205003775044	0.673594220276037	0.665129720451357	0.00750064565770275	0.793903203363286	0.607997898026161	-0.998206938356116	-0.0301639027808675	0.0517015201588518	0.0593855919598969	-0.607295515098325	0.792253437233966	3.73376031957084	-37.4448783208918	89.458696536475
5173	1651208173238	5.90256471322252	0.434441023628565	7.80135599600785	0.0745761751025525	-0.0651358441432466	-0.0208356426741823	0.0138139731768029	-0.00771437870434552	-0.00427822199703654	0.422119140625	-0.488525390625	0.5927734375	0	0	0	0.247729500028597	-0.206224595340918	0.673597595274522	0.665107352787832	0.00747539183371265	0.793853595079763	0.608062980369525	-0.998205258669384	-0.0302072510880742	0.0517086409267397	0.0594170016217658	-0.607358206959154	0.792203022184112	3.73451008260258	-37.4495752338352	89.4604852255693
5174	1651208173239	5.90433888832491	0.414367387560506	7.82787781931459	0.0942270910133419	-0.080211211107723	0.000226394912793637	0.0122918259606469	-0.00934574131899022	-0.00569574506512131	0.416015625	-0.48779296875	0.583984375	0	0	0	0.247696525744493	-0.206329199934175	0.673611396884321	0.665073212794039	0.00735189448415352	0.7937877398344	0.608150453207172	-0.998215843767743	-0.0302117657566777	0.0515012471782547	0.059254357633392	-0.60744404952099	0.792149384777263	3.71982493926722	-37.4558885059027	89.4693537575546
5175	1651208173239	5.92856620478571	0.410540480885049	7.77820095911333	0.0953166139700981	-0.031721227113643	-0.0245946381274784	0.0107696631015754	-0.0109772351807975	-0.0071130976767902	0.4267578125	-0.48779296875	0.59521484375	0	0	0	0.247734489802922	-0.206367043001955	0.673598196179934	0.665060701160319	0.00735622733153762	0.793718909083051	0.608240231556132	-0.998215845523959	-0.0302138146695488	0.0515000111456426	0.0592537902950848	-0.607533882814058	0.79208053224943	3.72005834841626	-37.4623687303799	89.4689949967314
5176	1651208173241	5.95294469958561	0.437023649292488	7.77422988338006	0.0659809620460658	-0.0114247978266956	-0.0115289529660973	0.0167761327036421	-0.00660019873339474	-0.0120186223475846	0.4208984375	-0.487060546875	0.587890625	0	0	0	0.247660191448029	-0.206470940344655	0.673613934799586	0.665040184657242	0.00722803527402627	0.793691405945192	0.608277656695379	-0.99822993640204	-0.0301826071685103	0.0512445538110229	0.0590317675227234	-0.607571364000358	0.792068360730239	3.70171376679113	-37.4650702524816	89.4782298711167
5177	1651208173241	5.92835433393909	0.435367704019734	7.75021808168756	0.0665688382757333	-0.0167373105122409	-0.0455947190511594	0.0136866005698515	-0.00188947054379999	-0.00920518731521502	0.42333984375	-0.488037109375	0.596923828125	0	0	0	0.247678611294858	-0.206467030488237	0.673608282095568	0.665040264285311	0.00724649522725268	0.793678325120224	0.608294504776492	-0.998228194678223	-0.0301856244013847	0.0512766947935928	0.0590589506880891	-0.607588301659812	0.79205334165684	3.7040990900284	-37.4662864578706	89.4768887556491
5178	1651208173241	5.90435216820733	0.439578965972139	7.77495457088312	0.0616948432812724	-0.0503269450685038	-0.040370171560431	0.0212504399907625	0.00268590962760081	-0.0110822358812738	0.4287109375	-0.4853515625	0.5908203125	0	0	0	0.247594905698522	-0.206491881695322	0.673642162149795	0.665029399981847	0.00713468033614972	0.793731009842176	0.608227079593978	-0.998236361745631	-0.0301939999074207	0.0511125078472675	0.0589343908541291	-0.607519058453732	0.79211573093213	3.69198149112316	-37.4614193832372	89.4849942144991
5179	1651208173243	5.90498577079631	0.444387333210912	7.7989632373046	0.0589510886601685	-0.0648329583593013	-0.0207270968638493	0.0168722710379185	-0.00767460157257328	-0.00431159235648944	0.425537109375	-0.487548828125	0.591552734375	0	0	0	0.247637684365833	-0.206503073228703	0.67364918154996	0.665002885878022	0.00710652188833971	0.793681413862614	0.608292126067478	-0.998233185337751	-0.0302552850420065	0.0511382969747254	0.058991567508406	-0.607580802046994	0.792064116058058	3.69407918944225	-37.4661147457978	89.4869946261254
5180	1651208173244	5.95345192848335	0.471399824298399	7.79465370569659	0.0305132330173775	-0.0259504506749764	0.0067234844774795	0.0183460044492418	-0.00138270481570575	-0.001640497926408	0.4228515625	-0.486083984375	0.5908203125	0	0	0	0.247634925212131	-0.206577168961874	0.673706904971394	0.664922418987918	0.00688975891512456	0.79361420631207	0.608382299842586	-0.998237093457701	-0.0304080999819057	0.050971096717771	0.0589511362673647	-0.607660957273999	0.792005634157759	3.68230555239692	-37.4726244038276	89.5025993893731
5181	1651208173244	5.93042145505436	0.450849958897226	7.82205677810967	0.0525883161662793	-0.0606183205944018	0.0133645555837703	0.0168748673890524	-0.0043581751668679	7.93914481276525E-05	0.421875	-0.4921875	0.58935546875	0	0	0	0.247661909154167	-0.206583565035119	0.673732394393189	0.66488455400672	0.00681578280520306	0.793582764899047	0.608424145115837	-0.998234285364933	-0.0305035210013321	0.0509690761980586	0.059007259101864	-0.607697235851625	0.791973618822988	3.68230842641487	-37.4756454128253	89.5079202769273
5182	1651208173246	5.90570730418942	0.448583756629129	7.79817660323706	0.0499142078256833	-0.0658096921135094	-0.0206833774404522	0.0168414059084078	0.000391821735815363	0.00285644147910786	0.427978515625	-0.485595703125	0.59130859375	0	0	0	0.247551007662182	-0.206686748506058	0.673811430546478	0.664813690188718	0.0065174881138047	0.793587101539697	0.608421757186993	-0.998249152992076	-0.0306066906593059	0.0506148104559278	0.0587890372373145	-0.607686385199395	0.791998173194864	3.65667079224337	-37.4754730136165	89.5294578680272
5183	1651208173246	5.93046746262471	0.42333024850935	7.77606571553214	0.073900636008165	-0.0322401342186198	-0.024411214791149	0.0153168476037725	-0.00455837962659893	-0.00294948688947716	0.416259765625	-0.483154296875	0.5966796875	0	0	0	0.247575851553638	-0.206696201531541	0.673825200439271	0.664787542943533	0.00647255905081684	0.793555222532766	0.608463815497936	-0.998247174961061	-0.0306684060390666	0.0506164652389386	0.0588275756902784	-0.607724902947045	0.791965755999847	3.65693929343977	-37.4785095188689	89.5326826889797
5184	1651208173247	5.90647209582235	0.42369208132612	7.77625779189472	0.0719054836375033	-0.0510593237066623	-0.0388275648540972	0.00772618310868974	-0.00599659655460966	0.000273669517791018	0.422119140625	-0.4892578125	0.591064453125	0	0	0	0.247501959174178	-0.206750159172038	0.673853376348391	0.664769718828374	0.00635199773242279	0.793572500144035	0.608442552045757	-0.998256777962644	-0.0306711852223646	0.0504250299820906	0.0586775713236892	-0.607702201256669	0.791994303774561	3.64301482972669	-37.4769743351836	89.5413967982695
5185	1651208173248	5.93181492831207	0.428128312717673	7.79953656869436	0.0686028994074214	-0.045893040763731	-0.00474771154446962	0.0153529719254812	-0.00599113883671537	-0.00133642319842702	0.427490234375	-0.489501953125	0.59228515625	0	0	0	0.247529764290936	-0.206766247386584	0.673870991233421	0.664736505621461	0.00629121223151463	0.793531694946504	0.608496400781456	-0.998254896862194	-0.0307461940716781	0.050416588944098	0.0587161097085755	-0.607751693264145	0.791953469463488	3.64259394132339	-37.4808621799778	89.5457618653088
5186	1651208173249	5.93221582173427	0.429422397501116	7.79916051411413	0.0645655553413648	-0.0461633563597306	-0.00472157140058194	0.0168752860131296	-0.00435812488288694	7.91456587561982E-05	0.430419921875	-0.48193359375	0.592041015625	0	0	0	0.247472584586116	-0.206868385510674	0.673938342302617	0.664657732768434	0.00602516370121531	0.793488153178183	0.608555871032604	-0.998265169304116	-0.0308711386946637	0.0501360603749402	0.0585691826526405	-0.607802207598469	0.791925581908951	3.62250711595767	-37.4851561297299	89.5649464771287
5187	1651208173249	5.90767587784129	0.427202813991687	7.77515121511738	0.0651629775397665	-0.0514873065140147	-0.038782531738681	0.0153319625921127	-0.00446814605795982	-0.00142665616112755	0.423095703125	-0.493408203125	0.595947265625	0	0	0	0.247494788899967	-0.206880174046156	0.673957564540922	0.664626304213173	0.00596358956940152	0.793456320628406	0.608597981309732	-0.998263380640973	-0.0309449386691416	0.0501261772133106	0.0586059593446339	-0.607840010221108	0.791893846107987	3.62193968366134	-37.4881967809231	89.5693750614284
5188	1651208173250	5.93229673849873	0.429216626306251	7.77434751942668	0.0617704988496718	-0.0320848589134633	-0.0243266396126778	0.0183464621936188	-0.00138346062509948	-0.00164261998738362	0.424072265625	-0.48876953125	0.59814453125	0	0	0	0.247477003815998	-0.206923213492245	0.67401952985459	0.664556686577524	0.00576091418528096	0.793430897107336	0.608633077792522	-0.998265844687491	-0.0310943880862912	0.0499844211720975	0.0585842572550028	-0.607865569468273	0.791875832600599	3.61180598734391	-37.4907310825644	89.5839961993565
5189	1651208173251	5.90933669174405	0.408722975267555	7.80174486719887	0.0837810758456009	-0.0667614310389891	-0.0176344761620228	0.0153382326672367	-0.00608236177674204	-0.00285898598497517	0.418701171875	-0.487548828125	0.59228515625	0	0	0	0.247506008467019	-0.206939037712824	0.674031920472221	0.664528389632636	0.005714409710041	0.793389382904182	0.608687631397737	-0.99826400378541	-0.0311565080854918	0.0499825044414833	0.0586201694640164	-0.607916572482475	0.79183402088643	3.61185805797398	-37.4946705452047	89.5873326460137
5190	1651208173251	5.93382232974713	0.438066926628801	7.82222328114916	0.0539790985260076	-0.0597890879309618	0.0149694483723728	0.0229469142463521	-0.00123445558215996	-0.000172565221499306	0.4267578125	-0.490234375	0.586181640625	0	0	0	0.247419264670199	-0.206945651396395	0.674092625333947	0.664497055906621	0.00554525967701713	0.793460448095162	0.608596555530623	-0.998269811675928	-0.0312343201191098	0.0498176709933763	0.0585374511882928	-0.607819820798336	0.791914409676359	3.59961368543259	-37.4880938278559	89.5995833137982
5191	1651208173252	5.90800972632156	0.43051245043948	7.74995117448299	0.0575671643112204	-0.0362391136901205	-0.0583531675607851	0.0198236439512758	-2.38986049409795E-05	-0.00479798147727895	0.4208984375	-0.484130859375	0.5869140625	0	0	0	0.247444126872082	-0.206923938296563	0.674111112326875	0.664475805484125	0.005513383994527	0.793456822216948	0.608601572356096	-0.998265275179851	-0.0313087753721268	0.049861818606977	0.05861777006187	-0.607820723455593	0.791907775672706	3.6028253085822	-37.4884560848586	89.6018831258648
5192	1651208173253	5.93341567552744	0.438677653457384	7.79773257206245	0.0501840794306599	-0.0464255979988175	-0.00463868053447491	0.0214339760118979	-0.00116175034896921	0.00136825468821383	0.426025390625	-0.48779296875	0.598876953125	0	0	0	0.247419255648032	-0.207022113211648	0.674180574550231	0.664384007540126	0.00524479508100911	0.793387069543758	0.608694874305121	-0.998272098157791	-0.0314714703326107	0.0496222187608057	0.0585261494052007	-0.607903367679332	0.791851113151915	3.58581391099063	-37.4951935906639	89.6212438331828
5193	1651208173253	5.90849428223982	0.46396960904938	7.79516466555492	0.0249296207802003	-0.0657253993737279	-0.0205873286448455	0.0214250386425851	-0.00286818882992592	-0.00158691561745684	0.422119140625	-0.487060546875	0.59521484375	0	0	0	0.247455340432438	-0.207009450207097	0.674207733991406	0.664346952610302	0.0051820379022568	0.793364519059518	0.60872480348729	-0.998266894954434	-0.0315804281647208	0.0496576579690015	0.058620413860813	-0.607927147324738	0.791825884032844	3.58848217315385	-37.4973549608636	89.6257651159475
5194	1651208173254	5.91001016394057	0.417052220409329	7.80079386004682	0.0710727587427707	-0.0657528908371163	-0.0175271992452117	0.0168338403621361	-0.00131111466021929	-0.000102327561935779	0.42138671875	-0.48486328125	0.58984375	0	0	0	0.247394637676443	-0.207014157730937	0.674262404875395	0.664312607978759	0.00503069574119847	0.79341364819813	0.608662036727521	-0.998270418381087	-0.03166779475882	0.049531026239764	0.0585735766844609	-0.607858481579428	0.791882063495785	3.57910175003396	-37.4928222593168	89.6367168978308
5195	1651208173255	5.9103484167354	0.418439775140582	7.80046327888006	0.0696584289162396	-0.0658386829975243	-0.0175176153948264	0.0199909554446606	-0.0072729347810807	0.0017516352474608	0.43310546875	-0.487548828125	0.589599609375	0	0	0	0.247437059868914	-0.207025054961887	0.674293928117915	0.66426141429769	0.00493665024267947	0.793363534849962	0.608728125729996	-0.998266218525841	-0.0317948001865207	0.0495343076182175	0.0586531025138349	-0.607917257734531	0.79183105604291	3.57956821643099	-37.4975948842864	89.6434855384898
5196	1651208173256	5.9347770023043	0.417552694580199	7.77519807453699	0.0679185399479764	-0.0329326044723985	-0.0226957514624662	0.0184261726871683	-0.00586124987777042	0.000154467165067042	0.43212890625	-0.4912109375	0.595458984375	0	0	0	0.247473522275737	-0.207108059152112	0.67435382311683	0.664161146751601	0.00470634616392185	0.79325169517507	0.608875683869592	-0.998266738735329	-0.0319924459596885	0.0493963737155567	0.0586631795977329	-0.608052819665688	0.791726215213372	3.5700977808166	-37.5082519134325	89.6600692946924
5197	1651208173257	5.91077383818491	0.418467795022558	7.77537992130991	0.0670301108047512	-0.0527101220749459	-0.0371247720882266	0.0199182042598404	-0.00441121379731645	-0.00147824350955982	0.42626953125	-0.48486328125	0.591064453125	0	0	0	0.247509444099928	-0.207106443043728	0.674377760038425	0.664123959134645	0.00464311603066303	0.793219254723612	0.60891843083392	-0.998262457072678	-0.0320925763061977	0.0494179455790086	0.058741027167941	-0.608089862176429	0.791691992662239	3.57180683380034	-37.5113394935872	89.6646224704771
5198	1651208173258	5.93661932538888	0.399551929742267	7.80167670782233	0.086715986355337	-0.0489201574957958	-0.00150307701047048	0.0214102126615748	-0.00296133353662144	-0.00311113664484852	0.42236328125	-0.486328125	0.59130859375	0	0	0	0.247548786728777	-0.20714968538464	0.674446566036601	0.664025929912072	0.00442167481296307	0.793140709800484	0.609022383208559	-0.998259322953346	-0.0323171444989055	0.0493348386858976	0.058811333334444	-0.608180414538829	0.79161721206831	3.56615156219814	-37.5188484261974	89.6805854528816
5199	1651208173259	5.91230757780371	0.427929735474109	7.82322612883872	0.0599430169662016	-0.0826825576773602	0.00214539091415666	0.0214469782055191	-0.00439183573939248	-0.00149592129149352	0.420166015625	-0.488525390625	0.58642578125	0	0	0	0.247589815580213	-0.207143426163532	0.674471758402701	0.663986996360139	0.00435889622880437	0.793107748618136	0.609065759262117	-0.998254159348066	-0.0324257393237496	0.0493680541807767	0.0589035938458289	-0.608217617725087	0.79158176843638	3.56870570161528	-37.5219818908326	89.6851072970347
5200	1651208173260	5.91123039425427	0.420995413920513	7.75013315257414	0.0607126921306763	-0.0392235218941129	-0.0567035127131721	0.0229508031499749	-0.00617378459615086	-0.00599085966315795	0.42333984375	-0.486083984375	0.5908203125	0	0	0	0.247552161503507	-0.207209764206319	0.674503499955777	0.663948092474036	0.00421828432993904	0.793080174297585	0.609102654085028	-0.998261074353211	-0.0324740882353012	0.0491961484718093	0.0587965433379057	-0.608250993200503	0.791564081905006	3.55639022929064	-37.5246472581507	89.695254505656
5201	1651208173262	5.91298351240856	0.43183350153722	7.82250072555927	0.0546704107559337	-0.0826609807879658	0.00217635823302764	0.0198607724176668	-0.00145760926535256	-0.0031862775444337	0.421142578125	-0.491455078125	0.5869140625	0	0	0	0.247579234364036	-0.207197627457112	0.674525221429238	0.663919717694616	0.00416973766396206	0.793065529242644	0.609122056418005	-0.99825684911415	-0.0325595032648899	0.0492254196917973	0.058871695104725	-0.608265521852282	0.791547331775724	3.55857591932012	-37.5260489657555	89.6987560805557
5202	1651208173263	5.93698918135759	0.431339773994293	7.79752403382567	0.0515688853441696	-0.0486408356016469	-0.00298553218995501	0.0229178845841341	-0.00141894404213001	-0.00322210954603471	0.4208984375	-0.489013671875	0.590087890625	0	0	0	0.247523793494292	-0.207265856072357	0.674581107405615	0.663862309588519	0.00396238887601397	0.793051482020401	0.60914172927131	-0.998264405847888	-0.0326553976287814	0.049008173021137	0.0587577696271631	-0.608278695887791	0.791545673121576	3.54291834346519	-37.5274702437987	89.7137307282119
5203	1651208173264	5.91213431456868	0.429572341323783	7.77373983519444	0.052206993668209	-0.0539881638968699	-0.037041344985191	0.0213989912072209	0.00027111398185842	-0.000250834066911567	0.419921875	-0.484130859375	0.58642578125	0	0	0	0.24754654783433	-0.207247161606779	0.674616413634622	0.663823783180446	0.00388261692138808	0.793046200980676	0.609149118357697	-0.998259478597562	-0.0327731977798683	0.0490298979950488	0.0588467388728127	-0.608279245591528	0.791538641322479	3.54451629874749	-37.5280040801317	89.719492022733
5204	1651208173265	5.91272384616548	0.43423190328997	7.79779949782336	0.0470346498956996	-0.0682153779227587	-0.0173991172554313	0.0214419412821449	-0.00277488491699863	-6.49769835817736E-05	0.42333984375	-0.497802734375	0.59423828125	0	0	0	0.247487806941604	-0.207307650481278	0.674661754822177	0.6637807168391	0.00371010926438725	0.793042694919922	0.609154757942014	-0.998267158039235	-0.0328373960090065	0.0488301812777462	0.0587274745712445	-0.608280354324792	0.791546646934335	3.53007915903632	-37.5284115234676	89.7319538368879
5205	1651208173266	5.91231804683268	0.459903433857111	7.79453264312508	0.0212010034904939	-0.0678573275791321	-0.0189801609639613	0.0168933694845318	-0.00426241305792495	0.0016050006011687	0.4296875	-0.4833984375	0.58642578125	0	0	0	0.247508463204432	-0.207322017298982	0.674693096777599	0.6637366698819	0.00361361260746873	0.793009190714712	0.609198953746574	-0.998265006275167	-0.0329424283943315	0.0488034185065345	0.0587700523256765	-0.608318354033052	0.791514283570521	3.52829318135023	-37.5316046170799	89.7389143523585
5206	1651208173267	5.9391092074282	0.389001321970445	7.80256858758567	0.0898332219285227	-0.0504549013998871	0.000253122569596087	0.013820926586864	-0.00439480122289977	0.000117883238647946	0.42578125	-0.48388671875	0.59033203125	0	0	0	0.247472711149547	-0.207442591414404	0.674768043290984	0.6636361324226	0.00331131804106799	0.792928148053567	0.609306152272543	-0.998273670074409	-0.0331093100209002	0.0485124028070253	0.0586405560086366	-0.608414928822658	0.791449657007139	3.50759225625173	-37.5393501493734	89.7607305958865
5207	1651208173268	5.88884813124115	0.434357466273146	7.77316865823241	0.042332919713935	-0.0745467599664755	-0.0514374285901571	0.0169149789296855	-0.00578530696465975	0.00169822474322497	0.42236328125	-0.493408203125	0.600341796875	0	0	0	0.247498180887326	-0.207462932729661	0.67479770185293	0.663590117146629	0.00321438623442422	0.792884775141443	0.609363111018414	-0.998271568950005	-0.0332145759370632	0.0484836732459079	0.058681703683779	-0.608465714148484	0.791407564001346	3.50570618925166	-37.5434659792527	89.7677219165027
