// Start Time : 08/07/2022 06:06:06																																
// Update Rate : 100Hz																																
// Filter Profile : 46.1 human																																
// Firmware Version : 4.4.0																																
PacketCounter	Time_Of_Arrival	Acc_X	Acc_Y	Acc_Z	FreeAcc_X	FreeAcc_Y	FreeAcc_Z	Gyr_X	Gyr_Y	Gyr_Z	Mag_X	Mag_Y	Mag_Z	VelInc_X	VelInc_Y	VelInc_Z	OriInc_q0	OriInc_q1	OriInc_q2	OriInc_q3	Mat[1][1]	Mat[2][1]	Mat[3][1]	Mat[1][2]	Mat[2][2]	Mat[3][2]	Mat[1][3]	Mat[2][3]	Mat[3][3]	Euler_X	Euler_Y	Euler_Z
55085	1657260401246	9.65305931193797	0.452438998252275	1.88761325451615	-3.46944695195361E-16	1.38777878078145E-15	0.0335981769745359	0.00436024574286522	-0.00363174278842828	-0.000151095375567648	0.635986328125	0.4716796875	-0.076416015625	0	0	0	-0.336685232941162	-0.539239810641546	-0.439025411825235	0.634917449996696	0.0329542287819041	-0.194381627405662	0.980372277113402	0.92059795243365	0.387799483382075	0.0459453007778406	-0.389118784923525	0.901014618980026	0.19172696107725	13.4761867103762	-78.6293442806803	-80.3779254836324
55086	1657260401247	9.67552326521432	0.446427556714849	1.87963985368667	-0.00037503122272322	-0.00769058328737374	0.0538234043677566	0.0061787050209609	-0.00358893950432717	0.00108702196159117	0.632568359375	0.466064453125	-0.077392578125	0	0	0	-0.335621117123958	-0.540158722992362	-0.437300770642963	0.635889185087148	0.0339931799406611	-0.193572313294376	0.980496926687374	0.918727009434166	0.392253003471073	0.0455879743361739	-0.393427434037937	0.899259329000142	0.191174039431453	13.4124480411115	-78.665626127121	-80.0398616396213
55087	1657260401247	9.68487524740912	0.45379603897337	1.90047030621551	-0.0016743965766227	0.0126182036607227	0.0673108529822208	0.00598377970557556	-0.00663048116557582	0.00167576838859189	0.64501953125	0.46533203125	-0.07080078125	0	0	0	-0.335621115150703	-0.540190075132208	-0.43726815457511	0.635884982357765	0.0339824874462742	-0.193506114696785	0.980510364107345	0.918702896333641	0.392310056118952	0.0455829807727043	-0.39348466147379	0.899248688318698	0.191106299587315	13.4156138354454	-78.6695442134329	-80.0395937580126
55088	1657260401248	9.68184722114128	0.491124899264852	1.85992579203967	0.0484165138563761	-0.00759183017393708	0.0582949221463309	0.00913353968333768	-0.0141486231947195	0.00562394482195143	0.6416015625	0.466796875	-0.076171875	0	0	0	-0.335641396565861	-0.540238722790006	-0.437201079780719	0.635879069594301	0.0339946764735914	-0.193361072880786	0.980538554808452	0.918666990465565	0.392400137499783	0.0455312279550317	-0.393567430817639	0.899240583817558	0.190973950619082	13.4098838837881	-78.6777684136063	-80.0287686172317
55089	1657260401248	9.6859254355345	0.470171990868812	1.80862869434423	0.0491936668188477	-0.0617590889743023	0.0515468590401795	0.00729962328765537	-0.00554666484373877	-0.000350047616138416	0.642333984375	0.46728515625	-0.0810546875	0	0	0	-0.335629367323715	-0.540272901716533	-0.437173166111438	0.635875571391748	0.0339696290057971	-0.193312569225965	0.98054898647873	0.918638377967035	0.392465101243969	0.0455485985696253	-0.393636373867182	0.899222661460896	0.190916238921361	13.4187234876043	-78.6808131866552	-80.0335182557328
55090	1657260401249	9.71143216338283	0.486379483880008	1.79139562296871	0.0716610066441024	-0.0752223169693443	0.0740099733763753	0.000510887060224927	-0.00536362890984672	0.00563202212905851	0.6416015625	0.45947265625	-0.078125	0	0	0	-0.335654695682175	-0.540282720628213	-0.437144824394682	0.63587334396248	0.0339979685910387	-0.193240618217873	0.980562186504486	0.918634346917075	0.392480655542899	0.0454958425447356	-0.393643334499546	0.899231337585269	0.190861014114165	13.4074809216413	-78.6846671401976	-80.0217311927182
55091	1657260401249	9.6830915555818	0.447135472546327	1.81693786125013	0.02485931508221	-0.0618131128100531	0.0493112461182896	-0.00273649996012228	0.000633650796575479	0.00197814954717449	0.643310546875	0.468017578125	-0.081787109375	0	0	0	-0.335667354790817	-0.540271404824751	-0.437146990917075	0.635874786721861	0.0340186349216746	-0.193238552577711	0.980561876821517	0.918644445884283	0.392459870519765	0.0454712225211563	-0.393617980437918	0.899240853069566	0.190868472112852	13.3999825277274	-78.6845767085812	-80.0156831359102
55092	1657260401250	9.67980047645496	0.484449953787117	1.77773821470863	0.0747188651179948	-0.0819085104385143	0.0402964623290654	-0.00396233143751001	0.00539281758237562	0.00134129605847909	0.642333984375	0.4677734375	-0.08203125	0	0	0	-0.33567275741152	-0.540246971127144	-0.437161547722221	0.635882686753466	0.0340459827621179	-0.193274538058879	0.980553835337912	0.918659299984759	0.392427162249719	0.0454534143948062	-0.39358094670509	0.899247393805932	0.190914020239388	13.3918431855343	-78.6822287362655	-80.0096413080454
55093	1657260401250	9.70208483709248	0.478332664348755	1.77072559299693	0.0728976946689873	-0.0954581185853009	0.0605236196628436	-0.00446527122351915	0.00643407955390788	-0.00192239677790827	0.643798828125	0.46923828125	-0.08642578125	0	0	0	-0.335667697588838	-0.540219980351932	-0.437190519916598	0.635888369856708	0.0340536442472266	-0.193339940060703	0.980540675796169	0.918677528045585	0.392383292180926	0.045463738092149	-0.393537734883882	0.899252478225433	0.190979139247933	13.3903724733055	-78.6783874173969	-80.0107505858842
55094	1657260401251	9.67955708835689	0.484550377320981	1.77903561289387	0.074571167370333	-0.081732976949235	0.0402990389270279	-0.00284926665380411	0.00775784110751447	-0.00246354050459653	0.6455078125	0.46728515625	-0.078369140625	0	0	0	-0.335655534974143	-0.540201878887473	-0.437216776899072	0.635892114973643	0.0340468400888613	-0.193401900624596	0.980528692856439	0.918688903232645	0.392353703678418	0.0454892326493734	-0.393511768257525	0.899252064798643	0.191034583775331	13.3938623996423	-78.674890671607	-80.0158415793612
55095	1657260401252	9.7041005834732	0.484221640951833	1.85326783424386	0.0463616694735254	-0.0208760209048926	0.0785236357713064	-0.001258351559765	0.0147993539888713	0.00229730040426091	0.638427734375	0.46826171875	-0.0830078125	0	0	0	-0.335633387326364	-0.540148217084298	-0.437237707706019	0.635934996562127	0.0341261810812818	-0.193525968777121	0.980501454957454	0.918693071810316	0.392346832543635	0.0454643024878105	-0.393495163340712	0.899228370549914	0.191180265784972	13.3769521526968	-78.6669463319102	-79.9993305980905
55096	1657260401252	9.66917664538362	0.460556105594363	1.84999136599672	0.0249362640000935	-0.0274576791833618	0.0425742307478512	-0.00609525084926841	0.013755002490031	-0.0061174349048742	0.6474609375	0.4609375	-0.073486328125	0	0	0	-0.335608985646843	-0.540114510529637	-0.437293899372809	0.635937866335817	0.0341007221733091	-0.193648932633642	0.980478062802585	0.918718064681613	0.392281308648841	0.0455246363239193	-0.39343901481034	0.899230485345445	0.191285848536856	13.3869380227348	-78.6601280451363	-80.012858700857
55097	1657260401253	9.68508742211118	0.469834152898277	1.81319843596696	0.0487252853605733	-0.0612454618370839	0.0515523861730447	-0.00387203808731323	0.011235429591376	-0.001321042720888	0.64306640625	0.4716796875	-0.074951171875	0	0	0	-0.335593163466049	-0.540072535190473	-0.437327409332713	0.635958821319528	0.0341327875585467	-0.19375514636851	0.980455963350318	0.918733748711309	0.392243931362375	0.0455301799716794	-0.393399608276811	0.89922391069472	0.19139777073557	13.3809620581541	-78.6536902667376	-80.0090263919861
55098	1657260401253	9.66572203434307	0.438546227604843	1.86127594697854	0.000329655254389763	-0.0272059627444324	0.0403382162797961	0.000285918312543795	0.00888456924338037	-0.00325050762393124	0.644287109375	0.46826171875	-0.08349609375	0	0	0	-0.335567896549396	-0.540067038752106	-0.437348090677449	0.635962599560489	0.0341084824686422	-0.193815736940685	0.980444833500501	0.918732377699505	0.392241668772408	0.0455773128349172	-0.393404918106397	0.899211840109313	0.191443560917892	13.39122679916	-78.6504494012899	-80.019055941235
55099	1657260401253	9.6909764296406	0.455018097540649	1.84538299045936	0.0228182877708627	-0.0406835736792351	0.0628039241043225	-0.00386506717555217	0.00691271370015311	0.00104647276796893	0.6416015625	0.469970703125	-0.076904296875	0	0	0	-0.335567896062955	-0.54003484968148	-0.437366798085391	0.635977068921449	0.0341452901240702	-0.193873791963235	0.980432074114337	0.918747225196388	0.392208942128831	0.045559652194917	-0.393367049149114	0.899213600043939	0.191513096522768	13.3815391860194	-78.6467351596472	-80.0114337447733
55100	1657260401255	9.65622456603502	0.431287333413019	1.84122870041161	0.00131862802182653	-0.047132700677141	0.0268543708606597	0.00151168731802686	0.00412567907688257	-0.0026137588864732	0.636474609375	0.47119140625	-0.0869140625	0	0	0	-0.335552483879443	-0.540047987504279	-0.437372750307931	0.63596995136798	0.0341064969613094	-0.193882966243718	0.980431610192963	0.91874074072834	0.392219215700824	0.0456019534775902	-0.393385559204923	0.899207140894448	0.191505403509829	13.3940348389202	-78.6466001352981	-80.02301643507
55101	1657260401255	9.64299680293028	0.444988169507177	1.87048026971407	0.00184127893563622	-0.0132750002585884	0.0201107458544385	0.00475068685626513	0.00245102430322838	-0.00132720395242104	0.64697265625	0.466552734375	-0.081298828125	0	0	0	-0.335528433531062	-0.540052809766883	-0.437368254561352	0.635981637201141	0.034103945129704	-0.193910210621207	0.980426310919607	0.918722503761729	0.392259360388297	0.0456240645881527	-0.393428369602867	0.899183754526628	0.191527265910175	13.3988205858239	-78.6450578938327	-80.0251214219242
55102	1657260401256	9.65616447716418	0.431716347063243	1.84144327681467	0.00101293727671256	-0.0466913207419727	0.0268565114468267	0.00587863854605217	-0.00382845651473106	-0.000396202264841732	0.645263671875	0.46630859375	-0.083984375	0	0	0	-0.335524521732168	-0.540098186468577	-0.437340326292094	0.635964372656581	0.0340547759441571	-0.19383336108899	0.980443216287582	0.918698103902114	0.392313468630248	0.0456501502512764	-0.393489601034201	0.899176718148467	0.191434488579507	13.4124674048156	-78.6499785662123	-80.035344394453
55103	1657260401257	9.66851653327635	0.461694978588346	1.85315478099507	0.0240230180367923	-0.0263096470412144	0.0425796308306037	0.010538616122457	-0.00722057156425523	0.000938600948316974	0.640380859375	0.46875	-0.07568359375	0	0	0	-0.335509334155606	-0.540142616739194	-0.437296767566248	0.635964603852061	0.034034981316493	-0.193764751719644	0.980457465185416	0.91865631048458	0.392410047541145	0.0456611190797717	-0.393588875927212	0.899149362219527	0.191358880553195	13.4206825746323	-78.6541276512633	-80.0375647447915
55104	1657260401259	9.68186658171231	0.448537939622586	1.8231096519061	0.0231731762604577	-0.0596476682997608	0.0493286870924479	0.0122861056446239	-0.0144163435605137	-0.00283013584172026	0.636474609375	0.465576171875	-0.086181640625	0	0	0	-0.335503657181173	-0.540242110150167	-0.43723975647808	0.635922285970183	0.0339197155509686	-0.193594603475863	0.980495070054901	0.918607418350483	0.392517382746095	0.0457221521105106	-0.393712920601297	0.899139162614541	0.191151516877106	13.4520192479879	-78.6650848748547	-80.0620788725668
55105	1657260401260	9.74303739886678	0.445694694312436	1.76863425381614	0.0433120631687133	-0.120524564399226	0.0987750143236194	0.0118625687648011	-0.0104589284867694	0.00128125082723202	0.638671875	0.467041015625	-0.086669921875	0	0	0	-0.335492264559707	-0.540299148149796	-0.437186092930356	0.635916732817666	0.0338903013137905	-0.193495534194274	0.980515642773604	0.918560273204096	0.392626521137779	0.0457322576575996	-0.393825433368741	0.899112836715236	0.191043541858409	13.4622121033597	-78.6710837341406	-80.0655425614254
55106	1657260401261	9.75930800941862	0.454653926115552	1.72997813490525	0.0666904106225134	-0.153562714895925	0.107776248198789	0.00505783648681825	-0.0016314498706282	0.00252471783756038	0.65185546875	0.469970703125	-0.087158203125	0	0	0	-0.335501547480142	-0.540340758679269	-0.437148241073262	0.635902501547915	0.0338665596729315	-0.193396998684539	0.980535902981493	0.918537641498493	0.392680253929968	0.0457254778420308	-0.393880257548288	0.899110571105305	0.190941152296685	13.4672439945908	-78.6769945329857	-80.067406166108
55107	1657260401261	9.71447038561016	0.466815449994978	1.74543315084665	0.0703409588465048	-0.126475001554074	0.0673148950787539	0.00200626136633919	0.00740630126244012	-0.00171982627346259	0.63720703125	0.467529296875	-0.08154296875	0	0	0	-0.335474332778424	-0.540324488537241	-0.437160708904584	0.635922112938277	0.0338799233540215	-0.193470328848648	0.980520975119208	0.918530317952144	0.392694973273826	0.0457461798208664	-0.393896186572375	0.899088365968922	0.191012838267681	13.468246841311	-78.672639120071	-80.0672560246975
55108	1657260401262	9.698136144236	0.458077026259165	1.78436392607007	0.0459639717872074	-0.0915622021764831	0.0583377834333056	0.00715446830214623	0.0116173558898943	-0.00185824286062207	0.633544921875	0.46923828125	-0.078369140625	0	0	0	-0.335444277433949	-0.540350340108303	-0.437145762010737	0.635926276731596	0.0338501854017882	-0.193470094851332	0.980522048373458	0.918499812446605	0.392761438985737	0.0457880615598264	-0.39396987128944	0.899059383157793	0.190997293363316	13.4811846081236	-78.6729522018865	-80.0757892735456
55109	1657260401262	9.71644525684572	0.473329921574103	1.82789201447319	0.0433584583823083	-0.050933574131657	0.0852954941318256	0.00929932937466056	0.00618149489422973	-0.00443573759004809	0.647705078125	0.461181640625	-0.075439453125	0	0	0	-0.335389215803087	-0.540358450735856	-0.437145104474702	0.635948878664895	0.033833804704294	-0.193543083919332	0.980508209208993	0.91846467209881	0.392836463113584	0.0458493113888853	-0.394053194081278	0.899010894213971	0.191053637282672	13.4947233587444	-78.668915797608	-80.0841629454782
55110	1657260401264	9.67867686895514	0.427621090090907	1.83278646086672	-0.00278252374654123	-0.056601279844469	0.0471067769304998	0.0110202186553237	0.00470398362262076	-0.00290241016362509	0.64013671875	0.475341796875	-0.08251953125	0	0	0	-0.335362561820615	-0.540420568901993	-0.437110087006559	0.635934220398524	0.0337607610895281	-0.193472871922642	0.980524583496335	0.918420177712747	0.392933447932465	0.0459095051812805	-0.394163149191729	0.898983622390258	0.190955121673521	13.5185059554192	-78.6736917631528	-80.1016267722621
55111	1657260401266	9.69073563757399	0.458058677370533	1.84589522981499	0.0202251019818415	-0.0362144928385072	0.0628269752436452	0.0116057793946077	0.0138271275189712	-0.00467151313189147	0.63037109375	0.466796875	-0.088623046875	0	0	0	-0.335282822858316	-0.540409756497087	-0.437116786840259	0.635980847542885	0.0337724194904141	-0.193615591822745	0.98049601033604	0.918376026456818	0.393028686717213	0.0459774449782616	-0.394265009493805	0.898911260370272	0.191085447557838	13.5288820390544	-78.6653589858521	-80.1054308234326
55112	1657260401265	9.68116386538987	0.451136397001996	1.82619766582174	0.020799404801594	-0.0552321259594861	0.0493596968012611	0.0065211683371254	0.0211770168784919	-0.00189777573591806	0.643798828125	0.469970703125	-0.07275390625	0	0	0	-0.33523626587001	-0.540412260561497	-0.437117464418192	0.636002796362529	0.0337658218708473	-0.193684282895723	0.980482670847658	0.91834743593975	0.393089936692286	0.0460248690833731	-0.394332164775172	0.898869679225206	0.19114246936069	13.5384316783446	-78.6614708665397	-80.1107647953409
55113	1657260401265	9.65448368265006	0.478432069290397	1.88575983369674	0.0218474645599971	0.0124756293727546	0.0358358494040907	0.00735027546081261	0.0146574791113075	-0.00244822753877381	0.634033203125	0.465087890625	-0.08642578125	0	0	0	-0.335174206602682	-0.540385853797457	-0.437129998235281	0.636049325828335	0.0338009873168347	-0.193825681742032	0.980453516671568	0.918319280965535	0.393151231742172	0.0460630783443394	-0.394394715308599	0.898812390923072	0.191282760487713	13.5396855512504	-78.6529777478259	-80.1077482873367
55114	1657260401267	9.66738882525163	0.46526782331164	1.85813780220662	0.0206447819200232	-0.0200470190850587	0.0426020154310187	0.00907091057501366	0.0131802745757188	-0.000914121804175416	0.63720703125	0.465087890625	-0.08544921875	0	0	0	-0.335142488406446	-0.540416365826283	-0.437106078959473	0.636056553891652	0.033776854567577	-0.193815401298932	0.980456380628356	0.918281343773286	0.393235576402821	0.0460994048667552	-0.394485104628107	0.898777709820663	0.191259328023697	13.5515686224512	-78.6538117903654	-80.114157645035
55115	1657260401267	9.6579917031484	0.45799237742568	1.83764727024657	0.0219493466064176	-0.0403674154812947	0.0291314193275927	0.0104007247083566	0.00562152527608088	0.00180033791303416	0.641845703125	0.46826171875	-0.084228515625	0	0	0	-0.335101961804577	-0.540418200922742	-0.4370817310264	0.636093077866059	0.033815457028785	-0.193858928486993	0.980446444591345	0.918239725783437	0.393332471195379	0.0461017689085136	-0.394578662447797	0.898725922041426	0.1913096866123	13.548802094429	-78.6509184731554	-80.1052609476657
55116	1657260401267	9.65397031855851	0.479072563414005	1.8882237618165	0.0204008591560903	0.0152194243807587	0.0358350943214667	0.0126444830197409	0.00170563298387205	-0.00106978843403903	0.642333984375	0.4716796875	-0.080078125	0	0	0	-0.335083645172132	-0.540498512949667	-0.437027882120743	0.636071488502993	0.033735975496514	-0.193737527137121	0.980473178896848	0.918186374854286	0.393451161974429	0.0461515348923135	-0.394709595765346	0.898700146722902	0.191160616474711	13.5730731894363	-78.6587050069979	-80.1219957370694
55117	1657260401268	9.69877070337311	0.467170103082695	1.87305728121635	0.0167350404444181	-0.0118412657170157	0.0763128079589048	0.0127484532922846	-0.00109465112854896	0.00100540885241039	0.643798828125	0.465576171875	-0.081787109375	0	0	0	-0.335048195503104	-0.540528215901726	-0.436988390751739	0.6360920537567	0.0337407883246043	-0.193723679169447	0.980475749487098	0.918135692594988	0.393567706076639	0.046166120875517	-0.394827062378397	0.898652100015699	0.191143909008421	13.5783469449668	-78.6594539855561	-80.1199219966423
55118	1657260401269	9.70876831355259	0.491265122250404	1.8044540200593	0.0653658031218037	-0.0645077989577823	0.074129312432559	0.00637428296122481	-0.000547382794818369	0.000502735391019975	0.6455078125	0.46435546875	-0.084716796875	0	0	0	-0.335055941348954	-0.540598711353297	-0.436942877799968	0.636059329771841	0.0336679096460746	-0.193581567755033	0.980506322511776	0.918104808253075	0.393636875413297	0.0461905983663489	-0.394905093563819	0.898652428328306	0.190981098899842	13.5964311205666	-78.6683656233816	-80.133747750309
55119	1657260401269	9.67806775227295	0.446619074884437	1.74958081972659	0.044979223509427	-0.125550474506099	0.0314840609747282	0.00505095229705464	0.00269031639881891	0.000157504084027231	0.63671875	0.468505859375	-0.080322265625	0	0	0	-0.335034435136844	-0.540600923000888	-0.436933223838692	0.636075410017595	0.0336799999130311	-0.193605109262892	0.980501259189993	0.918084808751129	0.393682570356927	0.0461986767945378	-0.394950555824728	0.898627339593264	0.191005138646247	13.5970727722876	-78.6668892533018	-80.1314509231637
55120	1657260401270	9.69947007145502	0.483701491467482	1.78354552917073	0.0658052401136137	-0.0832719213124923	0.0606837376910292	0.00482678697982996	0.00537079570417142	0.00604621591820424	0.643310546875	0.47412109375	-0.088623046875	0	0	0	-0.335054820895194	-0.540646661880856	-0.436882048497057	0.636060948096165	0.0336705253962043	-0.193474679018315	0.980527329704942	0.918059760874615	0.393744685391809	0.0461670682256332	-0.395009583658914	0.898628216396784	0.190878907983953	13.5967673624673	-78.674492957397	-80.1276522940356
55121	1657260401271	9.69330988751845	0.438682074224812	1.80250928485513	0.0171869945308519	-0.0834173156369113	0.0561770269527617	0.00220323659275879	0.0104450715046132	-0.00231337769274844	0.64501953125	0.4658203125	-0.0859375	0	0	0	-0.335018783218739	-0.540622117154544	-0.436900889111989	0.636087851186554	0.0336906790729845	-0.193577567732973	0.980506330124486	0.918051823213987	0.393760055967578	0.046193811467369	-0.395026313094551	0.898599323166335	0.190980282667949	13.5973977566266	-78.6683678432484	-80.1270065164047
55122	1657260401271	9.70532360592977	0.468624854046896	1.81592258409553	0.0390078734587161	-0.0611126217585009	0.0719084244790178	0.0066330082467521	0.0140546051453153	0.00254392595926994	0.65185546875	0.464111328125	-0.079345703125	0	0	0	-0.335004460172068	-0.540670754909311	-0.436860757717011	0.636081618047194	0.033655626305429	-0.193503966501483	0.98052206184572	0.918012424018355	0.393849380063481	0.0462153131716693	-0.395120852608329	0.898576029488771	0.190894292901234	13.6093917086006	-78.6729561319698	-80.1333990879035
55123	1657260401271	9.68879615217234	0.459740013940787	1.85563266215812	0.0152253846538204	-0.0273341058842906	0.0628645214981614	0.00500570972153113	0.0213710304705312	-0.00165740850494741	0.638427734375	0.461669921875	-0.07763671875	0	0	0	-0.334937421703236	-0.540616619216801	-0.436888108633196	0.636144146482771	0.0337249031230094	-0.193702152809082	0.980480548968959	0.917993099090664	0.393891408155395	0.0462409840215121	-0.395159842255335	0.898514905039692	0.191101189138769	13.6024757170755	-78.6608525145225	-80.1234060799492
55124	1657260401273	9.68840898985087	0.459935125108843	1.85760469585166	0.0145061937976218	-0.0254798178813069	0.0628705624196968	0.0067259493334667	0.0198941383339129	-0.000122008749311394	0.6435546875	0.47509765625	-0.0732421875	0	0	0	-0.334918340928813	-0.540630838423287	-0.436867479472192	0.636156275481772	0.0337302038506967	-0.193697610320918	0.980481264025048	0.917966344159638	0.393953020578212	0.0462472547022226	-0.395221538302734	0.898488872125453	0.191096002910452	13.6046072731789	-78.6610608904711	-80.1216572054967
55125	1657260401275	9.68811400984183	0.460021795799551	1.8591210177637	0.0145133754863776	-0.0254769091804198	0.062870559372195	0.00775537630176559	0.0120957244933417	0.00111079296945349	0.649169921875	0.466552734375	-0.087890625	0	0	0	-0.334870446862277	-0.540607313000571	-0.436862966103468	0.636204578571894	0.0337889639551649	-0.193801613524017	0.980458688834121	0.917935263450081	0.394025065331078	0.0462504054649174	-0.395288702127528	0.898434851553705	0.191211033897123	13.5976187024519	-78.6544840309255	-80.1099937463191
55126	1657260401277	9.69492884576896	0.461622226135761	1.80080354889416	0.0385439188927595	-0.0777586361659928	0.0584879330783128	0.00735891555733768	0.0103343995046888	-7.83301127458477E-05	0.639892578125	0.46484375	-0.082763671875	0	0	0	-0.334853484274894	-0.540668825878606	-0.436821897257036	0.636189433163406	0.0337277015996251	-0.193713270050101	0.980478256337846	0.917892630787169	0.394119548291453	0.0462914679087816	-0.395392919121493	0.898412461323326	0.191100729584025	13.616805213707	-78.6601844397111	-80.1231583676495
55127	1657260401277	9.68771762151007	0.460213672194485	1.86113801466286	0.0134572667335141	-0.0236529915814965	0.06287659188677	0.00917656489004098	0.0103780929028879	0.00116185126126124	0.637939453125	0.462646484375	-0.085205078125	0	0	0	-0.334804967581506	-0.540653693851492	-0.436810557175673	0.636235612133872	0.0337802409292315	-0.193801779576863	0.980458956589007	0.917855949347944	0.39420434164525	0.0462967955113502	-0.395473578851164	0.898356169490072	0.191198434014968	13.6116138511375	-78.6545620142536	-80.112504878908
55128	1657260401278	9.6967315011183	0.46754075507029	1.88349371437634	0.0113158991705435	-0.00172057652602781	0.07632743365291	0.00825478823471514	0.0110573194640209	0.00437609295660573	0.6416015625	0.462890625	-0.080810546875	0	0	0	-0.334804723586923	-0.540688096531043	-0.436768996189206	0.636235037781947	0.0337784524750229	-0.193725620173215	0.980474069130284	0.917825334996475	0.394277282063516	0.0462826024248316	-0.395544776968425	0.898340586268432	0.191124358667045	13.6126739343685	-78.6589643838282	-80.1092079040106
55129	1657260401279	9.687275553624	0.459785653663761	1.86354333271815	0.0126385677369906	-0.0220515780680594	0.0628813792855762	-0.00228362943441632	0.0182770974237345	0.00342007861264517	0.6435546875	0.47607421875	-0.088134765625	0	0	0	-0.334781554691285	-0.540619116804341	-0.436794525473317	0.636288318060862	0.0338830261244681	-0.193875891064046	0.980440757723163	0.917833124742392	0.394263706310052	0.046243756468076	-0.395517756448767	0.898314125877348	0.191304562368362	13.5893360709758	-78.6492628171348	-80.0867316671546
55130	1657260401280	9.68998429545201	0.481771057173173	1.85620603412788	0.0358222548531807	-0.0203065235412088	0.0651516707532114	0.00135126191383024	0.0183644274569461	0.00590120130065751	0.6396484375	0.476806640625	-0.089111328125	0	0	0	-0.334777401536121	-0.5406298834199	-0.436770847090085	0.636297609382841	0.0339011125711913	-0.193851156574899	0.98044502327311	0.917813826831258	0.394310637105866	0.0462266237413803	-0.395560986250915	0.898298864832713	0.191286841148217	13.5856998487254	-78.6505046529167	-80.0803047015673
55131	1657260401280	9.65491340209777	0.457663772676094	1.85383387343076	0.0146806815893312	-0.0272074664448188	0.0291901244300821	2.28877855208445E-05	0.0302391844667613	0.000810886656207635	0.647216796875	0.4677734375	-0.0830078125	0	0	0	-0.334713674871739	-0.540532388260326	-0.436818422714184	0.636381299751129	0.0340288056381613	-0.194118987080559	0.980387606634059	0.917813315327804	0.394312842862697	0.0462179636129051	-0.395551208560695	0.898240057450321	0.191582986190888	13.5630284970741	-78.6338000921935	-80.0571497628925
55132	1657260401282	9.66357020363403	0.465014125731682	1.87795904358672	0.0120040831606339	-0.00519231088254718	0.0426353493471279	0.00134587493906098	0.027001127392139	0.00115852135367646	0.643798828125	0.470703125	-0.076904296875	0	0	0	-0.334667715662223	-0.54053487397226	-0.436821924537461	0.636400955653439	0.0340173125263627	-0.194188637435902	0.980374211992172	0.917786923468157	0.394368252673637	0.0462692597087691	-0.39561342944766	0.898200676003938	0.191639140226444	13.5736935133357	-78.6299065943113	-80.0639349434553
55133	1657260401282	9.67632629699192	0.451352241800336	1.85160645459193	0.0114747344171957	-0.0390268906645841	0.0494523969602127	0.00306486454841365	0.0255242974552026	0.00269562028977981	0.650634765625	0.46875	-0.07177734375	0	0	0	-0.334609590877513	-0.540456136551093	-0.436847359623525	0.636480927088161	0.0341430977084425	-0.194406411421187	0.980326678244149	0.917773638375597	0.394401612165477	0.046248427260733	-0.395633413125952	0.898138917717971	0.191887172314099	13.5509174605872	-78.616100291725	-80.0388775504729
55134	1657260401284	9.689099976544	0.437670707704601	1.82524648704248	0.0103056037019955	-0.0714325409212561	0.0562806365041428	0.00468315942194153	0.0268461952801929	0.00215681604616609	0.6474609375	0.47216796875	-0.083251953125	0	0	0	-0.334570945636917	-0.540431237061701	-0.436840846951584	0.636526853147769	0.0342083048851657	-0.194496679202072	0.980306499854127	0.91774703934392	0.394464713540484	0.0462380962723706	-0.395689478824435	0.898091660996131	0.191992720687158	13.5408283182258	-78.6102444184998	-80.0247743453855
55135	1657260401285	9.72626986511959	0.483606210775055	1.82365280672045	0.0557601197193291	-0.0644352138779273	0.0945144711454855	0.00577354102021892	0.0306084785856437	0.0060211974885468	0.640380859375	0.464599609375	-0.078857421875	0	0	0	-0.334502142055905	-0.540336139224267	-0.436857157615139	0.636632545074979	0.0343853609772696	-0.194747776172025	0.980250453010104	0.917722160174966	0.394528281600864	0.0461895198163365	-0.39573183303123	0.89800931993667	0.192290347216449	13.5069561600081	-78.593994898418	-79.9868541805978
55136	1657260401286	9.71342808752453	0.453303177111347	1.81488223390407	0.0318628602257665	-0.0832603300936103	0.0788250386976603	0.00342810562579472	0.0416407163443306	0.00443911282196248	0.63916015625	0.462158203125	-0.075439453125	0	0	0	-0.33444105227052	-0.540269621396536	-0.436872349860668	0.636710663236803	0.0345025722465233	-0.194945885879907	0.980206954722763	0.917699248638519	0.394583464966811	0.0461733497061225	-0.395774761141576	0.897942086525231	0.192515837504462	13.4871637690379	-78.5813992766944	-79.9634179678623
55137	1657260401286	9.68419055191188	0.473993761462397	1.79578437898732	0.0593500685981744	-0.0900284275981489	0.0474054101667214	-0.00162276285177984	0.0389509742535892	0.00427437716708613	0.645751953125	0.46142578125	-0.0830078125	0	0	0	-0.334372854117675	-0.540134687075496	-0.436928107630372	0.636822693541615	0.0346966971607961	-0.195278714919646	0.980133849382555	0.917704222621211	0.394577246383485	0.0461276101660081	-0.395746255812146	0.89787249659167	0.192898628494111	13.4485243763708	-78.5602612870212	-79.9249535778471
55138	1657260401287	9.69269245355452	0.480741735576118	1.82080282271149	0.0576018860102058	-0.0680299871444141	0.0608517885932045	-0.00921811927424451	0.0356191003620135	0.0078594824646688	0.638671875	0.4658203125	-0.07861328125	0	0	0	-0.334399658497001	-0.540032055034144	-0.436960739631148	0.636873268361679	0.0348613831131972	-0.195404159227549	0.980103004037846	0.917750298350956	0.394484360836177	0.0460052054924681	-0.395624915600833	0.897886019276527	0.193084495865375	13.4016820331785	-78.5513540843131	-79.8844831785056
55139	1657260401288	9.705433620633	0.466514370450324	1.79507983922543	0.0570869114829144	-0.101867427963591	0.0676847204697832	-0.00594564858202433	0.0282238655363582	0.00385887106231115	0.634765625	0.464599609375	-0.077392578125	0	0	0	-0.334367720404172	-0.539922299809083	-0.437011316123947	0.63694838668467	0.0350100394969721	-0.195642128371103	0.980050230723327	0.917772482701266	0.394438674262667	0.0459543495467357	-0.395560320470563	0.897854269830207	0.193364275441176	13.368726526361	-78.5361305824996	-79.854343341636
55140	1657260401289	9.70071474688833	0.486853087370825	1.84842809914143	0.0555485802593089	-0.0465157966021416	0.0742903629713396	-0.00799326517184494	0.0351783071743195	0.00613306444153055	0.636962890625	0.462646484375	-0.08154296875	0	0	0	-0.334367759725155	-0.539823800648384	-0.437069346102995	0.636992034649583	0.0351213019012689	-0.195820034375981	0.980010718456563	0.917818733852456	0.394337175906963	0.0459016719433463	-0.395443126052576	0.897860070297544	0.19357693101983	13.3398057929091	-78.5247455356692	-79.8318263905841
55141	1657260401290	9.7000296440365	0.486068034396307	1.8522262827361	0.0555622488835424	-0.0465164866312533	0.0742902829202254	-0.0136707898488652	0.0420452836619946	0.00592045572243421	0.644775390625	0.474609375	-0.0810546875	0	0	0	-0.334335689446432	-0.539649632826022	-0.437157482591986	0.637095955070314	0.0353432184091544	-0.196174263675347	0.979931893135395	0.917870791876956	0.394225964352433	0.0458159191718929	-0.395302499779161	0.897831580699761	0.193995841106237	13.2880403661863	-78.5020660697016	-79.7870159074299
55142	1657260401292	9.67069866623306	0.446441324664811	1.88194959667468	0.00747873566957127	-0.0315417462265356	0.0494830167628031	-0.0171029052022679	0.0406782617417505	0.00521409145481527	0.64208984375	0.4599609375	-0.07177734375	0	0	0	-0.334337160123693	-0.53955420290141	-0.437230723105693	0.637125749176974	0.0354211138077931	-0.196355864182088	0.979892708054265	0.917927943905531	0.394095916265793	0.0457897213355787	-0.39516279492632	0.897848975821619	0.194199850983695	13.2672535447907	-78.4908082223242	-79.7742481678594
55143	1657260401293	9.65665292282808	0.459146549897231	1.91462706111855	0.00802033590951902	0.00229682588656008	0.0426404966611287	-0.0142623216268576	0.0372425370479924	0.00532218314234287	0.643798828125	0.4736328125	-0.0810546875	0	0	0	-0.334315725625629	-0.539395242032779	-0.43731432529471	0.637214209951285	0.0356179075288638	-0.196669181107695	0.979822737981566	0.917982428064497	0.393978352982882	0.0457090707158312	-0.395018514032032	0.897831994631136	0.194571536943617	13.2202981071364	-78.4707328389639	-79.7346749875588
55144	1657260401294	9.6500089938597	0.473496543659578	1.88746709898922	0.032857465809767	-0.016522085214131	0.0315013405117419	-0.0137319147452122	0.0304848699399182	0.00328937107919199	0.64453125	0.470947265625	-0.077392578125	0	0	0	-0.334334127889861	-0.539318510968573	-0.437369067345539	0.637231930763094	0.0356876853118701	-0.196785902442231	0.979796763475506	0.918036238520376	0.393857979714839	0.0456657046185162	-0.394887140687616	0.897859231959522	0.194712469309536	13.1989700329907	-78.4632891643161	-79.7209637230351
55145	1657260401295	9.63735440624549	0.443010064013291	1.87770985491444	0.00988518869806492	-0.0369537302381803	0.0158012526317108	-0.0161457585400774	0.0213243918970686	0.00381231930212538	0.647705078125	0.474609375	-0.080078125	0	0	0	-0.334349447968142	-0.539208439933363	-0.437436037095559	0.637271071364581	0.0358079435095244	-0.196962575563761	0.97975687545886	0.918098752489692	0.393720320187063	0.0455959444322293	-0.394730885361773	0.897880868099486	0.194929409896056	13.1653545956676	-78.451867424039	-79.6961204698706
55146	1657260401296	9.63697800551565	0.44230515473246	1.87980669891722	0.00844061654524525	-0.0353292009086285	0.0158085731181892	-0.0094783668906252	0.0210143085757128	0.00582148193992865	0.640380859375	0.46142578125	-0.069580078125	0	0	0	-0.334355478467693	-0.539202982458292	-0.437441581975978	0.637268718897355	0.0358100121328722	-0.19696473069443	0.979756366600144	0.918106615458627	0.393702552753988	0.0455910364666045	-0.394712408827173	0.89788818614428	0.194933115453446	13.1637452954304	-78.451721786797	-79.6956483006003
55147	1657260401297	9.65909893893152	0.435471443210509	1.87423891045398	0.0065860224096579	-0.0488144169014201	0.0360776715733877	-0.0115926564555322	0.0164128896741804	0.00545940705943675	0.645751953125	0.469482421875	-0.080810546875	0	0	0	-0.334371339925105	-0.539115859661677	-0.437482991324082	0.637305679560504	0.0359254443267703	-0.197091005424012	0.979726746614012	0.918150574903811	0.393608878677647	0.0455145298770378	-0.394599650600107	0.897901545943139	0.195099793795883	13.1315838244379	-78.4432475572032	-79.669627682391
55148	1657260401298	9.6886294714057	0.430230452725034	1.80919579720568	0.0293288650827426	-0.115083511782035	0.052084506235758	-0.00997260710302735	0.0177344177444656	0.00492497712530601	0.646240234375	0.4638671875	-0.082763671875	0	0	0	-0.334416225157247	-0.539070141540577	-0.437504002751028	0.637306377206308	0.0359872601525026	-0.197100578355067	0.979722552113003	0.918195785670998	0.393512071856812	0.0454395035071825	-0.394488803748264	0.89794187524308	0.195138341702	13.1081855094041	-78.4420480127296	-79.6527279306787
55149	1657260401298	9.7288682705041	0.438407874949063	1.84672948303064	0.0248249433056917	-0.0878567041954881	0.0991819604051436	-0.00643132449682523	0.0249360049317471	0.00297403593718181	0.63916015625	0.468505859375	-0.077880859375	0	0	0	-0.334390388273965	-0.538971008333237	-0.43755370393779	0.637369654577751	0.0361140166931493	-0.197313456786167	0.979675036718493	0.918220355766012	0.393459648800616	0.0453969494859927	-0.394420024916617	0.89791809455918	0.195386640812482	13.0802627042912	-78.4284681127317	-79.628032193653
55150	1657260401299	9.68778038221956	0.429390909285336	1.81393600081026	0.028362831813883	-0.113272096251882	0.0521082968734703	-0.00309041717323651	0.029098472615812	0.00161202124498837	0.643798828125	0.459228515625	-0.076416015625	0	0	0	-0.334375136747621	-0.538942787835511	-0.437568863912986	0.637391111248812	0.0361483215479715	-0.197386872071471	0.979658982290831	0.918223145598044	0.393453514517817	0.0453936868034854	-0.394410387461207	0.897904646745644	0.195467878730195	13.0741058428887	-78.4238833088118	-79.6221713292405
55151	1657260401300	9.69629701797319	0.436607529884586	1.83834152303995	0.0270445726056416	-0.0929140650961377	0.0655177520183301	-0.00288831249421094	0.0321363402873139	0.0010245528257676	0.6435546875	0.469482421875	-0.07080078125	0	0	0	-0.33431702672366	-0.538831975623603	-0.43762697097525	0.637475381456605	0.036285472641185	-0.197671432528055	0.979596533904399	0.91823424850453	0.393429519835358	0.0453770624373279	-0.394371942902291	0.897852558989741	0.195784455376433	13.0490730428542	-78.4060663818019	-79.598324338222
55152	1657260401301	9.69450833258978	0.479689843175024	1.88254733919026	0.0503053646088053	-0.0371318104620322	0.074358126775973	-0.00764695288878036	0.0296893275570109	0.00233198231752031	0.641357421875	0.472412109375	-0.078369140625	0	0	0	-0.334335571191488	-0.53875196794833	-0.437664029908185	0.637507835083139	0.0363930279126575	-0.197780602531973	0.979570508325684	0.918276390270145	0.393339845521178	0.0453016224633233	-0.394263894608398	0.897867807189603	0.195932085735727	13.0186375730599	-78.3986490840561	-79.5738000124084
55153	1657260401301	9.69987217050075	0.464385928519631	1.91608070137406	0.024690834559038	-0.0168543324664157	0.085476361607153	-0.00621860565527355	0.0322897349601951	1.92467690458615E-05	0.637451171875	0.465087890625	-0.07275390625	0	0	0	-0.334285188588621	-0.538634597545734	-0.437734579262612	0.637584991302963	0.0365224168890591	-0.198070859782454	0.979507043144469	0.91830113186618	0.393283701616109	0.0452875397479655	-0.394194297622218	0.897828415983907	0.196252366034031	12.994209935153	-78.3805810678188	-79.5525427081354
55154	1657260401302	9.7036199689318	0.443193511994761	1.86903853354554	0.0244071644855993	-0.0699690064390232	0.0789491924860339	-0.00866966836429919	0.0331630933909702	0.00347070481491333	0.642333984375	0.4638671875	-0.073974609375	0	0	0	-0.334268082685236	-0.538557879862221	-0.43780051658763	0.637613493122479	0.036572235427828	-0.198249613511388	0.97946902061188	0.91834045317767	0.393191113147081	0.0452941563514636	-0.394098063498469	0.897829515712612	0.196440517872491	12.9840182797033	-78.3697696260649	-79.5478308764481
55155	1657260401303	9.69864226441329	0.463737115186298	1.9224530516986	0.0236287934642899	-0.0157839081828461	0.0854807186868722	-0.0111684836644074	0.031121425034278	-0.000454803969295255	0.65576171875	0.478271484375	-0.077880859375	0	0	0	-0.33423452522312	-0.538434266058751	-0.437884302881325	0.637677944242065	0.036691756847821	-0.198531681594454	0.979407415932051	0.918384966714477	0.393089238878024	0.0452758566031042	-0.393983207627266	0.897811796359111	0.196751646565299	12.9591195236126	-78.3522737735005	-79.528996507922
55156	1657260401304	9.67406227408758	0.463855818936664	1.85213788094701	0.0508464793675004	-0.0749355448803682	0.0475791822574258	-0.0111674932011099	0.0311204370369675	-0.000454249207750309	0.635498046875	0.45849609375	-0.0771484375	0	0	0	-0.334217568315822	-0.538399223953742	-0.437912924461408	0.637696764351776	0.0367170924713315	-0.198626351167837	0.979387271584741	0.918396268819617	0.393061775237432	0.0452850335696346	-0.393954500594493	0.897802881187708	0.196849785350135	12.9554135909176	-78.3465583588185	-79.5268099124455
55157	1657260401304	9.70182539436112	0.442491937928588	1.87849700339051	0.0233537608009187	-0.0681268361770897	0.0789645947579611	-0.01067133861115	0.0343971721446171	0.000445976454345473	0.6513671875	0.46875	-0.078369140625	0	0	0	-0.334177690458366	-0.538264649378844	-0.437997972687869	0.637772854823957	0.0368578863007746	-0.198934360126886	0.97931946604688	0.918438509666104	0.392966094242459	0.0452587310707427	-0.393842862293766	0.897776569719178	0.197192876857965	12.9263716096418	-78.3273406470334	-79.5034578162519
55158	1657260401305	9.71605991058976	0.434657714707553	1.93396696574813	-0.00418704524650614	-0.0255479885490815	0.10347643000447	-0.0107598958885608	0.0371948299858539	-0.00162624537495703	0.64306640625	0.4560546875	-0.076904296875	0	0	0	-0.33417620547131	-0.538186112246418	-0.438051422625889	0.637803201165781	0.0369333194410418	-0.199083213596304	0.979286374856321	0.918479184907762	0.392874429664464	0.0452290770080088	-0.393740925998607	0.89778369142015	0.197363944563766	12.9073644606831	-78.3179731321402	-79.490143154348
55159	1657260401306	9.64791644648894	0.452951284506385	1.95961763542953	0.00144051886892902	0.0148368093845538	0.0426327544088068	-0.00620007828614996	0.0366015421509463	-0.00233981506540497	0.638916015625	0.47705078125	-0.0693359375	0	0	0	-0.334109922445938	-0.538059077769636	-0.438136473541165	0.637886682025711	0.0370577187652012	-0.199421089273347	0.979212926095725	0.918504596253131	0.392813980552163	0.0452380740597863	-0.393669953313423	0.897735153503413	0.197725977105716	12.8869981842534	-78.2972075420755	-79.4730019509801
55160	1657260401308	9.69215191513186	0.440786502389304	1.94847191547914	-0.00288854630173981	-0.0110962173935698	0.0831962144649569	-0.0108589080595295	0.0356730887202033	-0.00133257324622704	0.641357421875	0.469482421875	-0.07568359375	0	0	0	-0.334093497391861	-0.537957160788838	-0.438226817628546	0.637919183335667	0.0371186989343387	-0.199650608644904	0.979163845664831	0.918562565824658	0.392677582623262	0.0452452071580157	-0.393528925055125	0.897743811213907	0.197967256312974	12.8737771861858	-78.2833516457559	-79.4679174399573
55161	1657260401309	9.67798966418035	0.454122192394632	1.98066521027846	-0.00233155233718054	0.0227270197107693	0.0763076670734009	-0.0042978638104286	0.0338422455599654	0.000983884121717251	0.64306640625	0.470703125	-0.06884765625	0	0	0	-0.334036052821072	-0.53783738456322	-0.438291746301725	0.638005649117387	0.0372625857799599	-0.199951066205836	0.979097069153075	0.918579374202263	0.392640521079006	0.0452255955956963	-0.393476089478344	0.897693150430567	0.198301726363827	12.8473989226976	-78.2645258725345	-79.4435382714163
55162	1657260401309	9.68179049960189	0.433161383171868	1.93388203903399	-0.00244316984602012	-0.0307091028566145	0.0698045117256818	-0.0107543953303006	0.0371897469777356	-0.00162509666027307	0.634521484375	0.470947265625	-0.07763671875	0	0	0	-0.333993067779068	-0.537741189212014	-0.43838814420358	0.638043007266843	0.0373004968931805	-0.200217320843395	0.979041213313216	0.918624638667735	0.392528931394536	0.0452748412568914	-0.393366808671112	0.897682606745032	0.198566088200752	12.8443692007209	-78.2488017178481	-79.4467762250342
55163	1657260401309	9.6540458623282	0.460016390043293	1.99513961541223	-0.00135028997268524	0.0369336835946546	0.0560223587226538	-0.0039906515693125	0.0383967014637646	0.000108157506367626	0.6435546875	0.46923828125	-0.077392578125	0	0	0	-0.33392207169726	-0.537608901466603	-0.438463118098282	0.638140120322186	0.0374535262628095	-0.200562857598925	0.97896464365279	0.91864077016139	0.392492288201883	0.0452652084866303	-0.393314592619915	0.897621492531124	0.198945438194565	12.8180499818911	-78.2272799991532	-79.4223009674906
55164	1657260401310	9.6578514985096	0.439075611591319	1.94847978470686	-0.00212652530021864	-0.0161978217723756	0.0495227605561332	-0.00752323329254417	0.0355129390320127	-0.000319119832962573	0.64599609375	0.466552734375	-0.080322265625	0	0	0	-0.333863568613367	-0.53755671970601	-0.438537711613602	0.63816343215854	0.0374348971832387	-0.200776252802288	0.97892161319666	0.918658671894864	0.392439586090906	0.0453587458067679	-0.393274551713234	0.897596829082784	0.199135781303323	12.83179000166	-78.2152022763613	-79.4384276761303
55165	1657260401311	9.65135667248787	0.454104099185277	1.92135349982477	0.0235074486730338	-0.0364968015040226	0.0384349024600628	-0.00791462334763889	0.0337539777108089	-0.00151285322319558	0.655517578125	0.466552734375	-0.072509765625	0	0	0	-0.333810528538907	-0.537434076871941	-0.438620752826143	0.638237400379833	0.0375528964140639	-0.201086031561921	0.978853506854623	0.918690644583691	0.392364732453606	0.0453587508758078	-0.39318860553851	0.897560206692169	0.19947028810676	12.8109834188396	-78.1961111938486	-79.4218407387793
55166	1657260401312	9.65655109207164	0.438933399726453	1.95494618573146	-0.00245019451636814	-0.014042988099755	0.0495259891712632	-0.00973950643466799	0.0293935612756824	-0.000398765714093814	0.649658203125	0.46826171875	-0.073974609375	0	0	0	-0.333811325113541	-0.537395479801163	-0.438609553640428	0.638277178795047	0.037655515489244	-0.201131542535428	0.978840214105734	0.918686331425241	0.392383317362573	0.0452852813613301	-0.393188868873055	0.897541884734558	0.199552195030439	12.7858385669242	-78.1923886148035	-79.3959348241807
55167	1657260401312	9.66799943956374	0.468762354278415	1.97064693975422	0.0205212724420553	0.00641754666056427	0.0652140972319284	-0.00951783731456313	0.0367478116367151	-0.00334664875922206	0.649658203125	0.47265625	-0.073486328125	0	0	0	-0.333752284973435	-0.537262855040595	-0.438706924115324	0.638352779896752	0.0377697186538011	-0.201474158135641	0.978765350815172	0.918724980140241	0.392291294016565	0.0452984713331818	-0.393087597386545	0.897505266971924	0.19991607373728	12.7669249544395	-78.1714450295862	-79.3821815418925
55168	1657260401313	9.66296063459396	0.440491877279327	1.90240086122226	0.0220053799314656	-0.0667110200009264	0.0453568029367908	-0.012180847714766	0.0345805064270342	0.000684249727068213	0.642578125	0.468994140625	-0.068603515625	0	0	0	-0.333723897451623	-0.53719380946217	-0.438736796805122	0.638405196152413	0.0378656684094057	-0.201634878086111	0.97872854617361	0.918732525208511	0.392276766797759	0.0452712420272444	-0.393060731032625	0.89747552288065	0.200102342690441	12.7480128176208	-78.1611620377993	-79.3641144136666
55169	1657260401314	9.65766006478951	0.461210393387796	1.95607746405555	0.0212070892038221	-0.0125057238958219	0.0518321314017704	-0.00961694014723054	0.0352267998920879	-0.00305259918942133	0.64453125	0.4697265625	-0.072998046875	0	0	0	-0.333669376763083	-0.537065265763711	-0.438830783947966	0.638477243431827	0.0379768867395374	-0.201962473519296	0.978656689224337	0.918771403553203	0.392184580140299	0.0452809354260058	-0.392959112486846	0.897442150999241	0.200451294641382	12.7291802458995	-78.1411109774134	-79.3504961906893
55170	1657260401315	9.67053417221464	0.447736002796969	1.93078639364788	0.0200597351393331	-0.0457361339818864	0.0587431097412221	-0.00903712465493459	0.0357027571888128	-7.75148723259721E-05	0.640869140625	0.477783203125	-0.076171875	0	0	0	-0.333627690491545	-0.536962893164743	-0.438912371466765	0.638529048418979	0.0380535630751394	-0.202225217931558	0.978599452058819	0.918807977636405	0.392096988621397	0.045297370185608	-0.392866168776323	0.897421257128761	0.200726831002853	12.7167390905982	-78.1251633199257	-79.3430339060581
55171	1657260401315	9.67560917659902	0.4324622075148	1.96472877051277	-0.00558138654160965	-0.0254464691693879	0.0698181896130325	-0.0124670512627173	0.0343381642478948	-0.000802066477494478	0.643310546875	0.470947265625	-0.07470703125	0	0	0	-0.333590121367227	-0.536827016933882	-0.439005664745352	0.638598787297283	0.0381815604227226	-0.202536590781678	0.978530069971394	0.918857349710399	0.391983314495381	0.0452797089257173	-0.392738258038185	0.897400696763575	0.201068769632137	12.6910247793973	-78.1058600521367	-79.3240724886039
55172	1657260401316	9.65241161943547	0.438465782554057	1.97538707698255	-0.005689845011091	-0.0111192983910359	0.049528381931772	-0.00780381373433192	0.0352650738568287	-0.00179768666222831	0.642822265625	0.47216796875	-0.078125	0	0	0	-0.333496900759933	-0.536797228157724	-0.439077863681176	0.638622879836667	0.0381187309347176	-0.202769915698962	0.978484196928781	0.918850763407456	0.391980893617387	0.0454340579791176	-0.392759770008923	0.897349062698764	0.201257106051408	12.7213502605097	-78.0931143355012	-79.3532217365448
55173	1657260401317	9.61563880994088	0.45788155952158	2.01460598458828	-0.00329484743918189	0.0361507247831766	0.0223258051709401	-0.00782224193811051	0.0309464829010021	0.000565001618181455	0.6357421875	0.463134765625	-0.069580078125	0	0	0	-0.333455058062134	-0.536680924742188	-0.439149035164581	0.638693536983635	0.0382434198637745	-0.203045363222941	0.978422210147943	0.918881238905926	0.391911698333593	0.0454146396659585	-0.392676342073002	0.897317001501109	0.201562618541297	12.6974413421387	-78.0759127855516	-79.3333520735633
55174	1657260401317	9.62868292179424	0.444176204231177	1.98863809863127	-0.00478023099028373	0.00312028923729751	0.0292370250153908	-0.00480169588910868	0.0262345751061315	0.00245849265069633	0.640869140625	0.469482421875	-0.072509765625	0	0	0	-0.333429256450126	-0.536628123690835	-0.439198905497846	0.638717080730322	0.0382691565470961	-0.203192653014152	0.978390626190911	0.918902718103996	0.39185850470522	0.0454390465489427	-0.392623568215488	0.897306891788567	0.201710375614341	12.6950395565224	-78.0671575244579	-79.333898130812
55175	1657260401318	9.65070521330181	0.437995695243822	1.98381059917873	-0.00669518960577115	-0.0103194513797991	0.049528620037103	0.000599332954660436	0.0234517308339309	-0.00116164384266502	0.6494140625	0.4677734375	-0.074951171875	0	0	0	-0.333372122366559	-0.536557646903479	-0.439240477739592	0.638777521750188	0.0383473885289932	-0.203407164605292	0.978342988516932	0.91890061068617	0.391861661487821	0.0454544380296082	-0.392620867343534	0.897256910613254	0.201937839156435	12.685359004152	-78.0539640394376	-79.3236072731845
55176	1657260401318	9.62776643850472	0.444150589069002	1.99307605768591	-0.00545777594517672	0.00435985719789353	0.0292362015554755	0.000291020978254897	0.0188956876999402	-0.000287291054404559	0.645263671875	0.470947265625	-0.076416015625	0	0	0	-0.333339207533881	-0.536556830472576	-0.439230698267364	0.638802108710884	0.0383663227455762	-0.203452135194253	0.978332895268212	0.918873849860731	0.391922732840497	0.045468885239869	-0.392681643728227	0.897220039994502	0.201983480787816	12.6864858362137	-78.0511705083269	-79.3207637325131
55177	1657260401318	9.62743678954408	0.444329196919976	1.99462798679799	-0.00549283514943849	0.00437139841778303	0.0292361769317822	0.00244664119173438	0.0134698140426458	-0.00285601189114896	0.6279296875	0.47021484375	-0.07421875	0	0	0	-0.333293566401451	-0.536525443346476	-0.439255777134279	0.638835040907612	0.0383896217920572	-0.20358300775283	0.97830475614349	0.918864921665097	0.391939521699125	0.0455045828863093	-0.392700258049391	0.897183019391569	0.202111694474538	12.6883300530092	-78.043385775766	-79.321138904619
55178	1657260401319	9.64975409120625	0.438459616069049	1.98832959106827	-0.00924706963015172	-0.00848444538582085	0.04952830684838	0.00373952703034774	0.00591870355667239	-0.000145401155362278	0.63916015625	0.469482421875	-0.074951171875	0	0	0	-0.333245435839861	-0.536589433983368	-0.439272537757699	0.638794878189565	0.038222833818639	-0.203578134908198	0.978312300833519	0.918842054087604	0.391974234127624	0.0456670496105787	-0.392770027643334	0.897168959988788	0.202038517658621	12.7366185622316	-78.0454725358297	-79.3662254193508
55179	1657260401320	9.65531720313489	0.423465048972086	2.019486962421	-0.0349656866961548	0.0118232306087644	0.0605815038689101	0.000514984175810114	0.00759240385975255	-0.00145684918671866	0.64453125	0.462890625	-0.075927734375	0	0	0	-0.333222061193153	-0.536571322095394	-0.439288797364493	0.63881110412159	0.0382331376297165	-0.20365031949379	0.978296874449196	0.91883992719684	0.391976820888488	0.0456876359101836	-0.392774000381765	0.897151447224064	0.202108548477976	12.7379016053903	-78.0412061880735	-79.3671084401684
55180	1657260401321	9.72021007719456	0.443125774155976	1.95895397300382	0.00874817543756335	-0.0473375615770544	0.112735936321895	0.0013567977472321	0.00540051312328956	-0.00437432291343982	0.642822265625	0.463134765625	-0.072998046875	0	0	0	-0.333215673645657	-0.536619787836335	-0.439269272501863	0.638787151072282	0.0381634190763427	-0.203578886079169	0.978314464059061	0.918819382461065	0.39201964214511	0.04573338590446	-0.392828837864877	0.897148949347423	0.202013036278715	12.7560712845833	-78.0460709212179	-79.3824170566302
55181	1657260401321	9.68546455820299	0.419753764065053	1.95439317429661	-0.0123833294329585	-0.0543436396544361	0.0767495756162368	0.00376092234361764	0.0102357404776204	-0.00250683129890449	0.639892578125	0.46435546875	-0.0712890625	0	0	0	-0.333173345931366	-0.536602749332136	-0.43928399313785	0.638813419037951	0.0381741255641174	-0.203677552308152	0.97829350954771	0.918804486031983	0.392050189867528	0.0457707884172786	-0.392862638316395	0.897113205404199	0.202106021940183	12.7604807977514	-78.0402757842968	-79.3845339802914
55182	1657260401323	9.718907123786	0.438100487300314	1.87991154811968	0.0353764341233463	-0.120841750553448	0.095253939860564	0.00556851615868623	0.0102772495484021	-0.00125271218761018	0.64501953125	0.468994140625	-0.07470703125	0	0	0	-0.333174989368694	-0.536592675535736	-0.439270609853876	0.638830226538456	0.0382192637600103	-0.203680168475399	0.97829120247883	0.91879720434315	0.392071515555549	0.045734275780709	-0.392875279406651	0.897103291522112	0.202125454041143	12.7494485401929	-78.0396379151269	-79.3724011167635
55183	1657260401325	9.6992887318621	0.466940808915904	1.87949034082498	0.0615046926199174	-0.107279321327734	0.0772786443178752	0.00123635648986358	0.0182209614401399	-0.00349686533821243	0.640869140625	0.47412109375	-0.062255859375	0	0	0	-0.333120735986909	-0.536546281301733	-0.439308118182046	0.638871693359607	0.0382529306412633	-0.203853658502627	0.97825374990973	0.918792426975716	0.392077905109779	0.045775456926167	-0.392883175294422	0.897061091698787	0.202297326553644	12.750066104286	-78.0292875394108	-79.3720990416276
55184	1657260401326	9.69258580289661	0.422188776998843	1.89918118465011	0.0121891460814828	-0.107468207227961	0.0726378154351543	0.00503547356269568	0.0170240853824577	0.000790965963268169	0.635498046875	0.46875	-0.075439453125	0	0	0	-0.333060656010482	-0.536519398316279	-0.439342202305091	0.638902155202124	0.038250729008102	-0.204006354316801	0.978222004009681	0.918780365379077	0.392098057383161	0.045844886195092	-0.392911595558388	0.897017569947612	0.202435069296411	12.7603673699041	-78.0205211568642	-79.3804701868632
55185	1657260401326	9.65121243240696	0.462839817918514	1.98726679518092	0.0137321670497797	-0.00598381412686144	0.0518514813024531	0.0110574065769434	0.0233517381863265	-0.00457394406433847	0.639404296875	0.469482421875	-0.0771484375	0	0	0	-0.332960590280367	-0.536479750445455	-0.439366066702318	0.638971190362027	0.0382938735850338	-0.204231288527358	0.978173379331246	0.91873774605449	0.392189409501368	0.0459175462071419	-0.393007039657778	0.896926445067501	0.202653445364264	12.7666078545486	-78.0071060740584	-79.3802073227004
55186	1657260401326	9.67647205131691	0.479728132885431	1.97315174200855	0.0343262703631048	-0.0181132162422076	0.0744796496743856	0.0114256296758028	0.0207915911822664	-0.00101532371438852	0.64697265625	0.476806640625	-0.071044921875	0	0	0	-0.33286588589216	-0.536532214181563	-0.439360982615704	0.638979977862859	0.0381902202007847	-0.204299200324716	0.978163250090545	0.918672283457629	0.392324457928382	0.0460733688582349	-0.39317011927124	0.896851914452929	0.202666970309313	12.8076784076371	-78.0043133741232	-79.411742768098
55187	1657260401327	9.65917317469898	0.4709100815339	2.01296230815984	0.0104663600969807	0.0156504941679035	0.0652195551136998	0.0039285726551068	0.023293005606946	-0.000142459077305084	0.641357421875	0.468994140625	-0.078125	0	0	0	-0.332800190692277	-0.536470891178193	-0.439389578300956	0.639046019058227	0.0382715627979675	-0.204505091887881	0.978117045589602	0.918655551427714	0.392361663111386	0.0460901632836117	-0.393201303802574	0.896788711298485	0.202886031987319	12.7988151168197	-77.9915825992743	-79.4001420773593
55188	1657260401327	9.66350514404471	0.45024573968337	1.96509068359886	0.00969694117788077	-0.0374184400372179	0.0587937616725522	0.00565581913419124	0.0261321931434146	-0.000957825296547076	0.640869140625	0.473876953125	-0.0693359375	0	0	0	-0.332695229510691	-0.536496254441914	-0.439383698035807	0.639083421104792	0.0382274697403521	-0.20462618483044	0.978093443919848	0.918585162843154	0.392511700322414	0.0462154055962225	-0.393370002874732	0.896695427439967	0.202971306461253	12.8272308876965	-77.9850847350445	-79.4182021305682
55189	1657260401328	9.64362851717854	0.478860455421249	1.96588516743017	0.0357828188053199	-0.023853308830566	0.040826364834361	0.00148563967153256	0.0284785844528207	0.000936099424131561	0.645751953125	0.466796875	-0.07275390625	0	0	0	-0.332628522360565	-0.536411936742362	-0.439424032295271	0.639161184736604	0.0383375079233438	-0.2048737503768	0.978037311094404	0.918577389957525	0.392529571907182	0.0462181115709604	-0.393377444886014	0.896631073287619	0.203241000465069	12.8114969180453	-77.969644488856	-79.4009652434234
55190	1657260401328	9.61740309426908	0.462526799075844	1.98448340643644	0.012631981768014	-0.00990222945542046	0.0181971200008615	-0.00130637724988675	0.0218861189248542	-0.00212875504735276	0.639892578125	0.469970703125	-0.072265625	0	0	0	-0.332576258562045	-0.536384307130249	-0.439459872282396	0.639186927243365	0.0383337914358863	-0.205016638788347	0.978007514415957	0.918571382855439	0.392536105788824	0.0462819646427444	-0.393391833968624	0.896595551780218	0.203369814610549	12.8207544875912	-77.961456355618	-79.4091886939896
55191	1657260401328	9.63149594367366	0.454806507008651	2.03838022448834	-0.0145121444472996	0.0308189335611234	0.0425851554850993	0.000372600264205519	0.0160938791622982	0.00178095596924483	0.65625	0.465576171875	-0.072509765625	0	0	0	-0.332542435363958	-0.536335847737956	-0.439480062979561	0.63923130505076	0.0384022653493786	-0.205149970444884	0.977976868664336	0.918567686363976	0.392545605851377	0.0462747543992246	-0.39339378691582	0.896560894169068	0.203518774226832	12.8097504242913	-77.9530406167616	-79.3974387488008
55192	1657260401329	9.6617924736132	0.450401770197817	1.97345847659938	0.00890196843249553	-0.0352490076161428	0.0588024955527473	-0.00543541110593523	0.0142111107836154	-0.00318315128126536	0.64306640625	0.466796875	-0.06689453125	0	0	0	-0.332546728610758	-0.53632648625268	-0.439454587973964	0.639254439595668	0.0384671305049769	-0.205139355784819	0.977976546027001	0.918553829667345	0.392584676797833	0.046218324796504	-0.39341980361208	0.896546215346276	0.203533146868274	12.7937702958126	-77.9529520469863	-79.3794000211864
55193	1657260401330	9.66639674815179	0.429775551578763	1.92455070814457	0.00962570276305912	-0.0894074027699101	0.0523895293132668	-0.00553873584685552	0.0126928195494472	-0.0028916456181078	0.657958984375	0.46923828125	-0.080078125	0	0	0	-0.332527065409569	-0.536283699916051	-0.439499245529704	0.639269862541066	0.0384804127663448	-0.205259554633211	0.97795080298812	0.918574934473492	0.392532327897843	0.0462435002148468	-0.393369225525272	0.896541625797083	0.203651087948903	12.7933404404636	-77.9458871844117	-79.3818962704564
55194	1657260401331	9.70629911109608	0.438555317968078	1.96186532321756	0.00529703919435517	-0.0601343239780394	0.09941858714995	-0.00171933997782201	0.0158126732762043	-0.000961857918265331	0.644775390625	0.471435546875	-0.07275390625	0	0	0	-0.332523552803942	-0.536289413754809	-0.439427480567645	0.639316229144184	0.0385943080329904	-0.205208517331888	0.977957025539416	0.918523962103457	0.392663152305231	0.0461452041222637	-0.393477077387262	0.896496019643237	0.203643503050335	12.7674987497411	-77.9475945136929	-79.3485984069047
55195	1657260401331	9.70038275647321	0.453588578163426	1.9328072264976	0.0308693722264278	-0.0803623145409667	0.0883984775321789	0.000268896966236542	0.0145749084537505	0.00207382159155542	0.635009765625	0.47119140625	-0.066650390625	0	0	0	-0.332494939935331	-0.536245231494144	-0.439442864828802	0.639357595691368	0.0386620405016934	-0.205324614928833	0.97792998171064	0.918519919073846	0.392674166936911	0.0461319508039433	-0.39347986592559	0.896464612310341	0.203776333234384	12.7559041518066	-77.9401760218151	-79.3362287566928
55196	1657260401332	9.71377779405512	0.440019311898542	1.90579625377967	0.0290161542351987	-0.1141702953512	0.095353729372972	0.00553023333336063	0.0202954389050652	0.00170224681518878	0.64599609375	0.47216796875	-0.077880859375	0	0	0	-0.332416483190753	-0.536227369229055	-0.439489414486488	0.639381376603277	0.0386185260880212	-0.205501061134374	0.977894638146378	0.918504326213382	0.392696672514831	0.0462506878119662	-0.393520535893731	0.896414322324463	0.203918980385557	12.7790063362615	-77.9304875708709	-79.3568930749972
55197	1657260401333	9.69963839367735	0.453433682322381	1.93657563259027	0.029431914487031	-0.0802989753473197	0.0884033687474162	0.00573809716454642	0.0233310195969401	0.00111990745321923	0.643798828125	0.469482421875	-0.076171875	0	0	0	-0.332348144354617	-0.536169037321997	-0.439508407825289	0.639452761204551	0.0387102457361639	-0.20570016068426	0.977849150313848	0.918479299141729	0.392754140789844	0.046259722659681	-0.3935699352379	0.896343477014755	0.204134948722491	12.768341817816	-77.9180296165575	-79.3422838458426
55198	1657260401334	9.6596075714711	0.450336676235448	1.98414039591845	0.00600710753858209	-0.031051331769142	0.0588187781389475	0.000850500282303388	0.0337021427858871	0.00327323855845287	0.63818359375	0.46484375	-0.0771484375	0	0	0	-0.332265741009154	-0.536185900341215	-0.439462636570072	0.639512899546052	0.0387545426683218	-0.205771638919092	0.977832356817425	0.918396460901228	0.392944136821037	0.0462908840061342	-0.393758842474259	0.89624379381646	0.204208315253837	12.7722208539889	-77.9134335044653	-79.3339890769815
55199	1657260401334	9.6556883209831	0.427578366243728	1.99664698805352	-0.0184231931950732	-0.0310825488154261	0.056478389469607	-0.00520324228484791	0.0388029772264605	0.00183570955279481	0.6474609375	0.46728515625	-0.07080078125	0	0	0	-0.332200172930242	-0.536054031729356	-0.439533666739062	0.639608689727349	0.0389124617392369	-0.206104621267166	0.977755953913711	0.918413589428948	0.392906401816065	0.0462713536023004	-0.393703313516192	0.896183822942744	0.20457824034364	12.7446777339832	-77.892544946327	-79.3084312115691
55200	1657260401335	9.67578572716283	0.464452193223093	2.0342060838597	0.00272907832392505	0.0115588896185799	0.0855143812142103	-0.000772108213105624	0.0323787587656684	0.00379734347375201	0.64111328125	0.470947265625	-0.07958984375	0	0	0	-0.332172725476491	-0.536004996193662	-0.439516303986031	0.639675967217318	0.0390481251717821	-0.206203552810761	0.977729685919778	0.91838851462942	0.392973397959957	0.0462000507853964	-0.393748371574203	0.896131688594943	0.204719849009905	12.7171623213037	-77.8853714714711	-79.2770477078455
55201	1657260401335	9.68015994827005	0.443183052070869	1.98697206212363	0.00345258450952373	-0.0425620421236138	0.0791345960527803	0.000825464138871008	0.0293840432706052	0.00563792546835612	0.64111328125	0.477783203125	-0.068603515625	0	0	0	-0.332118898909814	-0.535910753185917	-0.439542602990072	0.639764801910318	0.0392039295528306	-0.206435594142107	0.977674484365227	0.918379951190249	0.392998674287289	0.0461552517079959	-0.393752863049162	0.896067177994836	0.204993403213273	12.68882602151	-77.8703102060838	-79.2470780241016
55202	1657260401336	9.69486644872301	0.49509383434578	1.9931472946064	0.0480901739628987	-0.0210356972749209	0.0971781187871627	-0.0018600481307487	0.0243111569915404	0.00227706142507081	0.6376953125	0.46875	-0.0673828125	0	0	0	-0.332016479670448	-0.53595000425397	-0.439561435719647	0.639772142559752	0.0390866743365043	-0.206549855650469	0.977655046025991	0.918326790417528	0.393101602910652	0.0463361175598349	-0.393888484079891	0.89599569581547	0.205045300334826	12.7338113507217	-77.8650110074298	-79.2842860506539
55203	1657260401337	9.70808471277221	0.481379174726423	1.96728802869431	0.0474075325403769	-0.0547536948635074	0.10414734132733	-0.0107446682698613	0.032841352737981	0.000713917511297451	0.647216796875	0.468017578125	-0.068359375	0	0	0	-0.331978215832369	-0.535828602901738	-0.439640553914136	0.639839320360355	0.0392077833328868	-0.206831779272002	0.977590591612511	0.918365473605081	0.393013295133658	0.0463185355802633	-0.393786244828634	0.895969399550768	0.205356345050258	12.7104835515904	-77.8474560013762	-79.2661657488953
55204	1657260401336	9.63654764291418	0.476817679960673	2.00079421355915	0.0286062248155949	-0.0143735146926956	0.0408682014174086	-0.00893919155596255	0.0328820005880155	0.00197310138116368	0.637939453125	0.473876953125	-0.0703125	0	0	0	-0.331955015046318	-0.535705376128082	-0.439723484544865	0.639897550481943	0.0393260142543843	-0.207095788913306	0.977529947785355	0.918416133685269	0.392898250250641	0.0462900673642443	-0.393656284072114	0.895958871357586	0.205651235946138	12.6852996740267	-77.8309616344491	-79.2479571178017
55205	1657260401336	9.63599310350793	0.476522216649599	2.00353340116603	0.0284445389492073	-0.0142850330825013	0.0408687981591758	-0.00861247667418126	0.0231015300257141	0.000512162807635321	0.638427734375	0.470703125	-0.07568359375	0	0	0	-0.331930750717849	-0.535619923240296	-0.439781602128944	0.6399417293667	0.0394068805139165	-0.207291751578932	0.977485154616426	0.918446644461286	0.392828238313567	0.0462788986608637	-0.39357700523019	0.895944253238334	0.205866549111888	12.6695021094641	-77.8187925745635	-79.2363113878726
55206	1657260401338	9.64441085611499	0.483529053599419	2.02681465985743	0.0244841570295326	0.00689026115194835	0.0542164932726923	-0.0142941280626615	0.0113114201941675	0.00203798825099206	0.641845703125	0.46337890625	-0.0732421875	0	0	0	-0.331908989148219	-0.535660271576787	-0.439836765950238	0.639881329384852	0.0392233855454368	-0.207305750485322	0.977489566103941	0.918467587548969	0.392760084482085	0.0464414325748306	-0.393546460596879	0.89597089341861	0.205808992753781	12.7159940494661	-77.8199905216053	-79.2859754342288
55207	1657260401339	9.61469497246074	0.438596785908787	1.97221483457986	0.0041532505017542	-0.0543307669641134	0.01184258685951	-0.0130567241658723	0.010876290507546	0.000320326240685098	0.646728515625	0.48095703125	-0.0712890625	0	0	0	-0.331924668386406	-0.53560562946088	-0.439887449375787	0.639884095823653	0.0392512831429577	-0.207392523726607	0.977470039374067	0.918515407505386	0.392650092796478	0.0464257558057169	-0.393432056328467	0.895999021053721	0.205905248412778	12.7060916295759	-77.8146888840065	-79.2829136298216
55208	1657260401341	9.6263924535488	0.468167922987568	1.98627923111129	0.0255780639404124	-0.0326351241291711	0.0275462976306713	-0.0107290554611513	0.0185059125661706	0.000127268213430194	0.639892578125	0.46630859375	-0.066162109375	0	0	0	-0.331890473099577	-0.535618601086204	-0.439900080353437	0.639882291785947	0.0392012669509944	-0.207435121315892	0.977463007542535	0.918501964977628	0.392673266341557	0.0464956582154746	-0.393468424402359	0.895979004410993	0.205922856072393	12.7235479018246	-77.8127802510418	-79.2984015071807
55209	1657260401341	9.62275525799599	0.445212914515955	1.99729749564041	0.00107131261686943	-0.0326513485161474	0.0251865362143206	-0.0142310311124875	0.0228446432110795	0.0046999243600989	0.642822265625	0.4736328125	-0.076416015625	0	0	0	-0.331895072225836	-0.535516512565836	-0.439959662560383	0.639924387034348	0.0393151201781588	-0.207611251535251	0.977421040064794	0.918552417999915	0.392562312703922	0.0464358270202779	-0.393339264137063	0.895986829635634	0.206135451603064	12.6950260874423	-77.8013952362007	-79.2769348835574
55210	1657260401342	9.60806076723384	0.452367012458462	1.94748508116334	0.0268586261109207	-0.0723723249052677	0.000885184384651794	-0.0128880282879344	0.0239271897136266	0.00269242408177847	0.64697265625	0.46826171875	-0.072998046875	0	0	0	-0.331879794932634	-0.535480018917831	-0.440005025892477	0.639931659042271	0.039313453058241	-0.207716294674675	0.977398789305195	0.918576290150565	0.392502757809667	0.0464670236299899	-0.393283678255101	0.895988574725386	0.206233902110465	12.6974106572451	-77.7953632519655	-79.2826758914383
55211	1657260401342	9.60473392399629	0.43504131766122	2.03972489988347	-0.0242339975077206	0.00211492131675164	0.0158455897457461	-0.012677435381054	0.0269618327588669	0.0021125780459965	0.644287109375	0.46875	-0.07421875	0	0	0	-0.331863206167051	-0.535373069797674	-0.440075498272815	0.639981284373125	0.0394184639106977	-0.207938918334453	0.977347221280553	0.918621412088663	0.392400736424918	0.0464366590681709	-0.393167758031037	0.895981622744061	0.206484977055881	12.6744512180304	-77.7813948906603	-79.2659510270526
55212	1657260401343	9.63559375468313	0.435932540403417	2.05639282502339	-0.0281924632774171	0.0112187769785055	0.0494896145628374	-0.00750752533241113	0.016831315708108	0.0014495159819596	0.64599609375	0.47265625	-0.068359375	0	0	0	-0.331868264388334	-0.535393966436867	-0.440023852041028	0.63999669173352	0.0394646206759501	-0.207867086369417	0.977360638720014	0.918588151990973	0.392484929453701	0.046383048342392	-0.393240830454714	0.895961413541907	0.206433511589748	12.6633451231618	-77.7850277924138	-79.2500475588166
55213	1657260401343	9.6385588998479	0.457971366947466	2.04885228294736	-0.00411839987389979	0.011462933812182	0.0518553344151336	-0.000892679918148779	0.0122046260423927	0.00587149965600111	0.64404296875	0.470703125	-0.080322265625	0	0	0	-0.331856644891662	-0.535354677656298	-0.440025367014957	0.640034540268041	0.0395460909897471	-0.207940852659236	0.9773416539178	0.918584881275541	0.392497687249204	0.0463398467415144	-0.393240286058577	0.895938707334032	0.206533072705541	12.646027447036	-77.7798877854691	-79.2321060261094
55214	1657260401344	9.66929737390242	0.453141176096988	1.98361786068926	0.0175187151004169	-0.0541325448772653	0.0682109341367099	-0.00166783160776126	0.00869408928853658	0.00347380034943671	0.640380859375	0.46923828125	-0.06982421875	0	0	0	-0.331824122261715	-0.535446715562591	-0.439946077095722	0.640028918039303	0.0394885280826379	-0.207808150619472	0.977372205807993	0.918504696257372	0.392680402266655	0.0463812961100874	-0.393433322308902	0.895889431912115	0.206379133356952	12.6661110348434	-77.7881605478523	-79.2407078406028
55215	1657260401344	9.67787791586665	0.460017839346423	2.00601980952164	0.015871011643229	-0.0335842890908274	0.0815368609228599	-0.00633458534198654	0.0077662881329593	0.00444893837838195	0.64892578125	0.4755859375	-0.070556640625	0	0	0	-0.331835713342606	-0.535413104419126	-0.439958802153531	0.640042279364659	0.039538120047808	-0.207846090237982	0.977362133416202	0.918522847989582	0.392642623516067	0.0463416434702864	-0.3933859616003	0.895897188839883	0.206435733933356	12.6522731618269	-77.7854325617628	-79.2294320786549
55216	1657260401345	9.69153078844256	0.446141640407091	1.97840859954578	0.0141030356722192	-0.0666231983879793	0.0885385356020816	0.00045113342464994	0.0132875175694155	0.00386513764539052	0.637939453125	0.474609375	-0.06787109375	0	0	0	-0.331782513227296	-0.535441745934857	-0.439932988076169	0.640063642639687	0.0395222054252108	-0.207869805424634	0.977357733519847	0.918470638036946	0.392758659837905	0.0463931264988593	-0.393509443777826	0.895840822420511	0.206445001253623	12.6653256828036	-77.7842410910685	-79.2348656143654
55217	1657260401346	9.68800806803592	0.423208290247536	1.98877318834568	-0.0104474895091534	-0.0666117755229373	0.0861649893322696	-0.00552552823948853	0.0155916352790947	0.00448847425562198	0.64013671875	0.468994140625	-0.069580078125	0	0	0	-0.331774182890822	-0.53538522599112	-0.439956510180484	0.640099070853392	0.0396018578804949	-0.207977514994813	0.977331594756353	0.9184854985349	0.392728321433876	0.0463557388553693	-0.393466748065843	0.895829123661602	0.20657710271513	12.6476152813559	-77.7771651981991	-79.2191334023092
55218	1657260401347	9.69097771239449	0.445194433605811	1.98132907916068	0.0119952733907334	-0.0664551177639638	0.0885424430425985	-0.00248417805988895	0.0151980016337861	0.00403231763223258	0.655517578125	0.466796875	-0.0712890625	0	0	0	-0.331719216842265	-0.535385087271259	-0.440007141193083	0.640092872327283	0.039513048053274	-0.208095825984295	0.977310005188453	0.918485913418893	0.39271215375329	0.0464843107458275	-0.39347470806216	0.895808736004716	0.206650339010202	12.6772125580426	-77.7713238356518	-79.2487187917192
55219	1657260401348	9.64547436903256	0.456754318031776	1.99731249804195	0.0155597865190732	-0.0395266463924848	0.0479035209755896	-0.00263071131006918	0.0236943915744097	0.00727877061805536	0.643310546875	0.471435546875	-0.06201171875	0	0	0	-0.331690757226825	-0.535304828824333	-0.440028047091031	0.64016037020492	0.0396481160212104	-0.208265707012847	0.977268347066664	0.918488363092523	0.392713118687098	0.0464277209721902	-0.393455402504003	0.89576883273169	0.206859963615294	12.649858914328	-77.7600604015129	-79.2214212728058
55220	1657260401349	9.64506428213023	0.455943445128088	1.9994769338773	0.0164608356890637	-0.0387827173765218	0.0479050119841382	-0.00436195300867724	0.0208555752250667	0.0080862489702312	0.646484375	0.4638671875	-0.06689453125	0	0	0	-0.331710609518037	-0.535210830170739	-0.439995640693427	0.6402509468731	0.039906406877459	-0.208345029754825	0.977240925906499	0.918485472541187	0.392743815407906	0.0462248005905169	-0.393436037267715	0.895736927917623	0.207034877602242	12.5860356968939	-77.7526518938382	-79.1568958679557
55221	1657260401350	9.6341010065651	0.491049405753835	2.02109636708123	0.0410049044613113	-0.00471014091888919	0.0432833324586763	-0.00322847793069833	0.0189035486497485	0.00665937045445077	0.64306640625	0.464599609375	-0.072509765625	0	0	0	-0.331693306041282	-0.535145047493761	-0.440011913370662	0.640303713062945	0.0400185884695792	-0.208474463816682	0.977208734361932	0.91849058387598	0.392738133638586	0.0461714816444133	-0.393412709388071	0.89570930346984	0.207198657740609	12.5623578734546	-77.7439601757064	-79.1337299815596
55222	1657260401351	9.60256989615841	0.489005529333236	2.00792815711704	0.0450881904993455	-0.0100761132389549	0.00964005504587995	-0.00386307140645747	0.00979830186007778	0.00839683729521333	0.64501953125	0.473388671875	-0.06884765625	0	0	0	-0.331774929884336	-0.535105426687236	-0.439949809257597	0.640337210822797	0.0402126953281503	-0.208363336684291	0.977224467080227	0.918501598363833	0.392739122468896	0.0459433943613795	-0.393367198603962	0.895734727253639	0.20717515646023	12.5036292000614	-77.7482072515884	-79.0766049291256
55223	1657260401352	9.65626235893987	0.48332283554034	2.01643189847855	0.0396018252577844	-0.0162966248633094	0.0636058339537584	-0.00566512108549547	0.00975784658268279	0.00713538616975445	0.644287109375	0.464599609375	-0.073974609375	0	0	0	-0.331787266141294	-0.535062803965281	-0.43995500985472	0.640362862089168	0.0402947702330893	-0.208407648719002	0.977211636979053	0.918515748485145	0.392713598660439	0.0458786356809197	-0.393325757199599	0.895735609084838	0.207250011678595	12.4821895009676	-77.7447436334406	-79.0571189749853
55224	1657260401353	9.68926802364501	0.44046221452285	1.99072604692627	0.0120296032609704	-0.0620653789681826	0.088570891318291	-0.0102266226817249	0.0103484571903786	0.00781786943354777	0.6455078125	0.470458984375	-0.06982421875	0	0	0	-0.331818495687485	-0.535076526057036	-0.439909535832911	0.640366455606242	0.0403454230920131	-0.208310044589554	0.977230357775803	0.918503196405279	0.392752172405935	0.045799664449695	-0.393349876101178	0.895741400401654	0.207179194364856	12.4655019222715	-77.749797828635	-79.038686547394
55225	1657260401354	9.63331447473831	0.487448688367774	2.0257117808762	0.0404069832987006	-0.00119041585849508	0.0432868555117505	-0.0142942934478878	0.0142110294396389	0.00941064276055652	0.645263671875	0.46337890625	-0.070556640625	0	0	0	-0.331854763407278	-0.534997481186816	-0.439937430869898	0.640394540925558	0.0404655040867122	-0.208384133070314	0.977209596792593	0.918549983241276	0.392654945846987	0.0456948770580622	-0.39322826865125	0.895766792522715	0.207300222255324	12.4308342440715	-77.744192952885	-79.0106691100377
55226	1657260401355	9.65231730007084	0.457823320579369	2.0292585632843	0.0141334559554713	-0.0131861431437119	0.0612352519245895	-0.0127362223503398	0.0183291259950474	0.00682670000221862	0.64697265625	0.463134765625	-0.07080078125	0	0	0	-0.331902512498984	-0.534947730370063	-0.439915907935869	0.640426140873201	0.0406098394337575	-0.208366302925291	0.977207411323927	0.918568285987103	0.392629432283645	0.0455459425562702	-0.393170630795182	0.895782123459644	0.20734329593756	12.3890769563467	-77.7436030852524	-78.9715102735884
55227	1657260401356	9.64872521756049	0.434351106524908	2.03987127797014	-0.0104086906052906	-0.0131541601808942	0.0588551908423067	-0.0111464739522566	0.0153335277539224	0.00866720800291634	0.6484375	0.464111328125	-0.066162109375	0	0	0	-0.331924458247854	-0.53487350728371	-0.439938984056236	0.640460908666921	0.0407280430271798	-0.208452244700768	0.977184162883531	0.918602641245868	0.392559688648872	0.04545413450959	-0.393078127103622	0.895792695062374	0.207472970445783	12.3573821563312	-77.7373299581267	-78.9446473072212
55228	1657260401359	9.67431599674871	0.449940209139092	2.0253929905546	0.01338902034414	-0.0247437313161541	0.0815665890997259	-0.00894880208480212	0.0142290532044316	0.00374542228535483	0.640625	0.470947265625	-0.064697265625	0	0	0	-0.332010773876369	-0.53479695042623	-0.43989702787739	0.640508916963268	0.0409656533588875	-0.208399239046746	0.977185536328499	0.918632636557684	0.392518901789307	0.0451994556294017	-0.392983325722552	0.895822900412159	0.207522135689639	12.2874307002785	-77.7377004669802	-78.8789946775192
55229	1657260401359	9.6568144792195	0.440194878633388	2.06461937897035	-0.0106400604946932	0.0091001778033617	0.0721643923100004	-0.0095873631633693	0.0194513768863291	0.00608441257008591	0.638427734375	0.4638671875	-0.06689453125	0	0	0	-0.332012371534155	-0.534716988549783	-0.439930048177208	0.640552168066987	0.0410785897341019	-0.208530981379419	0.977152689844527	0.918661603251479	0.392458675718132	0.0451336522452253	-0.392903815426728	0.895818629890285	0.207691054609035	12.2604069174352	-77.7288426184857	-78.855971346674
55230	1657260401360	9.69290206084079	0.41991752843702	2.03096229933455	-0.0138209872096414	-0.0382334843890816	0.0995190383783928	-0.00615832986162163	0.0208107676590156	0.00683138891295055	0.63720703125	0.45361328125	-0.069580078125	0	0	0	-0.332009453018762	-0.53463008473547	-0.440009244173883	0.640571823173214	0.0411250750745455	-0.208710563506268	0.97711239316724	0.91871953150786	0.392323176295423	0.0451325577322061	-0.392763479241761	0.895836160256086	0.207880791203853	12.2492665681739	-77.7179842376465	-78.8530355218828
55231	1657260401360	9.66447209795784	0.440553610203533	2.00979616021102	0.0135813502952525	-0.0449584549982535	0.0682631317854749	-0.0010629500947016	0.0278060635244065	0.00470766115711551	0.63916015625	0.45849609375	-0.067626953125	0	0	0	-0.331961477323743	-0.534544360286074	-0.440038172900171	0.640648351945175	0.0412574665540622	-0.208923189451641	0.977061370827286	0.918715731594203	0.392335967927434	0.0450987005552662	-0.392758483008159	0.895780993982233	0.20812780891878	12.2262643769063	-77.7042492555357	-78.829147426727
55232	1657260401362	9.64143046445204	0.445904993477707	2.01916933545131	0.0169762033227418	-0.0297320296586849	0.047935581764051	-0.00407586030373718	0.0210856082988386	0.0095835405965521	0.644775390625	0.470458984375	-0.06494140625	0	0	0	-0.332085288850418	-0.534421525726869	-0.440022349173913	0.64069753081807	0.0415479301344744	-0.208895411763208	0.977055001750577	0.918789518718762	0.392199386313211	0.0447823812239497	-0.392555206046344	0.895847279573824	0.2082259875378	12.1375079751198	-77.70253578945	-78.7510423730642
55233	1657260401362	9.64978756352609	0.452344505335042	2.04247546709401	0.0153509400013355	-0.00911478258633219	0.0612380318896619	0.00281909941788241	0.0137934537914289	0.00811700072213547	0.63720703125	0.460693359375	-0.067138671875	0	0	0	-0.332065433733605	-0.534383558774114	-0.440005509099269	0.640751052900827	0.0416587281484112	-0.208967370026175	0.977034896323259	0.91876860292391	0.392255399363211	0.0447208670718124	-0.39259241542636	0.895805972258922	0.208333519662451	12.1152573628018	-77.697128388806	-78.7255962849902
55234	1657260401364	9.66679749547166	0.460669053921384	2.0061102869266	0.038884732019449	-0.0424521996867364	0.0706498237392949	0.00260533068258934	0.0107585564390886	0.00869445889684903	0.635986328125	0.46630859375	-0.073974609375	0	0	0	-0.332080829506817	-0.534344117153159	-0.440007289916732	0.64077474353942	0.0417398985678893	-0.209000241371121	0.977024400910415	0.918781992036355	0.392231814988395	0.0446525970198435	-0.392552457612036	0.895808630466197	0.208397374275752	12.0937100341449	-77.6943065529265	-78.7059237598461
55235	1657260401364	9.6752382002702	0.467204792688157	2.02899438545581	0.0372599740097183	-0.0218346467849129	0.083951838848078	0.00140624799153339	0.0155076471539089	0.00805475833739283	0.63916015625	0.464111328125	-0.07080078125	0	0	0	-0.332061555205406	-0.534297595170436	-0.439997330182565	0.640830361938221	0.0418568584546076	-0.209087915915881	0.977000638084881	0.918766677495095	0.392274945973563	0.0445887775798159	-0.392575847098284	0.895769284012012	0.208522406699312	12.0699038984741	-77.6879199439134	-78.6797193486609
55236	1657260401365	9.63498415991191	0.457928102277458	1.99455434317101	0.0400382762320515	-0.0474842282190385	0.0370337849795934	-0.00272630879957451	0.0221686385090734	0.00757855022842968	0.651123046875	0.459228515625	-0.064453125	0	0	0	-0.332034186947608	-0.534327958020522	-0.439973431166003	0.640835635591276	0.0418340262912671	-0.20907100859964	0.977005234176046	0.918731605018519	0.392353357132111	0.0446215316552203	-0.392660352193034	0.895738888577632	0.208493863951319	12.080114932799	-77.6891549565878	-78.6848436679714
55237	1657260401365	9.6259116963953	0.449805926023217	1.97511605046639	0.0412296127837627	-0.0677021889452997	0.0237398764141723	-0.00908822710556818	0.0227215345492165	0.00699295724138385	0.638916015625	0.4677734375	-0.0673828125	0	0	0	-0.332029612786611	-0.53423816188409	-0.440006379981529	0.64089024660626	0.041967943924519	-0.20922581469697	0.976966350570549	0.918757374801789	0.392301443616647	0.0445473184784246	-0.392585758694928	0.895725480155992	0.208691845238965	12.0495052711057	-77.6787104143254	-78.6577412196252
55238	1657260401367	9.63087385800811	0.433819605355264	2.00764895226455	0.0165149755416949	-0.0465085716675639	0.0346548649577887	-0.00816946444651977	0.0177356356433475	0.00614340199048417	0.643798828125	0.468505859375	-0.0634765625	0	0	0	-0.332091867110292	-0.534136344137795	-0.440003829487431	0.64094460580202	0.0421899918150132	-0.20927149045203	0.976947003616182	0.918800833716773	0.392223243671192	0.0443390920679668	-0.392460230535544	0.895749055488218	0.208826715340622	11.9872948426945	-77.6735168666793	-78.6017212692753
55239	1657260401367	9.66179758219328	0.434242064609195	2.02397874442182	0.0129652791031906	-0.0392365087217419	0.068288337510257	-0.00827662083194629	0.0162180488285612	0.00643204420206664	0.650390625	0.4658203125	-0.06494140625	0	0	0	-0.33209787263773	-0.534069747001701	-0.440025153440427	0.640982349731069	0.042294739354537	-0.209369859947168	0.976921397436168	0.918823567224909	0.392177734658447	0.0442704952565837	-0.392395727977543	0.895745994232669	0.208961016654068	11.9618134983115	-77.6666463866763	-78.5793927055356
55240	1657260401369	9.64223857358877	0.462069035031577	2.02362658129007	0.0397610304855219	-0.0255044243703914	0.0503296901607513	-0.00675573985694625	0.0160202419993049	0.0062066873480357	0.644287109375	0.467529296875	-0.067626953125	0	0	0	-0.332125904389005	-0.533976122328348	-0.440039432419057	0.641036022648713	0.0424695973989908	-0.209467650032145	0.976892848211501	0.918856860233891	0.3921153631002	0.0441317620531214	-0.392298870375486	0.895750437125659	0.209123768833933	11.9163872950129	-77.6589906882855	-78.5386364570532
55241	1657260401369	9.63525118613801	0.416489449307794	2.04314482525095	-0.00903694908295869	-0.0255700480928031	0.0455697791467919	-0.00529918807167703	0.0186208691273948	0.00391513132556322	0.6474609375	0.46044921875	-0.068115234375	0	0	0	-0.332110543666251	-0.533912057184239	-0.440064888985885	0.641079866678749	0.0425616173502701	-0.20959783355929	0.976860919934758	0.918869127884987	0.392090960535096	0.0440931342336807	-0.392260161816635	0.895730666458349	0.209281003958002	11.8975646076058	-77.65043440515	-78.5214064876343
55242	1657260401370	9.63827006551493	0.438401460499014	2.03583190013806	0.0157544203054517	-0.0238739290315468	0.0479535328864173	-0.00382205639055483	0.0141073606014505	0.0060444322709378	0.642822265625	0.470458984375	-0.071533203125	0	0	0	-0.332148923662417	-0.533880231937478	-0.440002865246933	0.641129058014665	0.0427387530417477	-0.20954175623369	0.97686521658975	0.91885273384439	0.392149142168775	0.0439170104058348	-0.392279304189157	0.895718316598916	0.209297980912565	11.8504538748071	-77.6515855021944	-78.4719080697338
55243	1657260401371	9.63807747507823	0.437664834475568	2.03690186412451	0.0155603500735351	-0.0236550715189181	0.0479543684985799	-0.000932660856537217	0.0078791590319567	0.00823662167963932	0.646240234375	0.461669921875	-0.066650390625	0	0	0	-0.332155066428889	-0.533853096504427	-0.439984268775807	0.641161232786321	0.0428294291649073	-0.209557690884377	0.976857827008934	0.91884573381516	0.392173710150878	0.0438440248628643	-0.392285810917357	0.895703832333938	0.209347766396512	11.8285808179709	-77.6496058590211	-78.4489612227184
55244	1657260401375	9.63801645957629	0.436860989846253	2.03736306959145	0.0149201604291486	-0.022126938271378	0.0479589054394953	-0.00164377945152885	0.00157449391518444	0.00789946903726869	0.6435546875	0.461181640625	-0.064208984375	0	0	0	-0.332182175049291	-0.533906089930258	-0.439897581395514	0.641162543819648	0.0428688100355207	-0.209383532165126	0.976893444334741	0.918799877065507	0.3922902409238	0.0437624585730183	-0.392388902787204	0.895693532037606	0.20919857942981	11.815377034187	-77.6591504956099	-78.4292689282447
55245	1657260401373	9.60153638960494	0.449919017810483	1.99211369359436	0.0437820550457359	-0.0492600669214582	0.00342702211833057	-0.00472931813067325	-0.00234594658899318	0.010704077200449	0.649658203125	0.469482421875	-0.0703125	0	0	0	-0.332229631982347	-0.533899741349754	-0.439863736663599	0.641166461215709	0.0429419187100031	-0.209297121739239	0.976908750318663	0.918806380075635	0.392286729602421	0.0436572755694264	-0.392365680902154	0.895715265365901	0.20914907563908	11.7904862662798	-77.6632543859303	-78.4054141348633
55246	1657260401374	9.65550635550547	0.443881951614637	1.99934034664705	0.0387868806950192	-0.0543188276700537	0.0574058940860276	-0.00876152521549539	-0.00849086326725297	0.0093272619467635	0.6494140625	0.466064453125	-0.07568359375	0	0	0	-0.332326979285014	-0.533923743984541	-0.439781124999035	0.641152693625639	0.0430359954082281	-0.209059175783835	0.976955558927737	0.918808235811545	0.392302681867763	0.043474493720319	-0.39235102765776	0.895763845452553	0.208968428897658	11.7523647757805	-77.6758132114147	-78.3678382591868
55247	1657260401376	9.65238837407533	0.420348617987655	2.00739182889671	0.0142998599139885	-0.0542283607006845	0.0550261967542323	-0.0106695079807841	-0.0100461621192278	0.00835085150753973	0.643310546875	0.470458984375	-0.066650390625	0	0	0	-0.33240435540993	-0.53393294209934	-0.439757418623595	0.641121182469558	0.0430580522133101	-0.208912321554122	0.976986000944979	0.918838863356756	0.392241514540042	0.0433789978745234	-0.392276875847736	0.895824891468305	0.208845915691303	11.7339540766407	-77.6839876200369	-78.3540816654862
55248	1657260401377	9.66466187407433	0.44902388403783	2.0189989645797	0.0358473604561496	-0.0317572217214596	0.0707014588587871	-0.012514085533066	-0.0144003453379084	0.00944036742481274	0.638916015625	0.4677734375	-0.0732421875	0	0	0	-0.332473167998087	-0.534058780665443	-0.439636222391336	0.641063805963908	0.0430024215112305	-0.2085493105215	0.977066004333984	0.918790169341641	0.392363169045583	0.0433101408178951	-0.392397013833348	0.89585619864882	0.208485622710912	11.735529180828	-77.7054959507736	-78.349024955729
55249	1657260401378	9.65291726388898	0.41811772419624	2.00531346026671	0.0127826200668778	-0.0520971331519591	0.0550397609022859	-0.0150137239665756	-0.00641856298426515	0.00845192586042577	0.6474609375	0.46826171875	-0.06640625	0	0	0	-0.332556706504465	-0.534047402816067	-0.439629296427893	0.641034702825543	0.0430389065354584	-0.208433179982565	0.977089178123771	0.918837361573663	0.392264237362439	0.0432049888648804	-0.392282494512032	0.895926546971804	0.208398817008633	11.7125661724779	-77.711732979236	-78.3330916277521
55250	1657260401379	9.66368158572982	0.380873316326427	1.98501023315515	-0.0136576930565891	-0.0848418655375528	0.0597331605961298	-0.0158023364954711	-0.00703231122816623	0.013435105483429	0.64599609375	0.464599609375	-0.072021484375	0	0	0	-0.33262716083513	-0.534115156484571	-0.439572587408782	0.640980586201308	0.0429938800244228	-0.208192573389666	0.977142455666437	0.918837405631562	0.392270224547019	0.0431496575431818	-0.392287328743496	0.895979867697495	0.208160342976447	11.7110114508543	-77.7260840110992	-78.3318627243972
55251	1657260401380	9.65859888491439	0.394573903085008	1.95367614392081	0.0118641640960031	-0.104868840901472	0.0488507013558337	-0.0132577802548705	-0.0106984895112317	0.0120696103815628	0.652099609375	0.46826171875	-0.06982421875	0	0	0	-0.332723926430244	-0.534116000978532	-0.439542129299789	0.640950546337352	0.043045628138617	-0.208023189796371	0.977176251453696	0.91887588185556	0.3921950107029	0.0430138038764367	-0.392191519085153	0.896052133576332	0.208029772559085	11.6822804772375	-77.7351959373715	-78.3089543122219
55252	1657260401381	9.64156688528418	0.384034408194711	1.99028993024478	-0.0121535191430473	-0.0690944212315685	0.0394000542533739	-0.0146693460879237	-0.00898347389995103	0.0120079522638347	0.64306640625	0.468994140625	-0.066650390625	0	0	0	-0.332828082591422	-0.534185089150246	-0.439400884140934	0.640935738576206	0.0431463070914191	-0.207671862474206	0.977246536817024	0.918839058357423	0.392304660909366	0.0427999750657717	-0.392266721786613	0.896085626804314	0.207743515936123	11.6413732243878	-77.7541674615587	-78.2630917530123
55253	1657260401382	9.66769210144074	0.399076828616647	1.97373417218637	0.0100195518632875	-0.0820077704118162	0.0621459861254401	-0.0132120808333883	-0.00638202075272458	0.00971735665643027	0.6474609375	0.470458984375	-0.06103515625	0	0	0	-0.332909147747889	-0.534176568806807	-0.43938421301411	0.640912167178571	0.0431938133835158	-0.207548843837118	0.977270572516775	0.918877908910579	0.392226025399491	0.0426864558781723	-0.392170476963158	0.896148549304854	0.207653785367123	11.6162172394061	-77.7606618558871	-78.2437574946283
55254	1657260401383	9.64524568941871	0.404074645214677	1.98030180600183	0.0111905528209144	-0.0692494048370365	0.04178954778072	-0.0147953325006973	-0.00338411997078292	0.00787863121454638	0.644775390625	0.4619140625	-0.06787109375	0	0	0	-0.332962182100525	-0.53414435019046	-0.439437484687746	0.640874945291025	0.0431690204218362	-0.207549211124004	0.977271590008439	0.918948684708335	0.392061764684328	0.0426718589404236	-0.392007334814848	0.896220339891041	0.207651996900935	11.6124501949165	-77.7609368548126	-78.2503380607189
55255	1657260401383	9.65398064460576	0.410286964370173	2.00180880350725	0.00953382820751292	-0.0485484099279953	0.0550615320858725	-0.0112574440558515	-0.000511074174066657	0.00834210124586406	0.645263671875	0.464599609375	-0.06884765625	0	0	0	-0.333020192077585	-0.534123288441997	-0.439430450324016	0.640867181044987	0.0432263841438789	-0.207485427708831	0.97728259833189	0.918980788149093	0.391996861993281	0.0425766508815781	-0.391925746445315	0.896263497792867	0.20761972882503	11.5889944808449	-77.7639124792403	-78.2316440115853
55256	1657260401384	9.6712631792241	0.418567944292984	1.96441047432815	0.0335824809033028	-0.0807114559541681	0.0645489396787457	-0.0100805583140818	0.0018563761662393	0.00456181137314384	0.64794921875	0.46875	-0.068603515625	0	0	0	-0.333101125319023	-0.534120590806765	-0.439387553072065	0.640856780406336	0.0433075453631493	-0.207336645517174	0.977310581105262	0.919001324932354	0.391964437033087	0.0424316494366278	-0.391868627587354	0.896312108323334	0.207517669574864	11.5561166890081	-77.7714796224065	-78.2019426417677
55257	1657260401385	9.66786936135122	0.395397613021858	1.97360637250996	0.0090788833441012	-0.0806068196725809	0.0621584309011371	-0.0130121064545614	0.00377008839012914	0.00472670280822706	0.6435546875	0.463134765625	-0.068603515625	0	0	0	-0.333145921518425	-0.534088094271013	-0.43940338204546	0.640849725271541	0.0433491508099395	-0.207324532658566	0.977311306228453	0.919041614010309	0.391876925645303	0.0423672853049609	-0.391769527709064	0.896353174426628	0.207527405067195	11.5385310369027	-77.7716757725932	-78.1902558418593
55258	1657260401385	9.66784470809325	0.394653909541341	1.97387597382327	0.00860856114283295	-0.0793452050478406	0.0621690698773154	-0.0132292284916027	0.000734949159910378	0.00530094956568312	0.6416015625	0.4677734375	-0.068603515625	0	0	0	-0.333206575410006	-0.53410699749238	-0.439367085152513	0.64082732293325	0.0433725594285188	-0.207180938852628	0.977340718309006	0.919052793000453	0.391859885176241	0.0422823138880751	-0.391740711142825	0.896393824703075	0.207406186666423	11.5225588597078	-77.7796345307566	-78.1760988155427
55259	1657260401386	9.64529338096702	0.400044386807358	1.98088767902257	0.0103148463064369	-0.0657300334222677	0.0418146061664384	-0.010297553799539	-0.0011791008421104	0.00513600180614605	0.647216796875	0.4677734375	-0.068359375	0	0	0	-0.333254688982659	-0.534095889677544	-0.439365812536887	0.640812434082256	0.0433985268067079	-0.207122232365768	0.977352008608377	0.919082070771394	0.391797990089744	0.0422194522489657	-0.391669139782002	0.896434445914177	0.207365785801248	11.5080671876764	-77.7826909839864	-78.1659604767788
55260	1657260401386	9.68525678444701	0.407651762061069	2.01706046883532	0.00423230202777	-0.0372762117089725	0.0887016513245875	-0.0119262268675691	-0.00249853486435526	0.00564900938913801	0.64501953125	0.472412109375	-0.065673828125	0	0	0	-0.333290699359244	-0.534144602308746	-0.439344299233576	0.640767852093108	0.043332261110779	-0.206984549773607	0.977384116559116	0.919086262023395	0.391787792903167	0.042222840879401	-0.391666641554894	0.896470703083532	0.207213707090115	11.5171872697644	-77.7913872060875	-78.1758826845323
55261	1657260401387	9.67663453695912	0.399685563755166	1.99535336424459	0.00546579495874362	-0.0574459582845237	0.0754423707055576	-0.0101885128069888	0.000338173586829902	0.00484939927936559	0.6455078125	0.46728515625	-0.063232421875	0	0	0	-0.333334203957437	-0.534129726661743	-0.439346198593259	0.64075631978933	0.0433607057558095	-0.206940292154507	0.977392226631338	0.919115121141689	0.391726452507429	0.0421637343536394	-0.391595765152098	0.896507725504333	0.207187487136628	11.502911364199	-77.7935847296953	-78.1658806270929
55262	1657260401387	9.69922171064248	0.392954048994935	1.988426615942	0.00256734302816024	-0.0712011953578527	0.0957978330442994	-0.0104687222185314	0.000104074184039925	0.00335942073171245	0.64453125	0.4638671875	-0.068603515625	0	0	0	-0.333347198037338	-0.534119244030695	-0.43939929034198	0.640721891590804	0.0432897936060854	-0.206971182112234	0.977388829250983	0.919159795774048	0.39161581841524	0.0422175390042097	-0.391498740230607	0.896548928136121	0.207192557433469	11.5169237982482	-77.7926641203728	-78.1864035569824
55263	1657260401388	9.69393568997947	0.407767346495209	1.95793035086058	0.0280921373797843	-0.0912106376045787	0.0849409433457175	-0.00590857494178076	-0.000490714831616864	0.00268114564923988	0.6455078125	0.471435546875	-0.066650390625	0	0	0	-0.333372777638794	-0.534119869503717	-0.439395948664081	0.640710352989805	0.0432943305978496	-0.206929017764659	0.977397556035945	0.919173115718755	0.391587582853975	0.042189433445555	-0.391466964478434	0.896570993598128	0.207157112261456	11.5113780177179	-77.7950290094471	-78.1828605051751
55264	1657260401388	9.69056657503585	0.38502563467004	1.96686287623419	0.00285301911480649	-0.0906115402049802	0.082546655756758	0.000389170037869776	0.00175142888992972	0.0012034542307455	0.649658203125	0.46533203125	-0.07373046875	0	0	0	-0.333357368633511	-0.534171900835994	-0.439368602247326	0.640693746258096	0.0432312234329837	-0.206861153002749	0.977414714795547	0.919141710045341	0.391656192273945	0.0422367601551252	-0.391547670374137	0.896556685565307	0.207066490270004	11.5288542512777	-77.7996802128322	-78.1958394723663
55265	1657260401389	9.66794746072316	0.390921974983251	1.97411530682859	0.00454436364748789	-0.0770059262871971	0.0621902957309324	0.00105868078110779	0.00373669856975012	0.00389698604516566	0.646728515625	0.4638671875	-0.069091796875	0	0	0	-0.333354483177861	-0.534172482620677	-0.439349844874931	0.640707625336595	0.0432629452384748	-0.206852007859936	0.977415246665206	0.919127175347337	0.391693004707192	0.0422116761273114	-0.391578284774983	0.896542713376092	0.207069094712169	11.5220494856877	-77.7998244139763	-78.1869136315974
55266	1657260401390	9.67128055714395	0.41326073810746	1.96544830173999	0.0287951949976146	-0.074394956300032	0.0646136513623325	-0.00332032993757407	0.000162711661286126	-0.00103791721332541	0.64501953125	0.468505859375	-0.068603515625	0	0	0	-0.333385057642416	-0.534257073124321	-0.439230958488774	0.64070269881001	0.0432910898433336	-0.206606270770489	0.977465974046405	0.91905957124817	0.391861136891592	0.0421230802667521	-0.391733820389952	0.896525904964458	0.206847566314794	11.5104973220541	-77.8135854060843	-78.1657816956261
55267	1657260401391	9.67655207364842	0.397961178100671	1.99609779185397	0.00281226297709596	-0.0538368038463598	0.0754637904441253	-0.00777144962173476	0.00227505396699738	-0.00064624134659413	0.646728515625	0.47119140625	-0.066650390625	0	0	0	-0.333401791358613	-0.534250985524544	-0.439247027462013	0.640688051122157	0.0432758666636794	-0.206600172753699	0.977467937061185	0.91908111518965	0.391810588769307	0.0421232267282412	-0.391684953842061	0.896549402512985	0.206838259969843	11.5110403496821	-77.8141182274704	-78.1694865328315
55268	1657260401392	9.67311968535543	0.375261390951881	2.00531451904012	-0.022844381629215	-0.0535084834917619	0.0730582765900802	-0.0104222088323321	0.00442281543019353	0.00100952693453062	0.6494140625	0.4599609375	-0.06201171875	0	0	0	-0.333387976922748	-0.534284369722588	-0.439257282038028	0.64066036968901	0.0431865048934025	-0.206581495151627	0.977475836865552	0.919077435644664	0.391810994039843	0.0421996710690921	-0.391703450436579	0.896553529249887	0.206785338226988	11.534243368293	-77.8162627045222	-78.1921918401747
55269	1657260401393	9.68171034590348	0.382179826894508	2.02737454022112	-0.0245471317054727	-0.032773442565584	0.0863099352993135	-0.0138511985648638	0.00306784240095346	0.000258078514411848	0.6484375	0.462158203125	-0.059814453125	0	0	0	-0.333424639082025	-0.534261120262804	-0.439288264045265	0.640639435642743	0.0431817528952618	-0.20657912872651	0.977476546926569	0.919122413523245	0.391707662250237	0.0421793349124642	-0.391598423357521	0.896599225356039	0.20678613085711	11.5287908274517	-77.8164554755493	-78.1933231828272
55270	1657260401394	9.65044584906608	0.380734064444487	2.01289962663127	-0.0182786948260363	-0.0399348088825122	0.0527016070017687	-0.0107486965678996	-0.000130291220582735	0.00186882760067613	0.637451171875	0.466796875	-0.07080078125	0	0	0	-0.333582521588213	-0.534104696704435	-0.439328471697394	0.640660103491036	0.0434453338285908	-0.206584465250876	0.977463739320049	0.919256431325969	0.391426390493762	0.0418687746521088	-0.391254541742797	0.89672082586613	0.206909748498226	11.4394963614034	-77.812978861912	-78.1235942635757
55271	1657260401395	9.65575394607662	0.365242695639623	2.04338411342357	-0.0442390722601363	-0.0193835347404185	0.063550399091369	-0.00826914629258168	-0.0009937695989202	-0.00156357129762629	0.64013671875	0.461669921875	-0.07568359375	0	0	0	-0.333605941193903	-0.534108552670661	-0.439343451641444	0.640634421073332	0.0434107709276673	-0.206553502762533	0.977471818245413	0.91928064841617	0.391368814999826	0.0418752921563282	-0.391201475476526	0.896753088169848	0.206870259928363	11.4433564881059	-77.8151717654035	-78.1310460666067
55272	1657260401396	9.65045382193235	0.38033669796334	2.01293652359242	-0.0207578865441246	-0.0374086115511638	0.0527066045517035	-0.0106395998042541	0.00138700490358836	0.00158278802702555	0.648681640625	0.465576171875	-0.06298828125	0	0	0	-0.333623060275053	-0.53422862576768	-0.439297728109307	0.640556738424541	0.0432345629767535	-0.206328261799718	0.97752719703695	0.919252217860316	0.391426319461419	0.0419618444753954	-0.391287787342129	0.896779841887402	0.206590858126168	11.4814790081914	-77.8302139871186	-78.1653226815595
55273	1657260401400	9.66778375392599	0.394541840421209	2.0562731143673	-0.0239148641832896	0.00379489458770255	0.0791971286130462	-0.0016288540850767	-0.00131951255495706	0.000512230463222076	0.641357421875	0.46142578125	-0.066162109375	0	0	0	-0.333631251898471	-0.534245782749932	-0.439287296869443	0.640545316257725	0.0432162288461006	-0.2062846623618	0.977537209337117	0.919249019643153	0.391433717131594	0.0419629000147008	-0.391297326146528	0.896786643057768	0.206543262741142	11.4843356928337	-77.832935525542	-78.1677700520104
55274	1657260401402	9.68175243034895	0.381174841882645	2.02736276525605	-0.0235987327412715	-0.029635088214159	0.0863221345865739	-0.00544699404713629	-0.00442529886346145	-0.00144360776708001	0.6416015625	0.46435546875	-0.078857421875	0	0	0	-0.333708627383336	-0.534216857468514	-0.439307161712272	0.640515510253033	0.0432431337295459	-0.206220553222182	0.977549545963777	0.919311650145609	0.391295539356475	0.041879479298132	-0.391147186225091	0.896861686275238	0.206501802412791	11.4643504703873	-77.8362896859739	-78.1570349076743
55275	1657260401402	9.65926150190407	0.387328626169706	2.03394800635668	-0.0218950484805252	-0.0160229241511226	0.0659544768243876	-0.00544694882795787	-0.0044253429535819	-0.0014435810385495	0.6494140625	0.471923828125	-0.067626953125	0	0	0	-0.333730830873044	-0.534238438122583	-0.43930798373184	0.640485377808578	0.0431955733236173	-0.206157004191691	0.977565052601591	0.919324355547558	0.391264455908506	0.0418909875711748	-0.391122578921637	0.896889856763542	0.206426047514263	11.4715141718948	-77.8405070217991	-78.1661490418158
55276	1657260401404	9.65596467337651	0.364796836702529	2.04246777905644	-0.0480788432563977	-0.0139970714756965	0.0635415558289924	-0.00505775328270277	-0.00267440158984069	-0.000239436862489135	0.64697265625	0.46875	-0.06396484375	0	0	0	-0.333707384901167	-0.534394569084451	-0.439199883647575	0.640441478981042	0.0430518134740019	-0.205900817793992	0.977625385609623	0.919226474412226	0.391485686932762	0.0419719628615738	-0.391368407125906	0.896852167393573	0.206123651590936	11.509510547099	-77.8569294985733	-78.1901638871405
55277	1657260401405	9.68722889762026	0.365791364445996	2.05703328318492	-0.0517012502738034	-0.00655355426954566	0.0971500230375302	-0.00303980120536734	0.000396148547176263	0.000452491013149044	0.642822265625	0.465576171875	-0.066162109375	0	0	0	-0.333716207145866	-0.534403775181955	-0.43919577246382	0.640432019506645	0.0430393570423649	-0.205871669159262	0.977632072705759	0.919228472911879	0.391481133076172	0.0419706687281913	-0.391365083181261	0.896860846666291	0.206092196318903	11.5108748688931	-77.8587510544226	-78.191860260101
55278	1657260401406	9.64204920024189	0.3726803779884	1.99011174705551	-0.0213427702382835	-0.0544834167204154	0.0394760678275858	-0.00173763018715006	-0.00283732319784031	0.000798196376158932	0.650146484375	0.464111328125	-0.065673828125	0	0	0	-0.333735009408328	-0.5344070617789	-0.439214948345812	0.64040632801812	0.0429986429408579	-0.205851372980303	0.977638138038492	0.919252756142935	0.391422345289619	0.041987116257153	-0.391312518364621	0.896891163882273	0.206060071632132	11.5170125575393	-77.8604034756077	-78.2015866991714
55279	1657260401407	9.66804020850109	0.389165973046988	1.97400803030621	0.000801745001371632	-0.0673181131317986	0.0622621035885196	0.00569040109205629	-0.00254324232769972	-0.00210926600117705	0.644775390625	0.468994140625	-0.0693359375	0	0	0	-0.333715422726283	-0.534448914500849	-0.439191118617449	0.64039795108279	0.0429510382328359	-0.205806494136237	0.977649679223633	0.919221875849254	0.391490355924344	0.0420290872897401	-0.391390279995428	0.896871779124297	0.205996748846964	11.5316659238805	-77.8635483337346	-78.211785296567
55280	1657260401409	9.6785996587241	0.353305213311857	1.95411953513846	-0.0238916472473052	-0.100395839604656	0.0669912228748899	0.0106299925518444	0.00149555498509375	0.00580707534053185	0.651123046875	0.469482421875	-0.0703125	0	0	0	-0.333704844134927	-0.534487839067554	-0.439099361581707	0.640433897875743	0.0430290010948674	-0.205705869328941	0.977667428315172	0.919150593441149	0.391665655318844	0.041954749676801	-0.391549092249695	0.896818325954195	0.20592765377956	11.5155740173952	-77.868386351655	-78.1853738928026
55281	1657260401410	9.68530697793483	0.403491598611762	2.01765585352359	-0.0023286842957675	-0.0252049805679229	0.088740368772406	0.0136537636574914	0.00822081574867106	0.000943952495472428	0.647216796875	0.460205078125	-0.07470703125	0	0	0	-0.333644368112902	-0.534507582090606	-0.439062285453011	0.640474347501112	0.0430519083608646	-0.205745372619378	0.977658107332108	0.919087150532079	0.391811490238642	0.0419829232402663	-0.391695472163403	0.896745559098392	0.205966160628393	11.5210034940736	-77.8658454166533	-78.1814668367694
55282	1657260401411	9.6451757738147	0.395374935986515	1.98239728393647	0.00258314580788167	-0.0502687096477529	0.0419106642074709	0.0110498491161705	0.0146875018574077	0.000251712111456128	0.64501953125	0.465087890625	-0.069580078125	0	0	0	-0.333594081391681	-0.534582360373578	-0.438905951003841	0.640545279438751	0.0431665323016552	-0.205611247192132	0.977681269901979	0.918945292940214	0.392153110067709	0.0418985303709912	-0.392015559732105	0.896626986707583	0.205873377675709	11.5035057405116	-77.8721605877465	-78.1433781297895
55283	1657260401411	9.68821869343711	0.426211939036045	2.01095837129468	0.0217743992970427	-0.02213626357295	0.0911617606978812	0.012694578620687	0.00888561066775443	0.00415111427985904	0.653564453125	0.466796875	-0.076904296875	0	0	0	-0.333544037268356	-0.534592974870764	-0.438861395957118	0.640593007735896	0.0432220527147927	-0.205642484963298	0.977672246991413	0.918883681498079	0.39229810068259	0.0418924823490843	-0.392153839756358	0.896556394533523	0.205917452843105	11.4994931663458	-77.8697001464759	-78.1303128545503
55284	1657260401412	9.66733462571212	0.389123072415919	1.97746906368485	6.98935184888227E-05	-0.060726578746819	0.0623048707476492	0.0113928831595148	0.0121187955757901	0.00380454528132956	0.6494140625	0.466552734375	-0.072265625	0	0	0	-0.333488822299746	-0.534689949130635	-0.438684846915424	0.640661742877315	0.0433245267709407	-0.205470954335234	0.977703775335169	0.91872344005958	0.392681620975839	0.0418136967138595	-0.392517803500892	0.896427817212494	0.205783727399615	11.4857019627399	-77.8782996976244	-78.0933238805996
55285	1657260401414	9.65651162272557	0.424898749159118	1.99860961463496	0.0245650179229544	-0.0264166184945465	0.0575656521405303	0.00840035580601927	0.0168341346083257	0.00190702230608497	0.64501953125	0.470703125	-0.075439453125	0	0	0	-0.333429266483154	-0.534669987009586	-0.438671404317704	0.640718603036941	0.043390808050206	-0.205580615575057	0.977677783462697	0.918679101891712	0.39278464657288	0.0418202004306102	-0.392614245187549	0.896357535761484	0.20590585848735	11.4808082763997	-77.8712098185995	-78.0818079623438
55286	1657260401413	9.67006160950243	0.416661723865293	2.05264576916941	-0.00438538199443086	0.0164643761307287	0.0815919174473514	0.00472799278633707	0.0224487317946844	0.00470538858864953	0.651611328125	0.470458984375	-0.069091796875	0	0	0	-0.333326111709064	-0.534755506335548	-0.438550489724567	0.640783676180246	0.0434200328123072	-0.205536042709031	0.977685857470635	0.918527937276391	0.393134342430518	0.0418547159171249	-0.392964539358652	0.89621444082833	0.205860503393456	11.4924959606485	-77.8734117521669	-78.0714983424235
55287	1657260401413	9.64899254942534	0.379446396689875	2.02009699378134	-0.0259209009120489	-0.0243506765701021	0.0527352625403896	0.00384105753597788	0.017428508865597	0.00258452240904007	0.64697265625	0.46875	-0.06787109375	0	0	0	-0.333281561735109	-0.534723318675188	-0.438547597912785	0.640835686769492	0.0434939536598385	-0.205647056690607	0.977659226964859	0.918500747667595	0.393198809944666	0.0418458169016585	-0.393019913654645	0.896160690910167	0.2059887461448	11.4831541173732	-77.8661506050505	-78.0580384851669
55288	1657260401415	9.62418951869533	0.42332699663235	1.98931014623574	0.0254712727161091	-0.0304050084652382	0.0239793007318934	0.00812189008106393	0.0165992238322979	0.000418312179072292	0.642578125	0.46240234375	-0.07568359375	0	0	0	-0.333185090168023	-0.534749720030309	-0.438491524530987	0.640902188740001	0.0435358396839947	-0.205719088260452	0.977642208268596	0.918401623002945	0.393425757208435	0.0418883328687762	-0.393246855713515	0.896044547045657	0.206060865234466	11.4905948547527	-77.8615124812077	-78.0509336594106
55289	1657260401415	9.64838588935537	0.379443774966375	2.02299299147978	-0.0267682381861586	-0.0233278241943344	0.0527354714820785	0.0094843425234688	0.0105647158795401	0.00282943840610496	0.6416015625	0.46875	-0.066162109375	0	0	0	-0.333138101952711	-0.534751566620511	-0.438461364593255	0.640945706579953	0.0435847875118596	-0.205767614434077	0.977629814985025	0.91835210211486	0.393541273572731	0.041888930948051	-0.393357067864254	0.89598267552719	0.206119534048509	11.4875708439216	-77.8581360242819	-78.0406257745994
55290	1657260401416	9.63956832062448	0.371997974768397	2.00222085833047	-0.0266576333790017	-0.0425202568012012	0.0395220147294299	0.003185185996014	0.00832376171496763	0.00430320206043705	0.641357421875	0.46142578125	-0.0693359375	0	0	0	-0.333108437138883	-0.534813657485522	-0.438413715144883	0.640941912537097	0.0435355322796407	-0.205693566923847	0.977647591903787	0.918297333345974	0.393664366959504	0.0419329674128239	-0.393490362015133	0.895945602540979	0.206026241747701	11.5043941108611	-77.8629795003879	-78.0495756635983
55291	1657260401416	9.64470447074829	0.35637706030179	2.03337254916599	-0.0527056210539466	-0.0219208871790152	0.0503078435693407	0.00448644807289843	0.00509045029971944	0.00465129189544263	0.644287109375	0.462646484375	-0.06591796875	0	0	0	-0.333094199675679	-0.534819576395792	-0.438381814811772	0.640966192001249	0.0435788102923249	-0.205685247424112	0.977647414094462	0.918266442505881	0.393739277169512	0.0419061115068544	-0.393557655066065	0.895914594482149	0.206032549692489	11.4968797703016	-77.862931045265	-78.0375680763373
55292	1657260401417	9.66200391338924	0.365092167090523	1.99611115750849	-0.0285404293652321	-0.0546391710174496	0.0599147091151391	0.0123175021168068	1.32299942947919E-05	0.00736654227844452	0.63134765625	0.46044921875	-0.068603515625	0	0	0	-0.333132517096669	-0.534827840946719	-0.438327626656971	0.640976441306836	0.0436561445150765	-0.205578274786198	0.977666463566184	0.918252454258028	0.39378323552421	0.0417994458000714	-0.393581721241202	0.895919826968917	0.205963813202217	11.4721184167003	-77.8681233331361	-78.0108978698783
55293	1657260401418	9.64809455231341	0.378107545113392	2.02463196862792	-0.0283753315682245	-0.0205197076739827	0.0527372204243246	0.0183983090008028	-0.000781620501491462	0.00646664848499271	0.646240234375	0.463623046875	-0.074462890625	0	0	0	-0.333091541343567	-0.534879977824407	-0.438242744836381	0.641012270558219	0.0436934118416728	-0.20550996135178	0.977679160843077	0.91816594634116	0.393986643367282	0.041783008838828	-0.393779355402334	0.895846069720336	0.205906868815857	11.4708141210579	-77.8715854282338	-77.9970868761273
55294	1657260401419	9.65156977963843	0.40034627706092	2.01540064483592	-0.005286122686801	-0.0187805175016716	0.0551662763445186	0.0162701494497467	-0.00536913080762594	0.00606202915062686	0.645751953125	0.466552734375	-0.075927734375	0	0	0	-0.333088871515438	-0.534996700396684	-0.438148522321447	0.640980660101976	0.0436088059043862	-0.205286563721384	0.977729870057706	0.918092352519842	0.394155352120209	0.0418089779781383	-0.393960282632876	0.89582307692449	0.205660668474465	11.4911293016595	-77.8854217427734	-78.006996605548
55295	1657260401419	9.64649425842958	0.415406492476412	1.98406191885509	0.0202605246761084	-0.0386788511154645	0.0443917740234578	0.0138622759475168	-0.0101907362807858	0.00416757132900467	0.652099609375	0.466064453125	-0.076171875	0	0	0	-0.333076817722566	-0.535073419598018	-0.438067176075985	0.640978485114988	0.0435871697689921	-0.205142166104293	0.977761141750667	0.918024373494848	0.394313965481242	0.0418060557317855	-0.394121057926267	0.89578635193471	0.205512538270985	11.4984090413409	-77.8939621776649	-78.0045812998513
55296	1657260401420	9.70586500936476	0.389407031778173	1.94023734426782	0.01505537805547	-0.0961676613382513	0.0923870574541201	0.0106632611094745	-0.0156280644455912	0.00725637368484616	0.6484375	0.46533203125	-0.0703125	0	0	0	-0.333069365574081	-0.535291358786799	-0.437811694521566	0.640974944178332	0.0435681626966739	-0.204674346376348	0.977860024305447	0.917830959449978	0.394771435712468	0.0417353976936816	-0.394573370964602	0.895691869719119	0.205055917848521	11.5043732924815	-77.9210065735488	-77.9830504673873
55297	1657260401421	9.7009231326724	0.404358545747435	1.90817575457026	0.0406065294593381	-0.116040134907754	0.0816259426945347	0.0132541143899603	-0.0149777374323909	0.00353873766825021	0.6435546875	0.474853515625	-0.064208984375	0	0	0	-0.333068113875266	-0.535383907596031	-0.437725192147548	0.640957377027654	0.0435214552931933	-0.204487765431277	0.97790113851968	0.917764998639995	0.39492457535793	0.0417371183682794	-0.394731921942591	0.895666976932432	0.204859406013555	11.5155763162307	-77.9322688915669	-77.9849243118272
55298	1657260401423	9.74442398755251	0.429427283974582	1.85379367695026	0.0857683387408103	-0.162971611808473	0.114086616683855	0.00704141911816254	-0.00569323843687517	0.00769905243163053	0.641357421875	0.462890625	-0.06884765625	0	0	0	-0.333029612620587	-0.535440924147308	-0.437685570426971	0.640956812356399	0.0434687163765879	-0.204439728970552	0.977913527831075	0.917710463170501	0.395045237115598	0.0417943347795621	-0.394864503955416	0.895624730481873	0.204788587732117	11.5348208755117	-77.9356646967238	-77.9963236736349
55299	1657260401423	9.72186498374633	0.435008167546581	1.86079954665299	0.0874217784953951	-0.149315838102104	0.0937008786496491	0.0033585966563028	0.00704207716331003	0.0060760516115698	0.646240234375	0.462890625	-0.0771484375	0	0	0	-0.333018433173526	-0.53543694989796	-0.437654620099719	0.640987074250324	0.0435314123786803	-0.204441160703252	0.977910439634747	0.917682657176172	0.39511431334404	0.0417518874872376	-0.394922216207694	0.895593932092538	0.20481199170124	11.5221377963439	-77.9348181602061	-77.9795954333553
55300	1657260401425	9.68189382388456	0.431664775613968	1.90575544375066	0.0649033665059709	-0.100625895976685	0.06369701052264	0.00257935855822016	0.00353864384515077	0.00367052091633762	0.644775390625	0.46044921875	-0.072265625	0	0	0	-0.333036211803664	-0.535500085600874	-0.437570583980002	0.640982467766726	0.0435432847137149	-0.204268305625152	0.977946032086316	0.917631985341364	0.39523773132573	0.0416974245602403	-0.395038633344648	0.89557891615062	0.204653079897844	11.5162058976552	-77.9445783167135	-77.9665343952315
55301	1657260401426	9.69051943990938	0.444157394724319	2.00828798539665	0.0361628916379628	-0.00526304723682258	0.0936403119950171	-0.000109791269671242	-0.00151723533528952	0.00028739112944996	0.6474609375	0.47021484375	-0.069580078125	0	0	0	-0.333039448013377	-0.535526003877359	-0.437552758047015	0.6409713013572	0.043518966193195	-0.204214952019405	0.977958257265201	0.917620090931905	0.395264619984791	0.0417043032120341	-0.395068941198367	0.895579216797706	0.204593250476185	11.5213330957877	-77.9479325000266	-77.9700085820771
55302	1657260401427	9.68722644369198	0.421755778387916	2.01666991365286	0.0114633905143914	-0.00436561559890788	0.0912028391215642	0.00525183092023348	-0.00861747474204329	-0.000953940069062652	0.653564453125	0.470703125	-0.064453125	0	0	0	-0.333043881981946	-0.535619279701663	-0.437476239778831	0.640943288844842	0.0434530536816933	-0.204025471478207	0.978000735742991	0.917564368183068	0.395392624606741	0.0417169347795356	-0.395205595059765	0.895565898968182	0.204387519772536	11.5360190102004	-77.9595943409465	-77.9768677548786
55303	1657260401427	9.715186936188	0.400631962488642	2.03959030206378	-0.0165440016744699	0.00298732247033182	0.122352100530264	0.00710134417027372	-0.00426503700990964	-0.0020414684583527	0.64794921875	0.466064453125	-0.066162109375	0	0	0	-0.333023806786495	-0.535673802957503	-0.437441822933827	0.640931644160911	0.0433964567467544	-0.203956355482035	0.978017664769054	0.91752487170886	0.395479591323524	0.0417612576704638	-0.395303500284867	0.895543241784038	0.204297441876956	11.5529013876575	-77.9642450583252	-77.9881218418696
55304	1657260401428	9.64408499081334	0.391614487305445	1.98844126846047	-0.00745841504304866	-0.0323823256183908	0.0419831870836536	0.00422002273726895	0.00196772269294966	-0.00423104187272764	0.6494140625	0.46142578125	-0.06884765625	0	0	0	-0.33299750865214	-0.53564948658755	-0.437452504776357	0.640958339375387	0.0434298671667714	-0.204037772945211	0.9779991993092	0.917517551123019	0.395495930592718	0.0417673588561535	-0.395316822332538	0.89551747950342	0.204384573499925	11.5497503873467	-77.9591723416941	-77.9838001916976
55305	1657260401428	9.65793761037627	0.378574200819946	1.96010048473346	-0.00810776300312327	-0.0657748168330231	0.0491927399302288	0.00488967444395759	0.00395410034636161	-0.00153830645686299	0.646484375	0.468505859375	-0.07275390625	0	0	0	-0.332967958306907	-0.535671414361025	-0.437436439497155	0.640966329831326	0.0434109944730217	-0.204041223991622	0.977999317213905	0.917486892644277	0.395563400281962	0.0418018921021673	-0.395390044620262	0.895486892851801	0.204376949154778	11.5594624217462	-77.9592047250644	-77.9890674738636
55306	1657260401429	9.61617117602268	0.413636777297676	1.96510883194817	0.0201479783558962	-0.0377856774946735	0.0108386075100739	0.00558143881617445	-0.00406583431446829	-0.00181580088650925	0.65087890625	0.466064453125	-0.076171875	0	0	0	-0.332972828737049	-0.535736479953113	-0.437357812798855	0.640963074563658	0.0434091352624986	-0.203889034376747	0.978031138889085	0.917431799127217	0.395694477813299	0.0417704941107882	-0.395518066497551	0.895463646324617	0.204231038740591	11.5590438397261	-77.9679479147604	-77.9808625564539
55307	1657260401429	9.61978002351839	0.436398879444454	1.95508481809821	0.0441816768159194	-0.0371664390411502	0.0132800032267575	0.0121954950803551	-0.0187169249429737	-0.000353299664897918	0.6484375	0.473388671875	-0.07470703125	0	0	0	-0.332972736184557	-0.535845089108046	-0.437280373829885	0.640925168876801	0.0433118302839724	-0.203684383904132	0.978078093564643	0.917371605869587	0.395830063241931	0.0418078674192335	-0.395668323348872	0.895450296101064	0.203998394873119	11.5819447053804	-77.9808604288599	-77.9953230219761
55308	1657260401430	9.64799359282399	0.415271583516134	1.97678655700481	0.0149575881323544	-0.0282889792722153	0.0444365410673484	0.015516455220696	-0.018881062844717	0.000686369996527281	0.64404296875	0.46240234375	-0.075927734375	0	0	0	-0.332898977239789	-0.536089225608446	-0.437064132065352	0.640906824430197	0.0431665732969949	-0.203307660080046	0.978162891497408	0.917161879737334	0.396306430829327	0.0418962914826567	-0.396170081286402	0.895325196917911	0.203573226278479	11.6293561429492	-78.0042145193197	-78.012890260211
