// Start Time : 08/07/2022 06:06:06																																
// Update Rate : 100Hz																																
// Filter Profile : 46.1 human																																
// Firmware Version : 4.4.0																																
PacketCounter	Time_Of_Arrival	Acc_X	Acc_Y	Acc_Z	FreeAcc_X	FreeAcc_Y	FreeAcc_Z	Gyr_X	Gyr_Y	Gyr_Z	Mag_X	Mag_Y	Mag_Z	VelInc_X	VelInc_Y	VelInc_Z	OriInc_q0	OriInc_q1	OriInc_q2	OriInc_q3	Mat[1][1]	Mat[2][1]	Mat[3][1]	Mat[1][2]	Mat[2][2]	Mat[3][2]	Mat[1][3]	Mat[2][3]	Mat[3][3]	Euler_X	Euler_Y	Euler_Z
55085	1657260401246	9.27425134515711	0.0358974271574397	3.13024913024726	2.60208521396521E-15	6.07153216591882E-16	-0.0243531704102615	-0.00167813313759719	0.00335265629164866	-0.00247670338005287	0.25341796875	-0.411865234375	0.436279296875	0	0	0	-0.524098018299142	0.255797373483175	-0.728643616287376	-0.359120385633671	-0.192707631674472	0.255215759883955	0.947485453503784	-0.791467345998585	-0.611200504682865	0.00365831837967417	0.580037247866352	-0.749198811386047	0.319777941868043	0.655445646118353	-71.349238340559	127.055626071152
55086	1657260401247	9.27687595240026	0.0246198949111287	3.15211407487358	0.0301070684569806	-0.00980504192746815	-0.0149399618533863	-0.00651874177345351	0.005776356624765	-0.00173954302368219	0.24462890625	-0.419677734375	0.432373046875	0	0	0	-0.523874786232522	0.25679780675939	-0.72761495832811	-0.360813756958597	-0.190737282278503	0.256007181225164	0.947670624378615	-0.794126765709389	-0.607736638465978	0.00434260866490804	0.577045898636282	-0.751742310520844	0.319220189586791	0.779392437117609	-71.3824424174652	126.687827992173
55087	1657260401248	9.22344823739672	0.0311287470055049	3.16331707697702	0.0409173448011717	-0.0353426004568272	-0.0619633950382479	-0.00720439616639087	0.0110214098907838	0.00187192658855099	0.258544921875	-0.421630859375	0.440673828125	0	0	0	-0.523819287601342	0.256809036217846	-0.727637952631752	-0.360839968328834	-0.190815742386536	0.256078658762559	0.94763551694934	-0.794164764367438	-0.607687272346613	0.00430186763442714	0.576967658967715	-0.751757872957976	0.319324945707365	0.7718280498025	-71.3761427117463	126.691454395615
55088	1657260401248	9.21233750139757	-0.0173883989217877	3.14041359048692	0.0670185860555403	0.00896050793191063	-0.0800058115751341	-0.00942890755842992	0.0116040465837787	0.00657585385700422	0.253662109375	-0.417724609375	0.43408203125	0	0	0	-0.52374599387698	0.256844976489698	-0.727670684653936	-0.360854772235442	-0.190947934505444	0.256123823378595	0.947596682880452	-0.794209933314222	-0.607628982813827	0.00419536287503985	0.576861740916421	-0.751789602443772	0.319441583899642	0.752446704515047	-71.3691766881096	126.705625323876
55089	1657260401249	9.1651993166661	-0.0316485569718493	3.14005385565503	0.086167093089361	0.00626478099493939	-0.124841662350954	-0.00680398588006997	0.0078001805291489	-0.00121447295727278	0.25732421875	-0.4169921875	0.42919921875	0	0	0	-0.523706896744004	0.256852477418472	-0.727680181147689	-0.360887025413254	-0.190983282382278	0.25618984431346	0.947571712073095	-0.794251499792809	-0.607574719464734	0.00418513371648771	0.576792805890787	-0.751810962900911	0.319515782293518	0.750438006395191	-71.3646987717352	126.703631095049
55090	1657260401249	9.11823827734425	-0.0460254931291097	3.13916478320248	0.105278399872827	0.00356673182850395	-0.169677106057717	-0.0122218729289743	0.000256862133973159	0.00823418364395523	0.254638671875	-0.426025390625	0.43115234375	0	0	0	-0.523671972076703	0.256918826726081	-0.727680992763545	-0.360888840095746	-0.191053821511288	0.256141521565755	0.947570555798307	-0.794306276186872	-0.607503923136082	0.00406484740346752	0.576694006294566	-0.751884634970185	0.319520764269983	0.728860417267266	-71.364491446679	126.718949917953
55091	1657260401250	9.20057147140514	-0.0694102904129751	3.17156613483324	0.126599720870624	0.0134244218594277	-0.0813998299469549	-0.0101110992339271	-0.0150966675016137	0.00199521164794484	0.2578125	-0.419677734375	0.427490234375	0	0	0	-0.523706089721749	0.256988079215375	-0.727632072805023	-0.360888660607413	-0.190982612466685	0.256015884197226	0.947618862609917	-0.794360772481175	-0.607433003572359	0.00401364101192536	0.576642527809483	-0.751984716074585	0.319378117459094	0.720001067305291	-71.3731549621808	126.722185600253
55092	1657260401250	9.21358800745101	-0.110843557375715	3.14716662675596	0.143143277879645	0.0590986277456424	-0.0770227552068476	-0.00213913639554074	-0.00781509764907907	0.00367325108895485	0.25439453125	-0.418701171875	0.42822265625	0	0	0	-0.523721190915231	0.257022369327319	-0.727618908633016	-0.360868867667194	-0.190979549069858	0.255933900591357	0.947641625492025	-0.794366146015188	-0.607426324027937	0.00396067454935672	0.576636139954869	-0.752018018006219	0.319311231703407	0.710649285683539	-71.377238685914	126.730540456458
55093	1657260401251	9.20393772525225	-0.0815615220322794	3.19123637113429	0.147321266861467	0.0049013470439235	-0.0719797962743254	-0.00108491003648815	-0.0075051724381941	0.00260212830900686	0.2548828125	-0.418701171875	0.42822265625	0	0	0	-0.523743193420696	0.257046672020479	-0.727602555871747	-0.360852596550987	-0.190956941815804	0.255861653362572	0.947665690373418	-0.794367432811244	-0.607424823931214	0.00393255146267357	0.576641854239899	-0.752043813624382	0.319240151497375	0.705760865400864	-71.3815569313821	126.735042955354
55094	1657260401251	9.15821228476321	-0.0931194785105761	3.13453710644236	0.132805839364943	0.0420289897758344	-0.13345999550778	0.00065423577819315	-0.012439309337904	-0.00208176381044216	0.257080078125	-0.41796875	0.432373046875	0	0	0	-0.523782040696641	0.257068529043291	-0.72757445915541	-0.360837292424014	-0.190897644479537	0.255776238274651	0.947700693925162	-0.794367753239367	-0.60742443954325	0.00392719480150266	0.576661045975541	-0.7520731787397	0.319136290438361	0.705028971538992	-71.387839756555	126.735683233104
55095	1657260401252	9.23450044806659	-0.0949317217732295	3.17781601635377	0.145785716800016	0.0290444545971255	-0.0473697613693424	0.00273163003608713	-0.0190139928717956	-0.00269314469330858	0.25	-0.416015625	0.42724609375	0	0	0	-0.523859598625609	0.257085842256749	-0.727523311981542	-0.360815494626216	-0.190766599530909	0.255649595055551	0.947761251081382	-0.794357139603341	-0.607438097097554	0.00396143354119111	0.576719029740317	-0.75210520722997	0.318955981277906	0.711577040192228	-71.3987140594961	126.73042544907
55096	1657260401253	9.23237459181031	-0.0828529493315037	3.15451635346043	0.124434680357305	0.0374602188810005	-0.0567819240030474	0.00857074580123388	-0.0215066300484815	-0.00910070071415481	0.262451171875	-0.4228515625	0.43798828125	0	0	0	-0.523948231624917	0.257082491833858	-0.727473657153308	-0.360789302942324	-0.19061865891903	0.255533593390336	0.9478222984932	-0.794325261302644	-0.607479342549773	0.00402835348270936	0.576811846383547	-0.752111315580558	0.318773685939234	0.724010098883452	-71.4096826084564	126.721584240347
55097	1657260401253	9.25916092457277	-0.0863019100325564	3.17485843218548	0.135710654099727	0.0302937654759325	-0.0249450402895111	0.00771611124698918	-0.0154408878326822	-0.00752426145066171	0.255126953125	-0.41455078125	0.434326171875	0	0	0	-0.524027984561997	0.25706256740551	-0.727429547935601	-0.360776607646597	-0.19046982154181	0.255463171004524	0.947871201874044	-0.794295087419891	-0.607518151627803	0.00412426276641109	0.576902557788106	-0.752103891562231	0.318627015669559	0.741587005576811	-71.418473713067	126.707704454416
55098	1657260401253	9.23342799097758	-0.080878643438534	3.15148291670538	0.123717551700412	0.0373042995395095	-0.0567722060830658	0.00970881509447032	-0.0136195255272088	-0.00710564765997929	0.2568359375	-0.417236328125	0.4306640625	0	0	0	-0.524080314541837	0.257052273482667	-0.727410730800191	-0.360745868062065	-0.190404485171752	0.255388758359371	0.947904380267408	-0.794252903721333	-0.607573094747079	0.00415445179151575	0.57698219812808	-0.752084780223025	0.318527905214242	0.747247114003215	-71.4244403042319	126.706283374293
55099	1657260401255	9.2338008533444	-0.0795897292768002	3.15042310415927	0.123717541926942	0.0373042975923622	-0.0567722059516793	0.0134684550608143	-0.00953756127923657	-0.0129031692167346	0.254638671875	-0.41552734375	0.435302734375	0	0	0	-0.524155877352673	0.256986678527137	-0.727379771465833	-0.360745244401852	-0.190246969756195	0.255395430958129	0.947934208869106	-0.794199742763491	-0.607641431402077	0.00431965716684996	0.577107320255938	-0.752027303154178	0.318436926592479	0.777180422693216	-71.4298060689199	126.682846284896
55100	1657260401255	9.2106130687445	-0.0847835564370787	3.14920295161534	0.132347177337369	0.0357296976906319	-0.0791747418946969	0.0217249530643846	-0.00427588618759374	-0.0117560188209552	0.25048828125	-0.410888671875	0.42626953125	0	0	0	-0.52419449175298	0.25691063809305	-0.727397812165834	-0.360706919405235	-0.190221306218041	0.255412565294651	0.947934742558953	-0.794097130739132	-0.607774884655615	0.00440868843679432	0.577256963243044	-0.751913632720846	0.318434117700914	0.793203645336004	-71.4299020861732	126.677301958531
55101	1657260401256	9.27108265268939	-0.0326734592592982	3.19554330384935	0.107782960020236	-0.0144279929304419	-0.00688741998795095	0.025709755573825	-0.000631997714374932	-0.0109201179342246	0.258544921875	-0.41845703125	0.431884765625	0	0	0	-0.524257180492746	0.256789648480127	-0.727409479801831	-0.360678435493002	-0.190130949744235	0.255474192091575	0.947936263218426	-0.793969460459235	-0.607940285207547	0.00459407007334267	0.577462308559985	-0.75175896855104	0.318426970270499	0.826571207034669	-71.4301756738167	126.657641349246
55102	1657260401257	9.27100757328164	-0.0308182528808523	3.19577955502709	0.106580733537336	-0.01467489431382	-0.00687464550731143	0.0281850720264971	0.005544021862517	-0.0105247128101865	0.260009765625	-0.41845703125	0.427978515625	0	0	0	-0.524261300464404	0.256680810332153	-0.727470123491398	-0.3606276055296	-0.190195637930719	0.255555986600067	0.947901238012165	-0.793827248316033	-0.608125383474434	0.00467095333621742	0.577636493950238	-0.751581436497031	0.318530100885203	0.840130120128766	-71.4238751417848	126.658191713045
55103	1657260401259	9.22551357099437	0.0369975666803392	3.20955793434752	0.0703036921170271	-0.0760310701346181	-0.0452922210250026	0.0338760145766847	0.0130335541374831	-0.00874766320799116	0.2548828125	-0.416015625	0.4365234375	0	0	0	-0.524286192610954	0.256511156259414	-0.727531979793417	-0.360587344938559	-0.190201509815341	0.25570713494824	0.947859296942604	-0.793648164858167	-0.608357586769238	0.00486179365803924	0.577880589811796	-0.75134207106808	0.318652029903937	0.874115396207551	-71.4163332564655	126.642814433903
55104	1657260401260	9.16921126363253	0.0564862627058998	3.19956057373228	0.0589106524958994	-0.0931741130165177	-0.101731603908799	0.0267853312290996	0.00884626443198477	-0.00176892292033471	0.248291015625	-0.4169921875	0.429931640625	0	0	0	-0.524255442470374	0.256423259518126	-0.727621741907379	-0.360513444578652	-0.190372574636456	0.255772262293955	0.947807381627364	-0.793497419807436	-0.608554336512271	0.00484399329590629	0.578031251391504	-0.751160548320492	0.318806686036585	0.870493089158913	-71.4070018797031	126.660494630943
55105	1657260401261	9.16262599736575	0.0774887891536088	3.21190768090979	0.050574130545861	-0.116015654024633	-0.103925689049381	0.0250743983260547	0.00697288307041866	0.00904606753913573	0.254638671875	-0.4169921875	0.427490234375	0	0	0	-0.524263668255342	0.256343178120979	-0.727688468116924	-0.360423743041344	-0.19048466319904	0.255769573105574	0.947785586807133	-0.793335232681321	-0.608765800965807	0.00483819810819403	0.578216915761224	-0.75099009650451	0.318871562356578	0.86927495299025	-71.4030857753068	126.676937623925
55106	1657260401261	9.13001417900806	0.101907820412283	3.20173192716061	0.0295211167483123	-0.131529228559586	-0.137954294331683	0.0152241297387209	-0.00136998318186852	0.0161561715182435	0.261962890625	-0.4150390625	0.427734375	0	0	0	-0.524217716686262	0.25635369329448	-0.727775027124345	-0.360308311506522	-0.190747412343122	0.255676486833726	0.947757858719603	-0.793217077885418	-0.608921409187197	0.00462436854043058	0.578292393202023	-0.750895632903696	0.318957138893043	0.830638996134321	-71.3981047279149	126.724774666307
55107	1657260401262	9.16275804517819	0.0757741765101869	3.21157191118013	0.0491144301284959	-0.115856079568136	-0.10391628949065	0.0110953518401615	-0.0110018074761031	0.0194220953698942	0.254150390625	-0.4189453125	0.4296875	0	0	0	-0.524252834153471	0.256384049305814	-0.727795400093132	-0.360194448523134	-0.190837850270337	0.255475596587807	0.947793824865039	-0.793115854509072	-0.609054357029338	0.00447565748515449	0.578401379865696	-0.750856184453244	0.318852370287214	0.804194882560168	-71.4045659002242	126.759382836493
55108	1657260401262	9.16044617492697	0.0854613208384894	3.18879770686139	0.0267529240781982	-0.106842492729	-0.113338052821273	0.00423356115883251	-0.0175934522882728	0.0212814246467086	0.246826171875	-0.4189453125	0.431396484375	0	0	0	-0.524231127948064	0.256465479671074	-0.727840562608032	-0.360076794100661	-0.191052853680981	0.255262617425226	0.947807893639622	-0.793051368176061	-0.609140320174552	0.00419496981195833	0.578418822769827	-0.750858885865292	0.318814364454772	0.753856232677572	-71.4070938878918	126.813240590715
55109	1657260401263	9.19363273744491	0.0586654282558284	3.19734384320009	0.0463412486409978	-0.0911676642464988	-0.0792977971050437	-0.0017461874640061	-0.0230553627586734	0.0200325540707737	0.26025390625	-0.42578125	0.434814453125	0	0	0	-0.524286198318636	0.256565853249193	-0.727813941606877	-0.359978904384364	-0.19107834130165	0.254967458953826	0.94788219856691	-0.793023202227411	-0.609178302689492	0.00399953263911879	0.578449019546574	-0.750928352379225	0.318595890398211	0.719231824529434	-71.4204510835466	126.84871393018
55110	1657260401264	9.19717289875719	0.0454802955688029	3.21667981462694	0.0655681492140908	-0.0989029507949851	-0.0698435712214067	-0.0096885724011102	-0.0231476719297627	0.0168284328203092	0.255615234375	-0.40869140625	0.43115234375	0	0	0	-0.524256579560403	0.256687617995327	-0.727825003251285	-0.359912864729478	-0.191235537179695	0.254766818632348	0.947904445312683	-0.793047509135298	-0.609148393140212	0.00372604200169763	0.578363741579548	-0.751020707609751	0.318533011111024	0.670187192856126	-71.4244520033763	126.89298082718
55111	1657260401265	9.23396473300802	0.00938860657135518	3.1918123901044	0.0726416653855562	-0.0518701954187573	-0.0430460661864327	-0.0174612602437618	-0.0240562841120749	0.0156624335597641	0.24560546875	-0.415283203125	0.425048828125	0	0	0	-0.524292571158435	0.256835518112573	-0.727767722286158	-0.359870752996602	-0.191220681931471	0.254490728139384	0.947981603245943	-0.793118544763582	-0.60905711554701	0.00352192470867729	0.578271238048168	-0.751188324784566	0.318305632927847	0.63392904964074	-71.4383347582665	126.920674781985
55112	1657260401265	9.26444856413267	-0.00630404486790564	3.17852695437662	0.0697995891002712	-0.0266867985547359	-0.0184290667674229	-0.0197404868701692	-0.0238508436487701	0.015770592043012	0.2548828125	-0.412841796875	0.4365234375	0	0	0	-0.524246234529003	0.256984519165454	-0.727763016154288	-0.359841402300341	-0.191360101545373	0.254312195541098	0.948001381188662	-0.79320486156004	-0.60894624419965	0.00324334282155847	0.578106702204759	-0.7513386579128	0.318249684982925	0.583891927966704	-71.4418949470251	126.960047556478
55113	1657260401266	9.24512914398459	-0.0243822011612851	3.14307612725274	0.0668922774890428	0.00331670296484544	-0.0480855340852866	-0.0279342307123703	-0.0147306031955968	0.0115547756762905	0.24658203125	-0.4208984375	0.42919921875	0	0	0	-0.524234701901495	0.257142932697363	-0.727709320358576	-0.359853629340195	-0.191366685545881	0.254131182734084	0.94804859243889	-0.793344177408796	-0.608765755228979	0.00304490263423823	0.577913322077581	-0.751546137787074	0.318110978972101	0.548408429114197	-71.4503960167675	126.980596804458
55114	1657260401267	9.23762164019864	-0.0855301138821	3.13904600629341	0.112136723012465	0.0401252593261764	-0.0566434152084128	-0.0249232197300934	-0.0197839841845252	0.0124362704328736	0.248779296875	-0.4228515625	0.429931640625	0	0	0	-0.524157897793788	0.257299402344838	-0.727711047633253	-0.359850172830164	-0.191532702588996	0.254002864849155	0.948049454663298	-0.793464920195829	-0.60860974133418	0.00275738495123623	0.577692517051747	-0.751715855494324	0.318111031466772	0.49662711450568	-71.4505513077175	127.018384769384
55115	1657260401267	9.25797064346116	-0.0713133225271282	3.17147182337139	0.115036552086207	0.0101262272958492	-0.0269833339398371	-0.0303512270025278	-0.00651449116141417	0.00809177680323462	0.2568359375	-0.418212890625	0.4267578125	0	0	0	-0.524116527201584	0.257442711320754	-0.727669549203714	-0.359891849676586	-0.191559444901035	0.253904720410917	0.948070341283948	-0.793624639654091	-0.608402213848369	0.00258408945618266	0.577464207032022	-0.751916976226403	0.318050232603941	0.465505592557573	-71.4543134763772	127.032875697435
55116	1657260401268	9.24450263507287	-0.109443558611238	3.12551742859247	0.118377508883488	0.0637222516157765	-0.0544297264266635	-0.0270223996196045	-0.00640320978426812	0.00691118583354947	0.2568359375	-0.414794921875	0.431640625	0	0	0	-0.523990421285775	0.257581085810016	-0.727696623823147	-0.359921722475989	-0.191780784181346	0.253887601235102	0.948030177134607	-0.793767687910453	-0.608216675845701	0.00230929697089238	0.577194064806701	-0.752072842989489	0.318172045267378	0.415846233994936	-71.4470796273199	127.066550001459
55117	1657260401269	9.23029973800313	-0.14956437294712	3.1342577865063	0.157158081821633	0.0766989407128401	-0.0651854729112546	-0.0207562897583801	-0.00296572620285484	0.0076352928960887	0.25732421875	-0.419921875	0.43115234375	0	0	0	-0.523953956638799	0.257681959273245	-0.7276759132821	-0.359944474074422	-0.191824453811672	0.253818883574592	0.948039742447965	-0.79387281203721	-0.608079966896779	0.00217075262217126	0.577034953211665	-0.752206572824089	0.3181445183753	0.390932505108288	-71.4488021614184	127.080284446266
55118	1657260401269	9.250998276272	-0.132651663985236	3.11309816125751	0.124284596993203	0.0871633937922092	-0.052210863068856	-0.0197037562745761	-0.00265531129669365	0.00656294623581872	0.259033203125	-0.421142578125	0.423828125	0	0	0	-0.523818797249182	0.257797068109751	-0.727728949919606	-0.359951545032585	-0.192097505754152	0.253816419473775	0.947985112482547	-0.793972220080236	-0.607951113805343	0.00188599143818158	0.576807300598645	-0.752311550109631	0.318309078644874	0.33947534761393	-71.4389664010013	127.119762211344
55119	1657260401270	9.23042410913678	-0.151917495331542	3.13377829067749	0.154736110253096	0.0772971885080528	-0.0651514503549677	-0.0121004119983269	-0.000933038087790454	0.00568939872866564	0.249755859375	-0.415771484375	0.431640625	0	0	0	-0.523793086664262	0.257857635610579	-0.727721159959899	-0.359961324959594	-0.192137293792118	0.253774852127768	0.947988177543249	-0.794031039633422	-0.607874568581312	0.00179359157859149	0.576713072881921	-0.752387422342781	0.318300484240094	0.322852603315428	-71.4395181115542	127.129988368618
55120	1657260401271	9.17734056093941	-0.145862517340188	3.14416597035256	0.163029813379453	0.0519130313911894	-0.112101731189782	-0.00971139022603418	-0.00233604645074002	0.00301891530694446	0.25732421875	-0.414306640625	0.422607421875	0	0	0	-0.523679362857533	0.257947048277898	-0.7277804081369	-0.35994294372016	-0.192402004366386	0.253755753187009	0.947939600628801	-0.794081936759613	-0.60780879510157	0.00153176671808264	0.576554721104509	-0.752446999011672	0.318446490403695	0.275597608788904	-71.4307761336744	127.170034025047
55121	1657260401274	9.22431026697986	-0.132768615332395	3.14492724132661	0.143788284016724	0.0546272160884034	-0.0673071486706913	-0.0069812365918981	-0.00537685120500929	0.00442094558109908	0.256591796875	-0.417724609375	0.42919921875	0	0	0	-0.523680686560771	0.257993697906104	-0.727765258703117	-0.359938214960232	-0.192406039868962	0.253688422559702	0.947956802856076	-0.794113689950985	-0.607767466503951	0.00146768245884676	0.576509638474826	-0.752503083660485	0.318395580727947	0.26410986848618	-71.4338714193939	127.177933032849
55122	1657260401271	9.21819605034704	-0.113069090308247	3.15611851679955	0.132704777981173	0.0317647452084927	-0.0694647185827719	-0.00464480733494793	-0.00519697541552904	0.00891019848527293	0.264404296875	-0.42333984375	0.4296875	0	0	0	-0.523577389093313	0.258095014151345	-0.72783510561107	-0.359874617527505	-0.192713954579322	0.253593333215025	0.947919697579543	-0.794124187804476	-0.607754446659298	0.00114320152694269	0.576392319565658	-0.752545649057081	0.318507362600893	0.205647809266452	-71.4271954960893	127.232402307151
55123	1657260401271	9.21497369504873	-0.104573952984073	3.18850661883806	0.145206821680236	0.000411395291804062	-0.062191729141901	0.00163936671267809	-0.0105349049607672	0.00400648677693135	0.252685546875	-0.42724609375	0.43212890625	0	0	0	-0.523613635845275	0.258118488686356	-0.727816723971479	-0.359842218844021	-0.192684675788608	0.253489649051466	0.947953381522532	-0.794107090411267	-0.607776846671367	0.00111067941475207	0.576425662748278	-0.752562490743443	0.318407212310327	0.19986037467344	-71.433255761495	127.239496168538
55124	1657260401274	9.22158107613406	-0.12552114151283	3.17582003219581	0.149829089510142	0.0231106276202183	-0.0599358017479634	-0.000468020470978633	-0.0111498677215772	0.00615199339011244	0.25732421875	-0.414794921875	0.44091796875	0	0	0	-0.523510621834222	0.258228368841381	-0.727896923863249	-0.359751034164858	-0.193031644488122	0.25335275435567	0.947919387968517	-0.794093930145223	-0.60779460588567	0.000739704534567731	0.576327697002952	-0.75259424587003	0.318509476704532	0.13306314198337	-71.4271398010968	127.30408771726
55125	1657260401277	9.21915324403788	-0.114673920283992	3.15326347552939	0.129005489482237	0.0316179869149221	-0.0694145585256773	0.00209101977218389	-0.0133716128528192	0.00551723333939501	0.264404296875	-0.42041015625	0.424072265625	0	0	0	-0.523556065676136	0.258259369529367	-0.727874343654776	-0.359708331837268	-0.192997924201153	0.253218413016822	0.947962149330494	-0.794071450756	-0.607824028114289	0.000694219837523435	0.576369961351482	-0.752615696193059	0.318382288288041	0.124930956183328	-71.4348335396022	127.313912519775
55126	1657260401277	9.21331168703048	-0.0944480099074077	3.16371284014941	0.117123294478922	0.00880629374391662	-0.0715726391903555	-0.000246751189732016	-0.0135501630264701	0.00102856392722237	0.25634765625	-0.42431640625	0.428466796875	0	0	0	-0.523470871538576	0.25835094748923	-0.727936559890111	-0.359640653093351	-0.193273694586463	0.253112768328805	0.947934177825563	-0.794069550908821	-0.60782677714801	0.000396612311636679	0.576280163896313	-0.752649012150279	0.318466069164122	0.0713551678240085	-71.4298004838262	127.364893586947
55127	1657260401278	9.18404197137532	-0.0808693560148069	3.17362813767281	0.118445555354065	-0.0153946959500798	-0.0961645342334947	-0.00147130527799545	-0.0130385760799546	6.52936575053948E-05	0.2509765625	-0.4248046875	0.426025390625	0	0	0	-0.52351592383756	0.258379873702293	-0.727900352372585	-0.35962757871159	-0.193198164237092	0.253014125969556	0.947975907602761	-0.794078039098706	-0.607815690991253	0.000391925985559594	0.576293794133314	-0.75269113044109	0.318341836708187	0.0705395613115717	-71.4373096188571	127.364863790673
55128	1657260401279	9.20273975426139	-0.144523872143066	3.19152709758457	0.172992222058666	0.0129098016821566	-0.0727151842415914	-0.000346192129507545	-0.0211139652199252	-0.0020369758669044	0.255615234375	-0.421875	0.43115234375	0	0	0	-0.523461166965169	0.258496085870387	-0.727937920168644	-0.359547722353656	-0.193427684059523	0.252831516891704	0.947977824163419	-0.79408216795427	-0.607810417879975	8.03344053774691E-05	0.576211108515288	-0.752756746886277	0.318336360538305	0.0144589900830992	-71.437654567982	127.417643095776
55129	1657260401279	9.25361102864685	-0.139886152450794	3.15782620750345	0.141200953749483	0.046970130395523	-0.035233323219142	-0.00119078969573777	-0.0150553353120077	-0.00045993536429319	0.255615234375	-0.412109375	0.42333984375	0	0	0	-0.523514597228241	0.258526494070413	-0.72789585843024	-0.359533221876251	-0.193336657712469	0.252720699511404	0.948025941007438	-0.79409027317581	-0.607799828461886	8.10510247480356E-05	0.57623048759341	-0.752802508338122	0.318193036705226	0.0145945416999729	-71.4463168293131	127.416749836839
55130	1657260401280	9.22780276881966	-0.135351841904674	3.13455431934115	0.126676731682782	0.0539550601526838	-0.0670659573463901	0.000805182056380997	-0.0132385689762704	-4.43145717501992E-05	0.254638671875	-0.411376953125	0.420166015625	0	0	0	-0.523441841835485	0.258615955319229	-0.727949686264115	-0.359465826106146	-0.193585916155402	0.252605246712599	0.948005845129418	-0.794086894633962	-0.607804215032297	-0.000199898887223604	0.57615145303719	-0.752837715262885	0.318252851740395	-0.0359882433053544	-71.4426985834121	127.465020142317
55131	1657260401281	9.20131942979075	-0.132514762771742	3.16606709407823	0.148831605140507	0.0212426469890985	-0.0821571611882561	0.00572764725705354	-0.0100633738008063	-0.00948304885882416	0.260498046875	-0.421630859375	0.42724609375	0	0	0	-0.523501260387411	0.258588554848568	-0.727913384603794	-0.359472522160972	-0.193451872368044	0.252586851786542	0.948038108612656	-0.79407258932648	-0.607822930225117	-9.15035074296466E-05	0.576216188559153	-0.752828777211071	0.318156779348243	-0.0164785570577752	-71.4485079272985	127.447875054456
55132	1657260401282	9.22503498082423	-0.124552111460874	3.16581148881169	0.135997265295075	0.0221272168732346	-0.0597308367571721	0.00527457642660791	-0.00722559447861889	-0.0109936282456075	0.25732421875	-0.416015625	0.431884765625	0	0	0	-0.52344166048229	0.258629630381164	-0.727960341304366	-0.359434672574137	-0.193631088446132	0.252553327494108	0.948010452663271	-0.794063420200658	-0.607834860880852	-0.000258064313158668	0.576168626607177	-0.752830391701617	0.318239084720891	-0.0464619006773147	-71.4435281058591	127.477161253109
55133	1657260401283	9.22245324764858	-0.111999046091502	3.14369520060247	0.115193411736155	0.0306321958268703	-0.0692383226296549	0.008776248454661	-0.00793761366561511	-0.010141032397774	0.264404296875	-0.42041015625	0.438720703125	0	0	0	-0.523499814327738	0.258585651247222	-0.727932193828439	-0.359438626967094	-0.193503635685668	0.252554815718201	0.948036079500128	-0.794032977381152	-0.607874668826121	-0.000133531850910584	0.576253393749355	-0.752797749768873	0.318162810735748	-0.0240468426238638	-71.4481425147658	127.458783493755
55134	1657260401284	9.1461734897881	-0.110736596001261	3.15308714582662	0.131515754893357	0.00373225836388189	-0.138525893818812	0.012105998480812	-0.00783082808235413	-0.011324789854762	0.259765625	-0.411376953125	0.426025390625	0	0	0	-0.523400574390683	0.258607233731712	-0.728024186410116	-0.359381303619184	-0.193793834672959	0.2525662130032	0.947973764242436	-0.793986911710253	-0.607934754541216	-0.00034388039549349	0.576219345107022	-0.752745403353707	0.318348274778271	-0.0618909829790833	-71.4369238568794	127.49899523909
55135	1657260401285	9.16991487167522	-0.102617707270524	3.15274215138563	0.121853111816433	0.00508403895146686	-0.116153033210221	0.0127305128124795	-0.0114836274472452	-0.0077772435400469	0.25732421875	-0.420166015625	0.431396484375	0	0	0	-0.523475873373976	0.258561087901145	-0.727996108593336	-0.359361711499277	-0.193664340607327	0.252526872478675	0.948010707668046	-0.793928837716984	-0.608010648263374	-0.000228560082884355	0.576342887366964	-0.752697303219887	0.318238347637459	-0.0411500561136666	-71.4435740169702	127.484810307254
55136	1657260401286	9.18475108637369	-0.0628418777716882	3.14205892442162	0.0795190062255632	-0.00812678526345353	-0.105486624000171	0.0129740710543	-0.0206799040063934	-0.0067677807679257	0.253173828125	-0.421875	0.435791015625	0	0	0	-0.523455538432335	0.258607424641375	-0.72803804456856	-0.359273022735716	-0.193834388837712	0.252389880460993	0.94801243554333	-0.793867835293994	-0.608090190109394	-0.000425180372961353	0.576369750932107	-0.752678994614309	0.318232998409741	-0.0765509124723787	-71.4438851068723	127.52411420315
55137	1657260401286	9.19454514365711	-0.093630539263534	3.14981890181997	0.108671155543326	0.00620257730037464	-0.0937400012862905	0.0132538904869499	-0.0226945760716014	-0.00729245427932755	0.26123046875	-0.424560546875	0.428955078125	0	0	0	-0.523572110057315	0.258580631407116	-0.727982089219155	-0.359235828401543	-0.193643730325576	0.252263284152705	0.948085091737069	-0.793805711375811	-0.608171353307509	-0.000312415197953553	0.576519382408553	-0.752655857935487	0.318016605262456	-0.0562865782601537	-71.4569708215107	127.510763640104
55138	1657260401287	9.22508582408731	-0.106292793156853	3.13616027319847	0.102647320912192	0.0300676335719494	-0.0690963144828469	0.0191672954663891	-0.031598536879405	-0.00297949084771795	0.2529296875	-0.41845703125	0.4326171875	0	0	0	-0.523557121551265	0.258658244230203	-0.728039806726009	-0.359084799158996	-0.193892094971794	0.252011323926588	0.94810133852886	-0.793700787185265	-0.608308039409384	-0.00062418859389568	0.576580363807976	-0.752629803955888	0.317967706329404	-0.112474711738013	-71.4598981625212	127.573909484117
55139	1657260401289	9.23751582502304	-0.0551168467839392	3.10261057751412	0.0430380526266013	0.0255992237918905	-0.068026240593154	0.0166497926202265	-0.0309564263438537	-0.00950161319760147	0.25	-0.423583984375	0.425048828125	0	0	0	-0.523712585707906	0.25862820517907	-0.727962713247246	-0.359036024903769	-0.193636520784878	0.251835985542256	0.948200155138295	-0.793623369827558	-0.608409168614306	-0.000480009999560382	0.576772784276337	-0.752606749858124	0.317673158113984	-0.0865749134460662	-71.4777125172938	127.556659586971
55140	1657260401290	9.25853377140246	-0.0377120845280032	3.13334010341849	0.0419270767529305	-0.00476748014260272	-0.0383378461788002	0.0178722525467206	-0.031458996407447	-0.00853847000672008	0.251953125	-0.42236328125	0.42529296875	0	0	0	-0.523731836202827	0.25868224814712	-0.727987955349838	-0.358917811074805	-0.193765937281772	0.25161542921564	0.948232269715573	-0.793535944476306	-0.608522998773646	-0.000681753347629321	0.576849604640077	-0.752588490308056	0.317576916482334	-0.122998642080781	-71.4835055951408	127.599424123266
55141	1657260401292	9.28295767424008	-0.0293514080748598	3.13088285841202	0.0322283374137585	-0.00341773953951435	-0.0159766504602103	0.0167513186782226	-0.0321435167314639	-0.0120609913780425	0.25439453125	-0.411376953125	0.4267578125	0	0	0	-0.523894734579856	0.258647437135107	-0.727903516964481	-0.358876413732753	-0.193484053491639	0.251446746568029	0.948334568960131	-0.793462868278656	-0.608618445859518	-0.000513831250004371	0.577044710319272	-0.75256768532797	0.317271620685886	-0.0927922144566738	-71.5019708005214	127.577678380746
55142	1657260401293	9.28730049648106	-0.0369868348174442	3.09487032638508	0.0168833167990984	0.0276094937323247	-0.0232801974020571	0.0154166772298246	-0.0304287684339085	-0.010461524192292	0.256103515625	-0.423583984375	0.4365234375	0	0	0	-0.523946051108051	0.258682773026055	-0.72789803211865	-0.358787142057274	-0.193504644445305	0.251249274472565	0.948382704742713	-0.793392544139292	-0.608710019267848	-0.000619150318816708	0.577134493408839	-0.752559575395826	0.317127516935659	-0.111862431307469	-71.5106655561735	127.602384128133
55143	1657260401294	9.33790716572653	-0.0330183544564051	3.11465491843158	0.0182570793106504	0.0217975366481943	0.0309840320181145	0.0157305690159502	-0.0252662045299298	-0.0125241277206472	0.25830078125	-0.408447265625	0.425048828125	0	0	0	-0.524082507470846	0.258638203731866	-0.727829536442844	-0.358758931338049	-0.193259109096503	0.251135176701902	0.948462988088691	-0.793326210060108	-0.608796617511069	-0.000450487230735375	0.577307925792544	-0.752527608483559	0.31688760986685	-0.0814515899469612	-71.525175904468	127.579799633156
55144	1657260401295	9.31504680960186	-0.0381692434158746	3.1125287356139	0.0249121971455733	0.020388964566771	0.0086339547840808	0.0112466643095998	-0.0105187124920981	-0.0153774855371737	0.259033203125	-0.41552734375	0.431396484375	0	0	0	-0.524048395331335	0.258634111364876	-0.727869435554002	-0.358730763352479	-0.193371037550402	0.251144734397032	0.948437643823423	-0.793291898551869	-0.608841271726097	-0.000519167526624287	0.577317595027774	-0.75248829109003	0.316963351578307	-0.0938470690263037	-71.5205940143561	127.594780470978
55145	1657260401296	9.28278805118232	-0.0115175018896181	3.10137874388344	0.00551924198264244	0.00470751939520416	-0.0255129046574272	0.0134167342505729	-0.00951632915330737	-0.012929695526028	0.26220703125	-0.41064453125	0.427978515625	0	0	0	-0.524123947351022	0.258568413941586	-0.727838553184027	-0.358730405212463	-0.19321316837857	0.251151842675203	0.948467934874956	-0.793239433776632	-0.608909743375669	-0.000353728575090251	0.57744252724132	-0.752430512634241	0.316872926249831	-0.063959853771927	-71.5260703424378	127.571378619388
55146	1657260401296	9.2862549699607	-0.0192333351200696	3.06791073705704	-0.00920614540813759	0.0359820368930936	-0.0328306162919816	0.00728580572204674	0.00177750995332173	-0.0121218115934278	0.25732421875	-0.42138671875	0.435791015625	0	0	0	-0.524063961817411	0.258551095829486	-0.72789005457733	-0.358726028072988	-0.193345201414434	0.251231593079445	0.948419906860235	-0.793220839529979	-0.6089339352567	-0.000402775550798373	0.577423876216915	-0.752384309466614	0.317016589539222	-0.0727953283708969	-71.5173880705267	127.581503507652
55147	1657260401297	9.29536045965698	-0.0494021690068363	3.07786764076844	0.0199190977112301	0.0503143918729329	-0.02103238274311	0.00704064969886318	0.00221201476964525	-0.0187556782996314	0.2568359375	-0.4130859375	0.423095703125	0	0	0	-0.524093251493113	0.25847193172596	-0.727871075313585	-0.358778792532492	-0.193208083536607	0.251362620804741	0.948413132194132	-0.793216201276598	-0.608940077077555	-0.000201397877254594	0.577476141921409	-0.752335573657762	0.317037048498455	-0.0363971557016455	-71.5161636959432	127.54742346668
55148	1657260401298	9.20627015992867	-0.0068074876043403	3.11170995011797	0.021500334653325	-0.0226297577677106	-0.094805861370439	0.0083354373805165	0.00208910290798097	-0.0131964413773855	0.2626953125	-0.4208984375	0.419677734375	0	0	0	-0.524026265999749	0.258465007684195	-0.727929760941623	-0.358762561425579	-0.193371794123437	0.251422985409961	0.948363765463984	-0.793192796883342	-0.608970528644334	-0.000286731621958913	0.577453492681329	-0.752290753399365	0.317184624690339	-0.0517947783002264	-71.5072440877482	127.564224751405
55149	1657260401299	9.23300276846473	-0.0076602201044892	3.07916600976833	-0.000683576461664795	0.0100784041360695	-0.0797761889720032	0.00633938823307068	0.000272889574427339	-0.0136067636699884	0.256591796875	-0.414794921875	0.428955078125	0	0	0	-0.524054653080304	0.258405346320399	-0.727914078247717	-0.358795892209893	-0.193264456636378	0.251508114073998	0.948363073066421	-0.793182210554128	-0.608984369452684	-0.000136465324803547	0.577503965927086	-0.752251092599578	0.317186795155834	-0.0246507319916947	-71.5071190144964	127.539480693178
55150	1657260401299	9.22967208749675	0.00313346499387872	3.1122108985847	0.00985141721531399	-0.022145743127784	-0.0724550441000602	0.00994683494443728	-0.00163008016193729	-0.0153178224182862	0.2587890625	-0.424072265625	0.431396484375	0	0	0	-0.524041891721616	0.258400997538067	-0.727934800261106	-0.358775621748449	-0.193320297919688	0.25150462596682	0.948352616661932	-0.793156416257224	-0.609017955420692	-0.000171246010974069	0.577520702453375	-0.752225068109598	0.317218040384324	-0.0309303743326175	-71.505230290637	127.547862119182
55151	1657260401301	9.22976320882476	0.00475341371030668	3.11193859340259	0.00986609660597673	-0.0221479072024125	-0.0724550638786354	0.00812644905294771	-0.00426280590815735	-0.013691075651771	0.260009765625	-0.4150390625	0.43310546875	0	0	0	-0.524090223975786	0.258343076822708	-0.727909093181099	-0.358798890543236	-0.193185586555907	0.251555788110209	0.948366498045614	-0.793136112088636	-0.609044421605439	-1.45677451290904E-05	0.57759366067156	-0.752186531373401	0.317176583581574	-0.00263156347453865	-71.5077377035635	127.522936143938
55152	1657260401301	9.20313175229139	0.0083676959726863	3.14418934033671	0.0292810111426062	-0.055064757349016	-0.0874757417449921	0.00147252025629124	-0.00448587181918288	-0.0113151314636835	0.2568359375	-0.412109375	0.428466796875	0	0	0	-0.52402309029012	0.258376345521624	-0.727950475391951	-0.358789033129938	-0.193340461096955	0.251570952388495	0.948330913772804	-0.793151636540931	-0.609024187561149	-0.000142891299094616	0.577520516999403	-0.752197842910911	0.317282929835367	-0.0258036819629769	-71.5013107259571	127.543449647714
55153	1657260401302	9.2535694832931	0.0143371358441347	3.11121674832795	-0.00264780560578493	-0.0210147315376991	-0.050107046605973	0.00697409593118094	-0.0121237008751264	-0.01567048481216	0.25341796875	-0.419921875	0.4326171875	0	0	0	-0.524100502892577	0.258331491774834	-0.727899170865163	-0.35881234688754	-0.193144725177606	0.251575090086887	0.948369700688419	-0.793141749095608	-0.609037080156888	2.89055531265126E-05	0.577599585333669	-0.752186020238176	0.317167006450273	0.0052217480392769	-71.5083162478048	127.514957982483
55154	1657260401303	9.27727798844443	0.0229052506964468	3.11077383173715	-0.0144767299854147	-0.0195242201744263	-0.0277635340052775	0.00395827999893894	-0.00707807664769426	-0.016547888406488	0.26171875	-0.420654296875	0.431396484375	0	0	0	-0.524075256622895	0.258317219877439	-0.727915522820608	-0.358826324211643	-0.193177588896815	0.251635176185867	0.948347065822382	-0.793145829375394	-0.609031765935103	3.7767567229785E-05	0.577582991865613	-0.752170224209838	0.317234678620875	0.00682120316709108	-71.5042277268679	127.51305738193
55155	1657260401303	9.23697325458476	-0.00982185951325299	3.09749146310026	0.0133437213360173	0.000622921398371092	-0.0702007164469904	-0.000313638889707524	-0.00869783012357686	-0.0168443015524546	0.271240234375	-0.40576171875	0.427001953125	0	0	0	-0.524128439301922	0.258289525816251	-0.727861934838155	-0.358877282343429	-0.192992950665453	0.251672454083684	0.948374766033417	-0.793179998300104	-0.608987234142822	0.000197351773060794	0.57759779370258	-0.752193807809245	0.317151799937096	0.0356530286714349	-71.5092313171943	127.482497795103
55156	1657260401304	9.25146198658644	0.0305648555085531	3.08729294826532	-0.0264046017790951	-0.0125041116009163	-0.0596874670761789	-0.000209315647473295	-0.00989398887529504	-0.0194039805292544	0.24853515625	-0.423583984375	0.4306640625	0	0	0	-0.524158520508348	0.258279750117597	-0.727822058369994	-0.358921255162962	-0.192866755941486	0.251702550053087	0.948392450807882	-0.793220676848709	-0.608934206542871	0.000299869438680933	0.577584082426345	-0.752226666902189	0.317098832115382	0.0541826281892124	-71.5124264661225	127.4610945736
55157	1657260401305	9.28438782441833	0.00747025644544898	3.09659873841951	-0.00702264254425211	0.00317376912030458	-0.0255132503929545	-0.000210245180775417	-0.00989174494671211	-0.0194037296079769	0.264404296875	-0.41748046875	0.425537109375	0	0	0	-0.524220286967005	0.258246719724166	-0.727760337480364	-0.358979962775648	-0.192652954115651	0.251746418672409	0.94842426158135	-0.793259096760768	-0.608884036154605	0.000485718403998359	0.577602670247293	-0.752252598002622	0.317003444967879	0.0877895595277538	-71.5181751336482	127.425598615536
55158	1657260401306	9.2579194391246	0.0113911025185426	3.12841426471164	0.0130198670116014	-0.0299199008580267	-0.0405272651751822	-0.00259230011394134	-0.00849614347852108	-0.01673012734628	0.256103515625	-0.427001953125	0.430908203125	0	0	0	-0.524193207258838	0.258284658414688	-0.727756052720079	-0.359000897520594	-0.192679674086204	0.251748025244808	0.948418407128085	-0.793312279165402	-0.608814781614033	0.000435216788188142	0.577520710381394	-0.752308110732297	0.317021033382603	0.0786574606894274	-71.517117019585	127.429257187257
55159	1657260401307	9.26446990294497	-0.00764623387698716	3.11596345517011	0.0213599099633541	-0.00707981318629367	-0.0382726635867066	-0.00259300332474831	-0.0084944469542186	-0.0167299378397559	0.25537109375	-0.4111328125	0.43701171875	0	0	0	-0.524241811199675	0.258265228117903	-0.727699821420246	-0.359057885639954	-0.192495916299701	0.251785856602599	0.948445678266728	-0.793359580436304	-0.608753013409947	0.000587191825916655	0.57751701129739	-0.752345433347744	0.316939190670585	0.106151513874997	-71.5220464110817	127.398720853097
55160	1657260401308	9.22905687499943	0.0298101730464175	3.0837916938887	-0.0211775243502967	-0.0139117624260035	-0.0820394633140182	0.00346245760906357	-0.00265822785478655	-0.0109051899253388	0.2568359375	-0.41650390625	0.43017578125	0	0	0	-0.524176550837533	0.258257875051425	-0.727749709809283	-0.359057339986937	-0.192633540307146	0.2518623056186	0.948397436814977	-0.793353194302945	-0.608761393150856	0.000524688805230378	0.577479894228404	-0.752313063303777	0.31708362705198	0.0948091421136569	-71.5133273958144	127.410086706427
55161	1657260401309	9.24472160669489	-0.0211493889594894	3.08149368301372	0.0162455595083735	0.0232610340789114	-0.0679388803109706	0.00840144618506072	-0.00625928890969962	-0.0142154240793745	0.260498046875	-0.41259765625	0.4345703125	0	0	0	-0.524233104547863	0.258200886052227	-0.727718508404608	-0.359078998360148	-0.192483850065565	0.251901961987798	0.948417296874448	-0.793331770356471	-0.608789150757036	0.000687068843204908	0.577559234717103	-0.752277323509904	0.317023909075908	0.124173862570231	-71.5169163626957	127.384243804746
55162	1657260401311	9.23564793657073	0.0120187731676921	3.07120901498355	-0.0141439772577873	0.00932771765148879	-0.0797856936818313	0.00374373597361409	-0.00467080424836057	-0.0114279553540409	0.2529296875	-0.414794921875	0.42724609375	0	0	0	-0.524218504853634	0.258169138606496	-0.727734460076875	-0.359090811156203	-0.192497497024401	0.251971435471356	0.948396071979342	-0.793319594829949	-0.60880497042872	0.000726938877345873	0.577571410388522	-0.752241253646587	0.3170873100804	0.131353275086105	-71.5130807772427	127.378581282241
55163	1657260401310	9.24212150984094	-0.00733711254287003	3.05900338907692	-0.00581543168707895	0.0321783381994519	-0.0775296250936819	0.0132040684321485	-0.00708499843556077	-0.00780970333252752	0.261474609375	-0.416015625	0.427490234375	0	0	0	-0.524278449689423	0.258112507930641	-0.727718978553135	-0.359075380240128	-0.192393956993326	0.251966286857199	0.948418449630671	-0.793257588870499	-0.608885609110325	0.000844226101720968	0.57769106191096	-0.752177708594016	0.317020080882021	0.152578594099561	-71.5171247011478	127.364276078727
55164	1657260401310	9.22480945803726	-0.0358588998891552	3.10093041109162	0.0445135147361471	0.0136661321115405	-0.0806784984735742	0.0163202364648755	-0.00457410379370846	-0.00387961988132724	0.262451171875	-0.415771484375	0.425537109375	0	0	0	-0.524295537183739	0.258073774281082	-0.727746223366095	-0.359023050922804	-0.192433277190593	0.251941482581418	0.948417061837441	-0.793169195060357	-0.609000751868798	0.000843937524050709	0.577799326615213	-0.752092795855615	0.317024233435064	0.152524441289598	-71.5168738845684	127.372644687542
55165	1657260401311	9.23321627922298	0.0261596106722775	3.04816737926448	-0.0358808870331025	0.0177192086252813	-0.0893808210182847	0.0189515453075165	-0.00640130264034988	8.03999019480138E-05	0.272216796875	-0.416259765625	0.432861328125	0	0	0	-0.524353017110348	0.258015767519127	-0.727754163267204	-0.358964698829902	-0.192396516882464	0.251893415757445	0.94843728700929	-0.793058800400232	-0.609144417410946	0.000904347733877708	0.577963077885811	-0.751992543736389	0.31696355431758	0.163473582552538	-71.5205295151579	127.372637964994
55166	1657260401312	9.23647831987427	0.0154857151036269	3.06869525345985	-0.0154401726977177	0.0088026057146316	-0.0797871745553795	0.0222510073759968	-0.0134514821117026	0.000436417128715889	0.26513671875	-0.41357421875	0.431396484375	0	0	0	-0.524434486147754	0.257986466721969	-0.727747738499499	-0.35887975957989	-0.192347575805643	0.251753866638198	0.948484264874441	-0.792941867071839	-0.609296602304389	0.000919709167440219	0.578139780266259	-0.751915980048997	0.316822905454512	0.166324166427231	-71.5290232979109	127.380922813296
55167	1657260401313	9.2071786168877	0.0295797532092136	3.07873671791954	-0.0139680430569939	-0.0153817783158856	-0.104381588739399	0.0221457093530684	-0.0122512042812808	0.00299600620496719	0.26806640625	-0.4111328125	0.429443359375	0	0	0	-0.524515946844188	0.257934852229052	-0.727749020644887	-0.358795201280801	-0.192298050088029	0.251643826206302	0.948523507702679	-0.792807599170449	-0.609471231086894	0.000963937246148461	0.578340358811255	-0.751811281645652	0.316705267023444	0.174387265155196	-71.5361214462964	127.385889334868
55168	1657260401314	9.23098049903861	0.0368095461170168	3.07795301852157	-0.0235776115259257	-0.0140115843434263	-0.0820451260213133	0.0235494424921473	-0.0135692166801524	0.00599500365634921	0.2587890625	-0.413818359375	0.435791015625	0	0	0	-0.524606913114987	0.257883095173337	-0.727751483213588	-0.358694402822524	-0.192251824191514	0.251506258342162	0.948569363889516	-0.792655276355854	-0.609669269215225	0.000997516816482469	0.578564472604618	-0.75169673684891	0.316567791871567	0.180540522083156	-71.5444191413346	127.394359476634
55169	1657260401315	9.23144905426431	0.0371289012401047	3.0765436120299	-0.0235289793197516	-0.014004912878428	-0.0820449987014307	0.0239332044557539	-0.0167765691263207	0.002914713273125	0.261962890625	-0.41162109375	0.431396484375	0	0	0	-0.524708944827871	0.257832324023001	-0.727742518659489	-0.358599836087057	-0.192173361551917	0.251362842448496	0.948623276409582	-0.792510549171002	-0.609857300494469	0.00104999346471768	0.578788759879209	-0.751592172970031	0.316406031813041	0.190135355083055	-71.554179240625	127.398842991751
55170	1657260401315	9.17261891186035	0.0647495699921149	3.09737477587725	-0.0212692688191797	-0.0618666906519983	-0.131231864346793	0.0219375285952176	-0.0185923405689677	0.00250803433383996	0.25634765625	-0.406494140625	0.4287109375	0	0	0	-0.524785605464317	0.257771521305353	-0.727759285777019	-0.358497326442887	-0.192159470461505	0.251249948730717	0.948655997279713	-0.792349084249467	-0.610067019474453	0.00107723655166053	0.579014392395375	-0.751459709507017	0.316307822202748	0.195129127363548	-71.5601053228484	127.409264174527
55171	1657260401316	9.19384280275511	0.0833372893377215	3.07394307222886	-0.0517544443932876	-0.0519921704262475	-0.118491467743679	0.0149820467573367	-0.0327217400971735	0.00135515446016028	0.25830078125	-0.41259765625	0.4267578125	0	0	0	-0.524931755365338	0.257777131193299	-0.727694306625137	-0.358411214875008	-0.191976106521772	0.250996797049604	0.94876012900816	-0.792258404930962	-0.610184703371148	0.00111695483887281	0.579199269976222	-0.751448757828971	0.315995205685635	0.202523742430117	-71.5789768837967	127.410740414349
55172	1657260401317	9.27723841474229	0.0613612027959603	3.1035606393949	-0.0311823268402062	-0.0417420485809517	-0.0300348047113879	0.0121419458598854	-0.0284971253634858	0.00251292916308848	0.26123046875	-0.410400390625	0.42578125	0	0	0	-0.525052248480372	0.2577649437667	-0.727652270301651	-0.358328820576171	-0.191841185420393	0.250797433005283	0.948840137839067	-0.792157686221771	-0.610315380218882	0.00115621280564332	0.579381704695849	-0.751409198949709	0.315754740261313	0.209801499245574	-71.5934893935478	127.413271836327
55173	1657260401317	9.29840920706108	0.0796032480176763	3.08022519522553	-0.061665979842411	-0.0318634735952832	-0.0172945970472966	0.00978931354361488	-0.0199387492678887	0.00363629969907096	0.251220703125	-0.420166015625	0.431396484375	0	0	0	-0.525139672563458	0.257772137449806	-0.72761835356583	-0.358264400978738	-0.191749886582581	0.250626755450046	0.948903688710372	-0.792092258875542	-0.610400288291809	0.00115822394948994	0.579501367060517	-0.751397176934981	0.315563698909004	0.210293662662613	-71.6050245301876	127.41893313866
55174	1657260401317	9.20229181688313	0.0630845865770223	3.05577955854609	-0.0443393660868461	-0.0286559608248271	-0.116236681161379	0.00403746370455924	-0.01188445340443	0.00135500488023298	0.25537109375	-0.412841796875	0.428955078125	0	0	0	-0.525151392412791	0.257794584639599	-0.727623724450965	-0.358220159669314	-0.191788664506795	0.250536603344087	0.948919658638975	-0.792061343663938	-0.610440538673975	0.00108471964383605	0.579530789553047	-0.751394542918855	0.315515934354807	0.196977730520189	-71.6079243345051	127.434473463453
55175	1657260401318	9.24961480749652	0.0769122653095905	3.054976521861	-0.0638293922026429	-0.0259391251682943	-0.0715671115555914	-0.00243316867843424	-0.0216768947014401	0.000173684536925089	0.266357421875	-0.41650390625	0.4267578125	0	0	0	-0.525227310111279	0.257840440024436	-0.727563565710933	-0.358198043058961	-0.191660869324003	0.250374009373425	0.948988391183076	-0.792073372381198	-0.610424938873472	0.00108016942865469	0.579556627030219	-0.751461409143273	0.315309160402551	0.196280080282521	-71.6204097651548	127.433993327198
55176	1657260401318	9.25324150135563	0.065504521025126	3.07453612524282	-0.0432164153717272	-0.0345000817064991	-0.0619702963581208	-0.00498987897890853	-0.0194694855140842	0.000810612905223149	0.26171875	-0.410888671875	0.424560546875	0	0	0	-0.525281345156752	0.257904439052048	-0.727508239483558	-0.358185106098923	-0.191565876398434	0.250220450560204	0.949048071027569	-0.792110013228832	-0.610377460172304	0.00104069987401323	0.579537955566605	-0.751551117513012	0.315129617495125	0.189215771675174	-71.6312573968855	127.4372497798
55177	1657260401319	9.22747390384717	0.0694866580842737	3.05079631647789	-0.0541751894431602	-0.0273210932288951	-0.0939024885426978	-0.00680606989009934	-0.0221004637762747	0.00244334777162277	0.247314453125	-0.41259765625	0.42822265625	0	0	0	-0.525348139655236	0.25797302472445	-0.727445217335659	-0.358165752760891	-0.191453251420013	0.250040630478225	0.949118188441649	-0.792143224959122	-0.610334424127484	0.00100093772747284	0.579529778071901	-0.751645909877134	0.314918501350601	0.182108431150571	-71.6440101078621	127.440867568144
55178	1657260401319	9.28418802295045	0.0509973874315927	3.05941414606879	-0.0450714549631772	-0.00995588851800287	-0.0373801035745309	-0.0139132288964722	-0.0195064091117587	0.00331347511886622	0.2548828125	-0.415771484375	0.424560546875	0	0	0	-0.525370605856792	0.258054764156881	-0.727404523459949	-0.358156564155409	-0.191419204108119	0.249900634168372	0.949161925774975	-0.792198185325701	-0.610263228496657	0.00090945670761744	0.579465894997523	-0.75175026770004	0.314786930395208	0.165533829341801	-71.6519692357907	127.45143833466
55179	1657260401320	9.26772948076929	0.0228899274580447	3.045330648648	-0.0269521611514922	0.0115577348958866	-0.0574573853850992	-0.0130740961363383	-0.0255381674027458	0.00175016884389118	0.26220703125	-0.417236328125	0.426025390625	0	0	0	-0.525439165087025	0.258150487910934	-0.727323501403432	-0.358151551288345	-0.191282300204803	0.249699326962762	0.949242502073471	-0.792268834301679	-0.610171583802197	0.000855870654372204	0.579414511228894	-0.751891537679912	0.314544018767993	0.155900771776322	-71.6666408918855	127.453939111756
55180	1657260401321	9.26523096695436	0.0315919005936496	3.0761860427245	-0.0149625043258278	-0.0201077206713035	-0.0501162433157027	-0.0145832919745903	-0.0230191637007755	0.00131169249808372	0.26220703125	-0.41943359375	0.423583984375	0	0	0	-0.525476241182854	0.258283158001119	-0.727245224561734	-0.358160457892075	-0.191191612709758	0.24949763920318	0.949313802312745	-0.792384291312241	-0.610021793391017	0.000739235824838202	0.579286545770777	-0.75208000878899	0.314329060490616	0.134747371670904	-71.6796329874136	127.463173274748
55181	1657260401322	9.24570220701432	0.0147709955152007	3.04079509025689	-0.017618859770707	0.00991054651528489	-0.0797919397524165	-0.015144280226814	-0.0189935862315858	0.00235509536709563	0.255859375	-0.4169921875	0.43017578125	0	0	0	-0.52551626407882	0.258376833976649	-0.72717971198137	-0.35816718768689	-0.191097843706209	0.249341367734815	0.949373739086441	-0.792466281798504	-0.609915354657335	0.000672581350067092	0.579205323131005	-0.75221814820526	0.314148135705687	0.122668287595528	-71.6905613568017	127.466934712902
55182	1657260401324	9.27592706548704	0.000532067435636375	3.02774709557954	-0.0197958670766671	0.0338440006125458	-0.0552011033510116	-0.016373342911995	-0.0184866605379156	0.00139549515633566	0.26318359375	-0.41796875	0.42431640625	0	0	0	-0.525523080764776	0.258510256518203	-0.727119344433635	-0.358183469480088	-0.191060187549412	0.249178046201176	0.949424197092611	-0.79259047186013	-0.6097540989322	0.000531744222610264	0.579047794789101	-0.752402977218157	0.313995877716784	0.0970288872353887	-71.6997663331835	127.479609489817
55183	1657260401325	9.24983130017673	0.00206407764611381	3.05889545869877	0.0024497112466125	0.0011489127410922	-0.070191934204141	-0.012021591107282	-0.0164793431572627	0.00627853081418358	0.25732421875	-0.41015625	0.43603515625	0	0	0	-0.525554167155516	0.258598926614709	-0.727071490455124	-0.35817099311161	-0.191012714157831	0.249016348590293	0.949476171983698	-0.792647322607507	-0.609680269694328	0.000436701960368879	0.578985634530952	-0.752516329975775	0.313838825078385	0.0797261558670322	-71.7092527101015	127.490694083744
55184	1657260401326	9.25356624788399	-0.00826189751119525	3.02420390048111	-0.0101304392279251	0.032937649481308	-0.0775356984361721	-0.0208453642536276	-0.0177106233514627	0.0062281209082916	0.25537109375	-0.41552734375	0.424072265625	0	0	0	-0.525566886763735	0.258695573133941	-0.727027269587582	-0.358172301070872	-0.190984100566144	0.248878406195783	0.949518094751432	-0.792725714162045	-0.609578406372998	0.000329530017715407	0.578887739926506	-0.75264447477757	0.313712095956754	0.0601847124707178	-71.716907852488	127.501881157003
55185	1657260401326	9.28360336682505	-0.0248510012765232	3.0656946767746	0.0216628488396731	0.0172786653576215	-0.0359995425822319	-0.0139214627707934	-0.019486458104731	0.00331511897443668	0.25830078125	-0.414306640625	0.42333984375	0	0	0	-0.525609355264002	0.258788392871568	-0.726963881499002	-0.358171590679406	-0.190895834578288	0.248712418951881	0.949579334758167	-0.792798820260009	-0.60948335869027	0.000257048564161588	0.578816733461461	-0.752776306839376	0.313526746747822	0.0469746033129583	-71.7280959107382	127.507551144787
55186	1657260401327	9.26396597303018	-0.0419493516923682	3.03051127764663	0.0185341687359571	0.0470542444609244	-0.065674182341537	-0.0185721795272373	-0.0178986678267309	0.00611135127873209	0.262451171875	-0.409912109375	0.426513671875	0	0	0	-0.52561529281423	0.258931603567933	-0.726905740973286	-0.358177375574767	-0.190875063172367	0.248525559927651	0.949632432218694	-0.79291920244052	-0.609326784600222	8.92739784280616E-05	0.578658663341381	-0.752964750590226	0.313365977267099	0.0163228378859087	-71.7378017493743	127.525340491002
55187	1657260401327	9.28791907582445	-0.0358329575641443	3.02915978735688	0.00877623381176362	0.0484127047548743	-0.0433418013792917	-0.0153334051014044	-0.018161164092881	0.000319215691809628	0.259765625	-0.416259765625	0.42138671875	0	0	0	-0.525653945327294	0.259019759366816	-0.72683870788521	-0.358192946244289	-0.190771486045371	0.248387479585806	0.94968937031908	-0.793006513301378	-0.609213155036785	3.98963336071811E-05	0.578573167346734	-0.753102245193265	0.313193388038814	0.00729865830082493	-71.7482151688773	127.525699249023
55188	1657260401327	9.26502262707604	-0.0432573490915464	3.02726085389498	0.0190596008161296	0.0468550443298045	-0.0656742360107891	-0.0168417334293764	-0.0156437397876651	-0.000116761245884712	0.259033203125	-0.410400390625	0.42724609375	0	0	0	-0.52569991251899	0.259115164712828	-0.726753274415803	-0.358229830582657	-0.190621980916494	0.248255765894975	0.949753828679501	-0.793123043582484	-0.60906143979313	1.71923863157009E-05	0.578462702453607	-0.753268370009667	0.312997866786741	0.0031471498025532	-71.7600109004439	127.51868083756
55189	1657260401328	9.29195076517373	-0.0480125754725612	3.04756199198706	0.0300800571773683	0.0396979444319512	-0.0337402106194489	-0.0135196370325982	-0.0155266489165188	-0.00131335465579941	0.26416015625	-0.417724609375	0.421875	0	0	0	-0.525734596400712	0.259187796464663	-0.726692277199707	-0.358250128498899	-0.190519959155805	0.248147220239226	0.949802664899829	-0.793203186504585	-0.608957063188629	-1.0566636816256E-05	0.57838641934458	-0.753388513504305	0.312849640622346	-0.00193519062954474	-71.7689527249951	127.515968040224
55190	1657260401328	9.27819865413178	-0.0870496031087515	3.05582472387506	0.0693032481918076	0.0524237321140866	-0.044214534672939	-0.0133090909378645	-0.00918623119764361	-0.000821968339091794	0.25830078125	-0.415283203125	0.4248046875	0	0	0	-0.525759374427739	0.259261760360227	-0.726630219486263	-0.358286120224624	-0.190416272511477	0.248064442475345	0.949845079758921	-0.793301646235455	-0.608828791338605	-3.02867990134015E-05	0.578285518790633	-0.753519432540774	0.312720839632537	-0.00554905696416767	-71.7767222489136	127.510135813711
55191	1657260401329	9.26598170721868	-0.0463070025427154	3.07848469504635	0.0526935108940437	0.00674354031612242	-0.0487328742502253	-0.0137697062651218	-0.00636035695677137	-0.00233521744328785	0.273681640625	-0.418212890625	0.427978515625	0	0	0	-0.525761853331031	0.259316280402655	-0.726590877835961	-0.358322810529302	-0.190358474072601	0.248030954535451	0.94986540990868	-0.793385387269087	-0.608719660345027	-4.87577205021128E-05	0.578189656269144	-0.753618617539182	0.312659080600101	-0.00893500862166467	-71.7804474461261	127.505470646385
55192	1657260401330	9.27556971255245	-0.0762222840290325	3.03309454868366	0.0492013213252788	0.0604711681955627	-0.0538150752046231	-0.00703923531846619	-0.00575178177514752	-0.000133642419116125	0.259521484375	-0.41650390625	0.4296875	0	0	0	-0.525794086339763	0.259375907142597	-0.726529941907896	-0.358355913967384	-0.190243235389471	0.24795596648497	0.949908074538295	-0.793469238943326	-0.608610355437112	-4.58847593752809E-05	0.578112513477477	-0.7537315662351	0.312529435128178	-0.00841201737112858	-71.7882674975766	127.497080990918
55193	1657260401330	9.27563080749617	-0.078478604876357	3.08709863349736	0.082463675246242	0.0205975200271156	-0.0368784850823456	-0.0047634165488131	-0.00594693580850645	-0.000253126806310193	0.27685546875	-0.41650390625	0.41552734375	0	0	0	-0.525809042566138	0.259402550995081	-0.72650649809905	-0.358362212730055	-0.190202750485801	0.247912538487203	0.949927516691915	-0.793497366398953	-0.608573682048927	-5.50939078485246E-05	0.578087228042242	-0.753775461777739	0.312470334585852	-0.0101022337626895	-71.7918321495525	127.496038648851
55194	1657260401331	9.27893704138012	-0.087912878870551	3.05355715329542	0.0712777737309234	0.0509485512182206	-0.0442209373135434	-0.00286289595933778	-0.0029390945472904	0.00271062305926662	0.265869140625	-0.412841796875	0.422607421875	0	0	0	-0.525856105178371	0.259481791537588	-0.726423162499397	-0.358404723031731	-0.190042822310364	0.247806816193537	0.949987109142189	-0.793607153244185	-0.608430508737984	-4.85437774907505E-05	0.577989110630963	-0.753925790701486	0.312289113014155	-0.00890634169918699	-71.8027624231072	127.484565805193
55195	1657260401332	9.25883271874298	-0.104364624728286	3.01969410549246	0.0686607992939007	0.0809462481511004	-0.0738906630444394	0.00214918058872953	-0.00615476842662321	0.00398432330811259	0.25537109375	-0.41455078125	0.427490234375	0	0	0	-0.525879552553253	0.259495284325397	-0.726414669753774	-0.358377763241229	-0.190032150041207	0.247735201042508	0.950007922132833	-0.793588257085385	-0.60845515245419	-7.52869751240448E-05	0.578018563860103	-0.753929438088457	0.312225787238542	-0.0138157257331704	-71.8065813760176	127.491009232027
55196	1657260401332	9.25587758179615	-0.0955676174841294	3.05216182372955	0.0810258498288197	0.0494574382961897	-0.0665556432530536	0.00706432097472655	-0.00817610229464138	0.00781785977675847	0.260986328125	-0.4130859375	0.419677734375	0	0	0	-0.525912848888229	0.25950783759452	-0.726418976213974	-0.358311077972095	-0.190057693553485	0.247610920496914	0.950035212595724	-0.793524945209546	-0.608537707258983	-0.000142035800793749	0.578097080472924	-0.753903635018861	0.312142715202566	-0.0260715722879589	-71.8115900471271	127.508613973844
55197	1657260401333	9.30607163161014	-0.0913162984655087	3.01899779944773	0.0491161829643771	0.0834983982444031	-0.0292180808181488	0.0123845481994243	-0.00624737830350098	0.00702366972461753	0.260009765625	-0.413818359375	0.42041015625	0	0	0	-0.5259510948768	0.259492243227319	-0.726428926881823	-0.358246054677609	-0.190070420211645	0.247520135243315	0.950056323598607	-0.793441052993096	-0.608647080025563	-0.000165534177590576	0.578208034176089	-0.753845152949521	0.312078443005499	-0.0303911053909632	-71.8154655044147	127.520616065963
55198	1657260401334	9.30002554601719	-0.0710893243290687	3.03015626252344	0.0409218995633776	0.0598782617577567	-0.0314749735788382	0.0191149344602583	-0.00563814698781251	0.00922418495926101	0.257080078125	-0.4208984375	0.420166015625	0	0	0	-0.525999521942513	0.259511073007572	-0.726423145337574	-0.358173030560052	-0.190073166191352	0.247364958187505	0.950096189317107	-0.793375759550591	-0.608732166331773	-0.000232014113602574	0.578296719385055	-0.753827385502756	0.311957011805413	-0.0426130093018156	-71.8227860401956	127.538374328414
55199	1657260401334	9.32964273421553	-0.0868866525229827	3.07304092750885	0.0727671980786141	0.0441591691537428	0.010047404099808	0.02169895640715	-0.000688684216250274	0.00703590497501985	0.264404296875	-0.41552734375	0.42529296875	0	0	0	-0.526034359101914	0.25945220817587	-0.726459437597721	-0.358090896619987	-0.190117525604265	0.2473154706441	0.950100197051974	-0.793238574825579	-0.608910922861118	-0.00022677986240921	0.578470301629043	-0.753699241077307	0.311944809433808	-0.0416532870962606	-71.8235221375216	127.550373117203
55200	1657260401335	9.33753852305394	-0.0277128449540548	3.07537669088084	0.0248397084598631	0.00734966135550567	0.018267038782346	0.0258746922482961	0.00212781515826148	0.00987906164645479	0.256103515625	-0.416259765625	0.4189453125	0	0	0	-0.526030338114988	0.259472851223769	-0.72649465702688	-0.358010385564213	-0.19024129442159	0.247204081223269	0.950104411169298	-0.793166447866866	-0.609004806611944	-0.000362631781156586	0.57852850912903	-0.753659928449237	0.311931845720879	-0.0666083360918011	-71.8242961720093	127.580866508287
55201	1657260401336	9.26101697541762	-0.0260632380291187	3.03213016254908	0.0126658890170859	0.0203354007921221	-0.0679270256951074	0.0225825855233488	0.00916840718902549	0.00953012536188952	0.25927734375	-0.407958984375	0.427490234375	0	0	0	-0.526027508146092	0.25940049719952	-0.726562237478944	-0.35792982244547	-0.190362605755535	0.247212991005402	0.950077794397978	-0.793020179620285	-0.609195248513593	-0.00037934611253948	0.578689098778415	-0.753503076481195	0.31201288545251	-0.0696603298365115	-71.819407830126	127.597522815829
55202	1657260401336	9.23125284852444	-0.0128046866698607	3.04393060466126	0.0136072857485573	-0.00401798468920413	-0.0925276246878006	0.0195046267076247	-0.000103839460510294	0.0117540282103944	0.254638671875	-0.41455078125	0.42578125	0	0	0	-0.526035704995378	0.259368833585665	-0.726624586393627	-0.357814135666435	-0.190510962774595	0.247118562210704	0.950072623157626	-0.792867631126961	-0.609393704963388	-0.000481520629952159	0.578849283124562	-0.753373565080372	0.312028490468854	-0.088418457887088	-71.8184582457793	127.629685854627
55203	1657260401338	9.25777388335816	-0.0158232921888888	3.01126847790315	-0.00853756818288403	0.0286617006523393	-0.0775206431406268	0.0168540964061309	0.00329940335675095	0.0149552139284611	0.26708984375	-0.415771484375	0.427734375	0	0	0	-0.526036724734988	0.259342086245093	-0.726679136537828	-0.357721230922581	-0.19064177035464	0.247050187147524	0.950064166478466	-0.792744033684755	-0.609554406498553	-0.000567957235641403	0.578975485191966	-0.753265975966372	0.312054093064258	-0.104281652883015	-71.8169054662351	127.656372001497
55204	1657260401336	9.23434738715062	-0.0232865565529463	3.01100209963387	0.000868133901584139	0.0270824307641061	-0.0998549555898069	0.0163732694180493	-0.00260710719716129	0.00783435783004635	0.25390625	-0.410888671875	0.427734375	0	0	0	-0.526056318246888	0.259322877049454	-0.726714426086814	-0.357634643719865	-0.190724423287788	0.246959633843635	0.950071120292243	-0.79263338559494	-0.609698214100318	-0.000635423626731579	0.579099741324276	-0.75317927943797	0.312032790942645	-0.116676973528717	-71.8181822866528	127.67854541271
55205	1657260401337	9.26389809754467	-0.0389082819955601	3.05407281889896	0.0326951642324635	0.0113441338341985	-0.0583301339096387	0.0135544095566471	2.74658974333963E-05	0.00184234927751857	0.254638671875	-0.41455078125	0.4248046875	0	0	0	-0.526080317176288	0.259279466890013	-0.726732637147316	-0.357593808718545	-0.190732335691723	0.246946534917568	0.950072936681067	-0.792553831632755	-0.609801652030791	-0.000607572840401194	0.579206008330213	-0.753099830084116	0.312027315857854	-0.111564961581518	-71.8185158160865	127.681165497555
55206	1657260401338	9.18130556048146	-0.0160317175710312	3.02209462017306	0.0106119010169674	0.00179429667203513	-0.146790155374488	0.0117828635109099	0.00296992691637462	-0.00522825009400663	0.2607421875	-0.41845703125	0.4208984375	0	0	0	-0.526049658818775	0.259205043893531	-0.726812816862221	-0.35752990213632	-0.190888251070087	0.24700518075975	0.950026376623958	-0.792424080376941	-0.609970228597093	-0.000630130121663852	0.57933216071798	-0.752944062266948	0.312169003353605	-0.115654491932081	-71.8099682183738	127.697233918209
55207	1657260401341	9.23428575022201	-0.0217080094134988	3.01120293872002	-0.00056135574468749	0.0272975882274386	-0.0998555353244583	0.00970040788933449	0.000771108578020091	-0.0102265440552676	0.26416015625	-0.40478515625	0.423828125	0	0	0	-0.526079039594874	0.259142435610896	-0.726807115402836	-0.357543646516611	-0.190806769869079	0.247071725421786	0.950025441274722	-0.792389339999613	-0.610015477802514	-0.000500695864225742	0.579406515692657	-0.752885568555058	0.312172084329175	-0.0918971832522003	-71.8097965446665	127.677932317449
55208	1657260401341	9.20155505939594	0.00429817081173707	3.00130204695596	-0.0190139160043113	0.0110549540868545	-0.134052947509716	0.00487240061851809	0.00317052268188164	-0.00946631186330334	0.259765625	-0.41845703125	0.43017578125	0	0	0	-0.526124210585251	0.259116902657062	-0.726761494398379	-0.357588417112876	-0.190647677965508	0.247107633081526	0.950048041184869	-0.792418336520494	-0.609977909408237	-0.000360527461967797	0.579419228911549	-0.752904222133734	0.312103491586915	-0.0661853947110079	-71.8139449632605	127.650787862108
55209	1657260401342	9.17495183147564	0.00793916315696792	3.03419994544814	0.00324906261183633	-0.0216791131899955	-0.149060055964675	0.00534289139231595	-0.00123259725676679	-0.0151051632962741	0.26318359375	-0.4130859375	0.4169921875	0	0	0	-0.526159905616183	0.259060938481117	-0.726735621644097	-0.357629025819802	-0.190514467226298	0.247188546914125	0.950053714298283	-0.792418462674382	-0.609977820088924	-0.000197515399646242	0.579462870070421	-0.752877733283464	0.312086367750505	-0.0362617481794366	-71.8149864582783	127.622350699508
55210	1657260401342	9.19841834402188	0.0161438746689332	3.03432799139344	-0.00666808776825078	-0.0211589895953019	-0.126727690460005	0.00115510920523874	-0.00246883659965383	-0.0107917785299203	0.263916015625	-0.41748046875	0.420654296875	0	0	0	-0.526176425759898	0.259104065139969	-0.726678668439785	-0.35768920201351	-0.190393607474953	0.247181324278516	0.950079821467961	-0.792519127859351	-0.609847036381762	-0.000155542389738472	0.579364916274473	-0.752986045783254	0.312006904804962	-0.0285632195694117	-71.8197800699379	127.605581393407
55211	1657260401343	9.18147708129302	-0.0101493248379426	3.02159900270987	0.0114885983713736	0.000299639323711812	-0.146790995737923	0.000547241883801045	-0.0143312580417512	-0.0138004148897831	0.26123046875	-0.415283203125	0.4228515625	0	0	0	-0.526249500726326	0.259092909176589	-0.726614118748063	-0.357720910537364	-0.190194426299224	0.2471551001439	0.950126537192583	-0.792545156527545	-0.609813229157463	-2.02306111288242E-05	0.579394731654888	-0.753022032889747	0.311864654799409	-0.00371676820437269	-71.8283607261398	127.579530851321
55212	1657260401343	9.15859895356205	-0.0158759239151053	3.01969479543546	0.021343878867212	-0.00221423531417547	-0.169125644705877	-0.00298818247540503	-0.0207823907156167	-0.0130879056556812	0.263427734375	-0.4111328125	0.427490234375	0	0	0	-0.526331744100488	0.259210404183711	-0.726472214959665	-0.357802993848086	-0.18990382549097	0.247006538674028	0.950223293187539	-0.792729195166047	-0.609573967912527	2.78346570177779E-05	0.579238258573521	-0.75326446052874	0.311569723030112	0.00511862433730757	-71.8461451483318	127.553840623857
55213	1657260401344	9.23884379935915	-0.0257756235190588	3.02812015523509	0.0212014643124571	0.0160637146749101	-0.0902544072373192	-0.00197388475324639	-0.0276190870473776	-0.01261434427462	0.260986328125	-0.4130859375	0.418701171875	0	0	0	-0.526447176056479	0.259236104189371	-0.726370958860295	-0.357820126923085	-0.189636255181814	0.246872067420512	0.950311671531051	-0.792768527350022	-0.60952279810693	0.000143635567175338	0.579272088714704	-0.753349945852139	0.311300026213753	0.0264365901384218	-71.8624044249343	127.529883608608
55214	1657260401344	9.2398044194374	-0.0227986779039479	2.9708362538233	-0.0114421778895516	0.0555570230202715	-0.107165470225869	0.000941586207192154	-0.0314424080555728	-0.00918074522185737	0.26025390625	-0.4140625	0.42236328125	0	0	0	-0.526598921030011	0.259279113007937	-0.726246287625159	-0.357818735728748	-0.189318657463017	0.246656854620267	0.950430871765663	-0.792801259242659	-0.609480187838595	0.000252933756646423	0.579331174096178	-0.75345490687968	0.310935835855691	0.0466077945496633	-71.8843564505249	127.507630566435
55215	1657260401345	9.27341369129535	-0.0488087663071563	3.03248994560293	0.0411536940348574	0.031236682426057	-0.0560532694478368	0.00339702922109609	-0.0324433737032946	-0.00726331777115004	0.262939453125	-0.4091796875	0.421142578125	0	0	0	-0.52673484362493	0.259308045861972	-0.726148485591791	-0.357796197206477	-0.18906457155201	0.246453167528387	0.950534283442255	-0.792799499479554	-0.609482437231659	0.000335158361422061	0.57941655258443	-0.753519737579171	0.310619483725334	0.0618221107553708	-71.9034216879236	127.493327645113
55216	1657260401346	9.32131842423758	-0.0321788067037991	2.97522254613761	-0.0111601529793531	0.0733282071118156	-0.0282886018543014	0.00640760817753668	-0.0374594976446119	-0.00638889955526388	0.25537109375	-0.4091796875	0.4267578125	0	0	0	-0.526908759822865	0.259359009759665	-0.72602017909728	-0.357763556587267	-0.18874479279992	0.246170054493231	0.950671187878183	-0.792804191218637	-0.609476283269032	0.00041775439001801	0.579514380819906	-0.753617253254839	0.310200125756833	0.0771616352260089	-71.9286916384519	127.478292958163
55217	1657260401347	9.32551641194691	-0.0425148763526175	2.99323578778521	0.0096812928932051	0.0647360650181377	-0.0186974332163086	0.0152266444615613	-0.0362163689461651	-0.0063513591839069	0.259521484375	-0.414794921875	0.42333984375	0	0	0	-0.527078559370721	0.259354269723264	-0.725929050872198	-0.357701786587357	-0.188475248247796	0.245932087160533	0.950786247956288	-0.792732386570067	-0.609569589297051	0.000528286997873106	0.579700305400005	-0.753619482437317	0.309847110055996	0.0976887795211783	-71.9499559829413	127.465512963196
55218	1657260401348	9.34369231931598	-0.0142486905868703	3.00212277998008	-0.00953608478321648	0.0434129759937171	0.0013614486079625	0.0120240858483828	-0.0288000699979571	-0.00210719716319029	0.27490234375	-0.41455078125	0.4248046875	0	0	0	-0.527177350123801	0.259340839444272	-0.725917487141828	-0.357589390746541	-0.18842773828393	0.245723550884386	0.950849580105062	-0.792598016952839	-0.609744313243716	0.000505953927016189	0.579899449014767	-0.753546155857568	0.309652741025576	0.0936177692218133	-71.961670787244	127.482006661063
55219	1657260401349	9.38819225510847	0.0117170680868188	2.97866432876403	-0.0497696389125286	0.0545821055109908	0.0364382578679301	0.0134681205693604	-0.0245448842174671	-0.00781936146930446	0.260498046875	-0.410888671875	0.4296875	0	0	0	-0.527303088187988	0.259317583903567	-0.725852670290175	-0.357552436571825	-0.188215416577923	0.245582856081238	0.950927977168292	-0.792538707336433	-0.609821291559935	0.000624286527724727	0.580049441285736	-0.753529729446128	0.309411687731654	0.115603049678175	-71.9761824052527	127.466660705431
55220	1657260401349	9.39501515022053	-0.00778005658532605	2.96503785400538	-0.0398894653510281	0.0772074305689056	0.0387220403002786	0.0158628662794852	-0.0172080919964514	-0.00489970197720544	0.26416015625	-0.42041015625	0.42724609375	0	0	0	-0.527465850839251	0.259248586663864	-0.725780136436733	-0.3575096363248	-0.187933272266668	0.245457232571463	0.951016210247492	-0.792436337945577	-0.609954060495396	0.000833299814724797	0.580280738503826	-0.753463198214443	0.309139893022427	0.154442852230831	-71.9925282326609	127.439318935633
55221	1657260401351	9.38291637398998	0.0341898457568195	2.98739812678733	-0.0564745718202324	0.0314931611069049	0.0341727937147151	0.0115574636357734	-0.00335004592186042	-0.00572740281871433	0.260986328125	-0.417236328125	0.4228515625	0	0	0	-0.527509318216947	0.259199394208786	-0.725771930453063	-0.357497829647293	-0.187858441983534	0.245463588469146	0.951029354179654	-0.792383971354437	-0.610021951678547	0.000927583348212913	0.580376470677517	-0.753406162176914	0.30909918647218	0.171939797281653	-71.9949644706811	127.427589365909
55222	1657260401351	9.38599725287614	0.025717031161616	2.95427749398638	-0.0698758957825167	0.0618430191495572	0.0268580570758186	0.00949694326591178	0.00317270378951827	-0.00512294860717487	0.262451171875	-0.412353515625	0.42578125	0	0	0	-0.527475927211947	0.259258859663523	-0.725758020115073	-0.3575322169211	-0.18787972015076	0.245458132982163	0.951026558887281	-0.792469362537877	-0.609911115098908	0.000860881883821163	0.580252979479539	-0.75349766863058	0.309107979795733	0.159571328781681	-71.9944463343895	127.431336016699
55223	1657260401353	9.37957812080958	0.0470334022530406	2.96660883249681	-0.0781384816713585	0.0389563709885361	0.0245806762435876	0.00374787509107647	0.011200378399157	-0.00739174695123022	0.26220703125	-0.417724609375	0.421630859375	0	0	0	-0.527454460625272	0.259208399973155	-0.725775000988841	-0.357566001305364	-0.187876693353991	0.245583676307192	0.950994745530076	-0.792466183496714	-0.609915120187699	0.000945611219246856	0.580258301197426	-0.753453518206578	0.30920559469972	0.175221160117872	-71.9885504156291	127.4167511182
55224	1657260401354	9.3556826072199	0.0409227922105778	2.96791443045371	-0.0686268388285387	0.0368507781685435	0.00224614412490354	0.00672598867291988	0.0216649457954376	-0.0070705548774776	0.263427734375	-0.414306640625	0.42041015625	0	0	0	-0.527385646191792	0.25919266021156	-0.725802917200063	-0.357622245487051	-0.187941419447332	0.245737560872592	0.950942203308125	-0.792515515247963	-0.609850988850509	0.000964100260706813	0.580169958673644	-0.753455255854285	0.309367090166643	0.178553889218603	-71.9788169331057	127.408955277704
55225	1657260401355	9.3440901363605	-0.00602723889740133	2.94629054857233	-0.0420964040318477	0.081112745726721	-0.0155279276735296	0.00463652040093235	0.0194683054058872	-0.0120643497772735	0.26123046875	-0.4208984375	0.42529296875	0	0	0	-0.52734173191308	0.25911229826881	-0.725834341190985	-0.357681455790788	-0.187949347932591	0.245953511382172	0.950884805247457	-0.792516423898385	-0.609849586138475	0.00109550812296472	0.580166149015117	-0.75338592535666	0.309543029337536	0.202775458847273	-71.9681897087886	127.385838135181
55226	1657260401356	9.30759769109357	0.0270883913417507	3.02600866910425	-0.0164560251792645	-0.00708122860529816	-0.0255266124942146	-0.00511092944719113	0.0254462446443248	-0.00797912446498951	0.263916015625	-0.418701171875	0.42626953125	0	0	0	-0.52721664423248	0.259193460106774	-0.725832682034186	-0.357810393886457	-0.188028664142123	0.246118743219634	0.950826369899845	-0.792723168197627	-0.609580944529394	0.00102502164259832	0.579857913685452	-0.75354935890268	0.309722720564242	0.189618635372535	-71.957376647895	127.378937374521
55227	1657260401358	9.34573391635542	-0.017779013710073	3.02691698653186	0.011305335244324	0.031288006808411	0.0109666201729652	-0.00320948958226773	0.0284614388686215	-0.0050216522781042	0.266357421875	-0.418701171875	0.433837890625	0	0	0	-0.527116686801156	0.259144953051361	-0.725889974414095	-0.357876566498681	-0.188144723293775	0.246358765290915	0.950741248637633	-0.792757281505612	-0.609536512918247	0.00106397335312819	0.579773624543702	-0.753506866713104	0.309983783607561	0.196658491439546	-71.9416367410542	127.369050896985
55228	1657260401359	9.33546504994361	0.0145652502016126	3.0200190762352	-0.0180342712137575	0.0165441891365618	-0.000906934433187345	0.000413808089859014	0.0337234850837285	-0.008297164995411	0.26025390625	-0.41259765625	0.430419921875	0	0	0	-0.526995285250198	0.259104276154976	-0.725950049004465	-0.357962944664224	-0.188276999142759	0.246632970597878	0.950643965640062	-0.792819898285228	-0.609455008651047	0.00109604432070515	0.579645046969952	-0.75348309220859	0.310281886804537	0.202391616167336	-71.9236642122013	127.357730976458
55229	1657260401360	9.28752078095958	0.00133101839203451	3.02301096598699	0.0015689501185915	0.0137963736863725	-0.0455769849707597	-0.000702381309270561	0.0417622295415391	-0.00621469122885173	0.25390625	-0.41796875	0.431640625	0	0	0	-0.526853036136918	0.259019801960573	-0.726043428699898	-0.358044075704811	-0.188460636331997	0.246980358535791	0.950517380720032	-0.792841834865835	-0.609426364089987	0.00115396647858695	0.579555358391167	-0.753392466945078	0.310669241011233	0.212821535316146	-71.9003041324802	127.345775567655
55230	1657260401360	9.25665553061723	0.0154649648843373	3.03814333883699	0.000973339746606142	-0.00977788750553318	-0.0701965138013438	0.000801977725669026	0.0392599039109869	-0.00577552662122267	0.254150390625	-0.427734375	0.427490234375	0	0	0	-0.526657289795451	0.258896167829375	-0.726234661725295	-0.358033642968537	-0.188888019215978	0.247333775000167	0.95034063363661	-0.792731991349955	-0.609569369571885	0.00108331439172094	0.57956648116243	-0.753160797853887	0.311209746777149	0.199444562625589	-71.8677357510297	127.368857597219
55231	1657260401361	9.26482071194978	-0.0160133486087161	3.05147905415788	0.0301245667079822	0.00443690872804796	-0.0583162689639653	0.00134825025263933	0.0368282575236165	0.000337842936068046	0.255126953125	-0.4248046875	0.42431640625	0	0	0	-0.526527263992672	0.258830010587411	-0.726330338078371	-0.358078630860138	-0.18909746878744	0.247604631395002	0.950228442959865	-0.792728860650137	-0.609573439481299	0.00108414541249624	0.579502459693244	-0.753068501791626	0.311552131783424	0.199378208176351	-71.8470921840477	127.369237223325
55232	1657260401362	9.21382762396875	-0.0206876453556847	3.08707554795813	0.0576988674817903	-0.0311876519910721	-0.0956517862799604	0.00132037718952025	0.0296826494797039	0.00189330072814329	0.26123046875	-0.414306640625	0.427734375	0	0	0	-0.526228403563036	0.259027966909531	-0.726436608585044	-0.358159229044392	-0.189611267867651	0.247744204350921	0.950089667509415	-0.792975698370847	-0.609252958018083	0.000612323021918326	0.578996639792399	-0.753281914263674	0.311976359284427	0.112455571584574	-71.8215882467731	127.428671908841
55233	1657260401363	9.20984899288547	-0.00954944005052374	3.06834263126716	0.0369479525926551	-0.022703089853501	-0.105254390131245	0.00359336629523948	0.0294956326469849	0.00177484621716407	0.255615234375	-0.424072265625	0.4267578125	0	0	0	-0.52612536661895	0.258972489422486	-0.726519115390879	-0.358183365462511	-0.189793550612049	0.247950131763849	0.949999547528503	-0.792958115530358	-0.609275852856539	0.000601781089950237	0.578960996234301	-0.753195636793142	0.312250696644793	0.110422408427232	-71.8050446359065	127.432267531656
55234	1657260401364	9.18860421526771	-0.0276185605723878	3.0922061706862	0.0656780583548039	-0.0332387112932485	-0.117970753720503	0.00123210686644733	0.0293075862724925	-0.00270163693453045	0.25244140625	-0.4140625	0.422119140625	0	0	0	-0.525949297581425	0.259004078552644	-0.726607542784435	-0.358239727606344	-0.190083267876276	0.248153350036648	0.94988855458894	-0.793045402778597	-0.609162369715256	0.000443232024069429	0.578746352390414	-0.753220500377202	0.312588447333404	0.0812419893354854	-71.7846892600084	127.451794937338
55235	1657260401365	9.16463856305829	-0.0321500768996829	3.03946964576106	0.0423103486469368	0.00529692448148099	-0.157212704688568	0.00518420821310754	0.0170601913916111	-0.00594118943627146	0.258056640625	-0.418701171875	0.424560546875	0	0	0	-0.525903557940927	0.258945441094587	-0.726645898968276	-0.358271466619921	-0.190134007902168	0.248312326304979	0.9498368531722	-0.793033641441883	-0.60917762948468	0.000509192352436183	0.5787458013502	-0.753155763664087	0.312745412562807	0.093285291499426	-71.7752150584497	127.441463838108
55236	1657260401365	9.21696302868869	-0.0400063665267167	3.08476548395356	0.0622054821561779	-0.00985480099913155	-0.0933345515900754	0.00689828009591067	0.0208911392075844	-0.00501858335667613	0.267578125	-0.420166015625	0.427490234375	0	0	0	-0.525765565646348	0.258968223829596	-0.72672318060384	-0.358300778397367	-0.190382244360834	0.248457813207138	0.949749080593637	-0.793084111951928	-0.60911202249277	0.000368000257694734	0.578595015880326	-0.753160845444779	0.313012058054241	0.0673611490948334	-71.7591417602729	127.4613508561
55237	1657260401366	9.14149809511387	0.0402832302715268	3.11086683243205	0.0275502305088222	-0.0953324747227428	-0.156795117409318	0.00755599629523087	0.0156760194211114	-0.00861643265279	0.2529296875	-0.41455078125	0.4267578125	0	0	0	-0.525731735306005	0.258897212423745	-0.726756546622916	-0.358334058989772	-0.190405689320104	0.248622284990712	0.949701338780005	-0.793064208004402	-0.609137871134259	0.000464685241113649	0.578614582824255	-0.753085661366634	0.313156751782703	0.0850196696221524	-71.7504048128937	127.446452959534
55238	1657260401367	9.15067257844013	0.0116187346008612	3.06705897123424	0.0227822391790223	-0.0416445274053798	-0.161804453703917	0.00573414204910444	0.00430844915000379	-0.0125790236916041	0.2587890625	-0.412841796875	0.4296875	0	0	0	-0.525709672396925	0.258898573770063	-0.726746258106348	-0.358386307183417	-0.190377190343504	0.248700846602819	0.949686482106571	-0.793122784205582	-0.609061566646522	0.000507156848948143	0.578543666952546	-0.753121435714802	0.313201737696291	0.0927770127100787	-71.7476868050022	127.433575588694
55239	1657260401368	9.20043645569874	0.0156266847527263	3.08939299240083	0.0238914058389114	-0.0476320177057212	-0.107545194790696	0.00174514481199992	0.000669936937102332	-0.0133838194576663	0.267822265625	-0.416748046875	0.427001953125	0	0	0	-0.525725880937997	0.258863396842445	-0.726724158224949	-0.358432752046179	-0.19027652074514	0.24878110532683	0.94968563603199	-0.793145854717215	-0.609031408071587	0.000630180321862517	0.578545157094952	-0.753119316984169	0.313204079774317	0.115281461458812	-71.7475320285923	127.410027940379
55240	1657260401369	9.19117313129699	0.048735864504266	3.07936870719059	-0.00459396446577023	-0.062039938998648	-0.119458792181179	-0.000916675751627865	-0.00466738897919764	-0.0157861634017038	0.26220703125	-0.415283203125	0.42919921875	0	0	0	-0.525788474218035	0.258827294824991	-0.726663664829364	-0.358489651245062	-0.19006330065933	0.248825990690248	0.949716572509661	-0.793179624418301	-0.608987202807542	0.000818672271397258	0.578568945891606	-0.753140234732989	0.313109823666097	0.149808008309655	-71.7531922087965	127.374046669873
55241	1657260401370	9.19149447090058	0.051983438926611	3.02434517586529	-0.0377527661065453	-0.0221618255478995	-0.136375044705741	-0.000735183368573002	-0.00547991249824747	-0.0137483376083548	0.261962890625	-0.4208984375	0.422607421875	0	0	0	-0.525823357707404	0.258810992256925	-0.7266213292006	-0.358536066145444	-0.189923371524522	0.248862175977671	0.949735084282147	-0.793217635818156	-0.608937519119872	0.000938101908696476	0.57856278412616	-0.753168450730509	0.313053333552594	0.171693170066825	-71.7565799591887	127.349674545889
55242	1657260401371	9.21804088687645	0.0472243631944058	3.09985853835907	0.00596337660993766	-0.0702609452289735	-0.0875314043007353	-0.00206978314614881	-0.0125146259279191	-0.0177480934714243	0.26025390625	-0.414306640625	0.422119140625	0	0	0	-0.52586431344343	0.25889052225674	-0.72651275463289	-0.358638590628551	-0.189690170317274	0.248828447303309	0.949790525904332	-0.793393594277515	-0.608708117595198	0.00101593952422135	0.578397997787346	-0.753365005416587	0.312884842664606	0.186039189104956	-71.7667297010306	127.319474327795
55243	1657260401372	9.27770220343273	0.0213240339838146	3.07627636688613	0.00307935130953799	-0.0220480278653784	-0.0382721125782268	-0.0058690869870727	-0.00823339347530076	-0.0109171420477194	0.26416015625	-0.420654296875	0.427490234375	0	0	0	-0.525896244714208	0.258905849754962	-0.726461364033214	-0.35868480219429	-0.189556704940674	0.248826073078744	0.949817793562663	-0.793456529561446	-0.608625947275009	0.001091787481735	0.578355419537452	-0.753432174558407	0.31280180151631	0.199981459511459	-71.7717236157229	127.300296353624
55244	1657260401372	9.33097067156253	0.015442608369518	3.06465930075495	-0.0083379435267086	0.0025046912902736	0.00868285504097166	-0.00624861433532964	-0.0050271524458722	-0.00783933779617869	0.2578125	-0.425048828125	0.430908203125	0	0	0	-0.525894611736351	0.259013609546754	-0.726379632608736	-0.358774910978224	-0.189430841198481	0.248785852797146	0.949853439142499	-0.79364129930523	-0.60838502664426	0.00107116393280693	0.57814310031336	-0.753640006105741	0.312693614832469	0.196271780236885	-71.7782538924142	127.286416961683
55245	1657260401373	9.28106369227069	0.0110638732210928	3.09683227187466	0.0235614248939879	-0.0316733639661644	-0.0286658244481668	-0.00322263870371936	-0.00131790805366531	-0.00136196294826135	0.26611328125	-0.412841796875	0.4248046875	0	0	0	-0.525893758054866	0.259032670848484	-0.726366694667529	-0.358788594509079	-0.18941299937826	0.248776841492938	0.949859357380517	-0.793671500418933	-0.608345639766602	0.00106395475697441	0.578107485757875	-0.753674774497437	0.312675661344062	0.19496203071369	-71.7793383335506	127.284816117098
55246	1657260401374	9.30132850117113	0.029173172571307	3.07587844006585	-0.00770151231081605	-0.0223086894281946	-0.0159514708289805	0.000385973881471176	0.00552698103655045	0.00252025013154402	0.263916015625	-0.412841796875	0.419921875	0	0	0	-0.525832067902357	0.259106977910286	-0.726368113061733	-0.358822483535894	-0.189494123349328	0.248780904575194	0.949842112529666	-0.793767936585176	-0.608219998614663	0.00094664380343279	0.57794847526867	-0.753774830306722	0.31272842072746	0.173436519937312	-71.7761786098557	127.296190574008
55247	1657260401376	9.30412736294196	0.0175085343812302	3.09813580112874	0.0129830359202094	-0.03100668986034	-0.00634207630989714	0.00417687198037075	0.0115583544823906	0.00844018833078375	0.25439453125	-0.4130859375	0.425537109375	0	0	0	-0.52578480503971	0.259102260707331	-0.726416189157548	-0.358797822478802	-0.189628922747648	0.248809030503451	0.949807842670031	-0.793737157028859	-0.608260282161641	0.000868732631129854	0.577946534905531	-0.753733039931628	0.312832714571409	0.159109271577448	-71.7699010138686	127.312709361285
55248	1657260401378	9.31327664075566	-0.0129770273148229	3.05448852069746	0.0087667278439273	0.0228448084898591	-0.0113307502068203	0.00417643821570766	0.0115594000731844	0.00844030355558657	0.256591796875	-0.414794921875	0.42333984375	0	0	0	-0.525733283011235	0.259114352811238	-0.726463573021045	-0.358768650211997	-0.189779141518581	0.248814632284323	0.949776371682138	-0.793714789799458	-0.608289615584549	0.000758963506349131	0.577927945247565	-0.753707517763501	0.312928534602884	0.138962464730695	-71.7641379575708	127.333962877676
55249	1657260401379	9.25365361623972	0.0151310552985828	3.02390998375952	-0.0215475952377645	0.0144279442714838	-0.0775092453600443	0.00569133062208632	0.017783136862035	0.0144783419220906	0.2607421875	-0.41748046875	0.4296875	0	0	0	-0.525658206891323	0.259109095908531	-0.726540746570659	-0.35872617623727	-0.189997960019972	0.248852722306708	0.949722642558758	-0.793664013284748	-0.608356013799302	0.000628085162464098	0.577925781744504	-0.753641349100993	0.313091851890527	0.114939371602244	-71.7543029923154	127.361574876538
55250	1657260401380	9.24991835647884	0.0233389722950801	3.05854384471013	-0.0102937541182837	-0.017140408555554	-0.0702120745420149	0.00824597119011866	0.0155853523211245	0.0138411939324198	0.263916015625	-0.417236328125	0.424072265625	0	0	0	-0.525554045410424	0.259126501852608	-0.726636484220306	-0.358672303349897	-0.190294248324834	0.248878800343356	0.949656486206533	-0.793618725630117	-0.608415269694619	0.000421819455454386	0.577890489092627	-0.753584900553399	0.313292802780736	0.0771433614026765	-71.7422002876996	127.401748853762
55251	1657260401381	9.25251289606778	0.0111839584727383	3.08137296492228	0.0103762405690802	-0.0258443649102993	-0.0606002256385008	0.00957242761129604	0.0138889388236205	0.0122440456542126	0.26416015625	-0.4140625	0.42431640625	0	0	0	-0.525502574112858	0.259108487956238	-0.726704671951924	-0.358622581320585	-0.190473777535442	0.248901055835268	0.949614661047031	-0.793549765417243	-0.608505271271985	0.000323481757536048	0.577926041875272	-0.753504876718324	0.313419672139585	0.0591351932336371	-71.7345527507984	127.425349293475
55252	1657260401382	9.24905833565774	0.0217110073223839	3.06115552982004	-0.00933911819872516	-0.0181390178492676	-0.07021292073963	0.00844289538392424	0.0131956391526127	0.00872627906251072	0.259033203125	-0.412353515625	0.427978515625	0	0	0	-0.525490476042952	0.259138010915646	-0.726694473037844	-0.358639643295447	-0.190474731690134	0.248893779756357	0.949616376747034	-0.793592006623903	-0.608450195111194	0.000295113193556573	0.577867721550719	-0.753551754339238	0.313414501773669	0.0539500737091138	-71.7348663977731	127.426296185292
55253	1657260401383	9.24539986849004	0.0305709670703825	3.09549908310387	0.00295450012560393	-0.0496666903216217	-0.0629185333113753	0.00826094030696849	0.0140106226504093	0.00668860486788114	0.261962890625	-0.413818359375	0.43115234375	0	0	0	-0.525443815567409	0.259110290779494	-0.726750733514447	-0.358614033788893	-0.190609542903243	0.248950224529389	0.949574529913784	-0.793541823889222	-0.60851566396365	0.000245864689832898	0.577892183623194	-0.753480240230389	0.313541307788257	0.0449287089817094	-71.7272178650021	127.439591188118
55254	1657260401384	9.22784419154875	0.00290397175632438	3.08485729905989	0.0212610087197361	-0.0275473126773788	-0.0829262977493172	0.00467641698713727	0.0143198349648149	0.00124946903635341	0.25927734375	-0.41845703125	0.425048828125	0	0	0	-0.525414720949095	0.258996837512529	-0.726834427814397	-0.358568994354242	-0.190735294595545	0.24907907747021	0.949515487268186	-0.793402081903585	-0.608697828892593	0.000299219820947938	0.578042544997	-0.753290492617578	0.313720018336987	0.0546475413945225	-71.7164316329686	127.443520236162
55255	1657260401384	9.25709098678067	-0.0104942910954676	3.07487220585827	0.0198011806755221	-0.00351200656788456	-0.0582894730788617	0.00354809111961856	0.0136249652733061	-0.00226859946162066	0.2626953125	-0.41455078125	0.425048828125	0	0	0	-0.525372686876662	0.258962823498289	-0.726867725073129	-0.358587654802567	-0.190796867414383	0.249187597006376	0.949474642569798	-0.793395574536227	-0.608706299737977	0.000320882579420811	0.578031156332588	-0.753247756158282	0.313843591859582	0.0585808077353555	-71.7089734959832	127.440399953714
55256	1657260401384	9.24402093777857	0.0311949967357346	3.09960833852621	0.00288919649783885	-0.0498356412669453	-0.0629193758646433	0.000268034092501691	0.0190816567600626	-0.00978423363184666	0.261474609375	-0.41455078125	0.427490234375	0	0	0	-0.525302400782668	0.258975055687302	-0.726864753487592	-0.358687800742017	-0.190800898661639	0.249354602739977	0.949429986445709	-0.793515476721436	-0.608549964261227	0.000359445699301908	0.57786521375963	-0.753318805745647	0.313978616527448	0.0655927233670842	-71.7008227619244	127.422456767603
55257	1657260401385	9.20302136010439	-0.00219853823966735	3.08877463549643	0.0308130250923576	-0.0298130662081478	-0.105252210355559	0.00566041610452665	0.0126692229092403	-0.0115749502952563	0.259521484375	-0.420166015625	0.4267578125	0	0	0	-0.525279658417814	0.258911074616291	-0.726881361427629	-0.358733636982397	-0.190782916299692	0.24951214720923	0.949392209386207	-0.793515030549369	-0.608550466276838	0.000475695782627295	0.577871763577715	-0.753266233405748	0.314092671787003	0.0867748352192746	-71.6939303464962	127.402387491027
55258	1657260401385	9.22266072322939	0.0153796941855874	3.12365005356886	0.0328109054377306	-0.0603108526232044	-0.0756353116549029	0.000185674561756582	0.018701357147435	-0.0143796726736204	0.256591796875	-0.4130859375	0.42333984375	0	0	0	-0.525201023146964	0.258899298769815	-0.726890673785839	-0.358838385272604	-0.190797797080665	0.249724198090175	0.949333463814156	-0.793620904513928	-0.608412332702896	0.000541602728208856	0.577721438539077	-0.753307545630096	0.314270076763761	0.098741566800021	-71.6832172069533	127.381060365745
55259	1657260401386	9.23165142607769	-0.0129984031377264	3.08068307642549	0.0288072798790024	-0.00621218722258107	-0.0806117208392791	0.00578083867776567	0.0186367048312145	-0.0156878390269198	0.261474609375	-0.4140625	0.42578125	0	0	0	-0.525161972998372	0.258813689794999	-0.726915692475124	-0.358906606409753	-0.190781899983783	0.249951472721025	0.949276844720848	-0.793627904607946	-0.608403043700265	0.000696738009844877	0.577717072334009	-0.75323966816734	0.31444075218231	0.126955815302712	-71.6728975861122	127.353616412092
55260	1657260401387	9.21382765752013	-0.0406299326528406	3.1246846282348	0.0798563247738448	-0.0249783679298847	-0.0837139548156145	0.0124026813574588	0.0117236147532971	-0.0165156327679447	0.261474609375	-0.408935546875	0.4287109375	0	0	0	-0.525156367310804	0.258722911505378	-0.726931025992215	-0.358949200284673	-0.190732522975827	0.250122652191567	0.949241678151529	-0.793602589576522	-0.608435853354348	0.000861493124639956	0.577768149430819	-0.753156339157828	0.314546489870201	0.15692369265312	-71.6664908114969	127.327548462589
55261	1657260401387	9.23058638784063	-0.0111332754341901	3.1376262047774	0.0616144080282393	-0.0465771736229176	-0.0637089014261889	0.0149583829497053	0.00952540955194378	-0.0171499926255397	0.260498046875	-0.4169921875	0.431884765625	0	0	0	-0.525168730731381	0.258616605600578	-0.726941322254087	-0.358986865454859	-0.19065246938577	0.250290064272582	0.949213632246995	-0.793559482309838	-0.60849176347706	0.0010591584960345	0.577853773850487	-0.753055547424627	0.31463051113925	0.192877296623767	-71.6613828549358	127.297470176581
55262	1657260401388	9.2069646438054	-0.0160982738217341	3.13795542805104	0.071698958962103	-0.0472101449288705	-0.0860306143251144	0.0224249525144574	0.00532200665855956	-0.0139384640183713	0.25927734375	-0.4189453125	0.42578125	0	0	0	-0.525229258461669	0.258409311656132	-0.726993891764045	-0.358941130330557	-0.190590982025655	0.250447756224912	0.94918438618237	-0.793344280787875	-0.608771785212852	0.00132878513190443	0.578169464527197	-0.752776749727742	0.314717707410419	0.241909894960819	-71.6560577779614	127.271169510506
55263	1657260401388	9.20712115599948	-0.012213340473122	3.08376558432113	0.0385735170847813	-0.0073194944552153	-0.102934662925891	0.0262081631984579	0.00262426402351765	-0.0136105891108906	0.259521484375	-0.409423828125	0.428955078125	0	0	0	-0.525282446346815	0.25828318048683	-0.727007097601837	-0.358927332860102	-0.190499042571678	0.250542195232466	0.949177919669105	-0.793228678817898	-0.608921936807083	0.00152904412078025	0.578358347290057	-0.752623865741187	0.314736300475026	0.27835075093609	-71.6548805669935	127.247439556097
55264	1657260401389	9.19442264797344	0.0310264135108609	3.10712955172535	0.0213271748021163	-0.0529026093372372	-0.107566519904935	0.0342569458782957	0.0015644361062893	-0.0129936968113927	0.26416015625	-0.41552734375	0.42626953125	0	0	0	-0.52533758714655	0.258126821482739	-0.727047005569376	-0.358878273589894	-0.190453608552357	0.250635305203778	0.949162455417825	-0.79305019150598	-0.609153857552712	0.00172382742173571	0.578618023173937	-0.752405157886401	0.314781927124518	0.313763402691182	-71.652065638301	127.230599125431
55265	1657260401390	9.19746289255379	0.0219003502053075	3.12854084625856	0.0420023435842671	-0.0616166815358127	-0.0979557647937383	0.0373543821697798	-0.00306900434484658	-0.00751112392297606	0.26220703125	-0.41796875	0.428955078125	0	0	0	-0.525423453209186	0.257986400744142	-0.727070662322011	-0.358805607313278	-0.190377461956568	0.25064984998824	0.949173890643779	-0.792858272228224	-0.609403106383266	0.00190107593249311	0.578906021853505	-0.752198448968953	0.314746423697634	0.346063671304756	-71.6541471308867	127.217960756139
55266	1657260401391	9.23209678719344	0.0808431174869534	3.09713538951512	-0.0272008068279241	-0.0651762925799464	-0.0748536213662696	0.0430304073947291	-0.0114821335812645	-0.00981148557780478	0.25830078125	-0.414306640625	0.429931640625	0	0	0	-0.525552344344383	0.257891666296755	-0.72703039906334	-0.358766526652929	-0.190162625415033	0.250597202467816	0.949230856014787	-0.792739481704372	-0.609556935616153	0.00211101618379694	0.579139266534695	-0.752091340435156	0.314573243617612	0.384490749505413	-71.6645196299118	127.192600556637
55267	1657260401392	9.22615558000369	0.103386209202558	3.10751210720052	-0.0356440514641997	-0.0881052194085461	-0.0771733252249564	0.0423426593271666	-0.0134111872606642	-0.00465628924526726	0.2607421875	-0.41064453125	0.427734375	0	0	0	-0.525681190693197	0.257759477465453	-0.727038072309321	-0.358657188608936	-0.190048613621034	0.250516243999252	0.949275058111836	-0.792513480105234	-0.609850145671741	0.00227676868535859	0.579485900011565	-0.751880583149122	0.31443867505624	0.414856591360463	-71.6725720429819	127.18496888873
55268	1657260401393	9.24363932177464	0.132794158550857	3.11809873351605	-0.0541751619757618	-0.109166666661055	-0.0571664061328256	0.0389390192627602	-0.0139165111335026	-0.00805798102711445	0.265380859375	-0.41796875	0.434326171875	0	0	0	-0.525803934948572	0.257586010922718	-0.727070473403998	-0.35853618460848	-0.189964052637984	0.25048267068976	0.949300842930985	-0.792241623213243	-0.610202502606631	0.00247310756951691	0.579885220671987	-0.751605839184828	0.314359337939039	0.450744373378197	-71.6772709099013	127.176388733002
55269	1657260401394	9.26740298480425	0.141671447975664	3.11722873137308	-0.0640255507926041	-0.107948208469095	-0.0348455045658706	0.0328787075007284	-0.0110280937583997	-0.00827230219633406	0.26416015625	-0.420654296875	0.43701171875	0	0	0	-0.525911687043634	0.257474180367323	-0.727065870685762	-0.358467799891496	-0.189835467743739	0.250442044947529	0.949337283218676	-0.792076767216151	-0.610415765770251	0.00264343252777199	0.580152471358114	-0.751446189039254	0.314247887750189	0.481956954729634	-71.6839135489455	127.162185111718
55270	1657260401394	9.30207476129934	0.200205829165024	3.08544500431885	-0.133708144014179	-0.110671065455519	-0.011742413070424	0.0280471085373471	-0.00864136287425075	-0.00752513737230436	0.25439453125	-0.416015625	0.4267578125	0	0	0	-0.52598188185201	0.25738225682179	-0.727062679202455	-0.358437294861581	-0.18973153123146	0.250455952259397	0.949354392223686	-0.791969567453168	-0.610554159051268	0.00279697930642558	0.580332792701401	-0.751329112202527	0.31419486767348	0.510036582743306	-71.6870331235138	127.145549110752
55271	1657260401395	9.28493759419609	0.172451475715684	3.12753723379069	-0.0825096066780289	-0.129326465430502	-0.0148426282842617	0.0227518896073561	-0.00343443385560085	-0.00830158935622708	0.259521484375	-0.421630859375	0.424560546875	0	0	0	-0.526043897311899	0.257293400796244	-0.72706500186968	-0.35840536695738	-0.189646822074108	0.250472750978963	0.949366885821399	-0.791863244208918	-0.610691397685699	0.00293585824156817	0.58050554290904	-0.751211965965477	0.314155848015223	0.535426575584037	-71.6893114709181	127.131385033442
55272	1657260401400	9.30218221018006	0.202910772494685	3.08494429272095	-0.136294476349997	-0.111708273962616	-0.0117898050566687	0.0157454697903278	0.0066796954638207	-0.00441502742875602	0.26513671875	-0.413818359375	0.437255859375	0	0	0	-0.525934149142139	0.257384720171564	-0.727088381235348	-0.358453431369964	-0.189808816610466	0.250519822714847	0.949322090527687	-0.791989477937324	-0.610528486722609	0.00276292178077264	0.580280346016906	-0.751328679957796	0.314292753176679	0.503669517781842	-71.6811438160073	127.149748579974
55273	1657260401401	9.32840753040139	0.19972916867654	3.10731683605266	-0.125450686680646	-0.119106013443632	0.0201439951104323	0.00458123740280966	0.00520061702750174	-0.00894924313497381	0.2578125	-0.416015625	0.433349609375	0	0	0	-0.525932230513559	0.257345863062324	-0.727089078619212	-0.358482729604099	-0.189770842965253	0.250604787589879	0.949307256686311	-0.791990722685099	-0.610526478680605	0.00284851024164406	0.580291066914693	-0.751301976083448	0.31433679134348	0.519198362912707	-71.6784398939758	127.134879626104
55274	1657260401402	9.33113679774307	0.189384984333833	3.12970904716258	-0.105179018231812	-0.12672022611418	0.0297685566804358	-0.00109692603782521	0.0136151147220852	-0.00665701778305552	0.259033203125	-0.416015625	0.423828125	0	0	0	-0.525870853310548	0.257243086546207	-0.727161822964591	-0.358498986449655	-0.189876644706012	0.250820270174793	0.949229188270478	-0.791926835895964	-0.610608942277502	0.00293363231453814	0.580343645078494	-0.751163039346448	0.314571680125234	0.53431344374979	-71.664215879366	127.126549219352
55275	1657260401403	9.29313724027115	0.144197190499752	3.1407960979595	-0.056531796889769	-0.115312273592492	-0.00293203979627243	-0.00941319198764513	0.0238375118206655	-0.00832876753804564	0.266845703125	-0.409912109375	0.431884765625	0	0	0	-0.525775156876144	0.2572227870986	-0.727195024735683	-0.358586556090386	-0.189952332406205	0.251042016574293	0.949155423167225	-0.792007421529834	-0.610504239176929	0.0029695435107025	0.580208889672595	-0.751174067617693	0.314793844418189	0.540472015917389	-71.6507857088181	127.113172952842
55276	1657260401404	9.2785803075083	0.107361771633446	3.09829426255494	-0.0498471634804712	-0.0625501660035632	-0.0302230237170225	-0.00867363170357662	0.0277558440299105	-0.00174056175493004	0.262939453125	-0.41259765625	0.43310546875	0	0	0	-0.525686372412607	0.257204792880269	-0.727219659118765	-0.358679661773955	-0.190005476178789	0.25125969366345	0.949087185332423	-0.792095911808908	-0.610389189498278	0.0030172569080601	0.580070672864683	-0.751194784116466	0.314999064758183	0.548797818925456	-71.6383703157027	127.096991640964
55277	1657260401406	9.26793697911083	0.137141236493548	3.1458282816849	-0.045992522104916	-0.116890563718105	-0.025250547852723	-0.00980975034289829	0.0358088542508763	0.000322724523710017	0.2587890625	-0.414794921875	0.435791015625	0	0	0	-0.525535552002357	0.257187221867841	-0.727299023105647	-0.358752348395173	-0.190218272205054	0.251518407824796	0.948976026801839	-0.792162522273868	-0.610302970857701	0.00297019645252605	0.579909947512566	-0.751178257331469	0.315334232978961	0.539664491409357	-71.6181631418581	127.09947749711
55278	1657260401407	9.2360821460265	0.0720553527018182	3.09229828719129	-0.0221591320714309	-0.0414600251188157	-0.0725383318154407	-0.0106772329872086	0.0346895495614041	0.00343929966798091	0.265625	-0.415771484375	0.435302734375	0	0	0	-0.525377927655881	0.257092735653644	-0.727433903367134	-0.358777472311449	-0.190513516987638	0.251832096901237	0.948833597010206	-0.792115491593607	-0.610364101271866	0.00295158533747958	0.579877269620407	-0.751023474232938	0.315762716812274	0.53555549315005	-71.592302561919	127.10787230571
55279	1657260401409	9.21128325833505	0.0626487685033077	3.14974827481432	0.0206239733512444	-0.0829279445802008	-0.077941607973889	-0.00623603412974665	0.035527616213036	0.0057679161719449	0.26171875	-0.410888671875	0.43115234375	0	0	0	-0.525227426376106	0.257076392538248	-0.727527208220903	-0.358820345410001	-0.19076822060436	0.252055984228161	0.948722966319578	-0.79215027236783	-0.610319376238737	0.00286443277645537	0.579746006450255	-0.750984713427865	0.316095757963706	0.519195251630707	-71.5722398318104	127.120206824009
55280	1657260401410	9.19026641483149	0.0452532141396956	3.11922749456534	0.0191029434849766	-0.0521641136967892	-0.107557889555022	-0.00711774406970742	0.0272418860986628	0.0104516927767106	0.267578125	-0.412353515625	0.4296875	0	0	0	-0.525140128273182	0.257009763364266	-0.727608346686718	-0.358831326732338	-0.190935849265471	0.252245056565094	0.94863898976573	-0.792109616967378	-0.610372120981908	0.00286855988967549	0.579746372281075	-0.750878355904949	0.316347654425338	0.519529284325233	-71.5570248597835	127.123749160675
55281	1657260401410	9.19880531624684	0.0125598962254549	3.1315979523069	0.0481583505833804	-0.0380644700212622	-0.0956243243252235	0.00225896408766137	0.024493406267951	0.00948449179247547	0.26025390625	-0.422119140625	0.422607421875	0	0	0	-0.525040544039381	0.256991538411692	-0.72769017461278	-0.358824171526451	-0.191155282086374	0.252363693784354	0.948563242061379	-0.792087602349122	-0.610401126226296	0.00277404154383371	0.579704138621846	-0.750814911387078	0.316575552599245	0.502050153574051	-71.5433111858782	127.142455000884
55282	1657260401411	9.17178607264357	0.0157509948968599	3.11160638166599	0.0379361611583808	-0.0319705948229445	-0.127567820201291	0.00119699948799892	0.017015793334579	0.01212811723753	0.255615234375	-0.417236328125	0.430908203125	0	0	0	-0.524969944648786	0.257108816115724	-0.72766180090331	-0.358900985505994	-0.191193279636554	0.252368272988556	0.948554365658918	-0.792265876848501	-0.610170278556795	0.00264793266518182	0.579447935714068	-0.751000989316724	0.316603227782044	0.479185982724249	-71.5417048094213	127.147435911974
55283	1657260401412	9.14158211716213	0.0283593880980683	3.12413526763718	0.0392768270215992	-0.0562316671123031	-0.152208897232132	0.00281173945865318	0.0133036765620208	0.0100205686916316	0.270263671875	-0.41650390625	0.423095703125	0	0	0	-0.524911597485098	0.25711077756423	-0.72771531000943	-0.358876427846463	-0.191351048723609	0.252398883926979	0.948514406608982	-0.792240599854483	-0.610203515192958	0.00254989967742569	0.579430416956672	-0.750963696485104	0.316723725771917	0.461270569289593	-71.5344750278141	127.166840633026
55284	1657260401412	9.16761961225017	0.0233773611711728	3.14700514699474	0.0506581443383456	-0.0643910880876616	-0.120281846152627	0.00705925288450943	0.00778121730000093	0.0118794874148708	0.266357421875	-0.4150390625	0.427734375	0	0	0	-0.524879284086857	0.25719937635903	-0.727691640649929	-0.358908197266667	-0.191373286142518	0.252351740761552	0.948522463774911	-0.792346238885207	-0.610066773470634	0.00244328295478402	0.579278605746389	-0.751090627582148	0.316700435873988	0.442017150566542	-71.5359325890554	127.175198921857
55285	1657260401412	9.17715903005699	-0.00715957792438992	3.10296731911081	0.0467009565816629	-0.0102919197591016	-0.125251251717154	0.00859990352215373	0.00367750969419699	0.00517756513628932	0.259033203125	-0.4140625	0.423583984375	0	0	0	-0.524872727462325	0.25718541298493	-0.727718179837525	-0.358873980734173	-0.191436171836537	0.252339021747988	0.948513157639808	-0.792297458455687	-0.610130258599559	0.00240932893010337	0.579324545861152	-0.751043331402725	0.316728566628062	0.435836015863487	-71.5342490961423	127.185653171647
55286	1657260401413	9.19080277140039	0.0297867187248019	3.14798792704567	0.0417147040279075	-0.0639330558241564	-0.0979694934302415	0.0104992777901731	-0.00205081935617085	0.00255463737268122	0.26708984375	-0.411865234375	0.431396484375	0	0	0	-0.524917473989487	0.257223836559531	-0.727658133119936	-0.358902751048945	-0.19130092157999	0.252274438526342	0.948557623483605	-0.792359584673197	-0.610049426390189	0.00244661756726822	0.579284253177285	-0.751130684386692	0.316595086812184	0.442767674125539	-71.5422943673842	127.173217438152
55287	1657260401413	9.22355598665798	0.00544280257884267	3.1582482741292	0.0610076440279645	-0.0485505257134478	-0.0637147132059432	0.0146872460778369	-0.000796670277076756	-0.00174844416483381	0.260986328125	-0.41162109375	0.43408203125	0	0	0	-0.524947319175413	0.257178001050861	-0.727667820787281	-0.358872303830652	-0.191281963267655	0.252269850133641	0.948562667008365	-0.792289458943805	-0.610140290637527	0.00249779648619108	0.579386420081627	-0.751058418802629	0.316579575732061	0.452051358213006	-71.5432071135455	127.170985291291
55288	1657260401415	9.16457500524395	0.0351223218626338	3.12567143643022	0.0323446155751396	-0.0559763183648084	-0.129903108639441	0.0129073220112798	-0.00502971422668725	-0.00726173082745358	0.256103515625	-0.416015625	0.4267578125	0	0	0	-0.525064101401003	0.257018895752046	-0.727654148658666	-0.358843164329752	-0.191078545667538	0.252324643402443	0.948589091080753	-0.792130225566946	-0.610345741280421	0.0027895956900959	0.579671195703943	-0.750873058800677	0.316497953292714	0.504988797670057	-71.5479898922511	127.135650176134
55289	1657260401415	9.19703580780862	0.00974127177137473	3.1902159933244	0.0846892589854922	-0.0806270860888386	-0.0787586820149428	0.0150753066837172	-0.00401068213345119	-0.00481880850201726	0.259521484375	-0.41015625	0.435791015625	0	0	0	-0.525110797239722	0.256968673877074	-0.727650215590654	-0.358818777405804	-0.191015471206534	0.252315071064168	0.948604340425254	-0.792063171885066	-0.610432371253724	0.00287260664289418	0.579783598856603	-0.750805850429684	0.316451502536242	0.520091435625994	-71.5507505806634	127.127592629937
55290	1657260401416	9.22095198007836	0.0192840239296505	3.13561489301779	0.0409661316829049	-0.0384916595175008	-0.0733214614663016	0.0175273542876341	-0.00500510200197393	-0.00289117241443859	0.255859375	-0.41943359375	0.4345703125	0	0	0	-0.525129338349125	0.25686854720286	-0.727706832739605	-0.358748509470068	-0.19107736991603	0.252349062682357	0.948582832054908	-0.791905903623712	-0.610636112821794	0.00292874099266927	0.579977998299837	-0.750628728654337	0.316515454925805	0.530146969747242	-71.546856895319	127.132812016096
55291	1657260401417	9.20831560225546	0.0612771144529333	3.15844047489874	0.0241106662836322	-0.0842196870745595	-0.0779607090385017	0.0199941311058013	0.00116773158954207	-0.00253400814933619	0.25830078125	-0.418212890625	0.432861328125	0	0	0	-0.525162809405042	0.256796914212181	-0.727727263877167	-0.358709350141248	-0.191063251478094	0.252364769982464	0.948581497187414	-0.791805525639323	-0.610765893944691	0.00300538865660838	0.580119680326097	-0.75051785166353	0.316518736937809	0.544014906783087	-71.5466152688355	127.129058275462
55292	1657260401417	9.11499320164869	0.0342450079014081	3.15628789307609	0.0609189243783326	-0.0892440887189851	-0.167235005974089	0.0189466606673405	-0.0150711671494394	-0.00546423115255427	0.248291015625	-0.419677734375	0.431884765625	0	0	0	-0.525151394403579	0.256794452238847	-0.727756122297813	-0.358669274838782	-0.191144728485198	0.252335591951414	0.948572844755135	-0.791759450624749	-0.610825921171945	0.00294387004474533	0.580155724886616	-0.750478809200482	0.316545244510655	0.532835256204733	-71.5450491523767	127.144003452807
55293	1657260401419	9.24473213569006	0.0276023643882495	3.1882676097226	0.0617131974583804	-0.0770922654403218	-0.0340815085850057	0.0259436420552026	-0.0164295090322536	-0.0037607088475212	0.26123046875	-0.41552734375	0.428955078125	0	0	0	-0.525260428602149	0.256729754392505	-0.727736319798522	-0.358596101764024	-0.191020635888665	0.25222685312943	0.94862676075742	-0.791626776437958	-0.610997338018419	0.00304955092650172	0.580377604229468	-0.750375817504023	0.316382630708501	0.552245824403343	-71.5548102040134	127.137980820697
55294	1657260401419	9.29815412899893	0.0218504763340298	3.17661139195091	0.0476375860306447	-0.0515312432049262	0.0128957125127673	0.0298012487743759	-0.00280017705519213	0.00517361475324673	0.26220703125	-0.413330078125	0.430908203125	0	0	0	-0.525191607789604	0.256724378555099	-0.727831611443323	-0.358507341552004	-0.191292522321372	0.252206973967836	0.948577257362791	-0.791524930496392	-0.611130159017626	0.00286585794706068	0.580426959493276	-0.750274330509234	0.316532737125739	0.518736482208157	-71.5458478317037	127.179384443555
55295	1657260401422	9.18896008079119	0.0466241371061074	3.1765121103314	0.0492407608461117	-0.0940074791619971	-0.090643941070164	0.0325505472770638	0.00136227174483695	0.005013709921536	0.267578125	-0.4130859375	0.42919921875	0	0	0	-0.525235615793234	0.2566272683511	-0.727883279575078	-0.358407483677425	-0.191343247092637	0.2521780666433	0.948574712131887	-0.791337191930202	-0.611373041565337	0.00290735535684694	0.580666178160971	-0.750086146220016	0.31653998608191	0.526235277751505	-71.545387142372	127.18986135864
55296	1657260401421	9.20309983351435	0.0859934370186662	3.16654523969511	0.0118797887476657	-0.106928395100752	-0.0802737213945299	0.0336838863623818	-0.00668758817909863	0.00295933963220846	0.261962890625	-0.412109375	0.433349609375	0	0	0	-0.525369894091408	0.256514553436453	-0.727859062438021	-0.358340541223742	-0.191157061795717	0.252112773193663	0.94862960491344	-0.79117286828092	-0.611584680781546	0.00310977965082082	0.5809513492727	-0.749935549114679	0.316373516515359	0.563168223161542	-71.5553252536619	127.17014850061
55297	1657260401422	9.17069486873507	0.110995959982518	3.15519858838584	-0.00751498333233133	-0.122570220831994	-0.114534829407416	0.0325915752568796	-0.0125589480431011	0.0127605473430895	0.257568359375	-0.408447265625	0.435791015625	0	0	0	-0.525455189191397	0.25646249033418	-0.727887605192801	-0.358194736714699	-0.191186749483443	0.251931925441769	0.948671666998207	-0.790970110957943	-0.611847043282956	0.00307883047331198	0.581217610188417	-0.749782302117826	0.316247670406848	0.557785671131155	-71.5629439192158	127.194229303232
55298	1657260401423	9.14773460017081	0.10351045208225	3.15362430841341	0.00239849305159676	-0.122506957321297	-0.136836231610795	0.0238598395326517	-0.0134409841249273	0.0172914707465014	0.25439453125	-0.41748046875	0.43310546875	0	0	0	-0.525534816672111	0.256322064275077	-0.727976957575036	-0.357996794777508	-0.191302902788884	0.25181449685185	0.948679428763898	-0.790639173083128	-0.612274588589588	0.00308644680455544	0.581629518998971	-0.749472672845848	0.316224311662349	0.559206721011543	-71.5643501326161	127.223854610551
55299	1657260401425	9.16875310667543	0.120494234065383	3.13064467772569	-0.0281862015991304	-0.112655750590361	-0.124137312157908	0.0257092366569596	-0.0247222040459252	0.0234032023830849	0.25830078125	-0.417724609375	0.42822265625	0	0	0	-0.525638444687619	0.256344012170398	-0.727984028551327	-0.357814514888572	-0.191345996802874	0.251477968320979	0.948760001768976	-0.790455039769908	-0.612513040718877	0.0029334368357336	0.581865568331611	-0.749390823535002	0.315983945781528	0.531890066782828	-71.5789538131356	127.266988381112
55300	1657260401426	9.21945607757148	0.122027087512276	3.15021049477917	-0.0294663751748914	-0.118717958880738	-0.0698887965798196	0.0212472887362493	-0.0327155128535813	0.0226558318246294	0.259521484375	-0.420166015625	0.43310546875	0	0	0	-0.52565671038565	0.256481187323571	-0.727996177401077	-0.357664632113727	-0.191522067522977	0.251114855532083	0.948820650588311	-0.79039908434934	-0.612586822968087	0.00258297998269263	0.581883652555603	-0.74945227577009	0.315804846751255	0.468613933989017	-71.5899536549446	127.332299624584
55301	1657260401426	9.30628958041867	0.0893016931512927	3.14687172891942	-0.0214316862676166	-0.0778192845330491	0.0113284222207852	0.0152945399232535	-0.0310402916568074	0.0198780224739996	0.260498046875	-0.4111328125	0.433349609375	0	0	0	-0.525768500592226	0.256543618414553	-0.727967301606574	-0.357514284228495	-0.191502040715178	0.250752310370599	0.948920569513449	-0.790282524731895	-0.612737816846709	0.00242876703497946	0.58204853706998	-0.749450229601496	0.315505711271541	0.441054937652646	-71.6080897435241	127.369333407385
55302	1657260401427	9.30718778777452	0.0879784499036983	3.14425145392288	-0.0222219765566257	-0.0774475342303801	0.0113296040908182	0.00982453063337788	-0.0250294810920052	0.0170480708777495	0.26806640625	-0.41064453125	0.4375	0	0	0	-0.525813407345804	0.256609884450986	-0.727962571630975	-0.357410299462486	-0.191556276987063	0.250504806044645	0.948974991712316	-0.790220476851789	-0.612818490080375	0.00225747197997356	0.582114929125672	-0.749467037543443	0.315343255714894	0.410160690003283	-71.6179750768424	127.404458671592
55303	1657260401427	9.27524471042423	0.111530045531522	3.13161784439316	-0.0416266301848494	-0.0930863919582222	-0.0229358142745468	0.00369384635316354	-0.0225534045638849	0.0122301497019628	0.2607421875	-0.414306640625	0.438720703125	0	0	0	-0.525883158525047	0.256679275488726	-0.727927594090799	-0.357329079246967	-0.191525665408472	0.250252777665987	0.949047663060344	-0.790186010153713	-0.612863357318196	0.00213883473552834	0.582171786371685	-0.749514544573438	0.315125306228608	0.38887489922828	-71.6311832222418	127.427871822906
55304	1657260401428	9.28837383616978	0.0695957396503065	3.10714462821869	-0.0236246401503368	-0.0460833385026324	-0.0182809009693994	0.00289217931922606	-0.010963820213888	0.00503781757178547	0.26416015625	-0.4189453125	0.4326171875	0	0	0	-0.525966004888804	0.256573164606496	-0.727935499746779	-0.357267240470667	-0.191439761175569	0.250237489770823	0.949069026232675	-0.790032539169848	-0.613060660180565	0.00228341669712512	0.582408280241519	-0.749358275894893	0.315059945810237	0.415247481359872	-71.6350677607587	127.41715587051
55305	1657260401429	9.26524164907412	0.0621999401510017	3.10605957278847	-0.0138931519772914	-0.0475388052301179	-0.040598295802079	-0.00239411284476409	-0.00576644174258777	0.00424905295655039	0.261474609375	-0.4111328125	0.431640625	0	0	0	-0.525974393965913	0.256612864093739	-0.72792266158033	-0.357252534814811	-0.191443126521166	0.25016084064631	0.94908855388469	-0.790048023348557	-0.613040928700001	0.00222273293028008	0.582386169230383	-0.749400009037745	0.315001549747598	0.40428722456047	-71.63861923449	127.426113011807
55306	1657260401429	9.22160783434615	0.0367489900226214	3.12657881223138	0.0267492249946195	-0.0587613297505948	-0.0756072981062239	-0.0118408381003227	-0.00342324609663084	0.000623292853209381	0.263427734375	-0.413818359375	0.42529296875	0	0	0	-0.525965329447791	0.256674298327062	-0.727878609972191	-0.357311497075225	-0.191377932553477	0.250155227875648	0.949103181375997	-0.790162355397142	-0.612893597272343	0.00221145558552976	0.582252470192095	-0.749522381513087	0.314957553594375	0.402292270819783	-71.6412799556415	127.417315431945
