// Start Time : 22/04/2022 06:20:16																																
// Update Rate : 100Hz																																
// Filter Profile : 46.1 human																																
// Firmware Version : 4.4.0																																
PacketCounter	Time_Of_Arrival	Acc_X	Acc_Y	Acc_Z	FreeAcc_X	FreeAcc_Y	FreeAcc_Z	Gyr_X	Gyr_Y	Gyr_Z	Mag_X	Mag_Y	Mag_Z	VelInc_X	VelInc_Y	VelInc_Z	OriInc_q0	OriInc_q1	OriInc_q2	OriInc_q3	Mat[1][1]	Mat[2][1]	Mat[3][1]	Mat[1][2]	Mat[2][2]	Mat[3][2]	Mat[1][3]	Mat[2][3]	Mat[3][3]	Euler_X	Euler_Y	Euler_Z
36725	1650608444666	9.26024672651413	-0.845507712984593	2.88854154109669	-3.46944695195361E-16	5.20417042793042E-16	-0.0756074988965203	0.00761078450288284	-0.027750477423638	0.0166362409446871	0.159912109375	-0.371337890625	0.4228515625	0	0	0	-0.532826055078369	0.260202189596893	-0.75267134981224	-0.28614166898658	-0.268438680598395	0.153456260055981	0.950995189792369	-0.708026284878646	-0.700835531597114	-0.0867659931766681	0.653176434571499	-0.696620939895308	0.296782431117211	-16.2965740286143	-71.9886327372042	150.245026639928
36726	1650608444667	9.26135268064062	-0.823046514895336	2.89179085286823	-0.010566121302244	-0.0173146325670512	-0.0755368054779222	0.00641309939825387	-0.0345027182486821	0.0132906310889369	0.17822265625	-0.373291015625	0.42041015625	0	0	0	-0.533264070474123	0.259770634158905	-0.752754650867522	-0.285497958604549	-0.26824069354801	0.152767140783071	0.951161989895438	-0.706872523827959	-0.702020266522632	-0.0865954990088139	0.654506046864332	-0.695578713078871	0.2962972975401	-16.2914677516058	-72.0195664634025	150.337831391792
36727	1650608444669	9.23493150865719	-0.841953039622277	2.86196421862127	-0.00825415172671026	0.00984207019445763	-0.107868023133099	0.0088813798379996	-0.0289467572455186	0.013249947070459	0.174072265625	-0.370361328125	0.415771484375	0	0	0	-0.533368480566251	0.259813852915842	-0.752707909033882	-0.285386806719085	-0.268144868978267	0.152472773183185	0.95123623915327	-0.70677885302233	-0.702102264767418	-0.0866952289858155	0.654646455853134	-0.695560538879465	0.296029651542949	-16.3231943682224	-72.0333528398824	150.376535456211
36728	1650608444671	9.23013059657276	-0.85429311861002	2.80608387875729	-0.0331548712046811	0.0538862507352797	-0.127893586957441	0.0173304281340612	-0.0342936700123403	0.0128795414681169	0.1708984375	-0.365234375	0.4189453125	0	0	0	-0.533513311211562	0.259836524426904	-0.752648010114285	-0.285253396482547	-0.267988093110492	0.152138313440457	0.95133396635172	-0.706643291523263	-0.702230960737836	-0.0867579179463464	0.654856961859742	-0.695503854313339	0.295697054667644	-16.3517603151285	-72.0515141374925	150.416184404978
36729	1650608444670	9.28211827165835	-0.860337800591504	2.82143721152564	-0.0310900985433782	0.0527989458276795	-0.0733519815252048	0.0184846503446415	-0.031322094922954	0.0113500356825696	0.1689453125	-0.37109375	0.422607421875	0	0	0	-0.533642792385252	0.259841908190391	-0.752604645784107	-0.285120676253803	-0.267863140215689	0.151840768184571	0.951416690641335	-0.706491814046302	-0.702376765441101	-0.0868112668612895	0.655071488312043	-0.695421642232694	0.295415105766494	-16.37605686507	-72.0669012444406	150.452854971472
36730	1650608444671	9.30788535390232	-0.813159659319828	2.82816979926737	-0.0651892405189265	0.0165317102960364	-0.0509262923540614	0.0197678978166399	-0.0312591928079769	0.00958784441906719	0.177490234375	-0.367431640625	0.41357421875	0	0	0	-0.533777094291825	0.259838388146681	-0.752559825128369	-0.284990763459923	-0.267724556703812	0.151553638604386	0.951501474703806	-0.706336757846014	-0.702528553575729	-0.0868447806513142	0.655295312247332	-0.695330947129901	0.295132051309421	-16.3969081050165	-72.0826847395787	150.486647817493
36731	1650608444674	9.3784789164243	-0.830024517966949	2.78798468716773	-0.0966931543890732	0.0648843722000238	0.00587189767528251	0.022347149233674	-0.0298757045397401	0.0076840313907246	0.17041015625	-0.36865234375	0.410400390625	0	0	0	-0.533911361519954	0.259817374904896	-0.752520059259124	-0.284863388574385	-0.267583015779655	0.151291931337475	0.951582934472052	-0.70616972486553	-0.702695563094895	-0.0868519734380903	0.655533103168411	-0.695219172001841	0.294867179474874	-16.4121309880917	-72.0978620578119	150.516101955233
36732	1650608444676	9.42497754650092	-0.823300728818304	2.75710895239288	-0.132490883705964	0.0871094483339316	0.0404610444339557	0.0243852500488055	-0.018127538517316	0.00507136353293971	0.165283203125	-0.369140625	0.414306640625	0	0	0	-0.534011700140427	0.259765995623764	-0.752507556133684	-0.284755174829952	-0.267491989041388	0.151124679491981	0.951635101836375	-0.705997003338848	-0.702872235850316	-0.0868265589974888	0.655756255841489	-0.695076939136398	0.294706263261451	-16.4160635438842	-72.1075882515926	150.534898451192
36733	1650608444676	9.43109835992787	-0.811301589882922	2.80875540540615	-0.107375823625662	0.0429681224132746	0.0604862639590458	0.0226242320343385	-0.0157774749658054	-0.000602572238252219	0.16357421875	-0.370361328125	0.419677734375	0	0	0	-0.534104052908633	0.25970172332558	-0.752493949266221	-0.284676539050941	-0.267384257561101	0.151019260316666	0.951682111748406	-0.705850232218861	-0.703028566031404	-0.0867541642827989	0.655958160620841	-0.694941737383239	0.294575751136592	-16.4099886163272	-72.1163572618201	150.54213613137
36734	1650608444677	9.4502639198866	-0.798479522208177	2.7584902316426	-0.153552436794418	0.0715039332960219	0.0628194551802235	0.0263324379283551	-0.000944833373741621	0.00593896411372879	0.175048828125	-0.365478515625	0.418212890625	0	0	0	-0.53414777443286	0.259621731852571	-0.752526293819027	-0.284581953976871	-0.267398533078257	0.150958065701072	0.951687809582211	-0.705663546754894	-0.703219335641156	-0.0867267246107846	0.656153170600356	-0.694761994052785	0.294565422836588	-16.4056216425944	-72.1174203918451	150.553388215896
36735	1650608444678	9.45251564617592	-0.827593384920776	2.77627700093992	-0.121749154607596	0.0805892367370362	0.0727240738109636	0.0256970073077737	0.00310304904959697	-0.00290400813990753	0.165283203125	-0.365478515625	0.4150390625	0	0	0	-0.534176428578146	0.259512870100729	-0.752563800183397	-0.284528276375308	-0.267398406188786	0.151000045616324	0.951681185372268	-0.705502678098211	-0.703393460389957	-0.0866233864316935	0.65632618686439	-0.694576580446325	0.294617226807158	-16.3843961402808	-72.1161844197542	150.546555906129
36736	1650608444679	9.428016899819	-0.826735447204198	2.78007562562388	-0.112872355105077	0.0750462945189138	0.0504481491563755	0.0290298319514296	0.0161690400032418	-0.00566731826858536	0.1689453125	-0.370361328125	0.41650390625	0	0	0	-0.534183922048062	0.259368708592139	-0.752621896515522	-0.284491988136705	-0.267423692222751	0.151128611285257	0.951653672135478	-0.705330987334415	-0.703584363378543	-0.0864710466865635	0.65650039386417	-0.694355230743026	0.294750820857193	-16.3501056375599	-72.1110517719377	150.527993631909
36737	1650608444681	9.44907737276025	-0.818993601941656	2.75621572183429	-0.140297945849378	0.0920298820462195	0.0627561676523811	0.0339623366222006	0.0272731669051155	-0.00577307319323696	0.171142578125	-0.363037109375	0.421630859375	0	0	0	-0.534137074267861	0.259186683979046	-0.752730554515357	-0.284458364333903	-0.267562049706101	0.151358570503667	0.95157823256533	-0.705123438782693	-0.703811403616854	-0.0863159557564236	0.6566669518381	-0.694074989661752	0.295039697481032	-16.3072112503883	-72.0969856754633	150.503366677848
36738	1650608444682	9.45432457204665	-0.781919233788161	2.8183552923702	-0.127369137993888	0.0267271385568974	0.0828590494444956	0.0348009448752443	0.0322661315911181	-0.0117271304108288	0.16796875	-0.35888671875	0.41845703125	0	0	0	-0.534110371755688	0.258984075328721	-0.752822678269244	-0.284449247832807	-0.267629472380702	0.151627527665078	0.951516451968857	-0.704931850675584	-0.704031748266955	-0.0860835834248911	0.656845150257138	-0.693792757447316	0.295306719018256	-16.2517031852542	-72.0854743216275	150.465945506375
36739	1650608444683	9.44740455534159	-0.814961056681619	2.76313693275782	-0.139656459694607	0.0916407539600667	0.0627688788848371	0.0382768135419421	0.0424351481045112	-0.0147076926440102	0.1767578125	-0.3603515625	0.4169921875	0	0	0	-0.534024102546757	0.258740354984095	-0.752964617923204	-0.284457326777846	-0.267804574283065	0.152025433019452	0.951403688088455	-0.704719776471495	-0.704274915890212	-0.0858305277730494	0.657001329255148	-0.693458802354605	0.29574337320367	-16.1837651837958	-72.0644818628338	150.417591399411
36740	1650608444684	9.34685274438769	-0.78406160767517	2.76091940485604	-0.136766276898979	0.0608717043225996	-0.0362528651447569	0.0419264678876586	0.0522324856845858	-0.0146568112300311	0.1669921875	-0.364990234375	0.4208984375	0	0	0	-0.533947574508892	0.25847520851117	-0.753106537132183	-0.284466338940041	-0.267957779372242	0.15244249758917	0.951293810240912	-0.704491340210046	-0.704538937190314	-0.0855385150198136	0.657183825153168	-0.69309896184565	0.296181108522358	-16.1089693856151	-72.0440495094488	150.364239496225
36741	1650608444685	9.3510171746644	-0.769864665132264	2.81938595914189	-0.111646761586313	0.0167277991742656	-0.016238882854017	0.0347698573014214	0.0576477767742765	-0.0160482846757995	0.17529296875	-0.35888671875	0.416015625	0	0	0	-0.533800663429792	0.258219427129988	-0.75328250566059	-0.28450842841694	-0.268223611763273	0.152955040654041	0.95113660934231	-0.704305846703836	-0.704755363224768	-0.0852827784767791	0.657274195744408	-0.6927659298381	0.296759158349149	-16.0336159862311	-72.0148562230351	150.305964847874
36742	1650608444686	9.27140322523944	-0.756346825781125	2.78610510702123	-0.123109223783207	0.0236468048368598	-0.103019968549301	0.0441760035843857	0.0636432332859746	-0.0142037119070338	0.174072265625	-0.3740234375	0.4228515625	0	0	0	-0.53369467322537	0.257929830114175	-0.753450261691526	-0.284525748685612	-0.268430188211514	0.153440446814584	0.951000138453235	-0.704063552406024	-0.705034602144329	-0.0849748430572094	0.657449426366881	-0.692374348933096	0.297284397016276	-15.9518894424747	-71.9895497461214	150.24678960577
36743	1650608444687	9.25353324596308	-0.748471424418315	2.8714706571175	-0.0705651193158754	-0.0374800329384265	-0.0953295590738463	0.0443639543039324	0.0632884081624333	-0.0111515794905095	0.168212890625	-0.36767578125	0.41845703125	0	0	0	-0.533533705533678	0.257642886897686	-0.753660436113714	-0.284530973581815	-0.268767820264174	0.153957146973226	0.950821253278611	-0.703801803576893	-0.705324535807222	-0.0847367716533916	0.657591727496899	-0.691964230350234	0.297923855781057	-15.8770378522427	-71.9564301504512	150.194804793338
36744	1650608444688	9.19622707547687	-0.681442801396115	2.82391903816099	-0.134926883402523	-0.0550759347646955	-0.169646696687613	0.0416079363253329	0.059768382509942	-0.0154991953929194	0.166259765625	-0.361083984375	0.41796875	0	0	0	-0.533447546449659	0.257360601164021	-0.753807422298906	-0.28455861653166	-0.268920217888854	0.154428031953835	0.950701793075767	-0.70358155692886	-0.705583829452162	-0.0844064711096486	0.657765086607805	-0.691594854349343	0.298398472310666	-15.794349162669	-71.9343454474326	150.133307475987
36745	1650608444689	9.19723321496324	-0.684970230144781	2.85309283328982	-0.115949379654793	-0.0667636643102401	-0.159681769245532	0.0391896980220545	0.0567615926608856	-0.012176894501107	0.159912109375	-0.36181640625	0.42236328125	0	0	0	-0.533305006945504	0.257099640128544	-0.753991875432128	-0.284573007143987	-0.269207946343769	0.154906419978831	0.950542520182403	-0.70335652143659	-0.705835957301603	-0.0841736605640387	0.657888049274336	-0.691230498769747	0.298971089225259	-15.7242724115886	-71.9049410688594	150.083211045794
36746	1650608444690	9.24720074428217	-0.66439259165016	2.88264268507122	-0.125066226620894	-0.0889830766017781	-0.105050886878722	0.0354328796164028	0.0498890055547236	-0.0119752185029684	0.16943359375	-0.36181640625	0.427490234375	0	0	0	-0.533250861970397	0.256852752055477	-0.754104287626105	-0.284599552623123	-0.269293225709095	0.155301582913033	0.950453879434398	-0.703169388645239	-0.706059516816493	-0.0838616097218609	0.658053166134372	-0.690913436732538	0.299340363938713	-15.6504653696039	-71.8885965246518	150.027922445382
36747	1650608444691	9.22125280991191	-0.686437078755481	2.88409331314324	-0.103796583964045	-0.0735048983386983	-0.127414293583044	0.0314333394591152	0.0501060414804983	-0.00969598285345729	0.17529296875	-0.369384765625	0.42333984375	0	0	0	-0.53311909502581	0.256637066181201	-0.754264420769169	-0.284616637501249	-0.269554800352687	0.155716165507095	0.950311888490611	-0.702988647397498	-0.706261571838777	-0.0836752877142141	0.658139173151895	-0.690613544570035	0.299842893561534	-15.5924920375997	-71.8624443570831	149.985872976989
36748	1650608444692	9.19598749368591	-0.661246125854133	2.89704599100478	-0.10628891036211	-0.0996732234621021	-0.149609490225473	0.0289544101372862	0.0432825479580193	-0.0112649442570944	0.171142578125	-0.355712890625	0.422119140625	0	0	0	-0.533087122617799	0.256412474100465	-0.754347065626082	-0.28465991534825	-0.269573704586005	0.156084367645588	0.950246119682924	-0.702845119731699	-0.706442751439211	-0.0833509244599694	0.658284706996229	-0.690345065250469	0.300141525649508	-15.5202614010373	-71.8503432712261	149.928968831615
36749	1650608444693	9.17316954841952	-0.665466771186288	2.92691155002733	-0.0788726132791233	-0.116653755801142	-0.161943018683671	0.0250124568181775	0.0355022097869745	-0.0157269957619318	0.174072265625	-0.3671875	0.43310546875	0	0	0	-0.533008977283984	0.256225673885828	-0.754451350457304	-0.284698075106919	-0.269696872330194	0.15644052569045	0.950152597732073	-0.702722863257589	-0.706590820144337	-0.0831263516750774	0.658364773139	-0.690112871064907	0.30049966835287	-15.4628865551733	-71.8331491784908	149.883669418437
36750	1650608444693	9.21812444607171	-0.680127756369362	2.89556563925719	-0.0998211015976587	-0.073395102403764	-0.127371671876929	0.0236576174335632	0.0291022571679453	-0.0220870860393768	0.17333984375	-0.36865234375	0.42529296875	0	0	0	-0.533038874099359	0.255996941131406	-0.754473765248709	-0.284788451980916	-0.269530192634402	0.156818188783658	0.950137637884678	-0.702643473877915	-0.706722207499354	-0.082679320534314	0.658517747578026	-0.689892583735942	0.300670249660503	-15.3753657662638	-71.8304002560621	149.808278230506
36751	1650608444695	9.27156869392473	-0.64080325907011	2.95236596805668	-0.104375010165911	-0.127726704357447	-0.0627196852430156	0.0260843583354779	0.0295976984960966	-0.0286201036467242	0.167236328125	-0.367431640625	0.416748046875	0	0	0	-0.533001000720888	0.255780091712441	-0.754545252610877	-0.28486477436934	-0.269523987108074	0.157224636578484	0.950072225689253	-0.702548815967332	-0.706857210014161	-0.0823288882100185	0.658621273233919	-0.689661727445971	0.300972955828214	-15.2985839142631	-71.8183852614537	149.743196327477
36752	1650608444695	9.22040663870928	-0.584934340703585	2.9482407560812	-0.129903622345711	-0.16762053639611	-0.117059615546843	0.0167084971093364	0.0248684375314914	-0.0288435415895126	0.166259765625	-0.367431640625	0.419677734375	0	0	0	-0.533046915231929	0.255551904212719	-0.754536192470303	-0.285007622121577	-0.269263282988659	0.157654823596789	0.950074860750896	-0.70253944048573	-0.706927759171715	-0.0818014539874142	0.658737898557664	-0.689491189145389	0.301108420829957	-15.1986012793951	-71.8188691245984	149.650841324192
36753	1650608444696	9.19055121436057	-0.570661966054698	2.90597314332261	-0.159449454439756	-0.149540137328805	-0.159253816844872	0.0128493096500562	0.0247006509043656	-0.0235602355111422	0.16357421875	-0.3701171875	0.419921875	0	0	0	-0.533002138919434	0.255405461104145	-0.754584837456794	-0.28509383266881	-0.269260452963033	0.157991652648229	0.95001970830274	-0.702518280889084	-0.706979114024775	-0.0815389314952676	0.658761621139839	-0.689361421916127	0.301353540690974	-15.1403121810562	-71.8087443509756	149.59723248278
36754	1650608444697	9.18960203239442	-0.615755609073664	2.8960607643633	-0.131272193802368	-0.106998225016706	-0.159375655089352	0.00662257597799134	0.0147731346277768	-0.020096969714036	0.16943359375	-0.37548828125	0.424560546875	0	0	0	-0.533064214186101	0.255231442397017	-0.754546791242596	-0.285234279481965	-0.268967898725119	0.158335724117119	0.950045297827268	-0.702554717224923	-0.706996633240685	-0.0810717576677925	0.658842271534245	-0.689264505871762	0.301398908732186	-15.0553526000433	-71.8134413463231	149.515576281553
36755	1650608444698	9.21392339133983	-0.589859770649878	2.90052682108976	-0.15252283973163	-0.12247321206305	-0.136990411406424	0.00299844297707498	0.0075000013686859	-0.0169029745644514	0.16748046875	-0.361572265625	0.425048828125	0	0	0	-0.533061716970263	0.255164470694822	-0.754546493888896	-0.285299644857334	-0.268898637089989	0.158506871752916	0.950036364871499	-0.702580515186477	-0.706990411078621	-0.0809022763782751	0.658843033393729	-0.689231550532901	0.301472597591493	-15.0217972532608	-71.8118015558364	149.482053722258
36756	1650608444700	9.18682697804896	-0.606480642627551	2.87411772437008	-0.147304236105993	-0.0940178374505963	-0.169263524787057	0.00183777085336852	0.00452773867332255	-0.0153724124278176	0.160400390625	-0.35986328125	0.42919921875	0	0	0	-0.5331633886549	0.255015678660986	-0.754474383394841	-0.285433371272662	-0.268529183123895	0.158774286792464	0.9500962075834	-0.702634380372544	-0.706989588402	-0.0804403469016793	0.658936268033036	-0.689170840753377	0.301407609270203	-14.9429495832576	-71.8227893950851	149.405284812147
36757	1650608444701	9.21140336684627	-0.581249926461974	2.87760738559942	-0.168548326710688	-0.109489825095626	-0.146869698715522	-0.00307694725767954	-0.00280632905279232	-0.0104231473754027	0.167724609375	-0.37060546875	0.423583984375	0	0	0	-0.533182814087321	0.255003601170367	-0.754448105672611	-0.285477330096592	-0.268437561525693	0.158828586458862	0.950113022585008	-0.702682737156532	-0.706951714782131	-0.0803507552472829	0.658922033676477	-0.689197180123427	0.301378500304139	-14.9284273335494	-71.8258779860978	149.388132684889
36758	1650608444702	9.21159921059825	-0.580664713086019	2.87709857161994	-0.165403296863462	-0.108016633880422	-0.146798793622519	-0.0039444540840341	-0.0077982882714285	-0.0044763415160572	0.166259765625	-0.359130859375	0.42041015625	0	0	0	-0.533314047863195	0.254911841202876	-0.75434964923292	-0.285574309538696	-0.268046880166541	0.158949628700566	0.950203075962679	-0.70274189222123	-0.706934533892113	-0.0799837340217765	0.659017983783683	-0.689186897965054	0.301192159132666	-14.8720511037677	-71.8424276912951	149.332402509226
36759	1650608444705	9.2067315020049	-0.592649116022674	2.82291339209971	-0.19056457975101	-0.0638789055007791	-0.166777227250165	-0.00871742781303133	-0.0167771784018754	0.00186947117634401	0.172607421875	-0.363037109375	0.427490234375	0	0	0	-0.533362381648479	0.254973716170639	-0.754296538253002	-0.285569091961882	-0.267949727116657	0.158820777968731	0.950252021425641	-0.702794332026872	-0.706877395556402	-0.0800279608780674	0.659001571021657	-0.689275204933998	0.301025947808794	-14.887761046186	-71.8514288398093	149.343674005615
36760	1650608444705	9.23380899753944	-0.622430902880059	2.83624345332958	-0.163693405602183	-0.0478031856463157	-0.13457573655095	-0.0166552304481082	-0.0218343224820899	0.00289876681003964	0.15673828125	-0.360595703125	0.427001953125	0	0	0	-0.533528019304907	0.254956295081762	-0.7541495857511	-0.285663337735539	-0.267488620180749	0.158813121386486	0.950383201950287	-0.702918429883646	-0.706787490143946	-0.0797315791009512	0.659056537031315	-0.689369158181233	0.300690280429529	-14.8508894198115	-71.8755744500115	149.301583503563
36761	1650608444706	9.25626246335022	-0.617080015868486	2.80779252088709	-0.19108995979432	-0.0308141184736048	-0.122206685073577	-0.0189727188482346	-0.0277774612104307	0.00596228371562764	0.1689453125	-0.36328125	0.4296875	0	0	0	-0.533598001599634	0.255083376742442	-0.754059867009703	-0.285656017902406	-0.267347624250035	0.158579517597912	0.950461879512417	-0.703027437882126	-0.706666220691628	-0.0798453136903171	0.658997472979037	-0.689547234880849	0.300411287197101	-14.8843338207982	-71.8900710806541	149.325340580176
36762	1650608444707	9.23501734497974	-0.648369606181309	2.82511047519388	-0.147140407909513	-0.0254747349349794	-0.134625704588064	-0.0241475034557961	-0.0305473250593354	0.00975278259888104	0.17138671875	-0.35986328125	0.423095703125	0	0	0	-0.533790896046579	0.255122516639946	-0.75388255181983	-0.28572868050427	-0.266852800870158	0.158447580055554	0.950622925792499	-0.703175887091135	-0.706543245281178	-0.0796260909572779	0.659039645606656	-0.689703564527602	0.299959561602181	-14.8666413705709	-71.9197794809169	149.299685405809
36763	1650608444708	9.26234613685386	-0.679247218939193	2.83733341886729	-0.123701141581201	-0.0110706964713153	-0.102513926153737	-0.0241280313650615	-0.0292723355154069	0.0113848875387838	0.170654296875	-0.356689453125	0.425537109375	0	0	0	-0.533852101669466	0.2552855075748	-0.753790090627153	-0.285712692118639	-0.266740382210829	0.158165382681746	0.950701467453983	-0.703304201659999	-0.706395134369193	-0.0798067294588614	0.658948228941707	-0.689920014103566	0.299662486330742	-14.9129817130017	-71.9342852851396	149.33391278025
36764	1650608444709	9.31172190913665	-0.680109730031469	2.82927404610111	-0.136585527861079	0.00118276966865712	-0.0578502192733605	-0.0310663911920148	-0.0322416000972654	0.00625061015498139	0.16162109375	-0.3623046875	0.41943359375	0	0	0	-0.534050271932879	0.255339778988846	-0.753590871442778	-0.285819353425306	-0.266195208511916	0.158053154437427	0.950872920709007	-0.703510268054525	-0.706217788946935	-0.0795596462834919	0.658948718571597	-0.69012725996535	0.299183808628691	-14.8915921681142	-71.9659900485927	149.300317331694
36765	1650608444710	9.33655594536815	-0.70491254762681	2.8178106209276	-0.132136677264896	0.0272717947052071	-0.0356719403443026	-0.0284439090489123	-0.0283111094462127	0.0076145542696671	0.171630859375	-0.3701171875	0.4140625	0	0	0	-0.534106573859936	0.255507410812411	-0.753489981041895	-0.28583033297574	-0.266062377021156	0.157804208780497	0.950951441044711	-0.703676959919858	-0.706033967541831	-0.0797168285563809	0.658824367803589	-0.690372267960049	0.298892261559076	-14.9336051146661	-71.9805278618289	149.327404110772
36766	1650608444711	9.3181202374864	-0.718373067018954	2.86457710720967	-0.0818623331098361	0.000165399376049563	-0.0381017267778567	-0.0356676529141521	-0.0279875219677729	-0.000308706249420632	0.162841796875	-0.36669921875	0.41796875	0	0	0	-0.534282230292447	0.255576707108981	-0.753276815423196	-0.286001896012854	-0.265490827741562	0.157777008697146	0.951115679563576	-0.70397738103709	-0.705766924520766	-0.0794285543155671	0.658733988324014	-0.690651477794033	0.298446090354118	-14.9032611286837	-72.0109728751564	149.277652443483
36767	1650608444713	9.34027715276574	-0.736719320400863	2.83010187285541	-0.0964139777156574	0.0379326250777879	-0.0258454675368078	-0.0333191992185558	-0.019502099213706	-0.000113780789641724	0.16552734375	-0.362060546875	0.42578125	0	0	0	-0.534308134432841	0.255729636052256	-0.75318206339976	-0.286066338628573	-0.265361734765079	0.157643220878426	0.95117388769538	-0.704196919911506	-0.705536806296448	-0.0795268064752829	0.658551325038236	-0.690917093341947	0.298234341446956	-14.9309954534817	-72.0217749229143	149.286759518381
36768	1650608444715	9.31653850589304	-0.737704427322323	2.83069203869671	-0.0842027146747425	0.0338237237773003	-0.0481248768800668	-0.0379440595367859	-0.0165212452129712	-0.00830528356353056	0.16650390625	-0.3662109375	0.417236328125	0	0	0	-0.534456043132241	0.255773020258691	-0.752987321162528	-0.286263854224831	-0.264819487447545	0.157707232781946	0.951314389566499	-0.704504978171716	-0.705266335744185	-0.0791967890589057	0.658440107222585	-0.691178576342057	0.29787380013435	-14.8889878586764	-72.0478746297255	149.225047086978
36769	1650608444719	9.29252948112936	-0.762052936346649	2.82545639843233	-0.063014496276674	0.0492762381209014	-0.0705811516146415	-0.0379370462003287	-0.0165150161794204	-0.00829719706253815	0.1640625	-0.361328125	0.420166015625	0	0	0	-0.534474378726434	0.25591718496485	-0.752882964232613	-0.286375234775939	-0.264652726784037	0.157651714402827	0.951369996978896	-0.704776428160851	-0.704991238693385	-0.0792309262497907	0.65821662126887	-0.691471829007818	0.297687065849319	-14.904048202101	-72.0582144348597	149.218048942176
36770	1650608444717	9.31704415021764	-0.785524348824807	2.81527730556	-0.0549857531556327	0.0763846343482585	-0.0484009953337914	-0.038218076361554	-0.013218626080935	-0.0110802899945034	0.171630859375	-0.365966796875	0.41748046875	0	0	0	-0.534602892293967	0.255965091627211	-0.752695532360179	-0.286585161835406	-0.264137385133398	0.157743385288063	0.951498011649395	-0.705102098528852	-0.704701633768096	-0.0789090490044448	0.658074822816601	-0.691746074627416	0.297363238838397	-14.8616315646965	-72.082039790125	149.154264934174
36771	1650608444718	9.29833596363162	-0.797681483774632	2.86345363313185	-0.00860363568966071	0.0477133213010902	-0.0509066129532449	-0.0385130763176741	-0.0111880072466296	-0.0154880530956425	0.16552734375	-0.3681640625	0.42138671875	0	0	0	-0.534609420869953	0.256084589536065	-0.752594335282259	-0.286731959537638	-0.263955100993599	0.157775228773626	0.951543315800646	-0.705396165196007	-0.704410932763703	-0.0788764092092021	0.657832771140376	-0.692034836542497	0.297226900238477	-14.8622689532358	-72.0904788823471	149.131757342788
36772	1650608444720	9.27472269824101	-0.773948944607421	2.87076892056107	-0.00925142048124536	0.0224768936212077	-0.0730671762566501	-0.0331818594659821	-0.00878879435696886	-0.0162560601275705	0.167724609375	-0.369873046875	0.423095703125	0	0	0	-0.534747820709142	0.256095872537792	-0.7524075889706	-0.286953815753302	-0.263404551742887	0.157919037849331	0.951672012620877	-0.705705876778092	-0.704144823387454	-0.0784811007664619	0.657721261327314	-0.692272811239465	0.296919344631862	-14.8057044157686	-72.1144730668261	149.056031209391
36773	1650608444721	9.30153698110825	-0.825816513857703	2.87855487915213	0.0270810781239965	0.0576676224904246	-0.0411684425720029	-0.0335309967831704	-0.0118186868319467	-0.0271651337570796	0.167236328125	-0.3564453125	0.422119140625	0	0	0	-0.534778750110201	0.256166374371318	-0.752294206349609	-0.287130465406994	-0.263135568531468	0.158028504171187	0.951728251363296	-0.705997838197407	-0.703869768953234	-0.0783224157844291	0.657515570183862	-0.69252750142008	0.29678095414405	-14.7836681087456	-72.1249679771852	149.012687780249
36774	1650608444722	9.27777663882786	-0.824366081225278	2.87996747292607	0.0387093761046609	0.0528452847841866	-0.06350073238929	-0.0326721747969024	-0.00681157076102011	-0.0330999227431956	0.16796875	-0.36669921875	0.417724609375	0	0	0	-0.534922551979717	0.256135576366978	-0.752106942015678	-0.287380545052182	-0.262540571418037	0.158256413541952	0.951854692656568	-0.70630719819403	-0.703613977689334	-0.0778300210683121	0.657421166482181	-0.692735359262852	0.296504859805327	-14.7078511107733	-72.1485854274834	148.918914357362
36775	1650608444724	9.2275947116473	-0.769532356837775	2.87267556935768	0.0106948194591647	0.0123289158796818	-0.117705043666556	-0.0300939766275777	-0.00668031462204686	-0.0366134280655146	0.1708984375	-0.368408203125	0.415771484375	0	0	0	-0.534951122886781	0.256160309799536	-0.751998110942243	-0.287590043194954	-0.262238526354594	0.158467847684232	0.951902776834745	-0.706600829149382	-0.70334772547706	-0.0775709050588654	0.657226158594419	-0.692957371211659	0.296418383611156	-14.665090598919	-72.1575748109816	148.855894440549
36776	1650608444724	9.20394979078229	-0.767225262848066	2.87393276241086	0.0219867715514924	0.0075461468164794	-0.140031341183027	-0.0284131500116801	-0.0166063315991227	-0.0406852998319297	0.1708984375	-0.364013671875	0.422119140625	0	0	0	-0.535125059510771	0.256130788699674	-0.751776886933563	-0.287870981580563	-0.261542937294874	0.158705493651382	0.952054545830249	-0.706953507833197	-0.703054634087852	-0.0770124616535127	0.657124059606333	-0.693200366252404	0.296076379527353	-14.5801257683929	-72.1859769573653	148.750425373953
36777	1650608444726	9.2287731571544	-0.787638999256132	2.86365712041503	0.0264837690637749	0.0336431477623325	-0.117878073346118	-0.0269494988160636	-0.0156544868860127	-0.0377923636175579	0.169677734375	-0.361083984375	0.42529296875	0	0	0	-0.535193333420294	0.256153596385399	-0.75164615556881	-0.288065075529693	-0.261173216245092	0.158862618916868	0.952129833282766	-0.707229407385262	-0.702807694637796	-0.0767327158870101	0.656974212922916	-0.693414747945831	0.295906861842599	-14.5373801133517	-72.2000825697186	148.68929967214
36778	1650608444727	9.25430073615937	-0.737004974196729	2.87123619937372	-0.00471141600039034	-0.00229786171009648	-0.0952171636263781	-0.0268275007185699	-0.0210819644140276	-0.0412626375858306	0.171630859375	-0.357666015625	0.421142578125	0	0	0	-0.535398312854295	0.256106888973548	-0.751430661192784	-0.288287823940659	-0.260477554320668	0.159018227781517	0.952294411896001	-0.707495012848716	-0.702598783975701	-0.0761955087263099	0.656964421022417	-0.693590766943369	0.29551581602613	-14.4581802331218	-72.2309552131017	148.596466583981
36779	1650608444728	9.25546984248722	-0.710312449328984	2.87491955754861	-0.0175428850077052	-0.0230655403606865	-0.0950442790782748	-0.027976051224731	-0.025308406349919	-0.0413445916344024	0.1669921875	-0.357421875	0.419189453125	0	0	0	-0.535505949966906	0.256137614517238	-0.751267585373365	-0.288485554485377	-0.260018924806613	0.159133258698029	0.952400527466548	-0.707786125035271	-0.702339214565368	-0.0758843125504753	0.65683252047228	-0.69382723617616	0.295253799958922	-14.4138391810349	-72.2508885621655	148.53309894427
36780	1650608444729	9.30749265307142	-0.736096113504508	2.88457100125052	-0.00044750231545064	-0.00308571817405883	-0.0406867670179132	-0.0305531365882452	-0.0279505062037239	-0.0410553007726569	0.1728515625	-0.36865234375	0.416259765625	0	0	0	-0.535696286003631	0.256129816293566	-0.751054404907122	-0.288694106688982	-0.259370403849933	0.159234378352462	0.952560447613393	-0.708065543645485	-0.702106459936949	-0.0754301320218211	0.656787773568256	-0.694039574999517	0.29485401273468	-14.349762709059	-72.2809698637877	148.453131119061
36781	1650608444731	9.30613241207648	-0.703360581560111	2.86440911193504	-0.0323070192033262	-0.0121787024615565	-0.0503893431691083	-0.0252261193479256	-0.0255417344589201	-0.0418236604460501	0.16748046875	-0.36181640625	0.418212890625	0	0	0	-0.535809434407174	0.256148826524374	-0.750893468433241	-0.288885838584635	-0.258906444531034	0.159351062903952	0.95266714634844	-0.708338894360296	-0.701865501870876	-0.0751054460074333	0.656676072136583	-0.694256477128534	0.294592057340901	-14.3027160179701	-72.3010676322528	148.388642369542
36782	1650608444733	9.28539945228498	-0.730371808085964	2.8817028102553	0.0100164270257344	-0.00804287917379976	-0.0630140146402684	-0.0263696303926233	-0.0297666789615977	-0.0419041086395174	0.168701171875	-0.359619140625	0.4169921875	0	0	0	-0.536009954095527	0.256140978579591	-0.750660858383841	-0.289125239114879	-0.25819985043455	0.159481772007956	0.95283702784515	-0.708658228689676	-0.701596790398108	-0.0746020014040159	0.656609741129377	-0.694498025987314	0.294170256405601	-14.2302876696299	-72.3331121702043	148.297703946907
36783	1650608444734	9.32957718833568	-0.737850309289378	2.82075185682151	-0.0318510328714799	0.0467342793178301	-0.0382884203412939	-0.0266348512689978	-0.0239380866252397	-0.0414244980807058	0.171875	-0.37109375	0.416015625	0	0	0	-0.536114453479333	0.256164069951721	-0.750502791130942	-0.289321313665259	-0.257748940459129	0.159606386152478	0.952938237868301	-0.708939427605313	-0.701346293449557	-0.0742850230613115	0.656483336939216	-0.694722374883604	0.293922524072651	-14.1837285390747	-72.3522300676604	148.23288403518
36784	1650608444735	9.30908294398223	-0.717411704266471	2.85057521978976	-0.0154177333956857	0.00922975651801248	-0.0505585238463944	-0.0227621387754151	-0.0224659793394734	-0.0450724866356524	0.169189453125	-0.367919921875	0.421875	0	0	0	-0.536288567359554	0.256132159002908	-0.75029396739899	-0.289568389380867	-0.257089440781616	0.159801334191055	0.953083707252073	-0.709244328616571	-0.70109292999176	-0.073764394126164	0.656412600247609	-0.694933260900879	0.293581779287893	-14.1039924364639	-72.3797434377369	148.135793926601
36785	1650608444736	9.28845336936489	-0.720353979105492	2.874373188635	0.0119317486437686	-0.00776846523650818	-0.0630159479853365	-0.0227579857484329	-0.0237141557552729	-0.0466811495453483	0.172119140625	-0.365234375	0.42041015625	0	0	0	-0.536404462802722	0.256126359893887	-0.750133665020383	-0.289774092451204	-0.256602455258809	0.15996395901976	0.953187658213154	-0.709513248973748	-0.700860526223177	-0.073385777320193	0.656312524248828	-0.695130242901931	0.293339080105661	-14.0456199143849	-72.3994297265688	148.060909993918
36786	1650608444737	9.28691033809026	-0.6869239918379	2.85471157012837	-0.0178372188067575	-0.0166393600339113	-0.0727002118666302	-0.0201623145386701	-0.021048743846024	-0.0469447145988003	0.168212890625	-0.3681640625	0.416259765625	0	0	0	-0.536593395318873	0.256062758635672	-0.749930697317855	-0.290005760219361	-0.255928374279508	0.160165273832935	0.953335068219285	-0.709771614117064	-0.70065704535896	-0.0728282952052906	0.656296368291266	-0.695288997357842	0.292998783480106	-13.958659886989	-72.4273829263999	147.960815307737
36787	1650608444741	9.28772210195677	-0.706884811030366	2.84645498666943	-0.0050061205647111	0.00413529994055597	-0.0728860173956214	-0.0185604996932411	-0.0230100958123953	-0.0442916159004369	0.169921875	-0.37060546875	0.41259765625	0	0	0	-0.536709520115824	0.256046526391714	-0.749781055830829	-0.290192066840198	-0.255462910720112	0.160315811924307	0.95343460273553	-0.71000624515239	-0.700457481331503	-0.0724599799291477	0.656223919932071	-0.695455359670035	0.292766134679558	-13.9014174509497	-72.4462819290869	147.889663434883
36788	1650608444742	9.29156957114306	-0.662019906202398	2.87998232839404	-0.0101964717677493	-0.0488816287573937	-0.0626443488420474	-0.0159684636157608	-0.0203455509312638	-0.0445579659815905	0.171875	-0.360595703125	0.4208984375	0	0	0	-0.536859409322756	0.256013746907671	-0.749590378059608	-0.290436225592419	-0.254857546970502	0.160529622401338	0.953560627901479	-0.710303178174769	-0.70020752051585	-0.071964041631002	0.656137962494932	-0.695657723700909	0.292477872031832	-13.8230151765989	-72.4702391233027	147.794002440779
36789	1650608444743	9.24388634700166	-0.683107913318099	2.8769001724249	0.0192358606739343	-0.0387759936293817	-0.107495426849512	-0.0198339288512628	-0.0255756175267832	-0.0457478044019775	0.1767578125	-0.36376953125	0.407958984375	0	0	0	-0.536984846226974	0.256002531566306	-0.749429944279227	-0.290628177181551	-0.254365075101444	0.160671957168588	0.953668144979297	-0.710549877355984	-0.699995932919543	-0.0715860718680336	0.656061948567384	-0.695837780000278	0.292219957508471	-13.7648546480389	-72.4907030551767	147.721082131268
36790	1650608444744	9.24228350073501	-0.649953743210356	2.8571353982759	-0.011173557510211	-0.0475548776149592	-0.117168851122997	-0.0100361024635427	-0.0232655752794275	-0.0381506251024574	0.174560546875	-0.357421875	0.417724609375	0	0	0	-0.537156160903642	0.255941660985507	-0.74926030070622	-0.290802556317626	-0.25379426408479	0.160812341524811	0.953796551855252	-0.710734901645916	-0.699855478822228	-0.0711210822814188	0.656082594724194	-0.695946621211583	0.291914249950482	-13.6925999961991	-72.5151733810828	147.640316652519
36791	1650608444746	9.26759114334227	-0.622540093089174	2.85824201850718	-0.0323013261816038	-0.0629926654923874	-0.0946455666381744	-0.0126061259383698	-0.0259138515947356	-0.0378606609160069	0.170654296875	-0.36474609375	0.414306640625	0	0	0	-0.537283445481314	0.255924949432346	-0.749119361267067	-0.290945187354252	-0.253354794334255	0.160896868597805	0.953899127719104	-0.710913823060373	-0.6997066364269	-0.0707966038863331	0.656058598274218	-0.696076734717929	0.291657838939559	-13.6440030788446	-72.5347449884763	147.581781596919
36792	1650608444748	9.24674945130239	-0.673569081147536	2.86993978304523	0.0219217559946524	-0.0380514786344392	-0.107498254325918	-0.00985480924904131	-0.0211341967462341	-0.0318830879842097	0.178466796875	-0.362548828125	0.406494140625	0	0	0	-0.537432921627798	0.255866860986023	-0.748978343382346	-0.291083227520937	-0.252872818813207	0.161007517775133	0.954008342062769	-0.71105261636494	-0.699605408210307	-0.0704020565286516	0.656094135216919	-0.696152894142357	0.291396008399537	-13.5825272829672	-72.5556066091692	147.514545324859
36793	1650608444750	9.29349931125506	-0.640158315222552	2.84506203937089	-0.0265370982135242	-0.0364817625067677	-0.0724987600840716	-0.00810425932287951	-0.0247518139924034	-0.0278525917417149	0.16552734375	-0.369140625	0.420654296875	0	0	0	-0.537549671020559	0.255858282924319	-0.748860747371934	-0.291177731446372	-0.252511759790866	0.161030075550283	0.954100165567321	-0.711176218805695	-0.699504135537527	-0.0701594624489914	0.656099227992652	-0.696249437439031	0.291153780489415	-13.5482970138436	-72.5731650353685	147.473805740583
36794	1650608444751	9.2972991044627	-0.596714734094355	2.87824585020257	-0.0320798759572482	-0.0893039988875926	-0.0622446575796456	-0.00779358775917407	-0.0280474289969316	-0.0250699580482893	0.186767578125	-0.365478515625	0.414306640625	0	0	0	-0.537702374183243	0.255848761820916	-0.748703866898241	-0.291307548072529	-0.25203213846735	0.161065202071197	0.954221044549605	-0.711347148722995	-0.699362647021351	-0.0698363942006976	0.656098342615831	-0.696383435065089	0.290835135744817	-13.5024318400123	-72.5963056001863	147.418732094189
36795	1650608444752	9.2737743755492	-0.642898347575504	2.86620053105911	0.00188398332176161	-0.0531047783098859	-0.084969715357138	-0.00617926024953567	-0.0249968335226511	-0.015951338144032	0.17626953125	-0.36083984375	0.41259765625	0	0	0	-0.537807510582844	0.255865597000726	-0.748605264220905	-0.291352082904681	-0.251754090695577	0.161002526474831	0.954305016379336	-0.711428285541846	-0.699293520117132	-0.0697019888753512	0.656117117860091	-0.696467342515722	0.290591755664293	-13.4882697553851	-72.612398380883	147.400150455066
36796	1650608444753	9.29627447231921	-0.58779423930561	2.84980592117361	-0.0490372015770141	-0.0770580963742548	-0.0720882195005572	-0.0073059140253209	-0.0267175835728634	-0.0127982812360237	0.18017578125	-0.361328125	0.412353515625	0	0	0	-0.53798041117142	0.255854575515723	-0.748449256435272	-0.291443345995389	-0.251275706541685	0.160971611734438	0.954436304589047	-0.711550610678589	-0.699198424525363	-0.0694067113770627	0.656167850282918	-0.696569955824158	0.290231026766999	-13.4492947244302	-72.6375880759923	147.355665061902
36797	1650608444754	9.29959906063075	-0.640613706326726	2.85882911187073	-0.00430408487049477	-0.0472017032174711	-0.0626316896377386	-0.00440230288716113	-0.0210882932467693	-0.00220669532905876	0.164306640625	-0.362548828125	0.41748046875	0	0	0	-0.538056555716194	0.255896000608773	-0.748382838524653	-0.291436968699999	-0.251119272251564	0.16083981035524	0.954499694347115	-0.711585893191662	-0.699163460294782	-0.069397207431221	0.656189475467619	-0.696635493779579	0.290024759446522	-13.4567362160688	-72.649763079763	147.360775217084
36798	1650608444756	9.25175549106854	-0.64191750109542	2.86198380489134	0.0130927502836099	-0.0572473489377293	-0.107300206760533	-0.00537911169186496	-0.0257146322199766	0.000714229078603732	0.179931640625	-0.362060546875	0.415283203125	0	0	0	-0.538167379195379	0.255916496809827	-0.748294733146848	-0.291440578806815	-0.250876521989453	0.160715079530803	0.954584534719626	-0.711618721054831	-0.699138271370669	-0.0693143084010758	0.656246726893752	-0.696689558351667	0.289765237261127	-13.4528459693488	-72.6660709825661	147.35579583532
36799	1650608444758	9.22544221749272	-0.684053372791844	2.82614276597461	0.0280233078190677	-0.00938123946476457	-0.139894498596705	-0.00476599812763913	-0.0348195097754957	0.00303357556115829	0.1689453125	-0.363037109375	0.413818359375	0	0	0	-0.538287622227497	0.255993301897417	-0.748198568895519	-0.291397952365872	-0.250667338227289	0.160451010309408	0.954683905194141	-0.711643113447513	-0.69910932548127	-0.0693558224509976	0.656300209224998	-0.696779466054945	0.289427730280651	-13.4757345658191	-72.6851907726558	147.376879359482
36800	1650608444759	9.22644279282365	-0.684703138668985	2.82271701227622	0.0290073133273453	-0.0087508267706364	-0.139896808568949	-0.000126659977727676	-0.0390811687432678	0.00955379228945902	0.173583984375	-0.367919921875	0.415771484375	0	0	0	-0.53844948927631	0.25603839897586	-0.748087341070403	-0.291344840143383	-0.250380663239816	0.160175283267538	0.954805426307242	-0.711630263922242	-0.69912504474341	-0.0693292094465638	0.656423560626483	-0.696827130960534	0.289032971495919	-13.4884785780566	-72.7086004032705	147.391852825704
36801	1650608444760	9.20054627426129	-0.680297391283289	2.79797571715048	0.0182704215078999	-0.00242249123100111	-0.172086606678109	0.000497825754858447	-0.0469264912182508	0.0134991404636439	0.18017578125	-0.360595703125	0.41552734375	0	0	0	-0.538609358911639	0.256141254745129	-0.747980422773276	-0.291233417138721	-0.250166110468995	0.159753634936059	0.954932297755988	-0.711593942972446	-0.699149508718589	-0.0694551998304131	0.656544726197493	-0.696899376225343	0.288583232220769	-13.5323767678864	-72.7330735424762	147.438096152168
36802	1650608444760	9.22324428211061	-0.698590217594412	2.76099333833467	0.00502477936946376	0.0359363195526824	-0.15981066821257	0.00385139819805004	-0.0550161455601711	0.0169329082682222	0.172119140625	-0.36767578125	0.409423828125	0	0	0	-0.538837597757529	0.256213959051288	-0.74783297151975	-0.291125912859196	-0.24979949220959	0.1593116845855	0.955102089227304	-0.711542541414069	-0.699200220098329	-0.0694713176242956	0.656739998363004	-0.696949667744363	0.28801690086032	-13.5610344193227	-72.7658785491223	147.471970127982
36803	1650608444762	9.27880445710703	-0.711038976552758	2.79722874257996	0.0265864588138893	0.0232685768898633	-0.0954333241975966	0.00417345130452676	-0.0595549447366404	0.0181100799153017	0.18212890625	-0.3642578125	0.41796875	0	0	0	-0.539044274759878	0.256333816459176	-0.74770313861292	-0.29097123723224	-0.249534017904275	0.158769662269924	0.955261727617748	-0.711470767028597	-0.699257427286026	-0.069630439098634	0.656918656739394	-0.697015957297982	0.287448488776142	-13.6168202082649	-72.7967772256315	147.532846673833
36804	1650608444763	9.27476812946337	-0.700241778018592	2.74465757982804	-0.0104048599777275	0.0469876173026507	-0.115136718781256	0.0069016001525719	-0.0622968269921924	0.0143732771041408	0.17626953125	-0.370849609375	0.41015625	0	0	0	-0.539296823096475	0.256425233091412	-0.747529092066615	-0.290869890064487	-0.249107287303846	0.158288782522902	0.955452887765554	-0.711446036794788	-0.699281613775776	-0.0696402280591889	0.657107370329316	-0.697101058643984	0.28681007286413	-13.6478447376018	-72.8338480276329	147.567137931947
36805	1650608444765	9.2736146862655	-0.695547098735571	2.71516969914341	-0.0294160930383328	0.0586512769118551	-0.124986263579894	0.00194077678461913	-0.0679799507289359	0.0179866816518245	0.1748046875	-0.371337890625	0.411376953125	0	0	0	-0.539531946829229	0.256565550092522	-0.747373062069696	-0.290711029974696	-0.248784750803425	0.157688563837787	0.955636157019215	-0.711389806760709	-0.699322431113545	-0.0698045856545313	0.657290415725528	-0.697196137522445	0.286158793712766	-13.7088050560693	-72.8694616358432	147.632033086885
36806	1650608444766	9.35073576128395	-0.725244631307588	2.71807114995904	-0.0216061919775082	0.0837602421553148	-0.0483305634197411	0.00886960700698484	-0.0650249125430999	0.0230651933093395	0.180419921875	-0.359130859375	0.409423828125	0	0	0	-0.539760647269993	0.256734406482079	-0.747191884090278	-0.2906031254763	-0.248416534244169	0.15712233485583	0.955825191864897	-0.711422852532808	-0.699274535983401	-0.0699474675687475	0.657393908100917	-0.697371991991829	0.285491776373946	-13.7666759989107	-72.9062710382528	147.686831934055
36807	1650608444767	9.3822586128118	-0.738455720554601	2.75637800279632	0.00824243211902317	0.0657314189276524	-0.00629548709376415	0.00840098641740204	-0.0613214086552268	0.0172919364903676	0.177001953125	-0.372802734375	0.41064453125	0	0	0	-0.539980865911158	0.256839871577135	-0.747060635999878	-0.290438205058383	-0.248132626984602	0.156572667869692	0.955989120807286	-0.711327132888621	-0.699357858821411	-0.0700877686988674	0.657604675654131	-0.697412062543299	0.284907889636154	-13.8204206587272	-72.9382541180873	147.747912506676
36808	1650608444770	9.45673929040849	-0.690645414508189	2.75481519278237	-0.0411762193224752	0.0401802735113767	0.0611469272818521	0.00778015532931352	-0.053470082017844	0.0133547310073192	0.18115234375	-0.367919921875	0.421875	0	0	0	-0.540200913084788	0.256944474874173	-0.746897000250798	-0.290357333901448	-0.247751184304009	0.156130763505383	0.956160308401885	-0.711337323261861	-0.699344310962557	-0.0701195212402188	0.657737457661195	-0.697524708817927	0.284325020667994	-13.8536951362994	-72.971715595293	147.781206227788
36809	1650608444772	9.45506639321968	-0.685472514006931	2.72698199725223	-0.0601793893083392	0.0518336610340699	0.0513014006948556	0.00684496244656996	-0.0398269649861947	0.00985722977830676	0.173828125	-0.368408203125	0.4033203125	0	0	0	-0.540348317503752	0.257004857610703	-0.746810433789183	-0.290252260833536	-0.24755464170377	0.155782548842299	0.95626800471788	-0.711271118443237	-0.699404256491047	-0.0701931768102292	0.65788304085105	-0.697542459982475	0.283944397870733	-13.8855565086714	-72.9927993765682	147.818387531694
36810	1650608444776	9.4315027057612	-0.710662528421827	2.72059701323537	-0.0381259280905242	0.0671039908285805	0.0287543726178026	0.00496561359891527	-0.0270474326012731	0.0141384425396385	0.17919921875	-0.363037109375	0.412109375	0	0	0	-0.540461345627693	0.257086984951466	-0.746719911018795	-0.290201982313959	-0.247368686686704	0.155508041161442	0.956360801152487	-0.711290352482386	-0.699378183259227	-0.0702580333236462	0.657932190512349	-0.69762984878455	0.283615632101736	-13.9133740193426	-73.0109865630128	147.844525205975
36811	1650608444773	9.4533431193586	-0.705397124964069	2.69224492368443	-0.0653958828313036	0.0840992817867018	0.0412516594330725	0.0017917412019197	-0.0168473531784101	0.0169493406271628	0.1787109375	-0.360107421875	0.413330078125	0	0	0	-0.540506492505225	0.257152486495534	-0.746698940772809	-0.290113808870983	-0.247373418924141	0.15527017054566	0.956398225504681	-0.711240524604453	-0.699413153183069	-0.0704141840462465	0.657984276233227	-0.697647773086991	0.283450660497727	-13.9508898890441	-73.0183267162621	147.884525428829
36812	1650608444774	9.4564353078848	-0.712931619995563	2.71462010724229	-0.0451650109993325	0.0723889920750076	0.0511010745619416	0.00389254380337422	-0.00675664197481832	0.0157015822789055	0.177001953125	-0.363525390625	0.412353515625	0	0	0	-0.540566220722283	0.257166689550366	-0.746678960511635	-0.290041350033056	-0.247328352570061	0.155104296564343	0.956436795194675	-0.71116679842795	-0.699482618113417	-0.0704687999822554	0.658080899911796	-0.697615025744486	0.283306909599467	-13.9680943230881	-73.025894731584	147.907396124436
36813	1650608444776	9.45622807671909	-0.737928433591608	2.7083254172503	-0.032267011668936	0.0931195393420472	0.0508871329613853	0.00615551320333466	0.00168788198768179	0.0158467598841502	0.180908203125	-0.35986328125	0.40283203125	0	0	0	-0.540550306958629	0.25718582029152	-0.746711824723586	-0.28996942995061	-0.247446190682099	0.15500345609698	0.95642266353057	-0.711090952512933	-0.699546367070191	-0.0706012575889843	0.65811856072532	-0.69757351506267	0.283321638975818	-13.9926199719098	-73.0231214837377	147.936445168639
36814	1650608444777	9.38046830627653	-0.734897773899132	2.6935070461494	-0.0253852183441525	0.0883918169678936	-0.0259727492116628	0.00487187842631161	0.000365225346919458	0.0159984641935684	0.17236328125	-0.3681640625	0.412841796875	0	0	0	-0.540573708128156	0.25723042924755	-0.746693974503558	-0.289932200332726	-0.247438770581598	0.15487724004252	0.956445029957226	-0.711085267969501	-0.699543650958691	-0.070685373876984	0.658127492580131	-0.697604272435453	0.283225144699393	-14.0132197230229	-73.0275109533804	147.956666434939
36815	1650608444779	9.35602415369289	-0.736786742063132	2.69668385285763	-0.0170567555929764	0.0830123016112431	-0.0483151691476547	0.00728962610598255	0.00591148987887702	0.0159212157046724	0.172607421875	-0.364990234375	0.414306640625	0	0	0	-0.540543994506955	0.257239590156586	-0.746739326683375	-0.289862659276763	-0.247583657518937	0.154805062820819	0.956419220349836	-0.711002325255111	-0.69961486402615	-0.0708147972919334	0.658162613653626	-0.697548876107413	0.283279966517074	-14.035254664744	-73.0224458483615	147.983755074684
36816	1650608444780	9.30407477577864	-0.780331208044479	2.66718268284214	0.00616387464455053	0.125128654090016	-0.103264495588625	0.0101668549487398	0.00276325309277464	0.0151775335079198	0.17431640625	-0.362060546875	0.40869140625	0	0	0	-0.540527940869511	0.257270527684213	-0.746766635292975	-0.28979477762317	-0.247697064003408	0.15469432487114	0.956407774088414	-0.710941959173382	-0.699661724894848	-0.0709577437907965	0.658185152651445	-0.697526441484356	0.283282841448906	-14.0623260443883	-73.0202000024458	148.013972673658
36817	1650608444781	9.30414402339281	-0.758104013981871	2.67323288765296	-0.00662901131999044	0.104332678953627	-0.1030497645363	0.00953131010874853	-0.00513798674197762	0.0209089625096879	0.169921875	-0.367919921875	0.41552734375	0	0	0	-0.540535877604997	0.257301122519419	-0.746792450800694	-0.289686266155535	-0.247805664445321	0.154510057191618	0.956409428485236	-0.710832009470758	-0.699755999102223	-0.0711294315471004	0.658263022644122	-0.697472711973087	0.283234194744085	-14.0973205965203	-73.0205245902034	148.055923656062
36818	1650608444782	9.35264661966064	-0.758737916976875	2.66700614952794	-0.023199503269155	0.114490183005039	-0.0583571796484747	0.0111334348785065	-0.00835546530572385	0.0219343398047145	0.178466796875	-0.371826171875	0.408203125	0	0	0	-0.540553266475683	0.257367562937237	-0.746802427286651	-0.289569056097128	-0.247903855706974	0.154259994259661	0.956424347503045	-0.710743501582099	-0.699823398597531	-0.0713504431255909	0.658321618424029	-0.697460439699924	0.283128207300432	-14.1444497224426	-73.0234519293881	148.107757631665
36819	1650608444783	9.33116275004144	-0.790553996730867	2.68657226854992	0.0170011805457358	0.11818012326094	-0.0710761673466251	0.00951616355120766	-0.00764155722693512	0.0176798652366234	0.181884765625	-0.369384765625	0.411376953125	0	0	0	-0.540574294553241	0.257393389508351	-0.74681695752454	-0.289469354266488	-0.247973850017618	0.154080744987494	0.956435096455342	-0.710641744812072	-0.69991227195589	-0.0714921121243342	0.658405103441562	-0.697410880033889	0.283056150211337	-14.1748658473387	-73.0255613417033	148.14488326341
36820	1650608444784	9.35261866703039	-0.785163159026475	2.65955684030394	-0.00896252345708932	0.134007359625103	-0.0585517635741901	0.0149542360297384	-0.00939793229397412	0.0150193844543617	0.179443359375	-0.367431640625	0.4072265625	0	0	0	-0.540647075774504	0.257488340391529	-0.74674275429344	-0.289440413434512	-0.247849973054674	0.153854426506418	0.956503636324075	-0.710695699621259	-0.69984800326655	-0.0715848787361699	0.658393509534114	-0.697525331273498	0.282800988037788	-14.2048034572975	-73.0390178354366	148.169797953157
36821	1650608444785	9.35272210226515	-0.786306426710146	2.65885524653502	-0.00890842627383828	0.133956499480247	-0.0585510154070121	0.0122434168494014	-0.00788985816149474	0.0171614920259222	0.1767578125	-0.365234375	0.41064453125	0	0	0	-0.540673873564343	0.257503836537391	-0.746758681197916	-0.289335460441686	-0.247913507551853	0.153676340209749	0.956515799782249	-0.710578727243152	-0.699953530999045	-0.0717142024390742	0.658495835342062	-0.69745869906519	0.282727073226907	-14.2329931083995	-73.0414069808483	148.20610140768
36822	1650608444786	9.3825812120418	-0.822320233710623	2.69650266650741	0.0347568196641827	0.135527306832528	-0.0167396435017952	0.0155838100717044	-0.00275120232001526	0.00767120345378951	0.17626953125	-0.365966796875	0.407470703125	0	0	0	-0.540729622978442	0.25754365781756	-0.746717116808541	-0.289303105093398	-0.247830376433819	0.153532191053846	0.956560489894328	-0.710578131022558	-0.699949955402539	-0.0717549973484152	0.658527770279401	-0.697494033122999	0.282565478303086	-14.2485728575395	-73.0501878155287	148.221572514847
36823	1650608444787	9.36160906937916	-0.781843908687991	2.73496173888124	0.036399304287571	0.0769230682708722	-0.0288344446666589	0.0181570176832048	-0.000104379310650807	0.00737073735859494	0.16796875	-0.370361328125	0.412841796875	0	0	0	-0.540748720528695	0.257499897224796	-0.746747052515697	-0.289229085216057	-0.247874715023324	0.153476453852646	0.956557945847988	-0.710447413694961	-0.700080678388605	-0.071774063010887	0.658652106977763	-0.697375094091958	0.282569248351597	-14.2520221386735	-73.0496878358723	148.235473223204
36824	1650608444788	9.3826541992251	-0.798973045036852	2.70292832519968	0.0216178250701558	0.113547170331724	-0.0165136721675072	0.0191200449276758	0.00450678245107314	0.0044284286803468	0.175048828125	-0.36767578125	0.412841796875	0	0	0	-0.540733169120366	0.257533758536705	-0.746758704756162	-0.289197925127244	-0.247944399830284	0.153408045154317	0.95655085922011	-0.710436226790444	-0.700081846632109	-0.0718733307975339	0.658637944743967	-0.69738897302589	0.282568006054007	-14.2709890454675	-73.0482951812977	148.254111586632
36825	1650608444789	9.35552913933894	-0.769529627846367	2.68913536749137	-0.00197987215462685	0.0990925293945802	-0.0484809426357078	0.0242561276315418	0.0085454187318011	0.00221005379837519	0.177978515625	-0.3603515625	0.412841796875	0	0	0	-0.540734912231659	0.257441537409773	-0.746812480477116	-0.289137905701638	-0.248010052360581	0.153448338841884	0.956527376103146	-0.710278847386112	-0.700246252605126	-0.0718271861368272	0.658782948234059	-0.697215026386512	0.282659219019825	-14.2577859407516	-73.0436811042702	148.25416618667
36826	1650608444790	9.3609895331096	-0.781096239836353	2.73729497904022	0.0367578710290507	0.0747603759224165	-0.0288190206481786	0.0239455017537662	0.0130892740221391	0.00103618752503891	0.1767578125	-0.361328125	0.405517578125	0	0	0	-0.54075664661561	0.257365067020809	-0.746847851329473	-0.289073966975521	-0.248036981516151	0.153444801025562	0.956520961003251	-0.710132283418259	-0.70039892778882	-0.0717877566124047	0.658930797464746	-0.697062432634623	0.28269094283683	-14.2487439634468	-73.0424208461642	148.257540588122
36827	1650608444791	9.30947370128323	-0.751692853432902	2.72696362763997	0.021413160364326	0.054970566811959	-0.083134811839205	0.026500229554477	0.0132278197173859	-0.00249499509979155	0.184814453125	-0.3671875	0.41552734375	0	0	0	-0.540750328149512	0.25724498476599	-0.746910216964392	-0.289031534980433	-0.248099708786099	0.153550593149523	0.956487715469301	-0.709971832857624	-0.7005715791992	-0.0716900199966813	0.659080064217572	-0.696865609541588	0.282828200837881	-14.2235075991846	-73.0358911560102	148.24635391091
36828	1650608444792	9.30627332002465	-0.744704610477799	2.70485239182012	0.00386791162368151	0.0654441379022589	-0.0929529829014086	0.0237679788367135	0.0122269345670204	-0.00358727380325324	0.16845703125	-0.35009765625	0.417724609375	0	0	0	-0.540807970520974	0.25717890391346	-0.746897095615943	-0.289016399125248	-0.24799252011532	0.153562216011558	0.956513646416229	-0.709899820356546	-0.700657064837093	-0.0715676082568994	0.659197963456044	-0.696777097289721	0.282771500805712	-14.2029360896281	-73.0409839930811	148.233332049065
36829	1650608444793	9.28157675920722	-0.768012685747975	2.70275967908433	0.0250493823758847	0.0807847584428734	-0.115509074449644	0.0213581543115604	0.00793922679492422	-0.00188624329365911	0.167236328125	-0.36279296875	0.4111328125	0	0	0	-0.540813802151942	0.257087504107096	-0.746938744432409	-0.288979166549565	-0.248022945404558	0.153626530495489	0.95649543003653	-0.709772412823135	-0.700794113064606	-0.0714893914452928	0.659323699367825	-0.696625078662771	0.282852893267888	-14.1841228379141	-73.0374061416553	148.225739207076
36830	1650608444794	9.28172932452153	-0.719734781116624	2.71593214799481	-0.00172439144425218	0.0391582030844498	-0.115096514955122	0.025049887445386	0.01229918169843	-0.00534821286352672	0.177490234375	-0.36962890625	0.413818359375	0	0	0	-0.540807686727032	0.256907239606882	-0.747064048604406	-0.288826978479024	-0.248212044959268	0.153669683866985	0.956439443455444	-0.709419323687885	-0.701155293480499	-0.0714526248817999	0.659632476395275	-0.696252025264197	0.283051432429058	-14.1675785952408	-73.0264144845913	148.238082103118
36831	1650608444795	9.32998553150579	-0.717835269521913	2.71129396520623	-0.0181746869655389	0.0497639677095555	-0.070396788572987	0.0229728698750342	0.00598208625925408	0.000764064775646433	0.180419921875	-0.36474609375	0.4169921875	0	0	0	-0.540819210960295	0.256819064999055	-0.747107129069381	-0.288772378531954	-0.248250188906564	0.153702437174391	0.956424280596487	-0.709273173543789	-0.701308962500018	-0.0713954088738956	0.659775271587969	-0.696090008493012	0.283117097818591	-14.1535386387417	-73.0234388002059	148.236557454722
36832	1650608444796	9.30578193316201	-0.693825707594697	2.72090634493606	-0.0217865134771365	0.0225087673727148	-0.0925370868776447	0.021182441176678	0.0070749009060873	-0.00650839530228169	0.17431640625	-0.356689453125	0.40771484375	0	0	0	-0.540874252291416	0.25677062893188	-0.747085673967465	-0.288767870578963	-0.248136320258987	0.153707434555414	0.956453026097321	-0.709229922291122	-0.701363922078437	-0.0712851045708852	0.659864595121801	-0.696033528911608	0.283047774652258	-14.1358711356281	-73.0290804841441	148.223957110702
36833	1650608444798	9.27853014055285	-0.687430523145193	2.70095461962286	-0.0325191318076574	0.028818569070945	-0.124707692351366	0.0187912970295838	0.00529905385079946	-0.00157634624379216	0.169677734375	-0.365478515625	0.41259765625	0	0	0	-0.540885544808906	0.256692960483191	-0.747117799120777	-0.288732654357061	-0.248152563449397	0.153751586955972	0.956441715297913	-0.709117634074218	-0.701484356692602	-0.071217121259915	0.659979155957577	-0.695902397484077	0.283103102910296	-14.1202800173324	-73.0268603732929	148.218269039535
36834	1650608444799	9.2786052843769	-0.663237744433711	2.70750994658237	-0.0456786975560411	0.00719116843261652	-0.124505274931112	0.0162276466182668	0.00390859317931777	0.000341201621919443	0.17919921875	-0.369873046875	0.408935546875	0	0	0	-0.540893158558269	0.25667049804609	-0.747144169348259	-0.288670117377139	-0.248208308716655	0.153693757333067	0.956436544910776	-0.709019022920562	-0.701579637532482	-0.0712603489786851	0.660064133717922	-0.695819115256714	0.283109692915262	-14.1281919725249	-73.0258456111593	148.233679039803
36835	1650608444802	9.27850488723197	-0.663091149968513	2.70788987954427	-0.0456244665521375	0.00712568429844006	-0.124504971004699	0.0138350435063137	0.002132501429892	0.00527203241447961	0.17138671875	-0.370361328125	0.404296875	0	0	0	-0.540900091588279	0.256634624464731	-0.747171369408402	-0.288618615446079	-0.24825277147556	0.153667748523814	0.956429184267359	-0.708922516034601	-0.70167592868767	-0.0712724165401154	0.660151064313218	-0.695727758655581	0.283131520891276	-14.1294429200236	-73.0244010815964	148.242612077896
36836	1650608444803	9.29982157415713	-0.656740817754298	2.68175014241	-0.0728459543785854	0.0222479883583146	-0.111967175754357	0.00563515988922537	0.000370770978705254	0.00359429866602587	0.176025390625	-0.363525390625	0.411376953125	0	0	0	-0.540876586521961	0.256817665963894	-0.747093178292424	-0.288702247220445	-0.248207061204434	0.153561633861998	0.956458090756669	-0.70918828396235	-0.701391397797447	-0.0714288806175883	0.659882741597926	-0.696038024608842	0.282994409202419	-14.1657990568795	-73.03007467901	148.255601499309
36837	1650608444804	9.30546675081689	-0.669175690553174	2.72891324354844	-0.0347228076600873	-0.00127114887548876	-0.0923340914813604	0.00582810164462	0.00250031054469635	0.00984014238860758	0.17333984375	-0.365478515625	0.408203125	0	0	0	-0.540864467359337	0.256825075462244	-0.747117136203776	-0.288656358586782	-0.248286269191039	0.153505108659917	0.956446606009191	-0.70913533923755	-0.701436774522463	-0.0715088944954901	0.659909841702364	-0.696004765043193	0.283013017123826	-14.1801328277052	-73.0278202992502	148.273216319636
36838	1650608444805	9.3025221454254	-0.664024673799676	2.70549095412156	-0.053497184000081	0.00928288058414688	-0.102147719510212	0.0019644735946458	-0.00147194144868668	0.0102908234963648	0.165283203125	-0.36669921875	0.403564453125	0	0	0	-0.54086772846802	0.256929939600885	-0.747085955517764	-0.288637630094624	-0.248300837590408	0.153344013740537	0.956468665196014	-0.709204464969961	-0.701350649260091	-0.0716679401763533	0.659830069728998	-0.69612705753504	0.282898212877061	-14.2159282520074	-73.0321506283804	148.301621805382
36839	1650608444806	9.27814994568999	-0.689247708789993	2.70179744865336	-0.0323277514917522	0.0246085159794659	-0.124695443093024	-0.00576343413820155	-0.00941625840354832	0.0111920359785256	0.168701171875	-0.36474609375	0.413818359375	0	0	0	-0.540881582995479	0.257002060574304	-0.747064521144155	-0.288602937068425	-0.248310915783567	0.15319466725058	0.956489980621182	-0.709225392676698	-0.701316571152081	-0.0717942157145784	0.659803782563657	-0.696194269549435	0.282794108073733	-14.2449869158016	-73.0363359726045	148.32761485453
36840	1650608444807	9.27782794028179	-0.737970052721409	2.68912231944293	-0.00822891781898442	0.0650248366602982	-0.125078071399521	-0.00444161349413183	-0.00431956505052114	0.015890773611159	0.177978515625	-0.359375	0.4111328125	0	0	0	-0.540796793226623	0.257187189553128	-0.747074812846224	-0.2885702721632	-0.248532052918915	0.152995149400014	0.956464480747705	-0.709339178877212	-0.70116389510684	-0.0721603873909147	0.659598171602767	-0.696391898616484	0.282787155931128	-14.3149992962831	-73.0313291177354	148.383745357246
36841	1650608444808	9.27813527117724	-0.715785059196279	2.69438596656804	-0.0210828376805576	0.0441872998480987	-0.124887774496619	-0.00977631811252514	-0.0104866789411605	0.0118625677141558	0.172119140625	-0.365966796875	0.412353515625	0	0	0	-0.540806934322102	0.257278626689008	-0.747046737272232	-0.288542441192037	-0.248542238840138	0.152833247781587	0.956487717581812	-0.709385509246719	-0.701101935759915	-0.0723068111900461	0.659544505536287	-0.69648982336157	0.282671136076295	-14.3484931254687	-73.0358915708467	148.411868021516
36842	1650608444809	9.27843511592477	-0.717050076676824	2.69301674754424	-0.0205141355116036	0.0433727777861595	-0.124882872667314	-0.00948591775726266	-0.0175404860096725	0.00981336290360133	0.17919921875	-0.372802734375	0.415771484375	0	0	0	-0.54087862042137	0.25739241089847	-0.746972581899397	-0.288498573087456	-0.248437782595155	0.152564943799468	0.956557685716167	-0.709437152254247	-0.701035440276751	-0.0724447270501264	0.659528312645172	-0.696615567870434	0.282398929565898	-14.3880089326963	-73.0496367131532	148.446031238363
36843	1650608444811	9.2786533802914	-0.741965495013419	2.6851720349192	-0.00760710716659514	0.0640135625750312	-0.125070828118872	-0.0106101354828321	-0.0205037364840428	0.0113652588091741	0.175537109375	-0.367919921875	0.419921875	0	0	0	-0.540925701903085	0.25750012640236	-0.746915473122785	-0.288462035514538	-0.248378078174929	0.152336642239947	0.956609574336985	-0.709490388697265	-0.700966677939156	-0.0725885994158027	0.659493531907882	-0.69673471554818	0.282186139846848	-14.4258102450574	-73.0598371510582	148.478143313111
36844	1650608444811	9.30340199045032	-0.742798200983094	2.68021461825474	-0.0152796088316389	0.0682683271688383	-0.102708291925921	-0.0104572296700924	-0.0233999070252843	0.011151140931571	0.17529296875	-0.364501953125	0.41552734375	0	0	0	-0.540999101422071	0.257682544851956	-0.746800142093977	-0.288460094480236	-0.24822149230593	0.152032028658443	0.956698674097239	-0.709656129526687	-0.700780959942145	-0.0727614184012907	0.659374149161627	-0.696988026041024	0.281839356678263	-14.4757605710657	-73.0773666015443	148.513140851972
36845	1650608444814	9.29823833165985	-0.732212645862975	2.63076030707748	-0.0533103526315991	0.0916328671973487	-0.122329689190643	-0.00869165669234597	-0.0282551798741199	0.013584808468707	0.16845703125	-0.368896484375	0.40869140625	0	0	0	-0.54107494983631	0.25780060777232	-0.746727575979619	-0.288400195151564	-0.248126452192349	0.151733855438796	0.956770662612581	-0.709691659111509	-0.700728348137524	-0.0729214036069654	0.659371680245665	-0.697105888104623	0.281553490583714	-14.5203540490661	-73.0915424772947	148.55345279003
36846	1650608444816	9.32583144340674	-0.762869250891292	2.64250756922782	-0.030219875448036	0.104949401745623	-0.0903409769837395	-0.0154498156554102	-0.0315823509937233	0.0115493539935472	0.172607421875	-0.36767578125	0.417724609375	0	0	0	-0.541130137234694	0.258019678361784	-0.746622717603568	-0.288372220771534	-0.24803927372731	0.15136605438531	0.956851522582607	-0.709854950229965	-0.70053461573075	-0.0731929081058002	0.659228691974828	-0.697380505708895	0.281208040308886	-14.5892573128668	-73.1074790781614	148.606355928584
36847	1650608444817	9.35105891240209	-0.740147958114619	2.64259799161582	-0.051335006090638	0.0894284784749945	-0.067800897546908	-0.0127193509472659	-0.031830531874846	0.0110346913024714	0.16650390625	-0.361328125	0.4150390625	0	0	0	-0.541216255369911	0.258151562669315	-0.746531752053075	-0.288328074927378	-0.247903772264086	0.151060481751697	0.956934924929685	-0.709923770014807	-0.700449383800125	-0.0733409946891039	0.659205552513932	-0.697532358809948	0.280885471229523	-14.6335783656348	-73.1239320599791	148.643905694417
36848	1650608444818	9.37888484823901	-0.747403836981646	2.66030097037624	-0.0417031841154235	0.0827036786983235	-0.035636955215427	-0.0125005382733944	-0.0284416258620451	0.0189046310890844	0.17333984375	-0.364013671875	0.411376953125	0	0	0	-0.541252551965473	0.258292634367565	-0.746508127499984	-0.288194735550104	-0.247978938784139	0.150676329771063	0.956976013056865	-0.70988251979238	-0.700457418865338	-0.073662829498522	0.659221703232465	-0.697607373816554	0.280661180044653	-14.7062545544714	-73.1320433425136	148.716404325668
36849	1650608444819	9.37654412349367	-0.743269671758153	2.63429502024351	-0.0607343688564448	0.0943384795208853	-0.0454487211394827	-0.0144371081311015	-0.0231956544051868	0.0134636934018583	0.180419921875	-0.359130859375	0.4150390625	0	0	0	-0.541300075238847	0.25842486941706	-0.746442523271181	-0.28815685809251	-0.247919707361343	0.150414261986851	0.957032584864704	-0.709955867023025	-0.700364424002057	-0.0738399652752595	0.659164991167955	-0.697757281139521	0.280421630826389	-14.7521230551884	-73.1432174876005	148.754579281333
36850	1650608444821	9.40099694601344	-0.768243702668219	2.62322091712097	-0.0549570827178911	0.11980447045699	-0.0232616447647604	-0.0144070873104832	-0.0206802371985436	0.0167003428629129	0.17626953125	-0.363525390625	0.4052734375	0	0	0	-0.541403558183154	0.258525672279532	-0.746369678164719	-0.288060701025548	-0.247806439422582	0.150066107725021	0.957116571736675	-0.709932983140344	-0.700371018594172	-0.0739972686172546	0.659232226176902	-0.697825622649115	0.280093327918073	-14.7987416716757	-73.1598199733909	148.801828127001
36851	1650608444825	9.42849086026573	-0.775660483959817	2.64203966584381	-0.0441678019780983	0.113288154703007	0.00890503539467069	-0.013431559430185	-0.0148183652999269	0.0153672951137314	0.17333984375	-0.36572265625	0.416015625	0	0	0	-0.541419182392007	0.258646789458979	-0.746330616482352	-0.288023815233402	-0.247815101592731	0.149849316615091	0.957148294535687	-0.709994649723884	-0.700288240321916	-0.0741887985500125	0.659162554144305	-0.697955272762393	0.279934214481066	-14.8434188392344	-73.1660950584258	148.839404170811
36852	1650608444821	9.40419241897477	-0.801513824736281	2.63767336456024	-0.0226536855664834	0.127621048803361	-0.0136170172543419	-0.0124570976581725	-0.00895771925710739	0.0140329532662516	0.1728515625	-0.3642578125	0.413818359375	0	0	0	-0.541438450996691	0.258797966926209	-0.746276152334502	-0.287992917541343	-0.247808966456657	0.149598152137443	0.957189170969222	-0.710090833471922	-0.700167383521772	-0.0744086236361608	0.659061244773833	-0.698130380322572	0.279736032194328	-14.8955279196446	-73.1741841740785	148.88131796274
36853	1650608444822	9.40137109092543	-0.796607358449161	2.61351557870597	-0.0416762829303998	0.13925709365881	-0.0234230453568145	-0.0105808250467399	-0.00351896592094998	0.00327767315992004	0.176025390625	-0.36767578125	0.41162109375	0	0	0	-0.54143162199698	0.258859685293322	-0.746253831840173	-0.288008125745471	-0.247806236412599	0.149544696321347	0.957198230774158	-0.710163973433311	-0.700085965668846	-0.0744766507768037	0.65898345960459	-0.698223477459527	0.279686924063123	-14.9110409003256	-73.1759775475225	148.890097927201
36854	1650608444824	9.40704680231588	-0.809579107418684	2.66074782987125	-0.00347550256341207	0.114750899904988	-0.00379614950129969	-0.0040623593995869	0.0106212770110399	0.0122112129606111	0.1689453125	-0.36767578125	0.4140625	0	0	0	-0.541383879336862	0.258943912873792	-0.746270116301107	-0.287979962316326	-0.247942072996916	0.149445559775826	0.957178537735402	-0.710197800104945	-0.700031182579795	-0.0746687896113852	0.658895904649656	-0.698299626291768	0.279703090359561	-14.9469640780474	-73.1720795797274	148.92078702485
36855	1650608444827	9.38274650445042	-0.78735560998546	2.67053995580415	-0.00811613544014732	0.0885975845236789	-0.0259755043485068	-0.00426788285304516	0.00849530349114049	0.00596170693779322	0.17626953125	-0.366455078125	0.4111328125	0	0	0	-0.541337686293423	0.258972215277743	-0.746292396834146	-0.287983609846406	-0.248037899716632	0.149457117216977	0.95715190561235	-0.71022279654792	-0.699997664347942	-0.0747452284167879	0.658832891989929	-0.698330752595514	0.279773802225243	-14.9579675548345	-73.1668095092932	148.928616004761
36856	1650608444828	9.38186008218368	-0.835360346216466	2.65949304620308	0.0171989609699399	0.128966086426393	-0.026314156444295	-0.0045666132804526	0.0142896794538923	0.00639683383267274	0.168701171875	-0.364990234375	0.413330078125	0	0	0	-0.541255848612193	0.259059463982997	-0.746320052781242	-0.287987290137153	-0.248210854125108	0.1494264791127	0.95711185304251	-0.710296279189249	-0.699903029680602	-0.0749329354411203	0.658688520975122	-0.698432155891964	0.279860600927874	-14.9894006841634	-73.1588867627501	148.951458688016
36857	1650608444829	9.38169938567658	-0.812367928349093	2.66683625380576	0.00430243923914898	0.108124969603431	-0.0261388940902396	-0.00184204763429714	0.0140353521740887	0.0058744388481065	0.170654296875	-0.3662109375	0.41357421875	0	0	0	-0.541192158430577	0.25907085550152	-0.746360540209204	-0.287991811518295	-0.248343528303327	0.149477217090597	0.957069513421416	-0.710305678991891	-0.699886016656244	-0.0750027071573131	0.658628373471507	-0.698438347500986	0.279986678965927	-14.9962773152626	-73.1505155507973	148.956392443551
36858	1650608444831	9.3570108247745	-0.813241300751245	2.67116707492928	0.0113406307527382	0.1020629461649	-0.0484874029253977	0.000555611935272703	0.0170632033831409	0.0025529163877935	0.16748046875	-0.371337890625	0.408935546875	0	0	0	-0.541093729285314	0.259090644647629	-0.746438807065298	-0.287956110008317	-0.248597709673979	0.149498584212901	0.957000183941043	-0.710267876754187	-0.699906633129908	-0.0751681325553258	0.658573247251929	-0.698413114294896	0.280179227968375	-15.0179973718621	-73.1368167307711	148.978666299018
36859	1650608444832	9.33232934237125	-0.813689901607986	2.67559007360997	0.0195595613219319	0.0966488537315767	-0.0708435595104859	0.00453920415160734	0.0156175627069839	-0.0013563966805251	0.1640625	-0.362548828125	0.415771484375	0	0	0	-0.541041974355531	0.259056506798101	-0.746482001993225	-0.287972097556727	-0.248691306028495	0.149611087989284	0.956958283655304	-0.710252863620051	-0.699923594628689	-0.075152055205246	0.658554101061833	-0.698372024090827	0.280326616542068	-15.0073920876196	-73.1285428844376	148.969155201984
36860	1650608444832	9.40491932793077	-0.788569429925817	2.67443105522884	-0.0205214126038782	0.090943667040057	-0.0035977640106104	0.00342991721013517	0.0139122537849833	0.00181408592873105	0.180419921875	-0.369873046875	0.413330078125	0	0	0	-0.540905213783093	0.259111682278038	-0.74657691669614	-0.287933313921463	-0.249031912872941	0.149619011650578	0.956868464170258	-0.710238451235774	-0.699911085682498	-0.0754043402262478	0.658440922753935	-0.698382863114102	0.280565371618623	-15.0432572003574	-73.110819926498	149.002444040697
36861	1650608444833	9.41286757193656	-0.829981682970416	2.74054270235264	0.0493717549478696	0.0763324336498308	0.025668963390995	0.00951498605751651	0.0212892910613413	-0.00497972228117969	0.171630859375	-0.36083984375	0.41162109375	0	0	0	-0.540842880989455	0.259041527901409	-0.746637542737892	-0.287956324257433	-0.249140266806348	0.149796472226594	0.956812491747537	-0.710199537211029	-0.699957284285303	-0.0753420036977063	0.65844190692946	-0.698298515739803	0.280772929811059	-15.0207745972168	-73.0997847131141	148.983461153461
36862	1650608444834	9.38264512861571	-0.793744499941746	2.70438970168037	0.00758359786111606	0.0726280637221614	-0.0161343529782378	0.00802496451619839	0.0178418258916225	-0.0110771410364332	0.177490234375	-0.367919921875	0.408203125	0	0	0	-0.540848463372453	0.258997047806814	-0.746634775463498	-0.287993022421696	-0.249085917408146	0.14989490061312	0.956811227212101	-0.710207521910389	-0.699961096527543	-0.0752312379923734	0.658453856827377	-0.698273572547424	0.280806937790023	-14.9979526818834	-73.0995354851054	148.96131613361
36863	1650608444837	9.36074029164794	-0.798901041890283	2.73300551682403	0.0348011056327202	0.0554667603398944	-0.028683462913424	0.0128818199807903	0.0289266197696536	-0.0112444552124221	0.170654296875	-0.371337890625	0.407470703125	0	0	0	-0.540770826383837	0.25888639991197	-0.746711135977684	-0.28804031780235	-0.249199377304928	0.150169400987267	0.956738637956031	-0.710162250666996	-0.700021214521882	-0.0750991141552011	0.658459754334631	-0.698154316914559	0.281089490545524	-14.9584208183676	-73.0852348034842	148.926519962877
36864	1650608444838	9.387119082215	-0.802617577016375	2.75670797889411	0.045559753783142	0.0468549763975731	0.00349142801546165	0.0135001915225094	0.034306214021678	-0.0202208918528246	0.17919921875	-0.361572265625	0.40966796875	0	0	0	-0.540668565628298	0.258919674806262	-0.746708732504719	-0.288208558063176	-0.249226658401169	0.150436235795839	0.956689610951099	-0.710395152557628	-0.699792858114729	-0.0750245490106016	0.658198146430703	-0.698325779769871	0.281276208279317	-14.9347566380648	-73.0755827166733	148.884309337235
36865	1650608444839	9.35942163156077	-0.770897405782647	2.74564415369916	0.0218344160907349	0.032460659266447	-0.0285120985391671	0.0157479700370476	0.0389841935512791	-0.0249289452931914	0.17431640625	-0.365966796875	0.414794921875	0	0	0	-0.54057501591778	0.258747982949186	-0.746795800481864	-0.288312618294573	-0.24930897259524	0.150875915133736	0.956598920350668	-0.710366695139534	-0.699850630903712	-0.0747546176514386	0.658197686580591	-0.698173010546981	0.281656266970439	-14.8642179678569	-73.057742268604	148.818662108444
36866	1650608444840	9.35607830062579	-0.714653664466329	2.73827042310236	-0.0217078184634255	0.00173955002230461	-0.0379966135067722	0.013838522398285	0.0454958889443601	-0.0287431566195411	0.170654296875	-0.367919921875	0.401123046875	0	0	0	-0.540528726417257	0.258568396261612	-0.746848734185395	-0.288423384312212	-0.249281294599256	0.151289987120004	0.956540734083055	-0.71034457081217	-0.699908671673177	-0.0744207097141937	0.658232046379234	-0.698025208079135	0.281942160744873	-14.7863939229764	-73.0463055956535	148.746239898067
36867	1650608444841	9.28252355424685	-0.689346945706551	2.75711002253148	-0.00991754072598716	-0.0350116475516951	-0.104918731866009	0.012401733678621	0.0458258745559705	-0.0299774245977805	0.1748046875	-0.363037109375	0.412841796875	0	0	0	-0.540411737176235	0.258385497022276	-0.74694226020747	-0.288564289486539	-0.249371610310585	0.15181261459457	0.956434383541844	-0.710350835822383	-0.69993517152336	-0.0741110363644061	0.658191074094406	-0.697885152238192	0.28238417850143	-14.7054925313966	-73.0254214291661	148.667753233647
36868	1650608444842	9.25458191546489	-0.657214720001126	2.74677637631112	-0.0336451223476024	-0.0509346472226591	-0.136930572455372	0.00841145357038257	0.0460231959354981	-0.0276786620263637	0.17138671875	-0.364013671875	0.404296875	0	0	0	-0.540281133687295	0.25834031292006	-0.746983263204507	-0.288743110384099	-0.249447425574576	0.152219747361906	0.956349899559411	-0.710525335928228	-0.699775397852163	-0.0739468698791664	0.657973957598852	-0.697956689970033	0.282713158603875	-14.6579850956118	-73.0088489788491	148.607298561209
36869	1650608444844	9.28017810171038	-0.707405418421791	2.75967346705127	0.00288450744355996	-0.0160817538337844	-0.105079176614264	0.00730452670314234	0.0443235479005382	-0.0245025069596049	0.174072265625	-0.367919921875	0.410888671875	0	0	0	-0.540155151672012	0.258194171998765	-0.747073650069221	-0.28887565324947	-0.249566538163755	0.152692953104779	0.956243381729307	-0.71055260165207	-0.699773253011128	-0.0737047804127976	0.65789934132391	-0.697855469594074	0.283136363336115	-14.5911464203024	-72.9879766812947	148.540344537136
36870	1650608444844	9.25517033733568	-0.681836378465635	2.7723082255507	-0.00184646326311481	-0.0437317750730185	-0.127293497825326	0.00359544131198114	0.0374580986805496	-0.0242675038785084	0.177734375	-0.364990234375	0.40869140625	0	0	0	-0.540041605195469	0.258192372684334	-0.747088353961477	-0.289051474171411	-0.24960861987447	0.153024733310368	0.956179359680836	-0.710763226885065	-0.699571887933936	-0.073585385237003	0.657655815903951	-0.697984673619586	0.283383526691071	-14.5563499921438	-72.9754434324667	148.489258685998
36871	1650608444846	9.25166569420245	-0.649970936677999	2.75829963237974	-0.0338192495492346	-0.0528184586246778	-0.136941279565177	0.00377195742473992	0.0370789399928209	-0.0212447787870656	0.174560546875	-0.361572265625	0.41552734375	0	0	0	-0.539933204690945	0.258079474635657	-0.747158952639906	-0.289172299389114	-0.249703031476357	0.153423989078117	0.956090725635844	-0.710806700298059	-0.699548732075592	-0.0733853272992409	0.657572985213734	-0.697920232567297	0.283734238487899	-14.5012613128901	-72.9581067903365	148.432360445449
36872	1650608444848	9.17810345987304	-0.649521516689182	2.76978532655584	-0.00783484461614782	-0.0695465654841629	-0.204031216200455	0.00279568666032438	0.031214587203299	-0.0199148322256421	0.173583984375	-0.376220703125	0.410400390625	0	0	0	-0.539910109176984	0.25797960860556	-0.747173358539297	-0.28926729480072	-0.249643012334342	0.153694035048335	0.956063026156329	-0.710837229638989	-0.699541907404792	-0.0731543077585641	0.657562772176014	-0.697867654627314	0.28388719110444	-14.4500636665488	-72.9526923362473	148.381251465111
36873	1650608444849	9.17736178344792	-0.6715252455188	2.76602450381908	0.00503451379628879	-0.048964027556763	-0.204181557379872	0.00243814256294105	0.0175138998336271	-0.0146219187428423	0.1689453125	-0.365478515625	0.410400390625	0	0	0	-0.539864759715804	0.257917720450617	-0.747198614940755	-0.289341874821414	-0.249654641383652	0.153910319866804	0.956025194999639	-0.710873072576885	-0.699519457904773	-0.0730205635263891	0.657519607860251	-0.697842490431122	0.284048981389109	-14.4168749391184	-72.9453001244054	148.346461576134
36874	1650608444853	9.17721214726386	-0.646825027324075	2.77336722347293	-0.00900071586526808	-0.0714335536346204	-0.204046080720881	-0.00238289546358702	0.0114408235508252	-0.0080067446498025	0.16943359375	-0.371337890625	0.413818359375	0	0	0	-0.539755798389428	0.258092089217052	-0.74715885192322	-0.289492316964275	-0.249715753047294	0.153980091020552	0.955997999082281	-0.711206897713932	-0.699165343804466	-0.0731612647984397	0.657135291491903	-0.698181891481071	0.284104303177138	-14.4407985674763	-72.9399879595995	148.341125685594
36875	1650608444854	9.20133991764066	-0.645657731637568	2.77117129945684	-0.0172954558064944	-0.0662904125374093	-0.181683936861914	-0.00178003206986769	0.00109157144822481	-0.00727540751628766	0.17138671875	-0.358642578125	0.41357421875	0	0	0	-0.539755602319886	0.258090794047735	-0.747144884530767	-0.289529883279108	-0.249672672905368	0.154029638432646	0.956001269292357	-0.711253446410457	-0.699123177432392	-0.0731116799566555	0.657101279388145	-0.69821318611234	0.284106063584215	-14.4313345214809	-72.9406266431877	148.328472668427
36876	1650608444849	9.25834896644777	-0.662406085264811	2.83587396541809	0.0223996132381488	-0.0915006141024671	-0.107579716687498	-0.00644525860787937	-0.00662775305706942	0.000733014945660362	0.174072265625	-0.361328125	0.41552734375	0	0	0	-0.539745832202487	0.258151765420491	-0.747140054694677	-0.289506202526239	-0.249721190637762	0.153930681056957	0.956004535750642	-0.711276038902653	-0.699087649418241	-0.0732315158509728	0.657058386621319	-0.698270580692199	0.284064205260657	-14.4560391526495	-72.9412646171997	148.34989746947
36877	1650608444849	9.27985375748978	-0.679683770662466	2.80281486083411	0.00800480086208428	-0.0538584603749744	-0.0951536188925335	-0.00501657944280549	-0.009461247932949	-0.00125228631823887	0.17919921875	-0.36328125	0.41162109375	0	0	0	-0.539772184544237	0.258194154334353	-0.747102496179981	-0.289516195853621	-0.24965272226158	0.153864499770334	0.956033071592091	-0.711328590656756	-0.699032302012032	-0.0732494154108562	0.657027514173993	-0.698340573398241	0.283963534919822	-14.4643355851217	-72.9468389550816	148.353885211877
36878	1650608444851	9.30438696421199	-0.679407625932832	2.79905936658396	0.00133093920353932	-0.0488871329080604	-0.0727924448934978	-0.00886437617218862	-0.0109221088626671	0.00242342065932883	0.166748046875	-0.3583984375	0.409423828125	0	0	0	-0.539878764893567	0.258203855449787	-0.747035679917537	-0.289481227678075	-0.249463076077983	0.153708054341732	0.956107738544245	-0.711303168625684	-0.69906277570572	-0.0732054501090976	0.657127062276978	-0.698344520743947	0.283723376495724	-14.4677407669349	-72.9614331537741	148.360471117197
36879	1650608444852	9.33165015891985	-0.708777192732695	2.81246258081613	0.0249660311282072	-0.0348136765125	-0.0407801758125092	-0.0116264808806853	-0.0156997955543767	-0.00352929873086464	0.166259765625	-0.368408203125	0.407958984375	0	0	0	-0.539922381135758	0.258273340702255	-0.746969141813402	-0.289509593985658	-0.249336034677905	0.15361435174073	0.95615593537371	-0.711404580124123	-0.698958152945513	-0.0732190126225214	0.657065495357593	-0.698469850008053	0.28355740766238	-14.4784223612288	-72.9708600197644	148.363040424989
36880	1650608444853	9.35905039837859	-0.714616929850648	2.83198179474958	0.0337132512139578	-0.0418446364975899	-0.00862009708058231	-0.00467088337670209	-0.00897624006499632	0.00639293753779933	0.17431640625	-0.370361328125	0.414794921875	0	0	0	-0.539869115104549	0.258375681864364	-0.7469951442915	-0.289450513874612	-0.249519477147908	0.153458155288732	0.956133162848782	-0.711414358219328	-0.698920814077695	-0.0734799739272829	0.656985267295407	-0.698541545095459	0.283566691154711	-14.5273898124635	-72.9664052879863	148.407871708455
36881	1650608444854	9.33498982917029	-0.715770708914886	2.83396501243975	0.0418845236487341	-0.0472869119577331	-0.0309835185786706	-0.00627537933892333	-0.0070126833607472	0.00374920097129679	0.17333984375	-0.363525390625	0.404052734375	0	0	0	-0.539877789442181	0.258432718626814	-0.746970024312183	-0.289448242677745	-0.249503374555579	0.153374152036672	0.956150843524393	-0.711462491443782	-0.698864489507838	-0.0735496334019008	0.65693925849654	-0.698616343061039	0.283489004820356	-14.5443940594299	-72.9698638606592	148.420219681368
36882	1650608444857	9.30823206959311	-0.687170961367663	2.81870175250818	0.018343728679639	-0.0627392931561462	-0.0630107001419695	-0.00642386030479675	-0.00411112856177986	0.00397123571383104	0.169189453125	-0.367919921875	0.412841796875	0	0	0	-0.539870292570904	0.258586760060056	-0.746899051461578	-0.28950779203131	-0.249450611105125	0.153259570900673	0.95618298277402	-0.711672810135012	-0.698636251749598	-0.0736830988477578	0.656731454959952	-0.698869724389757	0.283345909442099	-14.5767092254523	-72.9761524667205	148.433915254906
36883	1650608444861	9.30791496204042	-0.735187513764571	2.80633811312265	0.0441189991940888	-0.0214738962344543	-0.0632818647204711	-0.00640454273048206	-0.00159672338136106	0.00720647540324627	0.177490234375	-0.362548828125	0.412353515625	0	0	0	-0.539854050257682	0.258646418012971	-0.746893068953975	-0.289500221792572	-0.249494452004856	0.153188785537133	0.956182887529606	-0.711714050932908	-0.698583304062223	-0.0737866992768869	0.656670106007169	-0.698938168417755	0.283319269738871	-14.5976435576354	-72.9761338271556	148.450209755533
36884	1650608444863	9.30806459147431	-0.712380289269064	2.81224880476402	0.0312508473122537	-0.0426412562099285	-0.0631488855005315	-0.00928819284268923	0.000299143325934622	0.00632766400942197	0.16796875	-0.364013671875	0.412841796875	0	0	0	-0.5398376821994	0.258719596964618	-0.74688061628893	-0.289497481916359	-0.249532969683334	0.153106940285684	0.956185945241496	-0.711773290545453	-0.698510756221105	-0.0739020047733348	0.656591257866806	-0.699028603334495	0.283278894048091	-14.6214729416258	-72.976732238746	148.467804255794
36885	1650608444864	9.26498646427989	-0.74984849279514	2.85864424355621	0.0985912359514025	-0.0562535400703661	-0.0884285661782087	-0.00512502594468535	-0.00152836293067387	0.0054422659129462	0.176025390625	-0.36279296875	0.40673828125	0	0	0	-0.539825301254008	0.258769648353075	-0.7468739101353	-0.289493135629247	-0.249564737099131	0.153048933574304	0.956186940889913	-0.711810547084673	-0.698463987029545	-0.0739851598755433	0.656538793260276	-0.699088036483646	0.28325382643449	-14.6384587089258	-72.9769270972042	148.480732048836
36886	1650608444865	9.25921045033202	-0.738624125737452	2.8119260120556	0.0604491418866253	-0.0331069803471139	-0.108012129626061	-0.00411363548597053	0.00811317812898454	0.00897476815682203	0.171875	-0.370849609375	0.41552734375	0	0	0	-0.539780206166061	0.258813422711341	-0.746903195046086	-0.289462533820379	-0.249697541091221	0.15299625737381	0.956160699465631	-0.711805708052497	-0.698454107477453	-0.0741248523219982	0.656493542966632	-0.699109437053658	0.28330588251153	-14.6623289662038	-72.9717921082823	148.503101662605
36887	1650608444866	9.31051509760279	-0.720532629540033	2.83639768858981	0.0499679785969161	-0.0552023333662199	-0.0533602132688706	-0.00142706498233454	0.00283358688754514	0.00198725092354582	0.177734375	-0.363037109375	0.40771484375	0	0	0	-0.53976129834413	0.258834124839894	-0.746908047908752	-0.289466759054236	-0.249733472424993	0.152992817320649	0.956151865865903	-0.711827390438041	-0.698427782442006	-0.0741646744435076	0.656456364865727	-0.699136489221835	0.283325273256451	-14.6689056295185	-72.9700638649483	148.507348037344
36888	1650608444867	9.26172788689399	-0.745434981786034	2.83617874590379	0.0797875279934901	-0.0458708450065351	-0.0982282186286216	-0.00704588236266578	0.00372458380688874	7.1879318072215E-06	0.17529296875	-0.367919921875	0.411865234375	0	0	0	-0.539744597064199	0.258922609346966	-0.746863535117509	-0.28953361155614	-0.249692115438529	0.152980034418738	0.956164712043419	-0.711988352229895	-0.698258740296434	-0.0742113056656285	0.656297519252352	-0.699308115689272	0.283269704617929	-14.6804855541483	-72.9725772024292	148.505253591368
36889	1650608444869	9.26467105744907	-0.727857030804579	2.86586259115231	0.0857890661824529	-0.078546154829465	-0.0883084722909952	-0.00144665035416478	0.000319614392823578	-0.00124838943144921	0.173828125	-0.369873046875	0.413818359375	0	0	0	-0.539739362137523	0.258938581486211	-0.746856627212214	-0.289546905295991	-0.249688021185789	0.152981360609871	0.956165569021536	-0.712018739826521	-0.698226801302847	-0.0742202673011098	0.656266109297271	-0.699339715194517	0.283264463954578	-14.6824416534013	-72.9727448818626	148.504613817523
36890	1650608444870	9.23742452997781	-0.745903450480144	2.83913174282348	0.0879676158610301	-0.0521714628561202	-0.120598175726812	-0.00289325666208764	0.00063926763840929	-0.00249672841421486	0.178955078125	-0.361083984375	0.412841796875	0	0	0	-0.539720107363443	0.259034303864462	-0.746806677294854	-0.289626003454225	-0.249637967661454	0.152977222010591	0.956179300470253	-0.712201311180759	-0.698036015089174	-0.074263140189691	0.656087019727007	-0.699531050907927	0.283206870258094	-14.6934143779201	-72.9754318452766	148.500187100427
36891	1650608444871	9.25909583265054	-0.71549058322069	2.81880637270342	0.0477283686330789	-0.0559579058969714	-0.107892542706359	-1.95301604013828E-05	-0.00251387174182539	-0.00323581896342507	0.169189453125	-0.366455078125	0.406982421875	0	0	0	-0.539730067495107	0.259044093251272	-0.746790902768847	-0.28963936116323	-0.249600989413368	0.152972308131526	0.956189740077137	-0.712227851870397	-0.698010396433165	-0.074249400612371	0.65607227734751	-0.699557688411849	0.283175223986708	-14.6923842636438	-72.9774749380317	148.497225662813
36892	1650608444876	9.21619559994686	-0.751902988807559	2.86485587241442	0.115642069099101	-0.0698432503179001	-0.133184926617446	0.00301245609920748	-0.00731124048995811	-0.00257930026853447	0.180908203125	-0.371337890625	0.4150390625	0	0	0	-0.539791257509349	0.259044171623626	-0.746751781727365	-0.289626124428221	-0.249484212730328	0.152898090600761	0.956232085578062	-0.7122172072055	-0.698025650393036	-0.0742080935867262	0.656128247645783	-0.699558693237401	0.28304303092861	-14.6911255383975	-72.9857646441597	148.497667899224
36893	1650608444871	9.23815343666667	-0.721540033566954	2.84357775324536	0.075408743682882	-0.0736313316743307	-0.120477854449035	-0.0047179406958507	-0.0152592704774511	-0.00169503649059112	0.177978515625	-0.36865234375	0.4150390625	0	0	0	-0.539840223612405	0.259094134903984	-0.746697540973667	-0.289630013176023	-0.249373976875531	0.152793165814956	0.956277610392257	-0.712270908707872	-0.697969369452026	-0.074222044671393	0.656111859567973	-0.699637768982625	0.28288552445693	-14.7015949219237	-72.9946811181742	148.503909370154
36894	1650608444872	9.26278938076967	-0.721134048038803	2.83951854266195	0.0686383376197273	-0.0691780470369198	-0.0981276683786554	0.00220972330731352	-0.0123112190175848	0.00337321929684791	0.175537109375	-0.361083984375	0.411376953125	0	0	0	-0.539923327499774	0.259187615801948	-0.746584240797813	-0.289683537034514	-0.249132497585491	0.152663447196034	0.956361265702998	-0.712429207078118	-0.69781045637215	-0.0741969802602284	0.656031724498793	-0.699824577210543	0.282609160472947	-14.7105942517174	-73.0110776578667	148.500860005822
36895	1650608444874	9.23619922523247	-0.715962029667762	2.81715118151932	0.0578275023444309	-0.0628269354217337	-0.130279249834654	-0.00264481126825133	-0.0234103781797333	0.00352129444047718	0.171142578125	-0.368408203125	0.41064453125	0	0	0	-0.539999486647892	0.259255887288432	-0.746517640293109	-0.289652122480589	-0.249004404725007	0.152464745867806	0.956426321101114	-0.712456930052593	-0.697776065697556	-0.074254191529332	0.656050249026384	-0.699902181313293	0.282373878652603	-14.7331776139776	-73.0238392161685	148.520973335849
36896	1650608444878	9.21548537471098	-0.723033397878371	2.84097594611987	0.0849410775380796	-0.0801542961781092	-0.142865651631739	-0.00634770271583151	-0.0290253408637816	0.00536411989713398	0.174560546875	-0.367919921875	0.40478515625	0	0	0	-0.540090945635795	0.259346219856515	-0.74643918731507	-0.289602914917628	-0.248863844226893	0.152200838651631	0.956504935559851	-0.712483019169127	-0.6977393798347	-0.0743485388123767	0.656075250586592	-0.699996187519353	0.282082617376738	-14.7656476553168	-73.0392730156339	148.550762659534
36897	1650608444878	9.28600545728725	-0.739933540802232	2.80024983719091	0.0541366817285994	-0.0319652132120068	-0.0856711314639291	-0.00329009024882355	-0.0313051705726448	0.0092601645173386	0.178955078125	-0.360595703125	0.40576171875	0	0	0	-0.540188179154203	0.259443842942125	-0.746358689026751	-0.289541587299231	-0.248724800652616	0.151906764807406	0.956587846643508	-0.712500753254108	-0.697709123167328	-0.0744624473235143	0.656108718241607	-0.700090218653872	0.281771246922977	-14.80290286955	-73.0555651233235	148.585821069952
36898	1650608444879	9.24144637720405	-0.724078879941511	2.83220989521583	0.0779891019805006	-0.076144970056806	-0.120517696058499	-0.00460422882540398	-0.036394247621473	0.00456201914004982	0.178955078125	-0.36181640625	0.40625	0	0	0	-0.540353883030633	0.259602178265153	-0.746179273326691	-0.28955290050586	-0.24835359780472	0.151562655640625	0.956738862946736	-0.712670835915769	-0.697531653697263	-0.0744974612015869	0.656064608169478	-0.700341597726084	0.281248780267409	-14.8358566402869	-73.0852791103731	148.605551594074
36899	1650608444880	9.2425270118313	-0.724569264161	2.8285558873527	0.0779546922487235	-0.0763307591136362	-0.120518880640484	-0.00574667452134336	-0.0418686916404178	0.00288011901461973	0.176513671875	-0.371826171875	0.411865234375	0	0	0	-0.540495711920067	0.259707485376802	-0.746057033723846	-0.289508738842983	-0.248098151059131	0.151238497477245	0.956856428270128	-0.712721626276065	-0.697473424345607	-0.0745567285361546	0.656106082032046	-0.70046965616823	0.280832814870556	-14.8681563437894	-73.1084464042735	148.633874548096
36900	1650608444881	9.28909182882621	-0.741641497003053	2.78954109310874	0.056550734899791	-0.0341221807803528	-0.0856921941469029	-0.00717723515887485	-0.040286938928315	0.00325786217740163	0.183837890625	-0.373291015625	0.41259765625	0	0	0	-0.540659650403579	0.259875579184622	-0.745869911330026	-0.28953393780605	-0.247714482568006	0.150900825456093	0.957009130574383	-0.712917784617634	-0.69726956440396	-0.0745881152181654	0.656037931450577	-0.700745385594927	0.280303651537875	-14.9009697841919	-73.138583889803	148.651380423795
36901	1650608444882	9.24784295680173	-0.707821985325015	2.85052672394	0.0850631902713356	-0.109919900605983	-0.110636312219194	-0.0031590933402838	-0.0392101909086368	0.00259485332532737	0.1767578125	-0.366943359375	0.4130859375	0	0	0	-0.540796039069688	0.259966943347985	-0.745757165287878	-0.289487621349568	-0.24747312242381	0.150596749263881	0.957119466309699	-0.712953122270458	-0.69722821090335	-0.0746369035083902	0.656090618072394	-0.700851939450599	0.279913664985684	-14.9301290533503	-73.1603924545724	148.677906824723
36902	1650608444883	9.26748947496764	-0.695391883722678	2.79690802380224	0.0401920588420011	-0.0818263399885681	-0.107827077450933	-0.00735857746762656	-0.0423991882129321	-0.00297366494379006	0.17529296875	-0.377197265625	0.4072265625	0	0	0	-0.54097567353755	0.260135902817598	-0.745538114639133	-0.289564418266807	-0.246995536628799	0.150308230446328	0.957288170169017	-0.713217011398523	-0.696963519478156	-0.0745878486643718	0.655983764690262	-0.701177073481952	0.279349265411734	-14.9495516678576	-73.193790982035	148.677549607647
36903	1650608444884	9.29298786106265	-0.694521306271805	2.78997639205555	0.031962586333013	-0.0767408465246367	-0.0854555308365707	-0.00754634455142242	-0.0445156647591134	-0.00921173369025203	0.177978515625	-0.372802734375	0.409423828125	0	0	0	-0.541141269945609	0.2602196344757	-0.745387538628302	-0.28956741020465	-0.246633681818051	0.150048711388908	0.95742216978896	-0.713311045248757	-0.69687291356141	-0.0745351935031854	0.656017667230843	-0.701322697875208	0.278903735589974	-14.962265409838	-73.2203650669634	148.684214903943
36904	1650608444885	9.29754097003878	-0.652961398120599	2.82151742348385	0.0242936515214627	-0.131902689477492	-0.075459964782091	-0.00733138537879199	-0.0411313799817564	-0.00134050433035015	0.174072265625	-0.365966796875	0.409423828125	0	0	0	-0.54119434376778	0.260585002619053	-0.745150948010228	-0.289748517447889	-0.246308957821025	0.149758505945419	0.957551192988718	-0.713867023897992	-0.696282506093557	-0.0747298059618746	0.655534720276618	-0.701970840993465	0.278408277367581	-15.0250609205319	-73.2459909389384	148.699946974792
36905	1650608444886	9.32290116359221	-0.652564898607129	2.81492057816031	0.0160603488507587	-0.126832603831494	-0.0530890453506867	-0.0116506189356269	-0.0376565020837168	-0.00183785717438073	0.169189453125	-0.37548828125	0.40771484375	0	0	0	-0.541318469930122	0.260695516677702	-0.74502368565316	-0.28974449004673	-0.246044889200145	0.149494419333387	0.957660342233436	-0.713971612155853	-0.696171956143413	-0.0747605812913948	0.655519984084438	-0.702136757382512	0.278024323393315	-15.0507852747463	-73.2676993206768	148.717552037335
36906	1650608444887	9.29951470157535	-0.67699003684022	2.80815622066234	0.0350357982872824	-0.112275005758751	-0.0755832652409669	-0.0129188096399408	-0.0377189540173631	-6.23454449310478E-05	0.17529296875	-0.371337890625	0.408447265625	0	0	0	-0.54131984371508	0.260964486859632	-0.744899886675978	-0.28981808471606	-0.245956609143593	0.1492404064392	0.957722635998778	-0.714301427407368	-0.695806028739207	-0.0750162727277867	0.655193724956507	-0.702553394024992	0.277740726796741	-15.1146273262964	-73.2801010214247	148.751656268322
36907	1650608444888	9.35217788177119	-0.659000366670121	2.8282873885084	0.0245520112706118	-0.13446103416345	-0.020954199923505	-0.0167341050828833	-0.0379169377596195	0.00525151776883179	0.177001953125	-0.36181640625	0.4013671875	0	0	0	-0.54142751839841	0.261114410005269	-0.744775709283436	-0.289801052568645	-0.245743184502088	0.148924514901362	0.957826589802229	-0.714422623010234	-0.695669229635411	-0.0751308103886226	0.655141666360757	-0.702755869274579	0.277351014417078	-15.1569377862469	-73.3008164981083	148.783430089838
36908	1650608444889	9.32577518572853	-0.678239548396182	2.79811663629385	0.0269397564692051	-0.10805533437892	-0.0532229540597626	-0.0167042656549633	-0.0354031596048878	0.00849039486660775	0.173095703125	-0.36376953125	0.401611328125	0	0	0	-0.541517022181934	0.261335506682536	-0.744624475452388	-0.289823149854266	-0.245523712991524	0.148583571130117	0.95793581661251	-0.714654072606651	-0.695412589511068	-0.075305291024193	0.654971497750538	-0.703081967298076	0.276926135268386	-15.2127400049978	-73.3226096892086	148.818934389561
36909	1650608444890	9.35093652293736	-0.678971535417892	2.79181699493402	0.0186916307692353	-0.103000250904451	-0.0308522192374614	-0.0223214044824728	-0.034504184281111	0.00653436928962577	0.1728515625	-0.369384765625	0.406982421875	0	0	0	-0.541602243923465	0.261505307710694	-0.744503635005019	-0.289821187770177	-0.245341376993103	0.148282132684721	0.958029236433627	-0.714809578500754	-0.695237306317239	-0.075447693061653	0.654870120877952	-0.703318915593219	0.276563966832406	-15.2591982090912	-73.3412710090638	148.851610103187
36910	1650608444891	9.33031988183672	-0.710529633720149	2.80880217974801	0.0577288232068651	-0.100109422904647	-0.0435658307453455	-0.0208523683999549	-0.0335655182729538	0.00940157377129897	0.173095703125	-0.367431640625	0.403076171875	0	0	0	-0.541627268648172	0.261747056996312	-0.744395542760449	-0.289833841931661	-0.245272491855709	0.14796335303491	0.958096159525524	-0.71504072726535	-0.694969644449805	-0.0757228607829374	0.654643538951338	-0.703650509451943	0.276256760020981	-15.3284698494197	-73.3546519028481	148.899053447181
36911	1650608444892	9.32855154035728	-0.682115265484767	2.78790127303646	0.0257365048102341	-0.10914893164015	-0.0532318762333546	-0.0263392363503339	-0.0380659143325309	0.00400080769836118	0.184326171875	-0.3662109375	0.400390625	0	0	0	-0.541722833612915	0.261930729402528	-0.744256026815632	-0.289847599758326	-0.245049480913463	0.147653932071887	0.958200954000649	-0.715229359840829	-0.694761323817994	-0.0758529218181279	0.654520981119568	-0.703921174046057	0.275857329074107	-15.3747366413715	-73.3756259898482	148.929043251219
36912	1650608444893	9.28082052045273	-0.708127001356692	2.78410974122407	0.056293131828998	-0.100271677812416	-0.0981047222986202	-0.0206705770988131	-0.0351959579050407	0.0108155484404276	0.180419921875	-0.360595703125	0.408203125	0	0	0	-0.541834799362365	0.262195188747827	-0.744058680229436	-0.289905870193529	-0.244739273254556	0.147281003356014	0.958337620140876	-0.71554691331184	-0.694416538849648	-0.0760150341838663	0.654289922722895	-0.704339390224997	0.275337466394874	-15.4337383532662	-73.4030177283272	148.961002325179
36913	1650608444894	9.27558886317385	-0.721150564832238	2.72751229349027	0.0313407519385047	-0.0561002472877633	-0.117750575930216	-0.0246939151151183	-0.0387613943129483	0.00827696375489561	0.181884765625	-0.364013671875	0.410888671875	0	0	0	-0.541930043411596	0.262386014113217	-0.743924781545137	-0.2898988220892	-0.244541001998401	0.146936107747858	0.958441171163639	-0.715715563823743	-0.694224505098147	-0.0761811539798071	0.654179585467233	-0.704600678938889	0.274930815291369	-15.4876317462398	-73.4238015578687	148.999819260461
36914	1650608444895	9.28284077707415	-0.711086676722526	2.77661010314651	0.0585324781030818	-0.0997992507778856	-0.0981130919559891	-0.0245302985886505	-0.041647574144709	0.0080701837768001	0.177490234375	-0.361328125	0.4111328125	0	0	0	-0.542162106236887	0.262400379614109	-0.743790947984032	-0.28979530195669	-0.244157867049225	0.146567159749483	0.958595328405549	-0.715621329705259	-0.694329447484404	-0.0761099916363076	0.654425739430266	-0.704574116781884	0.274412582678307	-15.5016765429166	-73.4547896188166	149.023745721294
36915	1650608444897	9.28645444328465	-0.765875838532898	2.78375531387314	0.103481020443795	-0.0705665707424909	-0.0885727052203986	-0.0216315048578278	-0.043534921868109	0.00894974996461171	0.183837890625	-0.36328125	0.4052734375	0	0	0	-0.542279474435521	0.262587670596966	-0.743648642988724	-0.289771259163885	-0.243931177937023	0.146184199299573	0.958711510468816	-0.715767815317855	-0.694160665226071	-0.0762719175581865	0.654350070669639	-0.70481994206183	0.273961373712788	-15.5574105125958	-73.4781813964146	149.066392089933
36916	1650608444897	9.2576584821686	-0.731881113738911	2.74161073143679	0.0627048445566568	-0.0721287969296009	-0.130374434114959	-0.0258204987070739	-0.0454530621435494	0.0050192114341766	0.17529296875	-0.365478515625	0.408203125	0	0	0	-0.542512261047114	0.262620776130574	-0.743500712908942	-0.289685112599902	-0.24352596430306	0.145812193361177	0.958871163909661	-0.71571215758736	-0.694225726965114	-0.0762020176990418	0.654561847491825	-0.704832919412085	0.273421549116246	-15.5730432481644	-73.5103782007089	149.088757034229
36917	1650608444898	9.28921447768597	-0.744544707141625	2.78086746702779	0.092461641241048	-0.0908083670165028	-0.0884764048934095	-0.0215084266480916	-0.0514150296607719	0.00229435094834104	0.171875	-0.373046875	0.40478515625	0	0	0	-0.542668530378987	0.262800200849829	-0.743327117878616	-0.289675191198471	-0.243198299480879	0.145420052432035	0.959013866156414	-0.715873647545952	-0.694048676074837	-0.0762978111613967	0.654507072443731	-0.705088252341103	0.2728938411392	-15.6203481583659	-73.5392083298521	149.122750884269
36918	1650608444899	9.31188103388554	-0.738766930810686	2.74928905218754	0.0633636131551086	-0.073922603482894	-0.0758494187424752	-0.0226212558572591	-0.0556145962881976	0.00225131734180558	0.173095703125	-0.3662109375	0.40869140625	0	0	0	-0.542744859172046	0.263061100293946	-0.743171793858587	-0.28969390771548	-0.243010915349702	0.145034562468273	0.959119737421005	-0.716134801798997	-0.693752594689347	-0.0765394213076547	0.654290944972657	-0.705458937891806	0.27245375070891	-15.6914487175118	-73.5606292617628	149.170265465757
36919	1650608444900	9.31632036785561	-0.745687105798974	2.76776576190682	0.0823378460175488	-0.086028624681524	-0.0660869610754027	-0.0147348420138955	-0.0480839916433687	0.0043261642521197	0.182373046875	-0.3759765625	0.4033203125	0	0	0	-0.542895227830378	0.263216502174396	-0.743019240695595	-0.289662307762367	-0.242721038121563	0.144651370110088	0.959250998841526	-0.716247301776823	-0.693625640889713	-0.0766372820352928	0.654275400997632	-0.705662420301386	0.271963689164157	-15.7374292877793	-73.5872251295069	149.20686396009
36920	1650608444901	9.34223189168454	-0.722096540419795	2.76593065825174	0.0605118117229637	-0.102123835555046	-0.0436035232329317	-0.0229670279500507	-0.0548102153342413	-0.00374716707401233	0.177001953125	-0.36669921875	0.4052734375	0	0	0	-0.543014461126336	0.263496307348199	-0.742793774680004	-0.289762660324221	-0.242345791379009	0.144303189760174	0.959398304577364	-0.716632411134019	-0.693214593391387	-0.0767562037978402	0.653992740566073	-0.706137463199803	0.271409982043077	-15.7911886145535	-73.6171218550362	149.228597699626
36921	1650608444903	9.32225176996644	-0.752605052006465	2.78131418982424	0.100687250307387	-0.0988601216160167	-0.0563259574728274	-0.0178172540687678	-0.0482784661391188	-0.00275901220327997	0.17333984375	-0.371337890625	0.410400390625	0	0	0	-0.543170146561385	0.263644785575016	-0.742626088533503	-0.289765614856243	-0.242004160662935	0.143967056662541	0.959535029489676	-0.716782963946247	-0.693054630972175	-0.076794928767827	0.653954255906529	-0.706363054727487	0.270915237847174	-15.8261654688089	-73.64491868946	149.251799230806
36922	1650608444904	9.34443639210983	-0.769599994048827	2.74429652424068	0.0849032233601055	-0.0608367811334671	-0.0438067824577537	-0.0156065656536953	-0.0436028721038813	-0.00748385911939845	0.17919921875	-0.368896484375	0.40478515625	0	0	0	-0.54324797643931	0.263776261704068	-0.742516020758232	-0.289782122936149	-0.241815914642426	0.143743896811923	0.959615941694889	-0.716927578425766	-0.692896809976091	-0.0768690966352726	0.653865361307826	-0.706563304208674	0.270607439712043	-15.8577955943598	-73.6613901958499	149.271259065541
36923	1650608444905	9.37345854331427	-0.727334207923541	2.77311382732068	0.0696423990480869	-0.10900801632821	-0.0114544584687692	-0.0122930226315154	-0.0359711838172127	-0.013773077976476	0.18310546875	-0.3720703125	0.403076171875	0	0	0	-0.543380006015989	0.263856597907158	-0.74237333308821	-0.289827015860196	-0.241476939879275	0.143570896049987	0.959727193172073	-0.717068495082586	-0.692759993236868	-0.0767877928478853	0.653836111626252	-0.706732615334724	0.270235729605849	-15.8625599065918	-73.6840643556652	149.266263044392
36924	1650608444906	9.3474317694149	-0.697200682752079	2.75570059501082	0.0465081419571949	-0.123930737193915	-0.0435045615224467	-0.0167778094585226	-0.029609554411044	-0.0140383607207085	0.169921875	-0.36279296875	0.409423828125	0	0	0	-0.543478676717379	0.264034452278961	-0.742173452573908	-0.289991900331371	-0.241071251391452	0.143454390310069	0.95984659693793	-0.71744276923954	-0.692381011503899	-0.0767098935909707	0.653575186660616	-0.707127550594378	0.26983347192655	-15.8697118375679	-73.7084341882888	149.244371286097
36925	1650608444907	9.29987500645905	-0.69743982333545	2.75907847446171	0.0629298799071524	-0.13474836259883	-0.0882596922042644	-0.0154792463206038	-0.0270397818142303	-0.0125807191243973	0.181884765625	-0.3662109375	0.40283203125	0	0	0	-0.543571544936868	0.264117423540047	-0.742051980023144	-0.29005313489298	-0.240798308947403	0.143335574201696	0.959932855764579	-0.717602438035329	-0.692222331042644	-0.0766484528978884	0.653500509053989	-0.707306975488124	0.269543924235029	-15.873817000786	-73.72606135898	149.236709919101
36926	1650608444908	9.30373135886587	-0.703348326669366	2.78003498240853	0.0809908167153834	-0.145768778450563	-0.078474398013288	-0.0192266294495297	-0.0234993961414902	-0.00240559616507286	0.17822265625	-0.365966796875	0.406494140625	0	0	0	-0.543620458923876	0.264125991285021	-0.742035432444919	-0.289995990253971	-0.240758244552026	0.143206014878621	0.95996224143599	-0.71754318526297	-0.692279572728647	-0.0766861817103522	0.653580327857944	-0.707277194942143	0.269428514734198	-15.8876959821192	-73.7320706257214	149.255288923503
36927	1650608444910	9.25952419839399	-0.687088161744144	2.81293533381718	0.103371717703788	-0.189124755959441	-0.113356002527363	-0.0214867692385009	-0.03440133933651	-0.00573085881020426	0.169921875	-0.367431640625	0.40478515625	0	0	0	-0.54372269397615	0.264260162049859	-0.741896256370741	-0.290038176093733	-0.240486976927076	0.142987979656429	0.960062733159791	-0.717724968537723	-0.692088846323205	-0.076706572942205	0.653480591499089	-0.707507926788659	0.269064397617399	-15.9121248712191	-73.7526371734785	149.265265117926
36928	1650608444911	9.27795773521829	-0.721624915661681	2.74733898286577	0.081222235400372	-0.118145684103627	-0.110700078497446	-0.0158552490566448	-0.0352982153913868	-0.00379008900861841	0.17236328125	-0.36572265625	0.403076171875	0	0	0	-0.543762193347674	0.264339288333819	-0.741854256093694	-0.289999449041836	-0.240445993282318	0.142799228648304	0.960101090829465	-0.717750073497746	-0.692050120397203	-0.0768209792452328	0.653468098921791	-0.707583925167655	0.268894835457794	-15.9441909397273	-73.7604941034708	149.294213709175
36929	1650608444911	9.22779087133642	-0.693136532377117	2.73245637845909	0.0656825394598097	-0.137739112698081	-0.165118103200632	-0.0137199195067064	-0.0446725871683101	-0.000173510776471241	0.174072265625	-0.36572265625	0.39892578125	0	0	0	-0.543905886059297	0.264474603778821	-0.74170591364084	-0.289986049209773	-0.240148956747516	0.142470147727461	0.960224315240765	-0.717867322561468	-0.691922550439486	-0.0768745171805869	0.653448533376203	-0.707774993341693	0.268439142132172	-15.9804397268701	-73.7857596397177	149.321148948936
36930	1650608444912	9.19866491120073	-0.68196163404709	2.68394823991826	0.0339033343603162	-0.119110937810404	-0.207025150740842	-0.0126799383638534	-0.0569994361346371	0.00501181519480751	0.17529296875	-0.3671875	0.4013671875	0	0	0	-0.5440083935779	0.264644956595449	-0.741602114666001	-0.289903808509478	-0.240021299056984	0.142048399468746	0.960318711786543	-0.71792471029268	-0.691837657520586	-0.0771023085750417	0.653432388507158	-0.707942729212467	0.26803582933077	-16.0482370271128	-73.8051403498491	149.382282501596
36931	1650608444913	9.25157797069709	-0.711605974086192	2.68914010617552	0.0493732064493196	-0.0999991409575042	-0.152609137882793	-0.0132625724148751	-0.0673554530988884	0.00756900681047866	0.17822265625	-0.366943359375	0.402099609375	0	0	0	-0.544225982595738	0.264832764293897	-0.741404146437213	-0.289830258030219	-0.23963300279568	0.14150496739036	0.960495897011007	-0.718020452875927	-0.691724056973179	-0.0772299051949049	0.653469703370381	-0.708162533044794	0.267363373648313	-16.1117562213023	-73.8415796235624	149.43785153574
36932	1650608444914	9.25663751030784	-0.718937899382753	2.70574558101047	0.0673151994913634	-0.111884403810654	-0.142826221456453	-0.0138362536820325	-0.0777042900599437	0.0101353339023066	0.181396484375	-0.356689453125	0.400390625	0	0	0	-0.544433036095895	0.265057393099079	-0.741207938037672	-0.28973788181884	-0.239289258093074	0.140900033379501	0.960670511442358	-0.718124038437881	-0.691593076405303	-0.0774395382599684	0.653481840894554	-0.708411036942468	0.266674495141851	-16.192755208563	-73.8775686196132	149.50926436874
36933	1650608444914	9.27993952723427	-0.690381671521765	2.67805069010669	0.027088532040713	-0.115623871684303	-0.130138515272716	-0.0104955657868034	-0.0778730651072021	0.0202738948761877	0.185546875	-0.375	0.403564453125	0	0	0	-0.544676392293914	0.26528493863283	-0.741003279996577	-0.289595697562268	-0.238923919262219	0.140193836924191	0.960864740165261	-0.71817161014196	-0.691516466575998	-0.0776821397771238	0.653563232740709	-0.708625898865347	0.265903058024524	-16.2854376109251	-73.9176923271442	149.596787821562
36934	1650608444915	9.30559937766649	-0.739258057830776	2.65476476796071	0.0465377939151034	-0.0689508249319264	-0.107970375581893	-0.0112508875093644	-0.087816511883554	0.0198409992068445	0.1787109375	-0.3681640625	0.400390625	0	0	0	-0.5450269446922	0.265470988392223	-0.740736398796917	-0.28944839156388	-0.238330516361138	0.139432234993514	0.961122893711177	-0.71818760182484	-0.691489565886278	-0.0777737028531605	0.653762291323168	-0.708802392853692	0.264941567763085	-16.3596224608618	-73.9711729522069	149.67077489449
36935	1650608444915	9.32579310968759	-0.705183746310244	2.60276796013167	-0.0126246236254193	-0.0608083256770191	-0.105049188082591	-0.00827242030340527	-0.0859479424087571	0.0255693198195174	0.183349609375	-0.360595703125	0.397216796875	0	0	0	-0.54529676555202	0.265716175826474	-0.740519565213386	-0.289269986204648	-0.237948625119337	0.13863182636104	0.961333276509047	-0.718208511293153	-0.691435577970634	-0.0780600782890251	0.653878418446343	-0.709012029683713	0.26409270276532	-16.46653716544	-74.0148859485027	149.774390594495
36936	1650608444916	9.33731465548553	-0.749460755372134	2.6586392311244	0.0580412626408042	-0.075762987290607	-0.0758303838152461	-0.00867371365352661	-0.0876238832109118	0.016351181487804	0.177734375	-0.3720703125	0.397216796875	0	0	0	-0.545621295945235	0.265897701768331	-0.740275354233658	-0.289116262980126	-0.237418375782897	0.137892390729256	0.961570696007102	-0.718210185240042	-0.691420397349453	-0.0781790505608138	0.654069296526046	-0.709171010905054	0.263191627210723	-16.5436474982546	-74.0643568335166	149.852016615096
36937	1650608444917	9.36360879725078	-0.750854935847668	2.64746353714681	0.0498046273595013	-0.0707261496377817	-0.0534595337696508	-0.00750003461861773	-0.0809146443949572	0.0196456627026479	0.183349609375	-0.369140625	0.399658203125	0	0	0	-0.545881566586221	0.266116500453891	-0.74006409503399	-0.288964459214399	-0.237025713144607	0.137168257686556	0.96177111642611	-0.718240626335406	-0.691363098994209	-0.0784057907966496	0.654178273859362	-0.709367277531434	0.262390646895096	-16.63684019996	-74.1062349955912	149.941765939877
36938	1650608444917	9.35575861924163	-0.734157934146675	2.56967693845365	-0.00756303805959646	-0.0359628370725465	-0.0827803244492369	-0.0064193583652801	-0.0804303796657496	0.0148776011019291	0.186279296875	-0.36328125	0.39501953125	0	0	0	-0.546088194790101	0.266454718305519	-0.739797223699173	-0.288945729178699	-0.236596098200557	0.136506944266737	0.961970966549007	-0.718538048717802	-0.691024497364233	-0.0786652184089268	0.654007155053435	-0.709824624966948	0.261579133207229	-16.7377145168975	-74.1481013090251	150.016689941485
36939	1650608444918	9.3367247582145	-0.742252368850845	2.58918731071772	0.019594245157074	-0.0533908174194155	-0.0953821789741713	-0.00292596129136929	-0.0719568997450612	0.0131890582433651	0.17431640625	-0.37109375	0.39501953125	0	0	0	-0.546330188697726	0.266626720797321	-0.739606667991591	-0.288817404836953	-0.236215663161511	0.135890103528762	0.962151776093622	-0.718555010268986	-0.690989396840231	-0.078818466565342	0.654126025850145	-0.709977135700381	0.26086703334875	-16.8116871849278	-74.1860718846463	150.089050884857
36940	1650608444919	9.31436306261172	-0.743887967036398	2.58557628610885	0.0276741479553422	-0.0594300059079787	-0.117759255907641	-0.00567548625548503	-0.0754122060924576	0.00893367321038735	0.17626953125	-0.3681640625	0.39697265625	0	0	0	-0.546556367592957	0.266891739115184	-0.739356651480112	-0.288784830882408	-0.235758916991623	0.135287212176212	0.962348743065904	-0.71877273006166	-0.690744242088583	-0.0789819887137411	0.654051600088744	-0.710330741445883	0.260089873271331	-16.8920623770626	-74.2275369375666	150.151197174825
36941	1650608444920	9.31289034196692	-0.738866105173408	2.55514241294685	0.00871534265917024	-0.0477881711732204	-0.127531803614056	0.00292277018607579	-0.0757054178658941	0.0149412643604439	0.17822265625	-0.3759765625	0.397216796875	0	0	0	-0.546818130871411	0.267052879623151	-0.739165653666888	-0.288629221795854	-0.235366208151632	0.134630901833476	0.962536891932889	-0.718748327750914	-0.690751863621004	-0.0791372495059854	0.654219832637001	-0.710448015815101	0.259345382470557	-16.9691654866073	-74.2672450797643	150.230181087906
36942	1650608444920	9.31811306722852	-0.746272833609743	2.57133805857401	0.0252790640007657	-0.0606517715918143	-0.117760281413325	-0.00671585234556353	-0.0783180888906951	0.0105705288371106	0.18408203125	-0.367431640625	0.388427734375	0	0	0	-0.546937975362025	0.267434229506468	-0.738935911460469	-0.288637320437357	-0.235094696715264	0.13402909086023	0.962687221468914	-0.719108834975313	-0.690334860278049	-0.0795000889643246	0.65392122387701	-0.710966935580036	0.258675567990342	-17.0840321735628	-74.2990419333615	150.31224039498
36943	1650608444923	9.39270077653818	-0.745746494024622	2.5535314062126	0.000585966643713506	-0.0450599649384833	-0.0506459974174103	-0.00367675699688771	-0.0867933166449061	0.00641897182884007	0.1796875	-0.3671875	0.391845703125	0	0	0	-0.547241686070394	0.267613415513714	-0.738693368338124	-0.288516385041116	-0.234569665179277	0.133351847131959	0.962909319221793	-0.719148714015086	-0.690282710799781	-0.0795921246189195	0.654065898291701	-0.711144896654261	0.257819193727833	-17.1561346828429	-74.3461340135857	150.381955711201
36944	1650608444922	9.39857132842226	-0.729219540264915	2.57512698091789	0.00687093803033271	-0.0790190225087205	-0.0407946865930562	0.00332328169795593	-0.0826386659393652	0.013005281642028	0.173828125	-0.371826171875	0.392578125	0	0	0	-0.547507987483547	0.267931876056995	-0.738391314607766	-0.288488786517103	-0.23401844739121	0.132645544166613	0.963140968858323	-0.719424913137238	-0.689973459692937	-0.0797773105389993	0.65395960168659	-0.711576970209198	0.25689502686859	-17.2518886099782	-74.3953990269675	150.454714997147
36945	1650608444922	9.34885533564168	-0.724965050235601	2.55083549223595	0.00435315180557817	-0.0779479418807877	-0.0953146704002368	0.00167499453981109	-0.0818991867281054	0.00878933033601872	0.182861328125	-0.375732421875	0.396728515625	0	0	0	-0.547798039966756	0.268091583485399	-0.738171878435384	-0.288351327654389	-0.233541638497063	0.131985594438183	0.963347344392928	-0.719425770297726	-0.689960829408485	-0.079878751326495	0.654129088268999	-0.71171191977004	0.256088420545743	-17.3236735095992	-74.4394170885333	150.527123444769
36946	1650608444924	9.37512053284361	-0.725245619233718	2.53950478303662	-0.00635773622388452	-0.0740672884923927	-0.0729533648414708	0.00204606087793284	-0.087625816396983	0.0084205647521708	0.182861328125	-0.373046875	0.394775390625	0	0	0	-0.547943670144012	0.268522514405608	-0.737891521790792	-0.288391219831099	-0.233176477346881	0.13133244802513	0.963525048199488	-0.719873296263959	-0.689452327163241	-0.0802366867165664	0.653766906273299	-0.71232526044281	0.255306787212799	-17.4466595775619	-74.4774172637457	150.61039762541
36947	1650608444924	9.37683759555049	-0.749775577008916	2.52517952066357	0.00666317277073399	-0.0537287503470236	-0.0730343282507668	0.00084890785436371	-0.0864256107959195	0.0118511320573688	0.1806640625	-0.3662109375	0.38818359375	0	0	0	-0.548244164864013	0.26870142425717	-0.737662755946528	-0.288238683705193	-0.232693593816917	0.130617907705458	0.963738892845576	-0.719873859464031	-0.689436011636132	-0.080371713429691	0.653938313495187	-0.712472419147515	0.254455760589458	-17.5291028716886	-74.5232664408244	150.693193076345
