// Start Time : 22/04/2022 05:46:24																																
// Update Rate : 100Hz																																
// Filter Profile : 46.1 human																																
// Firmware Version : 4.4.0																																
PacketCounter	Time_Of_Arrival	Acc_X	Acc_Y	Acc_Z	FreeAcc_X	FreeAcc_Y	FreeAcc_Z	Gyr_X	Gyr_Y	Gyr_Z	Mag_X	Mag_Y	Mag_Z	VelInc_X	VelInc_Y	VelInc_Z	OriInc_q0	OriInc_q1	OriInc_q2	OriInc_q3	Mat[1][1]	Mat[2][1]	Mat[3][1]	Mat[1][2]	Mat[2][2]	Mat[3][2]	Mat[1][3]	Mat[2][3]	Mat[3][3]	Euler_X	Euler_Y	Euler_Z
17424	1650606421041	5.61365896540917	1.84508027300843	8.10032604185684	1.04083408558608E-15	-3.46944695195361E-16	0.2139157596436	0.000244587109747637	-0.00474014886519839	-0.00528475601093232	0.146240234375	-0.161865234375	0.674072265625	0	0	0	-0.307476280134532	0.0388574176405584	-0.858884869443744	-0.407756323420668	-0.478386235730181	0.676536004748537	0.559862164950263	-0.724326941675548	-0.664449763609534	0.184002698899176	0.496484733931321	-0.317498891207705	0.807896876497876	12.8305481664068	-34.0462660670924	125.264561267309
17425	1650606421042	5.60287858282554	1.81510541705698	8.11219866192699	0.0217131244211039	0.0146114228652708	0.211979127856221	-0.000717232712359422	-0.00642906981348349	-0.0082918265434238	0.14404296875	-0.16259765625	0.66455078125	0	0	0	-0.306823730426384	0.0394799547743876	-0.858184631840621	-0.40965799063466	-0.476079058312821	0.678897609744864	0.558969378158311	-0.727351157748634	-0.66124332776037	0.183623404864722	0.494276262385419	-0.319147766677291	0.8086010632365	12.7941883871386	-33.984553302221	125.040178248635
17426	1650606421043	5.59741290152299	1.83913737843351	8.1161789575493	0.00944863515629397	-0.00599669174685038	0.216554536358304	0.00489229254524856	-0.000564217039378625	-0.00866471517431698	0.14697265625	-0.170166015625	0.670654296875	0	0	0	-0.306837882303863	0.0394468252529268	-0.858166983087603	-0.409687553019454	-0.476013245768427	0.678953102118057	0.558958026131906	-0.727368223414931	-0.661200113756796	0.183711396310106	0.494314532882876	-0.319119248388858	0.808588923921492	12.8003032160957	-33.9837688963125	125.034253442086
17427	1650606421044	5.60302024540702	1.81635392345965	8.11182135843651	0.0216470100025628	0.0145394587350123	0.211979375472831	-0.000522242984810961	-0.00314120491988629	-0.00657287004834456	0.14501953125	-0.16943359375	0.6630859375	0	0	0	-0.306850131136865	0.0394505590097484	-0.85814851429829	-0.409716704349168	-0.475950438397089	0.678984743829733	0.558973074339086	-0.727406380651989	-0.661151751142149	0.183734371712108	0.49431886225026	-0.319152126121918	0.808573300830214	12.8020905111768	-33.9848087036507	125.029444738023
17428	1650606421045	5.58102145739553	1.83335120929612	8.13210190811494	0.0304922397508726	-0.0180441144508117	0.21920194923139	0.00483032111833457	-0.00728849124871214	-0.00724884410050967	0.1484375	-0.165283203125	0.66845703125	0	0	0	-0.306892728849935	0.0394336428311328	-0.858123433473622	-0.409738958015404	-0.475861678526983	0.679009406446285	0.559018683826351	-0.727416999474046	-0.661117948195036	0.183813947921704	0.494388684928832	-0.319169679844201	0.808523681584214	12.8082124037342	-33.9879603248644	125.023444114893
17429	1650606421046	5.63716751143969	1.82548957194845	8.11234433813324	0.000533287816268865	0.0318014541557721	0.233166943787779	0.00112746033378929	-0.00272775670614402	-0.0105541619321938	0.142578125	-0.171142578125	0.665771484375	0	0	0	-0.306908238798854	0.0394184461878424	-0.858098052188243	-0.409781956518664	-0.475772162138241	0.67907050562971	0.559020659831201	-0.727461889212503	-0.661049868423743	0.183881133345235	0.494408787824082	-0.319180700921533	0.808507038115043	12.8129944601422	-33.9880968696855	125.015955442213
17430	1650606421047	5.5866792496944	1.8175121704163	8.09338337819545	0.0216241667748362	0.00925414287200697	0.188144440299826	0.00310504485473869	-0.00246092772753302	-0.00968157081789449	0.153076171875	-0.164306640625	0.66845703125	0	0	0	-0.306927067082123	0.039395309432964	-0.858075049933703	-0.409818244796788	-0.475689563448093	0.679126648173388	0.559022749955083	-0.727492595297597	-0.660994031652723	0.183960359606754	0.494443083694908	-0.319176888042132	0.808487570174094	12.8186311393676	-33.9882413005372	125.00905477785
17431	1650606421048	5.62059865034499	1.82006919112746	8.12831270895782	0.0216208672383552	0.0198090493811792	0.235814447897354	0.00387241032416709	-0.00406032135958168	-0.00839356361955869	0.143310546875	-0.168212890625	0.673828125	0	0	0	-0.306953469874028	0.0393753105472295	-0.858052688397513	-0.409847210781535	-0.475609662293782	0.679168225686957	0.559040222479587	-0.727513778486315	-0.660949697467811	0.184035864792094	0.494488777673832	-0.319180229078243	0.808458304503207	12.8241673945148	-33.9894486890984	125.002884106774
17432	1650606421049	5.59844999787179	1.83737482833354	8.14862536032103	0.0304660712960186	-0.0127745356698704	0.243037000115324	0.00469718133726868	-0.00385368964796296	-0.0103843860152067	0.147705078125	-0.160888671875	0.66748046875	0	0	0	-0.306981672734521	0.0393471178522067	-0.858026417034178	-0.409883794011585	-0.475515056023568	0.679224558241166	0.559052261400486	-0.727539934463376	-0.660894159446786	0.184131892322196	0.494541277605752	-0.319175358527597	0.80842811384368	12.8311007568454	-33.9902806140898	124.995296044515
17433	1650606421050	5.59804619809155	1.85028799146044	8.08044863204243	-0.0118252265934818	0.000584047078156479	0.19007209612966	0.00208893510032978	-0.00103918907398515	-0.0075475258225963	0.148681640625	-0.168701171875	0.66357421875	0	0	0	-0.306990056514595	0.039330667375671	-0.858010533681403	-0.409912341722842	-0.475457954608924	0.679269966567591	0.55904565638091	-0.727566461769246	-0.660849941414161	0.18418577209296	0.494557152518976	-0.31917027971314	0.808420407609901	12.8348492945138	-33.9898241867206	124.990264002897
17434	1650606421053	5.6039798106469	1.82130654801026	8.11004783869715	0.0215585533652474	0.0145024865768348	0.211979619648636	-0.000330985299138677	-0.00477227939902103	-0.00671638680825193	0.15087890625	-0.1640625	0.665771484375	0	0	0	-0.307011171995024	0.0393315590665042	-0.857989377007037	-0.409940724586758	-0.475385485191052	0.679299117705213	0.559071864034121	-0.727600029886809	-0.660803261573364	0.184220644887369	0.494577432742723	-0.31920488432811	0.808394337463279	12.8375991477371	-33.991635231399	124.98500606507
17435	1650606421051	5.63778998720678	1.82974152896505	8.11095373001363	0.00039877746748386	0.0317320113313017	0.233167169618035	0.00329594704676292	-0.00409127483773216	-0.00982557728434236	0.145263671875	-0.15966796875	0.6748046875	0	0	0	-0.307035529227677	0.0393132891711481	-0.857964447707138	-0.409976408537139	-0.475297056469739	0.679349212754357	0.559086178724925	-0.727631518939733	-0.66074761947507	0.184295838269576	0.494616094316248	-0.319213455994676	0.808367298172852	12.8430806858002	-33.9926244451821	124.978014523652
17436	1650606421052	5.59878076784027	1.84591372176462	8.11369673860542	0.00923473827391871	-0.00613736126704213	0.216554650495741	0.00164671176131975	-0.00450501336000819	-0.00584394402794299	0.141845703125	-0.16162109375	0.6689453125	0	0	0	-0.307059378984462	0.039306488338779	-0.857945875396884	-0.409998064192533	-0.475232250272104	0.67937344439065	0.559111823661508	-0.727651147988112	-0.660713174665699	0.184341822858399	0.494649487145085	-0.319233181044764	0.808339075504299	12.846612556865	-33.9943966620828	124.973384968519
17437	1650606421054	5.62142204634923	1.82414282446278	8.12682999066583	0.0214418919637962	0.0197020947687103	0.235815041670838	0.0039289759174409	-0.00225558527351092	-0.0116731515537635	0.14501953125	-0.1591796875	0.667724609375	0	0	0	-0.307077666059533	0.0392800191683922	-0.857920166572607	-0.410040699064851	-0.475139864235677	0.679440336468523	0.55910905787122	-0.727688402904537	-0.660647410409078	0.184430440540663	0.494683431794867	-0.319226922892352	0.808320774203122	12.8528645249695	-33.9942055278259	124.965503714024
17438	1650606421054	5.58789915399903	1.8171075938513	8.1254148506293	0.0425426756087108	0.00244095963371424	0.214627711114577	0.00189482958267091	-0.00432924768296376	-0.00926657382658624	0.14794921875	-0.1669921875	0.675537109375	0	0	0	-0.307101941073394	0.0392665391035363	-0.857894892151457	-0.410076688823229	-0.47505101414546	0.679487732707801	0.559126957907576	-0.727723054219523	-0.660590496381214	0.184497567594349	0.494717788559072	-0.319243820911906	0.808293073391568	12.8578131152002	-33.9954425454052	124.958594734935
17439	1650606421056	5.61601983906327	1.8491876736073	8.13051473120884	0.00904499256133683	-0.000982389780533002	0.240389819309962	0.00412031192341572	-0.00388547985970429	-0.0118169244592906	0.14306640625	-0.175537109375	0.676025390625	0	0	0	-0.307125292619065	0.0392446398473802	-0.857867374632007	-0.410118861330335	-0.474953148429526	0.679549138719333	0.559135470939462	-0.727761224706759	-0.660524755648717	0.184582358280853	0.494755602909355	-0.319249142897856	0.808267825753806	12.8639141741531	-33.9960308617088	124.950620219389
17440	1650606421057	5.5878719776169	1.82489662762486	8.09089791650397	0.0212923823718308	0.00905491028215999	0.188145334565492	0.0031042465963598	-0.00246302958604369	-0.00968257919405076	0.144775390625	-0.171630859375	0.671142578125	0	0	0	-0.307144122413179	0.0392215066422817	-0.857844345263724	-0.410155142333728	-0.474870494568475	0.67960522858892	0.559137502465085	-0.727791849538385	-0.660468865267817	0.18466158711908	0.494789891907452	-0.3192453778623	0.808248322967495	12.8695521737583	-33.9961712564338	124.943717764195
17441	1650606421058	5.59953924409252	1.84389972688626	8.1464027601692	0.0299903788203111	-0.0130416404309257	0.243038087210238	0.000933352063011116	-0.00602121126999428	-0.0122735312617739	0.143310546875	-0.16748046875	0.6708984375	0	0	0	-0.30716896492787	0.0392179274375145	-0.857812455566519	-0.410203574128244	-0.474760509515111	0.679662410055028	0.559161396166745	-0.727848530765418	-0.660389963879841	0.184720361274563	0.494812060147663	-0.319286867824178	0.808218362305294	12.8739731681221	-33.997822520395	124.935223640654
17442	1650606421059	5.588189846924	1.82666220673225	8.09027994138742	0.0211288888856312	0.00897164210438925	0.188145756362346	0.00807545293267819	-0.00334941740452589	-0.0100729146595314	0.145751953125	-0.17138671875	0.66796875	0	0	0	-0.307201867346133	0.0391746916458365	-0.85778823348848	-0.41023371719328	-0.474670619953667	0.679718234324652	0.559169852977947	-0.727856388029892	-0.660347281624476	0.184841948851566	0.494886735482859	-0.319256307028918	0.808184712467005	12.8826829922797	-33.9984069677743	124.927921541838
17443	1650606421059	5.58857065658524	1.82158787587825	8.12394972263381	0.042024183876621	0.0022061983789427	0.214629951903102	0.00444929526736444	-0.00403125852305052	-0.0069629954228478	0.134521484375	-0.16357421875	0.66650390625	0	0	0	-0.307221659265291	0.0391609477859063	-0.857771898938598	-0.410254362119482	-0.474612420880436	0.679747143771768	0.559184111433914	-0.727871509200518	-0.660315557060893	0.184895730609238	0.494920312818308	-0.319260372795446	0.808162544493582	12.8866479056968	-33.9993923739782	124.923479947612
17444	1650606421060	5.60519584518423	1.8291477929783	8.10744232772483	0.020914531683884	0.0141817696558862	0.211981442806991	-0.00027378331556106	0.00194906890640643	-0.00813385628592219	0.14404296875	-0.1611328125	0.676025390625	0	0	0	-0.307214330859595	0.0391456296699364	-0.857758153770986	-0.410290048906411	-0.474562861365733	0.679807072870887	0.559153319123731	-0.727911466571395	-0.660259390892239	0.184938999598492	0.494909069876729	-0.319248931734041	0.808173949184472	12.8893870863655	-33.9972643224215	124.918300711736
17445	1650606421061	5.6166838618822	1.84784970590739	8.16313757674881	0.0294727602781244	-0.00792259588240796	0.266874622353502	0.00107093488515994	-0.00453763664054659	-0.00727573542238404	0.14453125	-0.166259765625	0.66552734375	0	0	0	-0.307226408538657	0.0391491351733222	-0.857740932369209	-0.410316672888171	-0.47450432369284	0.679835514746075	0.559168417998317	-0.727946107532852	-0.660215146330325	0.1849606041399	0.49491424643525	-0.319279866959955	0.808158558223238	12.8910798219953	-33.9983077965312	124.913858371591
17446	1650606421062	5.60532691962755	1.83015053647866	8.10712540636749	0.0206141919302924	0.0140918084258453	0.211982191771982	0.00285652333205496	-0.00263953220410516	-0.0062602871678099	0.14501953125	-0.169921875	0.665283203125	0	0	0	-0.307244811946361	0.039132671275713	-0.857724595427731	-0.410338613792569	-0.474445695125677	0.679868422553084	0.559178156218477	-0.727961663461344	-0.660181712139241	0.185018711182122	0.494947571877371	-0.319278929733991	0.808138519141745	12.8953033774175	-33.9989808058482	124.909234140997
17447	1650606421063	5.58301186645465	1.84723546559688	8.12759239887533	0.029098277246218	-0.018604900020603	0.219205065030231	0.00291172858887637	-0.00083504401072073	-0.00953983718494854	0.1396484375	-0.16845703125	0.6650390625	0	0	0	-0.307243136990997	0.0391195101495117	-0.857709538403712	-0.410372594636734	-0.474391976686092	0.679922575407039	0.559157888174459	-0.727999379470587	-0.660127994993554	0.185061972636816	0.494943588650566	-0.319274680608484	0.808142637395187	12.8981542234563	-33.9975800854072	124.904047989946
17448	1650606421063	5.62189718491189	1.83825210161061	8.09053003862798	-0.000855410597347393	0.0259543866782265	0.209333426769637	-0.00230714589269952	-0.000125227615508285	-0.00572663021924886	0.154541015625	-0.1689453125	0.671875	0	0	0	-0.307240066763927	0.0391208808133552	-0.857697139051008	-0.41040067704988	-0.474349651303794	0.67995996907464	0.5591483244757	-0.728037977206476	-0.660081681922774	0.185075327731992	0.494927380585345	-0.319290797935073	0.808146196118569	12.8989989908834	-33.9969191481317	124.900170416689
17449	1650606421066	5.6107046937655	1.80838018857127	8.10273868295847	0.0321282432447942	0.034466683608524	0.207412437722146	0.0052739262050433	0.00109467706729913	-0.00709284319661716	0.152587890625	-0.171875	0.66552734375	0	0	0	-0.307233316724762	0.0390983630578198	-0.857690969057918	-0.410420770304076	-0.474324960794622	0.680003736885674	0.559116042864716	-0.728053015928726	-0.660052218618416	0.185121243227226	0.494928921729441	-0.319258494825785	0.808158014201002	12.9019096781951	-33.9946882375376	124.897040455359
17450	1650606421066	5.62200628132922	1.83326772300488	8.12437218079522	0.0198682475791309	0.0191418254108433	0.235819359254954	-0.000329418615585945	-0.00477616390421808	-0.00671620803061568	0.150634765625	-0.168212890625	0.664306640625	0	0	0	-0.307254457505385	0.0390992958862246	-0.857669770624281	-0.410449153929652	-0.474252380763009	0.68003279751482	0.559142266015355	-0.728086529300278	-0.660005474199269	0.185156095979781	0.494949174352371	-0.319293232517017	0.808131886808546	12.9046606496785	-33.9965004568983	124.891777544715
17451	1650606421068	5.59422771690234	1.8024759670794	8.11877805288322	0.052802513173377	0.0222641379013749	0.210065583283896	0.00227989209958597	-0.00267127161560281	-0.00769215299085045	0.14794921875	-0.167724609375	0.672119140625	0	0	0	-0.307258133125223	0.0391019613947778	-0.857656347189891	-0.410474196958076	-0.474206746520051	0.680062809438147	0.559144468607142	-0.728120392076923	-0.659963940493408	0.185170980151217	0.494943083795114	-0.319315161662438	0.808126952486968	12.9057394482713	-33.9966526745201	124.888004331057
17452	1650606421068	5.61092480575322	1.81024594655914	8.10216962856339	0.0316940285809137	0.0342378429842052	0.207414605113156	0.0039278231343691	-0.00225881323960788	-0.0116748350803016	0.148193359375	-0.1640625	0.662841796875	0	0	0	-0.307278234338266	0.0390719099070838	-0.857629639669085	-0.41051781169548	-0.474110425965425	0.680132590867326	0.559141272694998	-0.728156380821216	-0.659897024273935	0.185267920654801	0.494982412879722	-0.319304832713982	0.808106945116341	12.9125784240771	-33.9964318101945	124.879785821028
17453	1650606421070	5.60548948334825	1.82829987194462	8.14022702132776	0.0399942591892103	0.00668015846223089	0.238473991063081	0.000109797584919785	-0.00131165087771957	-0.00842097641903336	0.14453125	-0.171142578125	0.669189453125	0	0	0	-0.307267646464094	0.0390832513976484	-0.857618308744142	-0.410548327731878	-0.47407332806595	0.680169487628059	0.559127845591916	-0.728205562320539	-0.659845140113493	0.185259412916141	0.4949455915774	-0.319333460771634	0.80811818579321	12.9118317527591	-33.9955038910641	124.876224498695
17454	1650606421071	5.60530452894792	1.83498337255167	8.1060483841213	0.0188836115500315	0.0133712641493535	0.211986588049765	0.00387329978627935	-0.00406324966976717	-0.00839530792229712	0.15185546875	-0.1630859375	0.66796875	0	0	0	-0.307294751052949	0.0390621389124949	-0.857595543655358	-0.410577603847748	-0.473991934387895	0.680211866263626	0.559145296975104	-0.728226227274469	-0.659800361044445	0.185337652610616	0.494993139391664	-0.319335717638625	0.808088170557774	12.917565573133	-33.9967099217855	124.869935151055
17455	1650606421072	5.62796192100483	1.81334388679414	8.11917939772797	0.0305198895124556	0.0389801574247194	0.231255815552698	0.00252687381802358	-0.00249742461042185	-0.0111154637997388	0.140380859375	-0.158447265625	0.6728515625	0	0	0	-0.307291597626079	0.0390643553595581	-0.857578485392443	-0.410615381544285	-0.473933764935307	0.680261537629832	0.559134176093486	-0.728278130304518	-0.659737969159167	0.185355811805006	0.4949724753705	-0.319358814613334	0.808091700337509	12.9187342260595	-33.9959413775808	124.864674441733
17456	1650606421074	5.59421342276408	1.8122311087358	8.0837974740706	0.0305186324144848	0.0284139150047011	0.183584354522045	0.0018957364308433	-0.00433336982153042	-0.00926739922548794	0.140869140625	-0.15966796875	0.668212890625	0	0	0	-0.307315976021921	0.0390509197549109	-0.85755312499721	-0.410651378124449	-0.473844673052371	0.680308802151996	0.559152179227095	-0.728312688228132	-0.659680942621574	0.185422981606445	0.495006923169569	-0.319375934685802	0.80806383309598	12.9236893247872	-33.9971855453733	124.857755355649
17457	1650606421076	5.60604759612483	1.83118947037945	8.13919309636812	0.0387077819530748	0.00619689169758432	0.238479337281412	0.00228126187662531	-0.00759258876660501	-0.00955400455410375	0.138671875	-0.17041015625	0.668701171875	0	0	0	-0.307331112671116	0.0390629644188701	-0.857532865856022	-0.410681209664993	-0.473777062424863	0.680334740716312	0.559177910592449	-0.728355797992646	-0.659630057677816	0.185434674585034	0.49500820866988	-0.319425777892816	0.808043343990288	12.9247936553064	-33.9989638305447	124.852896590682
17458	1650606421077	5.58372568746125	1.85435298848182	8.12548097080697	0.0264435793772188	-0.0196901890520964	0.219210342478194	0.00425737176598127	-0.00240239945497592	-0.00682086942536429	0.141357421875	-0.166015625	0.67041015625	0	0	0	-0.307351503401103	0.0390389200792079	-0.857516025219514	-0.410703399752007	-0.473715541578449	0.680372152243965	0.559184513481867	-0.728366835353965	-0.659597360302384	0.185507615581078	0.495050844685156	-0.319413613881816	0.808022032152262	12.9300363852005	-33.9994201597995	124.847929949956
17459	1650606421078	5.62269594592956	1.84558298221282	8.08830568364093	-0.00438679448545492	0.0246248805239884	0.209335858075836	-0.00104491990121481	-0.00137724336968642	-0.0112845897303089	0.146240234375	-0.166259765625	0.664306640625	0	0	0	-0.307324692033581	0.0390572784262984	-0.857503769861553	-0.410747303511077	-0.473676372649688	0.680428190314368	0.559149507572839	-0.728441254570496	-0.659522363320619	0.185482050128165	0.494978820388505	-0.319449104092497	0.808052125336791	12.9278490308446	-33.997000910466	124.843495586989
17460	1650606421079	5.60634520615473	1.8332029385386	8.13853483020724	0.0378262032974589	0.00596017527211192	0.238482836800184	0.00445041817025834	-0.00403193652672674	-0.0069642659516647	0.138427734375	-0.16357421875	0.670654296875	0	0	0	-0.307352286518036	0.0390355178815678	-0.857484255921975	-0.410769462304331	-0.473606041620691	0.680461382126368	0.559168690803637	-0.72845200483163	-0.659489354363857	0.185557182931631	0.495030296039706	-0.319446550952451	0.808021600631706	12.9333817905434	-33.9983266500601	124.838195865752
17461	1650606421080	5.61188327088642	1.81655752597771	8.10009290777308	0.0282300121474338	0.0329909429781034	0.207429146144021	0.00227969057022066	-0.00267289253094988	-0.00769284604849031	0.145263671875	-0.167724609375	0.671142578125	0	0	0	-0.307343108475517	0.039046191257338	-0.857476345512277	-0.410791827459861	-0.473580576329589	0.680487394362863	0.559158603471838	-0.728489705543502	-0.659450938880967	0.185545703604673	0.494999178424042	-0.319470445146735	0.808031217241804	12.932459839871	-33.9976295190719	124.835724457274
17462	1650606421081	5.57307977620435	1.82668590239155	8.13684805255261	0.0581766762647587	-0.0115625481362541	0.217306532041201	0.00348938931441034	-0.00572607441472782	-0.00997093439616176	0.14306640625	-0.163330078125	0.6650390625	0	0	0	-0.307376495596926	0.0390273389183288	-0.857447907237275	-0.41082799703273	-0.473480093617256	0.680535039242013	0.559185712721693	-0.728519385918771	-0.659394447342058	0.185629919880929	0.495051618812355	-0.319485560203172	0.807993113543014	12.9387218160765	-33.9995030401748	124.828143591014
17463	1650606421082	5.61240717636539	1.8181965056947	8.09936216242571	0.0273736410505338	0.0326677820845016	0.207432581018351	0.00566021889747465	-0.00708540400275849	-0.00924259531500208	0.148681640625	-0.167724609375	0.6630859375	0	0	0	-0.307390562970972	0.0390348531239285	-0.85743183702337	-0.410850297428042	-0.473426149799356	0.680554359576141	0.55920787221575	-0.728550141485156	-0.659356626689765	0.18564355680242	0.495057948151646	-0.31952246009037	0.807974644075964	12.9399261734016	-34.0010345141936	124.824320661037
17464	1650606421082	5.62395651532213	1.84339977241381	8.1207289658147	0.0150965254123298	0.0173467482882395	0.235830920268894	0.00387317344711008	-0.00406486593057132	-0.00839631799569571	0.143310546875	-0.1650390625	0.670166015625	0	0	0	-0.307417272837551	0.0390133325952824	-0.857409276821663	-0.410879437622627	-0.473345416200073	0.680596938324324	0.559224395485333	-0.728570427567309	-0.659312095237447	0.185722085784101	0.495105290859196	-0.319523658931797	0.807945160481866	12.9456720189447	-34.0021764787274	124.818059725816
17465	1650606421084	5.59045304056011	1.83602101795358	8.11940422959482	0.0353813616234748	-0.00036773652818279	0.214655827352908	-0.00129218720421405	-0.00155330787699368	-0.00786141598784079	0.14453125	-0.158203125	0.671142578125	0	0	0	-0.30739676872686	0.0390465803138973	-0.857402362368236	-0.410906047835079	-0.473326892857683	0.680618047013732	0.559214383378061	-0.728629217487035	-0.659263168836693	0.185665122302582	0.495036479385027	-0.319579643116728	0.807965182284152	12.9415252012252	-34.0014845150914	124.816175751126
17466	1650606421084	5.6018276130807	1.78969555623339	8.11089185664349	0.0599133391493763	0.0408585565913805	0.205535556704683	0.000301663167962505	-0.00294463689874679	-0.00856474272556364	0.14501953125	-0.173583984375	0.663330078125	0	0	0	-0.307411391633164	0.039037866788074	-0.857380463230499	-0.41094162909281	-0.473250427545418	0.680665278713155	0.559221611869948	-0.728668018536003	-0.659206044870368	0.185715667538262	0.495052473573151	-0.319596884779419	0.807948562501596	12.9451870365628	-34.0019840950228	124.809973302805
17467	1650606421085	5.59639594045931	1.81350611139926	8.11482646111965	0.0467041856670087	0.0198130163826616	0.210101000669038	-0.000134727076082446	-0.00640991271657699	-0.00685934003751765	0.1455078125	-0.16552734375	0.675537109375	0	0	0	-0.30740860128749	0.0390788589130741	-0.857370309167602	-0.410961004960778	-0.473222008512194	0.680665173041342	0.559245789316545	-0.728717882474859	-0.659167790375359	0.185655788740949	0.495006240789995	-0.319676002133827	0.807945589281043	12.9411997771214	-34.0036550827803	124.808364800418
17468	1650606421086	5.59687934516099	1.80810681652948	8.14853418859651	0.0677974093163268	0.0131222238434077	0.236598649212704	0.00508008797001512	-0.00219698185100271	-0.0088138339111787	0.1474609375	-0.166748046875	0.67041015625	0	0	0	-0.307429857873868	0.0390477448158398	-0.857349990526334	-0.410990449836667	-0.473147465261415	0.680716431269703	0.559246471885285	-0.728734201825818	-0.659124247535702	0.185746303865737	0.495053471057407	-0.319656638457477	0.807924312224901	12.9476260920864	-34.0037022579664	124.802112395084
17469	1650606421087	5.62451509976685	1.84633475229684	8.11967526549427	0.0121364650592909	0.0159777650386898	0.235837201391789	0.00252503845639225	-0.00250096514415716	-0.0111169576327488	0.14013671875	-0.167724609375	0.667724609375	0	0	0	-0.307407625397099	0.0390702778851323	-0.857340182823171	-0.411025395992058	-0.473117351394578	0.680756173593047	0.559223572396884	-0.72879817898614	-0.659063274471102	0.185711643549659	0.494988066639859	-0.319697720289624	0.807948130467391	12.944922684167	-34.0021195926604	124.798835749325
17470	1650606421087	5.61340452889657	1.82284168872762	8.09762669067359	0.0244147776249265	0.0313189800026085	0.207444533978705	0.00348960789811074	-0.00572776382040061	-0.00997168406800497	0.13671875	-0.165283203125	0.66650390625	0	0	0	-0.307440990031808	0.0390514111027064	-0.857311744358791	-0.411061550042856	-0.473016879449253	0.680803780029028	0.559250610061605	-0.728827797995249	-0.659006778734505	0.185795873074103	0.495040475744648	-0.319712806562637	0.807910049878298	12.9511858004264	-34.0039882652355	124.791255797775
17471	1650606421088	5.60268152219217	1.7932158561273	8.10952441116928	0.0566054696956292	0.0397148637957255	0.205559392253404	0.00247284734476427	-0.00430421324458821	-0.00783674343011299	0.14892578125	-0.165771484375	0.66064453125	0	0	0	-0.307419918388935	0.0390713150041353	-0.857308360623721	-0.411082474603644	-0.473008385702969	0.680826283827347	0.559230398230029	-0.728871485707025	-0.658969262835183	0.185757551560331	0.494984266798355	-0.319742211614764	0.807932852243177	12.948251446294	-34.0025913472457	124.789886264019
17472	1650606421089	5.59150979625504	1.84066761666703	8.11762430736346	0.0320562612907491	-0.00149288557142191	0.214666904228324	0.00387318591390886	-0.00406576614477524	-0.00839715398457494	0.146484375	-0.16552734375	0.66552734375	0	0	0	-0.307446248298817	0.0390497285438223	-0.857285961007844	-0.411111547109169	-0.472928200480976	0.68086893041404	0.559246293493902	-0.728891700565581	-0.658924829068319	0.1858358374585	0.495031116230527	-0.319742973705645	0.807903846215272	12.9539737369817	-34.0036899285879	124.783653205938
17473	1650606421091	5.6086343036647	1.84228870504506	8.13490518177276	0.0312120107848343	0.00311239957214958	0.238506837394704	0.000495079733555128	-0.00457620755053981	-0.00870808611243631	0.14453125	-0.171630859375	0.66552734375	0	0	0	-0.307447218308839	0.0390888883464289	-0.857272991628675	-0.411134144271696	-0.472889846736274	0.680872855663196	0.559273946536748	-0.728943935618773	-0.658881548443641	0.185784401511871	0.494990839893384	-0.319823794520601	0.807896533523995	12.9506224762887	-34.0056011680274	124.781321263563
17474	1650606421092	5.61408261851156	1.8256581916389	8.09652201612398	0.0223841189360235	0.0304331454041171	0.207452005671744	0.00488563348874635	-0.000567991156021758	-0.00867162475513503	0.141845703125	-0.1640625	0.660888671875	0	0	0	-0.307460866786088	0.0390555034809353	-0.857255506131757	-0.411163568728777	-0.472824670290728	0.680928388521023	0.559261442324274	-0.728960544333085	-0.658838374796135	0.185872323656862	0.495028641565392	-0.319794505271981	0.807884966085997	12.9567238226227	-34.004736934334	124.775431956285
17475	1650606421093	5.5975506662411	1.81943077657209	8.11270353480285	0.0423939403535473	0.0179257217724813	0.210123711833086	0.00266694429640872	-0.00593464433357304	-0.00797998628326298	0.1484375	-0.161376953125	0.6748046875	0	0	0	-0.307457207061852	0.039088961004239	-0.857246942480069	-0.41118098030175	-0.472800534527634	0.68093091078464	0.559278776003868	-0.729003641893892	-0.658804509131401	0.185823326989848	0.494988226785069	-0.319858896212274	0.807884237906669	12.9534348723225	-34.0059349609515	124.773962302857
17476	1650606421093	5.61462198428859	1.82108546035002	8.13001558777258	0.0423600723700052	0.0232060849120581	0.233961472256833	0.00406259827729054	-0.000773926800955758	-0.00667980523985908	0.14453125	-0.16748046875	0.67138671875	0	0	0	-0.30746948450006	0.0390627776650542	-0.857233120516616	-0.41120310382061	-0.472749047019129	0.680972615484889	0.559271522162693	-0.729015063932148	-0.658772213618775	0.185892999125373	0.495020580483794	-0.319836626300817	0.807873231004716	12.9582982934584	-34.0054336057485	124.769395270666
17477	1650606421095	5.60896618045314	1.8452328467071	8.13400903030325	0.0289202584306179	0.0020992023637363	0.238513955384693	0.00271823096552962	-0.00413297785140812	-0.011260727725796	0.139892578125	-0.165771484375	0.66064453125	0	0	0	-0.307455258897642	0.0390877616620222	-0.857220324561882	-0.411238040339726	-0.472709075907452	0.681007737061372	0.559262542655302	-0.729078688587477	-0.65871084213159	0.185860948845787	0.494965044626676	-0.319888243799051	0.807886821328874	12.9559289173761	-34.0048129838043	124.765741612162
17478	1650606421096	5.59781700046101	1.82164107317957	8.1120237342661	0.0412039928793066	0.0174471926523779	0.210129518791065	0.0017013413467044	-0.00270914557371024	-0.00912567788812509	0.139892578125	-0.16650390625	0.663818359375	0	0	0	-0.3074715353207	0.0390717285714964	-0.857198026923884	-0.411273871807785	-0.47263011467153	0.681059414134937	0.559266348999968	-0.729113191620984	-0.658654404789337	0.185925600324073	0.494989624648679	-0.319894434884042	0.807869309987934	12.9605549239375	-34.0050760601571	124.759221733866
17479	1650606421096	5.58134687857902	1.81538149784651	8.12817629195249	0.0611791620516339	0.00520571392631152	0.212806278202747	0.00349001585117734	-0.00572987128898025	-0.00997232431041055	0.146728515625	-0.16162109375	0.672607421875	0	0	0	-0.307462163361332	0.0390860335985982	-0.857188741569416	-0.41129887114523	-0.47260051339166	0.681086570636924	0.559258292777116	-0.729156476426679	-0.658611041144379	0.185909465514127	0.494954126790524	-0.319925897327416	0.807878600157399	12.9593241696564	-34.0045192534972	124.75647083783
17480	1650606421097	5.61521500184575	1.82419082965086	8.12890977133261	0.0400289219274	0.0224656787760596	0.233972713650456	0.00406758845922817	-0.00569675558348099	-0.00854082935620033	0.1474609375	-0.165771484375	0.663330078125	0	0	0	-0.307495626372844	0.0390669297205272	-0.857163664982321	-0.41132793024284	-0.472511547127428	0.681124892343336	0.559286794821337	-0.729176532442846	-0.658566217608705	0.185989573791627	0.495009517449789	-0.319936584427043	0.807840429527568	12.9653115918283	-34.006489191565	124.749908923842
17481	1650606421098	5.58725438430832	1.87070787937992	8.11930410009571	0.0145685049561056	-0.0245559502415052	0.21922388578928	0.00228415205152641	-0.00759918058162938	-0.00955481756360246	0.147705078125	-0.161376953125	0.664306640625	0	0	0	-0.30750544031888	0.0390996075944426	-0.857146540512997	-0.411353173011773	-0.472457942454877	0.681133214252922	0.559321944011487	-0.72922658245142	-0.658519575478215	0.185958490417123	0.49498695342153	-0.320014863957092	0.807823249720505	12.9634843447596	-34.0089186145464	124.746536799296
17482	1650606421098	5.5932149081008	1.84795307130785	8.11479388974768	0.026826715058093	-0.00393260120555242	0.214681598751856	0.000300655015345261	-0.00294920383817542	-0.00856529567990853	0.14892578125	-0.159912109375	0.66796875	0	0	0	-0.307519588017687	0.0390908550264369	-0.857124828418423	-0.411388668472313	-0.472382132876019	0.681180476489252	0.559328417827469	-0.729265291021208	-0.658462537011759	0.186008662872973	0.495002278632388	-0.32003163250203	0.807807216077468	12.9671124295984	-34.0093660758869	124.740369444886
17483	1650606421099	5.60482966078955	1.80180511232426	8.10613547540489	0.0508282632819607	0.0369126202367789	0.205601085875399	0.00266748940560596	-0.00593624698312089	-0.0079804786691518	0.138916015625	-0.1552734375	0.666748046875	0	0	0	-0.307537317841324	0.0391049276023272	-0.85710914928344	-0.411406743973404	-0.472330578296332	0.681188519574632	0.559362159612156	-0.729293417771427	-0.658430591300837	0.186011470706784	0.495010035859399	-0.320080235626869	0.807783205544362	12.9676739660661	-34.0116983002464	124.737124363816
17484	1650606421100	5.58286072132612	1.81867888044729	8.1263993286238	0.0596602403223516	0.0043375300800231	0.212815845352244	-0.000132671191295698	-0.00641463119438866	-0.00685894468742751	0.13525390625	-0.165771484375	0.661376953125	0	0	0	-0.307565508299581	0.0391075127116235	-0.85708539312542	-0.411434915199203	-0.472249537318891	0.681213468027099	0.559400201537849	-0.72932595612903	-0.65838382600907	0.186049421837677	0.495039416833215	-0.320123333464074	0.807748121107861	12.9707745582514	-34.014327826189	124.731538311932
17485	1650606421101	5.63331095614108	1.83411022926906	8.11080099797454	0.0163243414979864	0.0339454033783925	0.231307196725144	0.000878106088144684	-0.00291608496434223	-0.00713390276100944	0.151123046875	-0.161865234375	0.668212890625	0	0	0	-0.307526855789168	0.0390989226222421	-0.857091185405726	-0.411452557554349	-0.472268051700827	0.681256783107426	0.55933181816595	-0.729352658062474	-0.65835613426353	0.186042738785433	0.494982411323786	-0.32008810653897	0.807797014436416	12.9695658854353	-34.0096011035944	124.730884286989
17486	1650606421101	5.58317846795944	1.81973100139719	8.12594548652796	0.0585606621576366	0.00475011023763818	0.212822141480263	0.00310031392208014	-0.00247163816258925	-0.00968727640316231	0.13916015625	-0.16357421875	0.671630859375	0	0	0	-0.307544849466808	0.0390746135899907	-0.857068594071498	-0.411488475167334	-0.472186800741803	0.681313305467568	0.559331569820691	-0.729382090085597	-0.658300818754511	0.186123074038407	0.495016557165099	-0.320081570572249	0.807778680278464	12.9752613358817	-34.0095839382175	124.724043088019
17487	1650606421101	5.61685024254674	1.82846852654508	8.12681868521216	0.0363513155700366	0.021736963607138	0.233988296308658	0.00189504345289792	-0.00434086684741349	-0.00926941417315698	0.138671875	-0.1669921875	0.6806640625	0	0	0	-0.307528985364899	0.0390929586031794	-0.857060350564892	-0.411515758188759	-0.472161407845532	0.681343244164175	0.55931653701027	-0.729432115740767	-0.658253042699961	0.186095997544793	0.494967063012554	-0.320116096765032	0.807795327496171	12.9731792927481	-34.0085448917961	124.721421826045
17488	1650606421102	5.5834399168196	1.82101726674312	8.12547768114015	0.0574869450798819	0.00452200877213591	0.212828461220997	0.00145597744506224	-0.00288273793096999	-0.00570246942396174	0.138427734375	-0.163818359375	0.669677734375	0	0	0	-0.307544628789969	0.0390823930590166	-0.857045019401553	-0.411537000249324	-0.472107197456455	0.68137231259516	0.55932688630043	-0.729450632857396	-0.658219727957136	0.186141247314984	0.49499148309214	-0.32012272858508	0.807777735710441	12.9765000365035	-34.0092602186117	124.717197689697
17489	1650606421103	5.60585615888447	1.80528399103065	8.1046515020719	0.0467318037468232	0.0373018694561379	0.205619590163536	0.00310009388888152	-0.00247214448134314	-0.00968756653917793	0.142822265625	-0.17041015625	0.669189453125	0	0	0	-0.307476920499331	0.0390883974238889	-0.857054409760836	-0.411567466227088	-0.472140328207327	0.681433863553737	0.559223926600522	-0.729508983822342	-0.658168635860494	0.186093227421178	0.494873875854012	-0.320096760951691	0.807860081094161	12.9719880433767	-34.0021440727124	124.716657067475
17490	1650606421104	5.61161305040793	1.8537479427591	8.13024638754758	0.0221310102648024	0.00139071839804286	0.238531320074383	0.00286288479475196	-0.00756716986071526	-0.00812390194775743	0.141845703125	-0.170166015625	0.6640625	0	0	0	-0.30751528038014	0.0390773112375565	-0.857027527848115	-0.411595836458188	-0.472046439486018	0.681464183741237	0.55926623825014	-0.729531665028114	-0.658123662313456	0.186163355213727	0.494930003828704	-0.320124680993224	0.807814632158334	12.9774163787617	-34.0050684056468	124.710129649286
17491	1650606421105	5.58969051237072	1.79959159699039	8.12048716986899	0.0660491638694778	0.0247337587982223	0.208315958400817	0.000104957500017419	-0.00132145066995609	-0.00842276191328828	0.151611328125	-0.169189453125	0.675048828125	0	0	0	-0.307459507946354	0.0391314075901507	-0.857033314197297	-0.411620313237087	-0.472074737407977	0.681481995843189	0.559220646652799	-0.729607289134853	-0.658074901341231	0.186039318064814	0.494791517654135	-0.320186997809582	0.8078747678268	12.9681294515082	-34.0019173861777	124.71103637174
17492	1650606421105	5.61762984517234	1.8317225302013	8.12554695353205	0.032596137692999	0.0214042534587913	0.234001895995577	0.00431186044313465	-0.00552708918175565	-0.011966404693756	0.144287109375	-0.170654296875	0.663818359375	0	0	0	-0.307492345838516	0.0391045233326743	-0.857002089085162	-0.411663348877841	-0.471963488882815	0.681544016751284	0.559238963585412	-0.729641383201128	-0.658008246891211	0.186141341306811	0.494847367459811	-0.320191974061936	0.807838587011301	12.97556197904	-34.003183329337	124.702275012732
17493	1650606421108	5.60666678250362	1.80802794610671	8.10347900806535	0.0434190625977274	0.035726651654094	0.205640236460699	0.00025127957227222	-0.00475273605804699	-0.00528448238063315	0.14013671875	-0.16015625	0.668212890625	0	0	0	-0.307470906155244	0.0391832076960504	-0.857000566431234	-0.411675050542616	-0.471970589257615	0.68151611024851	0.559266979489725	-0.729706895754005	-0.657976657990766	0.185996139283472	0.494743983454951	-0.320316264043904	0.807852636205443	12.9655645131418	-34.0051196366747	124.703776535842
17494	1650606421108	5.59020563969223	1.80156272933464	8.11969546781927	0.0644887201650785	0.0237793926871812	0.208328432010665	0.00309948440730369	-0.0024730198674184	-0.00968816509055938	0.14990234375	-0.17333984375	0.663818359375	0	0	0	-0.307487744409113	0.03915932912721	-0.856978396187722	-0.411710896683611	-0.471890849180346	0.68157266029406	0.559265353119188	-0.72973671543766	-0.657921368988567	0.186074711797347	0.494776063085219	-0.320309508082241	0.807835667961006	12.9711197500065	-34.0050072295582	124.697020470677
17495	1650606421109	5.61813402936075	1.83375724607677	8.12473938969904	0.029815787765888	0.0197905309708484	0.234013840417939	0.00329473922609931	-0.00410312547848818	-0.00983115461431237	0.1455078125	-0.177978515625	0.670166015625	0	0	0	-0.307473420801575	0.0391908942145804	-0.856970161841375	-0.41173572959461	-0.471867568951543	0.68159015303628	0.559263677218305	-0.729790786269999	-0.657875525571711	0.18602473257382	0.494718511526683	-0.320366440404928	0.807848338622478	12.967557002522	-34.0048913992918	124.695009363965
17496	1650606421110	5.61790451278653	1.84056247176143	8.09049435419878	0.00872401525775397	0.0265267083835593	0.207484313075474	0.00367747291016399	-0.0024390802244282	-0.0082568244229653	0.14697265625	-0.172607421875	0.66748046875	0	0	0	-0.30749093041208	0.039166917147174	-0.856951107372654	-0.411764592805503	-0.471798495652064	0.681637303973137	0.559264486028465	-0.729811191152967	-0.657831745425809	0.186099489461743	0.494754287266253	-0.320356021548318	0.807830560631	12.9728677992127	-34.0049473003682	124.689229236226
17497	1650606421111	5.60707836932184	1.81086778876317	8.10256005986445	0.0399389263433868	0.0338192516866371	0.205661335220141	0.00227767487000839	-0.00267884582502122	-0.00769563155078317	0.146240234375	-0.166748046875	0.67236328125	0	0	0	-0.307442425171987	0.0392597335261399	-0.85695444681398	-0.411785022327877	-0.471824501181595	0.681621796656771	0.559261447274113	-0.729902227404301	-0.657783537419773	0.185912765376051	0.494595166287521	-0.320487978279881	0.807875657055647	12.9595920478974	-34.0047372764424	124.691317110354
17498	1650606421111	5.60139894736813	1.83493270785079	8.10655366004419	0.0276069780817739	0.013216126141036	0.210182665502197	0.0030992768882726	-0.00247390568937913	-0.00968851324504851	0.146240234375	-0.16064453125	0.67138671875	0	0	0	-0.307458730392395	0.039237277556136	-0.856932305915721	-0.411821063367871	-0.471745081744104	0.681677859830061	0.559260112351807	-0.729933233995916	-0.657727695633077	0.185988581115794	0.494625162884494	-0.320483344051933	0.807859130310958	12.9649547444948	-34.0046450132675	124.684598464179
17499	1650606421112	5.58539078932674	1.82254772025154	8.15667040083322	0.0688025001550852	-0.00577202135407119	0.239415668157571	0.00204275401723106	-0.00777398846738755	-0.00613140339243621	0.140625	-0.16552734375	0.662841796875	0	0	0	-0.307462908628058	0.0392673035857976	-0.85692165863379	-0.411837236844107	-0.47171330033317	0.681678017418278	0.559286726874037	-0.729970974916159	-0.657696338435423	0.185951343605227	0.494599775645663	-0.3205473552805	0.80784927737415	12.9625994156479	-34.006484495287	124.68278599267
17500	1650606421112	5.65250644178427	1.77416541195854	8.09455971976173	0.0422733627758263	0.0920139558389316	0.217773015345811	0.00251215512391738	0.00241546395372823	-0.00926025993063497	0.146484375	-0.16650390625	0.664306640625	0	0	0	-0.307457111589127	0.0392376294811346	-0.856907784393914	-0.411873259645593	-0.471661085044369	0.681747028296261	0.559246645286305	-0.730002581199757	-0.65764165284323	0.186020665215769	0.494602923865661	-0.320512785789962	0.807861065931944	12.9670856692097	-34.0037142424418	124.677104330421
17501	1650606421113	5.59589001745328	1.8603452014631	8.110116776173	0.0132244428665628	-0.00816622783948147	0.214706209605556	0.00271661792015742	-0.00413912545878126	-0.0112631165904969	0.144287109375	-0.170654296875	0.669921875	0	0	0	-0.307445526972022	0.0392592833238716	-0.856896965559985	-0.411902351330848	-0.471627401826029	0.68177556782475	0.559240260499965	-0.730055932024957	-0.657590323282029	0.185992749431284	0.494556296049299	-0.320557392432425	0.807871913235584	12.9650372761976	-34.0032729640616	124.674067625703
17502	1650606421114	5.62422393008019	1.82128680069521	8.08497550147277	0.0166194836522894	0.0450511721178019	0.202975543500681	-0.000708458043214924	-0.00645391382028767	-0.00829027716210958	0.1513671875	-0.168212890625	0.66748046875	0	0	0	-0.307470692234805	0.0392633424344482	-0.856870886203851	-0.411937431819144	-0.471538651365795	0.681809730371273	0.559273449968062	-0.730099038682361	-0.657531884414246	0.186030144583458	0.494577288179733	-0.320604604691982	0.80784032671505	12.9680457789292	-34.0055668473145	124.667679684339
17503	1650606421115	5.63016541978767	1.86360563294122	8.14466190467104	0.011705089245923	0.00126603447414388	0.262389188035904	0.00290301887368168	-0.000844776331396688	-0.00954625400065019	0.138916015625	-0.164794921875	0.6611328125	0	0	0	-0.307447167163583	0.0393168379339299	-0.856863317756588	-0.411965630048354	-0.471521118123902	0.681820772240598	0.559274771203225	-0.730172174019064	-0.65747701182748	0.185937019462724	0.494486027559383	-0.320693644245784	0.80786085131593	12.9614551811227	-34.005658165493	124.666248899693
17504	1650606421115	5.6016237707385	1.84499371888983	8.0712450297284	0.00301374579610315	0.01808759035102	0.183654505125219	0.00309889544424486	-0.00247492156987059	-0.0096891328146228	0.1455078125	-0.1708984375	0.662353515625	0	0	0	-0.307463427396605	0.0392948345906759	-0.856841128947374	-0.412001743360649	-0.471441608562638	0.681876628774385	0.559273701193925	-0.730203526863313	-0.657420958884555	0.186012075349133	0.494515539768218	-0.320689797079033	0.807844313576049	12.9667669257232	-34.0055842109746	124.659533207278
17505	1650606421116	5.60778242375691	1.81630094570429	8.10085653922492	0.0350225228582308	0.0314810507670342	0.205687348752729	0.00343418079848902	-0.00261007390862775	-0.00483311220770409	0.130126953125	-0.167236328125	0.665283203125	0	0	0	-0.307436741509264	0.0393252872341897	-0.856849012277601	-0.412002356683812	-0.471473416114303	0.681867548428746	0.559257958635621	-0.730227701093526	-0.657415159741867	0.18593765701772	0.494449514564605	-0.320720991114314	0.80787234350823	12.9613199692203	-34.0044961593527	124.661698378904
17506	1650606421116	5.60770388243806	1.81698229470701	8.1007581155073	0.0349496968978535	0.031481433040048	0.205687601873885	0.00155012377245478	0.000714425204685642	-0.012266816478081	0.14697265625	-0.16748046875	0.671630859375	0	0	0	-0.307436163008073	0.0392998005862739	-0.856826260029943	-0.412052534844591	-0.471391428406042	0.681950504935044	0.559225920397249	-0.73027922453195	-0.657336468404053	0.186013498228223	0.494451590595405	-0.320705902853262	0.807877062697505	12.9663548845141	-34.002281869982	124.65377686666
17507	1650606421117	5.60222854825559	1.83490290941523	8.13886261300645	0.0417703585588638	0.00432853838383748	0.236748170283652	-0.000521479401617164	-0.00316035206468408	-0.00657319363257411	0.149658203125	-0.15869140625	0.6708984375	0	0	0	-0.307362947652914	0.0393282942599354	-0.856840732714647	-0.412074340916469	-0.471445511936739	0.681988039507756	0.559134548425577	-0.730340281307335	-0.657296045657723	0.185916599212235	0.49430982467945	-0.320708937092636	0.807962607361432	12.9585026565846	-33.9959671086721	124.655376474101
17508	1650606421118	5.60773863504869	1.81802342093247	8.10050046316505	0.0329285787264688	0.0316735823490258	0.205693843144814	0.002277649817282	-0.00268038270654393	-0.00769633960391679	0.1484375	-0.167724609375	0.659423828125	0	0	0	-0.307376508584662	0.0393135905301844	-0.856822758103981	-0.412103002615869	-0.471381594410577	0.682030314254332	0.559136873125964	-0.730366611042712	-0.657251113669221	0.185972006104557	0.494331878321565	-0.320711122380729	0.807948247139857	12.9624567455557	-33.9961277640248	124.6500816361
17509	1650606421119	5.61892323501078	1.84310461394431	8.12207810892606	0.0205123936967341	0.0155392951003926	0.23404461755409	0.00290260298712587	-0.000845729603103135	-0.00954677359693343	0.143798828125	-0.16650390625	0.67138671875	0	0	0	-0.307401893847777	0.0393221968379097	-0.856802193926174	-0.41212600133689	-0.471312469361731	0.682045488682481	0.559176633624852	-0.730396359795395	-0.657211847715812	0.185993937588307	0.494353834638493	-0.320759315671179	0.807915680989281	12.9644386629846	-33.9988755789071	124.645555422001
17510	1650606421119	5.58110635468518	1.77013142649234	8.1968068090801	0.129323811590243	0.0141178866109509	0.259692258122806	0.00253101509038371	-0.00743640455115866	-0.0129808927897048	0.145751953125	-0.17529296875	0.67333984375	0	0	0	-0.307438040572375	0.0393080693703385	-0.856765795622167	-0.412176052607754	-0.471185505731417	0.682107095645973	0.559208484608418	-0.730446278949573	-0.657131554678134	0.186081577312269	0.494401105133627	-0.320792814626067	0.807873453782791	12.9709959653383	-34.0010768379104	124.635916052534
17511	1650606421120	5.62994492806859	1.88195152284382	8.07487177122104	-0.0360114206226092	0.0128642761337995	0.209294115753298	0.0198108322621795	-0.00811848145707035	-0.0117255273584767	0.142822265625	-0.159423828125	0.664306640625	0	0	0	-0.307443437183524	0.0393028530143092	-0.856755226390094	-0.41219449381448	-0.471148464403611	0.682132765285873	0.559208382460033	-0.730466382173225	-0.657101970027921	0.186107134468791	0.494406704045241	-0.320798833396995	0.807867637355433	12.972807432571	-34.0010697782239	124.632801416298
17512	1650606421121	5.59179907527162	1.81465948386793	8.11568087041619	0.0517580419099457	0.0181578811486177	0.20841403429403	-0.0195938907742174	0.000538124690212935	-0.00698101417092372	0.14013671875	-0.163330078125	0.6650390625	0	0	0	-0.307398120611241	0.0393768114503903	-0.856739244040044	-0.412254447988583	-0.471105331116611	0.682180412572742	0.559186598279673	-0.730597843914795	-0.656991473667258	0.185981165701201	0.494253535607548	-0.32092380440006	0.807911724329354	12.9636398340105	-33.9995642418113	124.628477205299
17513	1650606421123	5.59798350753216	1.7855240705372	8.14540345108848	0.0844247887623006	0.0324915335247297	0.230465999166787	0.013820231232888	-0.00581816979364269	-0.00919404011813256	0.13671875	-0.169677734375	0.666015625	0	0	0	-0.30741792676033	0.039301531769544	-0.856734941712675	-0.412255803543779	-0.471078741501707	0.682223912809387	0.559155928249195	-0.730551894469781	-0.657001084090081	0.186127657781087	0.494346790008576	-0.320811639900283	0.807899215813896	12.973699664899	-33.9974446365915	124.625256823833
17514	1650606421126	5.61910127185971	1.92466625687785	8.11653815051413	-0.0403714972284428	-0.0346361148694591	0.244847190340168	0.00194123130373044	-0.00254836263381993	-0.0125531502946724	0.136962890625	-0.17333984375	0.669189453125	0	0	0	-0.307431062293074	0.0392803759341047	-0.856707157420309	-0.412305760848234	-0.470980203017421	0.682298577327231	0.559147833531442	-0.730602608130003	-0.656922023275668	0.186207637676438	0.49436573238778	-0.32081475451207	0.807886388007655	12.9792848997386	-33.9968852196234	124.61672115719
17515	1650606421128	5.5865814788471	1.76889823510213	8.08919708291169	0.0727605883738872	0.0546129406525564	0.17559208715676	-0.0026960044591999	-0.0018085600020071	-0.00730028592282207	0.157958984375	-0.15625	0.6708984375	0	0	0	-0.307307834083907	0.0393435641146512	-0.856734700368016	-0.412334369485179	-0.471084525703835	0.68234115403821	0.559007977714269	-0.730703495931069	-0.656864903408032	0.186013170783337	0.494117162904211	-0.320841157236039	0.808027958146828	12.9639932372182	-33.9872205206975	124.620982421278
17516	1650606421128	5.61957034072156	1.85466286428914	8.08611619456698	-0.00649880868227167	0.0219970644561382	0.207496971001351	0.00546973714039945	-0.0054610674468479	-0.00910595804953268	0.140625	-0.16162109375	0.666748046875	0	0	0	-0.307338428597114	0.0393190554020825	-0.856710855582603	-0.412363446630116	-0.470998956381576	0.682383968944558	0.559027818641379	-0.730720995749354	-0.656820799531238	0.186100144207944	0.494172853826006	-0.320840390584815	0.807994204379489	12.9703733382564	-33.9885915557616	124.614435532524
17517	1650606421129	5.59728365818459	1.87158523250429	8.10656818795892	0.00301476947684636	-0.0107224024401029	0.214712069272975	-0.000915025038966607	9.7144839855372E-05	-0.00628797892456073	0.134521484375	-0.169921875	0.665283203125	0	0	0	-0.307371077706825	0.039300169483678	-0.856691031872139	-0.412382096092626	-0.470928054823194	0.682408615957857	0.559057463993572	-0.730727557750892	-0.656793007001613	0.186172453110536	0.494230718919674	-0.320844864101424	0.807957034535798	12.9758191635975	-33.9906401311584	124.609435731398
17518	1650606421129	5.58096034962235	1.79381222322994	8.09293204390371	0.0609401134465679	0.0339162293462704	0.180088316350826	0.00010259973866945	-0.00132836350603975	-0.00842407227953892	0.1376953125	-0.16796875	0.671630859375	0	0	0	-0.307373765010681	0.0392903601832843	-0.856673579503676	-0.412417281839869	-0.470866708445946	0.68246032628955	0.559046014133042	-0.730767630042197	-0.656736506472964	0.186214478352777	0.494229919935844	-0.320850532345589	0.807955272359653	12.9786764183665	-33.9898489084414	124.603917094914
17519	1650606421130	5.59743023571854	1.86650834654649	8.14050627482384	0.021173014708935	-0.01694331194595	0.24127631696086	0.00130496847758515	0.000542014270436148	-0.00884338205121776	0.142333984375	-0.175537109375	0.66796875	0	0	0	-0.307247696555242	0.0393019849389583	-0.856705850397779	-0.412443078297568	-0.470979120251847	0.682533907582105	0.558861461623092	-0.73083568495228	-0.656692122288568	0.186103890675261	0.494022135017378	-0.320784852393064	0.808108413882711	12.9688544677964	-33.977096744015	124.607422787457
17520	1650606421130	5.60849656205229	1.826327390175	8.09810743762332	0.0245933536304213	0.0310451791794749	0.205719739057614	0.00068125655760168	-0.00129274137517798	-0.00699262481559854	0.150634765625	-0.168701171875	0.67138671875	0	0	0	-0.307249530495216	0.039291838534083	-0.856692191608949	-0.412471049009911	-0.470930719478266	0.682576656019304	0.558850039016898	-0.730866251786867	-0.656647570306551	0.186141049770112	0.494023055586173	-0.320785094834546	0.808107754870161	12.9713665913709	-33.9763075304146	124.602992898279
17521	1650606421131	5.59176259786469	1.81973939743132	8.11456846641468	0.0438605171694225	0.0177111103395986	0.208452511784843	0.00284362568883529	0.00227978282941717	-0.00440620860987031	0.143310546875	-0.167236328125	0.657470703125	0	0	0	-0.307194683300096	0.0393728241639606	-0.856701965847529	-0.412483877239447	-0.470976955139333	0.682561252523534	0.558829888500237	-0.730941741522246	-0.656613663469733	0.185964156345467	0.493867267824167	-0.320887259794403	0.808162414539015	12.9586090677468	-33.9749153036743	124.606226646506
17522	1650606421132	5.60800269755227	1.82723290219637	8.09824519110721	0.0226129954356024	0.0297115376800099	0.205728448679888	-0.000488593299711671	0.00356095766637888	-0.00799641972338468	0.14599609375	-0.166015625	0.669921875	0	0	0	-0.307173198082787	0.0393571763962354	-0.856693451494207	-0.412519053151066	-0.470945314333882	0.682625803419938	0.558777704827462	-0.730983682384498	-0.656558086906927	0.185995523077078	0.493835364260763	-0.320863664228907	0.808191278091417	12.9602737625156	-33.9713099683468	124.601894606053
17523	1650606421133	5.58532563036973	1.84401838994914	8.11899171860865	0.030528981928591	-0.00354191985873957	0.212947189246057	0.00188363990326297	0.000577581854963039	-0.00741197672249469	0.142333984375	-0.16845703125	0.66796875	0	0	0	-0.307151171661524	0.039383325413672	-0.856692276037232	-0.412535399213765	-0.470945404284986	0.682638511107264	0.558762104420217	-0.73102504928621	-0.656526996149801	0.185942681067617	0.493774040932638	-0.320900243813832	0.808214222852628	12.9563605474095	-33.9702321762407	124.601401166946
17524	1650606421134	5.59110533341915	1.82108224433533	8.11472010715545	0.0426594466709291	0.0170913965295279	0.208458772755783	0.000636653859343247	-0.00309156858667205	-0.00371023629033342	0.14697265625	-0.167724609375	0.672119140625	0	0	0	-0.307159565883055	0.0393835190811283	-0.856682596899736	-0.412549230614293	-0.470912266812176	0.682653443215468	0.558771790118188	-0.731041541711094	-0.656504141488683	0.185958534358807	0.493781228134977	-0.320915235964692	0.80820387902264	12.957588154399	-33.9709013346524	124.598930900252
17525	1650606421135	5.59146823358152	1.81555828641121	8.14861722315052	0.0622631942998359	0.00986575001604645	0.235036632520204	0.00386137352505416	0.000854285100590353	-0.00654240217275447	0.14453125	-0.174072265625	0.670166015625	0	0	0	-0.307115230578742	0.0394081451485375	-0.85668776133364	-0.412569161261083	-0.470933844645785	0.682680219144163	0.558720889493508	-0.731091585480057	-0.656467370544556	0.185891594889528	0.493686547930359	-0.320933497471975	0.808254466485036	12.9522977766791	-33.9673848084236	124.599107590951
17526	1650606421136	5.60178745783083	1.85258935602469	8.10226822456517	0.00772456884495986	0.00797299729741645	0.210223251279018	0.00208082530283807	-0.00105276810710929	-0.00755467846766652	0.143310546875	-0.170166015625	0.665283203125	0	0	0	-0.30711833271797	0.039392299023676	-0.856673656172765	-0.412597653054099	-0.470883012805567	0.682726885544155	0.558706710185523	-0.731119274336472	-0.656422846943758	0.185939916919318	0.493694029683227	-0.320925296237972	0.808253152972327	12.9555714537096	-33.9664052410654	124.594386355868
17527	1650606421135	5.59106311183518	1.82274582398902	8.11437568576496	0.0389473316147415	0.015548990662223	0.208476399390481	0.000497724485677987	-0.00458993763450695	-0.00870948696437688	0.141845703125	-0.1669921875	0.664794921875	0	0	0	-0.307068684927569	0.0394835944146292	-0.856671080172275	-0.41263122628495	-0.470888587662863	0.68273012584245	0.558698051970854	-0.731226827494905	-0.656353033733359	0.185763349078211	0.493529396045069	-0.321061162983269	0.808299737017909	12.9429625517158	-33.9658071000409	124.594576297651
17528	1650606421135	5.60785266197675	1.83049700650757	8.09761191842927	0.0176691026094066	0.0275336562512609	0.205744610085313	0.00643130454865989	-0.0037587198145481	-0.00610069280272145	0.15283203125	-0.1611328125	0.669677734375	0	0	0	-0.307091397057602	0.0394579230937444	-0.856656824075278	-0.412646376360676	-0.470835683859227	0.682758291022919	0.558708219775115	-0.731227045934317	-0.656332080763063	0.185836506250527	0.493579543841707	-0.321044102578901	0.808275892316677	12.9482570965882	-33.9665095294468	124.590462960901
17529	1650606421136	5.55755246382891	1.82211252938163	8.07869569172621	0.0389307439410789	0.00460120482009023	0.160791003546819	0.00445341499479922	-0.00403611334421142	-0.00697033415938514	0.140869140625	-0.17529296875	0.671142578125	0	0	0	-0.307127013448813	0.0394567615919112	-0.856637317485491	-0.412660475289254	-0.470768659488119	0.682764250471978	0.558757413840029	-0.731237199864321	-0.656308992197451	0.185878089874394	0.493628429872457	-0.321078627501431	0.808232323149384	12.9517313894524	-33.9699081187625	124.586417259015
17530	1650606421137	5.61425183791293	1.80835345635409	8.09274148704243	0.0297322633946206	0.0476923723941133	0.201266506528791	-0.00156882178876356	-0.00846398360891098	-0.00301353684434377	0.1357421875	-0.1630859375	0.665283203125	0	0	0	-0.307153242936283	0.0394796788696735	-0.856620441789214	-0.412673792503139	-0.470714452669602	0.682756990107932	0.558811950934045	-0.731262235687545	-0.656283391874847	0.185869987374236	0.493643035710228	-0.32114638719438	0.808196480620144	12.9517408564185	-33.9736759918856	124.583618737925
17531	1650606421139	5.5868522025074	1.84254555142656	8.15117481636082	0.0446280635512109	-0.011925559509218	0.239546645728591	0.00725149732007602	-0.00355460007739807	-0.00809488752764553	0.146240234375	-0.169189453125	0.665283203125	0	0	0	-0.307065787356948	0.0394814953962629	-0.856643453324036	-0.412690934760146	-0.470793589203309	0.682811142077146	0.558679103439864	-0.731304807956678	-0.656254807776144	0.185803404517095	0.493504482476616	-0.321089662751702	0.808303627512265	12.9455991741128	-33.9644980811374	124.585996268264
17532	1650606421140	5.59248945934372	1.82590325764068	8.11268271075856	0.0357357756996806	0.0154347033046384	0.208488543183254	0.00281241235090099	-0.00444507688722733	-0.00298325547667336	0.13525390625	-0.167724609375	0.66357421875	0	0	0	-0.307082463353977	0.0394775329390217	-0.856634235828966	-0.41269803864233	-0.470761379202454	0.682816821796866	0.558699303492165	-0.731308254045076	-0.656243706587645	0.18582904813202	0.493530101834676	-0.321100273178547	0.808283770187004	12.9476330184692	-33.9658935594342	124.583941605381
17533	1650606421141	5.60351891153773	1.85689760239203	8.10008441690235	0.000412729787038855	0.00660507093364097	0.210227214215992	0.00387427088495402	-0.00407330706226045	-0.00840229929826882	0.139404296875	-0.167724609375	0.671875	0	0	0	-0.307030018426751	0.0395034347441586	-0.856643124275016	-0.412716130119266	-0.470795927448493	0.682843389693285	0.558637717890673	-0.731358350882961	-0.656209749165584	0.185751790553411	0.49342289903456	-0.321113173588732	0.808344092856566	12.9414980742256	-33.9616391186682	124.5848647307
17534	1650606421142	5.61526820248078	1.8107985936654	8.09148948803811	0.0247708078412828	0.047849978843168	0.201279256553191	0.00203598303253287	-0.00285178289869045	-0.00427239729248135	0.143310546875	-0.1650390625	0.66259765625	0	0	0	-0.307037670906269	0.0394979011386891	-0.85663384674817	-0.412730223094366	-0.470763263177856	0.682862670214496	0.558641677347533	-0.731372044499733	-0.656187357500226	0.18577697484121	0.493433767152611	-0.321117930804867	0.808335568900184	12.9433254938118	-33.9619126384536	124.582250998455
17535	1650606421142	5.61003297111101	1.82874139662094	8.12941216322932	0.0319750714125316	0.0207011074440206	0.232344054320528	0.00445305860137897	-0.00403689701749371	-0.00697090147674542	0.152099609375	-0.16748046875	0.665771484375	0	0	0	-0.306998059837247	0.039495119875755	-0.856641711711801	-0.412743630499176	-0.47078977347705	0.682896969908123	0.558577405271401	-0.731396670607708	-0.656165661976718	0.185756653357599	0.493371968613324	-0.321089321736117	0.808384653524331	12.9411979692793	-33.9574728239486	124.582413890428
17536	1650606421143	5.5874652125718	1.85177859676875	8.11575266411312	0.0195804124120459	-0.0051426311311247	0.212973857085123	0.00387416322514247	-0.00407387211890672	-0.00840249671378087	0.149169921875	-0.167236328125	0.669677734375	0	0	0	-0.307014930261618	0.0394777852014808	-0.856622674651948	-0.412772249968651	-0.470721804504541	0.682939598639465	0.558582569880366	-0.731420676521528	-0.656121148262806	0.185819355178859	0.493401232994789	-0.321089618973369	0.808366674144078	12.9456973444478	-33.957829578498	124.576877011384
17537	1650606421143	5.61584095214967	1.81278586675605	8.09064697547243	0.0230601127802816	0.0465229070870307	0.201289595293671	0.00107604329251515	-0.00455596747011053	-0.00727789528050008	0.153564453125	-0.166748046875	0.668701171875	0	0	0	-0.307069481806769	0.0395462114511886	-0.856586696489661	-0.412799784277693	-0.470609342886424	0.682910737736673	0.558712601139406	-0.731484476367623	-0.656064870520295	0.185766914444884	0.493413930915203	-0.321265948947505	0.80828886100556	12.9433708949194	-33.9668122120342	124.571611542265
17538	1650606421143	5.59403204669878	1.8236707257072	8.14504524807499	0.0526148683969488	0.00719294160115057	0.235094057082504	0.00541299777800828	-0.00233324878766924	-0.00396577610504845	0.146484375	-0.163330078125	0.66259765625	0	0	0	-0.307081998756042	0.0395261322604309	-0.856579371428769	-0.412807596043508	-0.470581069377548	0.682929414884681	0.558713586221734	-0.731480469675196	-0.656055147034622	0.185817024336134	0.493446835664429	-0.321246102442735	0.80827666181705	12.9469335132804	-33.9668802657038	124.569271036971
17539	1650606421144	5.59948000673394	1.80687390965595	8.10671902295136	0.0443479505599813	0.0333676889796026	0.204037792817264	0.000101183982802323	-0.00133305029398792	-0.00842470312127986	0.142822265625	-0.16748046875	0.6748046875	0	0	0	-0.307131803281	0.0395616125144081	-0.856545595416415	-0.412837228458579	-0.470470956424001	0.682926560535724	0.558809799552883	-0.731529078104741	-0.656000603227798	0.185818234982453	0.493479773697681	-0.321363534769601	0.808209868457243	12.9480489537657	-33.9735273535337	124.563118467894
17540	1650606421144	5.61691117241332	1.80259812375588	8.15805608053897	0.0649889363883939	0.0318593240280985	0.25447169568309	0.00445312556289884	-0.00403740598964736	-0.00697125982755596	0.143310546875	-0.168701171875	0.666015625	0	0	0	-0.307151119604569	0.0395448355632674	-0.856528848449578	-0.412859210239489	-0.470410924492171	0.682959166800791	0.558820488709202	-0.731544128872135	-0.6559669570014	0.185877752393967	0.493514690390398	-0.321362922262501	0.808188791411868	12.9523827641845	-33.9742658670604	124.558424862827
17541	1650606421146	5.5998166065299	1.80821369925382	8.10618777353627	0.0423933522334556	0.0332786193225702	0.20404655219169	0.00209419556932142	-0.00598299843477514	-0.00941421538067204	0.1484375	-0.169677734375	0.663330078125	0	0	0	-0.307108859245996	0.039575097178425	-0.856525263625726	-0.412895184068333	-0.470403431091601	0.683002586869812	0.55877372732296	-0.731618038665874	-0.655902757312991	0.185813396847254	0.493412259186929	-0.321401679022311	0.808235920511883	12.9473199037749	-33.9710351714696	124.556296890683
17542	1650606421146	5.60015421514722	1.80887742252978	8.10580645351771	0.0421767417571385	0.0332733621255091	0.204047484064523	0.00325225418055978	-0.00590892781952085	-0.00655130671314152	0.143798828125	-0.16748046875	0.66748046875	0	0	0	-0.307133011455374	0.0395680719767786	-0.856506516807208	-0.41291678050326	-0.470338091306351	0.683026504592766	0.558799493459046	-0.73163714900761	-0.655868200117725	0.185860125541633	0.493446209893556	-0.321421371564063	0.808207361908787	12.9509083489996	-33.9728153118573	124.551641781665
17543	1650606421147	5.59468157693282	1.83294116706513	8.10958362693481	0.0287384261690576	0.0115689591049298	0.208516261338008	0.00407207692367583	-0.00570522187834439	-0.00854543130097991	0.141845703125	-0.16357421875	0.674072265625	0	0	0	-0.30714016288845	0.0396253639944127	-0.856489142349953	-0.412942005499328	-0.470287640870097	0.683019606757263	0.558850383940095	-0.731701769764295	-0.655817461245005	0.185784761619336	0.49339847483412	-0.321539537710853	0.808189501738332	12.9461103208167	-33.9763313618282	124.549041184492
17544	1650606421147	5.62853543630981	1.84183526897958	8.11023467705741	0.00728989469066981	0.0287734215805122	0.229612858761772	0.00267315893237534	-0.00594661018029731	-0.00798291266516958	0.14306640625	-0.1650390625	0.667724609375	0	0	0	-0.307163497542814	0.0396193719508104	-0.85646720247163	-0.412970728059398	-0.470211527086712	0.683052518609688	0.558874204643356	-0.73173101804513	-0.655770966264628	0.185833681110267	0.493427641124227	-0.321564451743841	0.808161782286977	12.9498334908307	-33.9779771966443	124.543420091178
17545	1650606421148	5.57832139471415	1.83316134173523	8.09134713970334	0.02759677558952	0.00707564262348321	0.184674137263642	0.00107597129591209	-0.00455775456426188	-0.00727804689051412	0.140869140625	-0.164794921875	0.666259765625	0	0	0	-0.307126248008148	0.039596055219077	-0.856470670810862	-0.412993474810823	-0.470219715096239	0.683111621072752	0.558795072177779	-0.731755572574186	-0.655737084349539	0.185856552791098	0.493383422442867	-0.321507992690885	0.808211240391051	12.9506077365942	-33.9725098500849	124.541570688491
17546	1650606421149	5.61848026795772	1.81266813506733	8.12178564676018	0.0393915940553147	0.0381699166772931	0.227904235503885	0.0050479100001918	-0.00892887172136973	-0.00739891218015822	0.145751953125	-0.16552734375	0.659912109375	0	0	0	-0.307166702923646	0.0395862836435336	-0.856446100372674	-0.413015278069408	-0.470133993392533	0.68313147213819	0.558842929660113	-0.731769825049328	-0.655702612457087	0.185922045933843	0.493443969873039	-0.321536118952847	0.808163085524621	12.9557632964	-33.9758163326336	124.535914448687
17547	1650606421150	5.60719718239648	1.86032200860556	8.12966542412759	0.0138946537044401	-0.0031990413787362	0.23682579642497	0.00609175271769641	-0.003630829877113	-0.0109606791985913	0.144287109375	-0.16455078125	0.670166015625	0	0	0	-0.307161298119756	0.0395709581405458	-0.856438855994874	-0.41303578797898	-0.470106749571939	0.683170461742733	0.558818185288495	-0.731789129223903	-0.655671154240844	0.185957005370059	0.493441297781841	-0.3215174298521	0.808172152418451	12.9579767168935	-33.9741067232426	124.532836706526
17548	1650606421150	5.59621748695779	1.83666452164326	8.10768124064458	0.0260936697735076	0.0121788689049366	0.208522774201432	0.00165517178747085	-0.00452104578601375	-0.00584663403210692	0.139404296875	-0.16162109375	0.66796875	0	0	0	-0.30717532409458	0.0395690179614586	-0.8564236856185	-0.413056998241865	-0.470054472941619	0.683194341776794	0.558832965949352	-0.731812845442455	-0.655636418041972	0.185986146211245	0.493455926819198	-0.321537523006673	0.808155226169911	12.9602010485526	-33.9751279273653	124.528925974975
17549	1650606421151	5.59695269157841	1.83117137860094	8.14135513911151	0.0461609128909637	0.00643494241666029	0.235126294218057	0.00185369419906981	-0.00615147886576904	-0.00598890723796809	0.14208984375	-0.163330078125	0.6669921875	0	0	0	-0.307149266773346	0.0395299168313148	-0.85643109072866	-0.413064765417269	-0.470073654982745	0.68323984523508	0.558761194764192	-0.731806185116478	-0.655629770492172	0.186035780079125	0.493447531472628	-0.321454379232149	0.80819342719181	12.9629508468754	-33.9701693308617	124.528235835336
17550	1650606421152	5.62541039718842	1.79196316337677	8.11626068015975	0.0494161298965163	0.0596651104405241	0.223450324075451	-0.000521577969158943	-0.00316997325857303	-0.00657303657073438	0.14501953125	-0.172119140625	0.668701171875	0	0	0	-0.307152728198782	0.0395325948861829	-0.856416352414246	-0.413092491845456	-0.470023589481913	0.683273241407858	0.558762474497471	-0.731843418896131	-0.655583534244953	0.18605225030974	0.49344000197487	-0.32147769316532	0.80818875100322	12.9641321974998	-33.9702577437705	124.524078477642
17551	1650606421153	5.61964766680558	1.81574857859065	8.12028974196286	0.0355057641085721	0.0387385877395228	0.227916550644995	0.00265661789708693	-0.00101931238827791	-0.0061252737065405	0.14501953125	-0.17138671875	0.66845703125	0	0	0	-0.307100502376149	0.0395615146100277	-0.856425819008613	-0.413108925753855	-0.470060593805626	0.683295578134025	0.558704028134388	-0.731893022180029	-0.655551804048513	0.185968912167932	0.493331168927412	-0.321494922372389	0.808248336004155	12.9575981697794	-33.9662199547485	124.525310104261
17552	1650606421153	5.60315727996655	1.80910392310088	8.1366383833763	0.0563520948475633	0.0267756148225418	0.230679612699337	5.78667158111757E-05	-0.00313251151901749	-0.00514164071778683	0.144287109375	-0.16650390625	0.66845703125	0	0	0	-0.307104218169393	0.0395640842644264	-0.856414384360017	-0.413129622128619	-0.470021829004861	0.683319707661106	0.558707130239865	-0.731920896323565	-0.655517197112363	0.185981197476679	0.493326749511755	-0.321514200949026	0.808243364837766	12.9585022821969	-33.9664342600573	124.522158960282
17553	1650606421154	5.58051042086868	1.83170339042276	8.12310730946865	0.042527517823253	0.000207942490012145	0.211298750215105	0.00145655372026536	-0.00289116428973871	-0.00570463528830734	0.13525390625	-0.16650390625	0.662109375	0	0	0	-0.307062627095084	0.0396251159096689	-0.856416496273652	-0.413150309380222	-0.470038729800985	0.683322696407229	0.558689256261323	-0.73199226516791	-0.655473344096345	0.185854832903283	0.493204740672096	-0.321597244630467	0.808284786461221	12.9493532860412	-33.9651994646773	124.523003905629
17554	1650606421155	5.60347492990742	1.81000884381636	8.1362183733261	0.0544131871974276	0.0260759684708872	0.230692145394487	0.00247453709848443	-0.00431799281801236	-0.00784130554737176	0.14111328125	-0.16796875	0.6728515625	0	0	0	-0.307076533829491	0.0396161445961591	-0.856398247473445	-0.413178660125391	-0.469974794376505	0.683360584117069	0.558696701910743	-0.732021337582174	-0.655427911808647	0.185900547999626	0.493222519736444	-0.321609335214847	0.808269126917203	12.9526735437253	-33.9657138333471	124.51788146794
17555	1650606421159	5.63707788963153	1.81886560733161	8.13703794191824	0.0304778718802074	0.0441753275303409	0.251776125851554	0.00405501667858802	-0.000778084778075198	-0.00668856737120577	0.14501953125	-0.170654296875	0.67333984375	0	0	0	-0.306956800930551	0.0395994106770811	-0.856438656741149	-0.413185474425139	-0.47011057217311	0.683425408562896	0.558503143108174	-0.732046642243584	-0.655419300796202	0.185831250664984	0.493055537957911	-0.321489115017066	0.80841881807302	12.9456912289972	-33.9523431983333	124.523071600208
17556	1650606421160	5.56414729122693	1.82642749146678	8.13906323072752	0.0603983535361586	-0.0108570222801765	0.214084644996248	9.87605353796909E-05	-0.00133711178191303	-0.00842535249001737	0.1533203125	-0.16552734375	0.67041015625	0	0	0	-0.306951795296734	0.0395933612744145	-0.856423901839253	-0.413220354611841	-0.470059067797153	0.683477070182117	0.558483273981362	-0.732090083482172	-0.655362608554917	0.185860057503385	0.493040142837009	-0.321494861301646	0.808425922214211	12.9475204545853	-33.9509707997447	124.518118288861
17557	1650606421160	5.60317564089452	1.81772411523671	8.10173838000389	0.0300334815517587	0.0325141189677162	0.204093747347912	0.00107611086288481	-0.00455996996896718	-0.00727835611692612	0.143310546875	-0.16357421875	0.666015625	0	0	0	-0.306978489791723	0.03965866217304	-0.856393341815849	-0.413257596921484	-0.469964730783745	0.683473396474674	0.558567156330136	-0.732170821358834	-0.655290698202649	0.185795557535197	0.49301018262313	-0.321649214456459	0.808382794639675	12.9438458153348	-33.9567648645328	124.512892896752
17558	1650606421160	5.62035754987876	1.81947919528512	8.11896328339731	0.0295959290115794	0.0377676630806455	0.227939408909188	0.00387330712505424	-0.00407696498826958	-0.00840461579853579	0.141357421875	-0.170654296875	0.66943359375	0	0	0	-0.306993432582401	0.0396425831266589	-0.856374934423493	-0.413286183709882	-0.469899125411592	0.6835158316044	0.558570425178031	-0.732195882286345	-0.655245991915135	0.185854459301014	0.493035497606756	-0.321650117402896	0.808366995908642	12.9480555928857	-33.9569906639621	124.50749789487
17559	1650606421161	5.58111478921266	1.83539822031662	8.12185799820591	0.0368279671225355	1.07981564399263E-05	0.211321312757549	0.00367423308115245	-0.00244678777751678	-0.0082625277807405	0.1396484375	-0.17724609375	0.673583984375	0	0	0	-0.306937612481548	0.0396491717380295	-0.856384607280047	-0.413306967807723	-0.469933304811425	0.683559806403965	0.558487851343237	-0.732239094844532	-0.655210587084147	0.185809027106078	0.492938735554707	-0.321628788577484	0.808434490449231	12.9439527144238	-33.9512869649215	124.507722602903
17560	1650606421161	5.60398524392688	1.8138657892385	8.13500786713091	0.0486693794070481	0.0258863812281687	0.230722112247243	0.00227565378182929	-0.00268860167587466	-0.00769942654890333	0.15234375	-0.164306640625	0.6708984375	0	0	0	-0.306942545078419	0.0396381857605946	-0.856369727270251	-0.413335188999759	-0.469880591110632	0.683602194910547	0.558480321238811	-0.732268777389139	-0.655165671528284	0.185850425105535	0.492944893226959	-0.321630194422686	0.808430176500783	12.9468062094468	-33.9507668500585	124.503063575732
17561	1650606421162	5.62089834048336	1.81559563129751	8.15242567904282	0.0466203552457235	0.0300992822751984	0.254578932618134	0.00129769015787068	0.000533771210276783	-0.00884663462007863	0.140380859375	-0.16650390625	0.667724609375	0	0	0	-0.306883774483475	0.0397109429807294	-0.856365763964771	-0.413380053069074	-0.469878561366771	0.683635761768142	0.558440939401461	-0.732382338049039	-0.655079945464382	0.185705077917126	0.492778092534274	-0.321733446010941	0.808490779932714	12.9360846159741	-33.948046743158	124.501634769161
17562	1650606421163	5.58696525793634	1.81410711645047	8.11722378909371	0.046653853110766	0.0196376255411457	0.206889733103658	0.00233404161281611	-0.00582289976382275	-0.012841247750815	0.146484375	-0.16552734375	0.664794921875	0	0	0	-0.306902903310989	0.0396989839244941	-0.856335516141745	-0.413429658356656	-0.46977305106077	0.683701532904457	0.558449186946451	-0.732436466604151	-0.654999816532924	0.185774225150486	0.492798237502411	-0.321756824707624	0.808469197229298	12.9410730802273	-33.9486163946045	124.493055872381
17563	1650606421165	5.62064610131731	1.82307536096059	8.11795675853048	0.0242461449732331	0.0368263377328967	0.227957249447517	0.00227569320594264	-0.00268902897664739	-0.00769964407936944	0.147705078125	-0.16552734375	0.670166015625	0	0	0	-0.306872340888676	0.0397050596790543	-0.856337364228887	-0.413447932947921	-0.469780346277191	0.683733057075337	0.558404452806473	-0.732470595510681	-0.654968629953948	0.185749617734402	0.492740553398957	-0.32175332234285	0.808505749266774	12.9388513214529	-33.9455266884765	124.492238143427
17564	1650606421165	5.6038382630468	1.82248899019484	8.10020947882082	0.0241090684208353	0.0316038236029046	0.204112672027295	0.00165625522873231	-0.00452293682962529	-0.00584711372826269	0.142578125	-0.1611328125	0.672119140625	0	0	0	-0.306882812463392	0.0397040297614447	-0.856323562482595	-0.41346884498397	-0.469732907284361	0.683757259985829	0.558414725120007	-0.732495197263119	-0.654934208496648	0.185773971608871	0.492749207813312	-0.321771956449812	0.808493058870522	12.9406869314665	-33.9462361686703	124.488591010373
17565	1650606421167	5.61535449027217	1.84158996766579	8.155788698337	0.0324230683218447	0.0100415054742884	0.259025342982218	0.00249599254766415	0.00240526555749673	-0.00926819985865948	0.148193359375	-0.16845703125	0.67529296875	0	0	0	-0.306863119267612	0.0396479193435757	-0.856317506643053	-0.41350138614242	-0.469703259383298	0.683843983545366	0.558333461556365	-0.732509920354327	-0.654889292300046	0.185874235474537	0.492755583131439	-0.321679065218039	0.808526137050154	12.9469239937737	-33.9406236814468	124.483511879463
17566	1650606421167	5.60372275199611	1.82368899674492	8.10001930625907	0.0236773684714922	0.032187936378522	0.204111841813047	0.00107685129554546	-0.00456172554017874	-0.00727854787550249	0.13720703125	-0.166259765625	0.668701171875	0	0	0	-0.306872976504613	0.0396465687172464	-0.856300607813757	-0.413529194783076	-0.469645162706521	0.68387768058205	0.558341059880143	-0.732543522783875	-0.65484350930202	0.185903107968661	0.492761005329924	-0.321700631529893	0.808514251760296	12.949051241213	-33.9411484457924	124.478886933856
17567	1650606421171	5.58722345706531	1.8170619288329	8.11638511810012	0.0429793055327608	0.0205400407669945	0.206904359676786	0.000478081642148024	0.000329375952299826	-0.00685235866281908	0.138671875	-0.176025390625	0.667724609375	0	0	0	-0.306790126971769	0.0396551950499187	-0.856316254234406	-0.413557440063837	-0.469700123520982	0.683940271323561	0.55821814662928	-0.73260356062138	-0.654795418546797	0.185835902922447	0.492619342828974	-0.321665455266771	0.808614566996397	12.9429759889783	-33.9326600637339	124.479568752067
17568	1650606421169	5.62065589519756	1.82571533490457	8.11735665762276	0.0213986135872087	0.0377901748590487	0.227960140532279	0.000677714642929075	-0.00130112812914907	-0.00699447291292535	0.14501953125	-0.16650390625	0.663818359375	0	0	0	-0.306784499663548	0.0396491113504811	-0.856305153362042	-0.413585182351729	-0.469661135410547	0.683982780428408	0.558198865962929	-0.732637711579455	-0.654750489816408	0.18585956972078	0.492605726171038	-0.32166652322335	0.808622437470607	12.9444470537412	-33.931328618794	124.475687566457
17569	1650606421170	5.59820558190948	1.84230910679985	8.13798027337505	0.0272791608445494	0.00434367491750389	0.235196419588876	-0.000340699752650015	0.000125890418257958	-0.00485764640337515	0.145751953125	-0.165771484375	0.672119140625	0	0	0	-0.306676257796891	0.0397434960039044	-0.856333205907422	-0.413598317077572	-0.469772210028591	0.683979172389417	0.558109812153794	-0.732732718894389	-0.654713773271976	0.185614217530899	0.492358439905817	-0.321748918918868	0.808740254858165	12.926113537379	-33.9251791925152	124.482151277159
17570	1650606421172	5.55933472644815	1.78669926536866	8.11110024047993	0.073002414488641	0.0231488390127474	0.18143984990078	0.00207614156426037	-0.00105924908015828	-0.00755790175462272	0.140380859375	-0.16650390625	0.65869140625	0	0	0	-0.306671610669124	0.0397309570218019	-0.856321880055263	-0.413626415987129	-0.469731422414496	0.684025987190633	0.558086767128853	-0.73276341352384	-0.654669278103549	0.185649982785531	0.492351673702186	-0.321739934038748	0.808747948527474	12.9284016816975	-33.923587938369	124.477999661958
17571	1650606421175	5.587053955066	1.81896155082863	8.11607629494713	0.0382369837699801	0.0196810918092655	0.206925303705706	0.00329440235377913	-0.00411695142989408	-0.00983691102423996	0.14599609375	-0.172607421875	0.661376953125	0	0	0	-0.306648740600365	0.0397343156717349	-0.856318783135995	-0.413649459923253	-0.469721348386823	0.684062648613973	0.558050309238246	-0.732800560051392	-0.654630616926601	0.18563969018145	0.492305996366114	-0.321740653560496	0.808775468092618	12.9272838965187	-33.9210705893623	124.475993283137
17572	1650606421176	5.60434061137445	1.82090876445998	8.13318943303663	0.0377010894822295	0.0249442046330125	0.230771658433712	0.00485360699886643	-0.00730031801778773	-0.00725823717169619	0.14111328125	-0.169189453125	0.665283203125	0	0	0	-0.306676189896292	0.0397232842616949	-0.856299184535173	-0.413670740810316	-0.469652465496276	0.684087465108782	0.558077863505005	-0.732816206978957	-0.654597157769818	0.185695901485872	0.492348421793188	-0.321755965167265	0.808743550476317	12.9315598750281	-33.9229731529672	124.471102416674
17573	1650606421177	5.61006927971318	1.80437474872542	8.09461492316942	0.026770601567828	0.0509441948371761	0.199711164802379	0.00585207423082201	-0.00379756089396267	-0.00753775266176716	0.142822265625	-0.177978515625	0.673583984375	0	0	0	-0.30663291138991	0.039807660985489	-0.856304543219782	-0.413683619497524	-0.469684241223951	0.684065647695462	0.558077864808192	-0.732891003629874	-0.654562426172584	0.185523063368029	0.492206755687363	-0.321872987195337	0.808783215558824	12.9193153995378	-33.9229732429505	124.473763878309
17574	1650606421178	5.60493575780915	1.82271442943983	8.13237481036255	0.0349918789232887	0.0235921634633344	0.230784729804546	0.00509236972205214	-0.00713677817259679	-0.010684673513245	0.141357421875	-0.168701171875	0.663330078125	0	0	0	-0.30666024877897	0.0397910718388244	-0.856278259353485	-0.413719355335599	-0.469591573679034	0.684113098916674	0.558097681253268	-0.732922458873777	-0.654505931245228	0.185598101399863	0.492248334896184	-0.321887020327695	0.808752324841477	12.9248424884604	-33.9243415526692	124.466634315889
17575	1650606421179	5.62185058137843	1.83087578466561	8.11536680053857	0.0104669562363317	0.0345286307496768	0.227989232959757	0.00707048687573821	-0.00685589295257906	-0.00981700762288021	0.14794921875	-0.1669921875	0.666015625	0	0	0	-0.306578752208196	0.039885020889242	-0.856288029486341	-0.413750485632983	-0.469640008665872	0.684123376211325	0.558044324746286	-0.733034975955411	-0.65443944149427	0.185388083335249	0.492034537696664	-0.322000347108332	0.80883730760626	12.9093963501998	-33.9206573785171	124.468989937588
17576	1650606421180	5.59972301811511	1.84808851555606	8.13562551561484	0.018849086160722	0.00193372231418352	0.235216522946049	0.00329377512067821	-0.00411882634037782	-0.00983736831915408	0.14453125	-0.164306640625	0.66064453125	0	0	0	-0.306588163083537	0.0398722536889917	-0.856268089935167	-0.413786007256897	-0.469569676910916	0.684174786118506	0.558040482909147	-0.733072230184541	-0.654382687168312	0.18544110673376	0.49204616029194	-0.322006460764493	0.808827803285646	12.9131115084744	-33.9203921124828	124.462977380772
17577	1650606421181	5.60536988628242	1.83140174520827	8.09713894543046	0.0101171278087873	0.0284948982762797	0.20414590281143	0.000117565358261383	-0.00627336348496169	-0.0102833898525174	0.145751953125	-0.172607421875	0.66748046875	0	0	0	-0.306627614376338	0.039906493571937	-0.856238616290388	-0.413814463069854	-0.469474192512169	0.684174980675588	0.558120576920979	-0.733120712363939	-0.654330123850003	0.185434921536996	0.492065040079093	-0.322112844885142	0.808773955745338	12.9135261397318	-33.9259225076207	124.457533658041
17578	1650606421182	5.58894511307003	1.8250398436251	8.11340924273827	0.0308114371717879	0.016511383342823	0.206956614341298	0.00487124814188887	-0.000576474460595492	-0.00868616816832476	0.142333984375	-0.166748046875	0.65966796875	0	0	0	-0.306625221930898	0.0398816290860435	-0.856226635737592	-0.413843421103629	-0.469429192170144	0.684230093608444	0.55809086405268	-0.733144947086339	-0.654286156941376	0.18549423548093	0.492071864772063	-0.32208508788124	0.808780857874541	12.9174116387771	-33.9238708279289	124.452818450381
17579	1650606421183	5.60604214277962	1.82696707664152	8.13065775514958	0.0287245502379485	0.0206178616342275	0.23081115617679	0.00267594524016511	-0.00595289418040096	-0.00798440092346284	0.1435546875	-0.17236328125	0.666015625	0	0	0	-0.306599812076461	0.0399618874907809	-0.856222266276596	-0.4138635445591	-0.469427043439313	0.684213749713527	0.558112708680585	-0.733222978493104	-0.654240028066304	0.185348454230143	0.491957635063759	-0.32221348571833	0.808799205565706	12.9073168854718	-33.9253791991864	124.453334559558
17580	1650606421184	5.60634173864866	1.82753095715832	8.13032444733138	0.0283197891599273	0.0206082653217899	0.230812325338398	0.00165740909684287	-0.0045254008014197	-0.00584740326292639	0.1435546875	-0.16845703125	0.6611328125	0	0	0	-0.306606708071426	0.0399640821901387	-0.856209526577225	-0.413884579682195	-0.469383762533792	0.684237328691784	0.558120203445774	-0.733250351417441	-0.654204853671985	0.185364321211543	0.491958134007173	-0.322234832779991	0.808790397400607	12.9085206922871	-33.9258967187739	124.449949103409
17581	1650606421184	5.61242061312804	1.80484117879411	8.12588267140072	0.0384256196195507	0.0400899606723252	0.226416293830493	0.00329349755441527	-0.0041198697319296	-0.00983789708121697	0.143798828125	-0.167724609375	0.6689453125	0	0	0	-0.306561339771391	0.0400432699799893	-0.85620804660237	-0.413913592939677	-0.469391365074673	0.684240860758313	0.558109479279879	-0.733343734733886	-0.654144148218154	0.18520907126408	0.491811664277995	-0.322350551140632	0.808833362973759	12.8974087700705	-33.9251562074296	124.45024402957
17582	1650606421184	5.58979477577638	1.82782608898969	8.11219659582521	0.0259119724442538	0.014229081869168	0.206973983873228	0.00407411437917377	-0.00571107872697891	-0.00854849500079682	0.144287109375	-0.17236328125	0.67041015625	0	0	0	-0.306578316675839	0.0400342793579009	-0.856188492286649	-0.413942336438806	-0.469322955695583	0.684278045908558	0.558121419715037	-0.73337261380806	-0.654097997159752	0.185257710846099	0.491833887174824	-0.322365267978993	0.808813984441006	12.9009813263849	-33.9259807034451	124.44489623923
17583	1650606421185	5.60699777535046	1.82987439797358	8.12934489364861	0.0236699228383055	0.0189070914894653	0.230827706802776	0.00469142089082183	-0.00387799770160013	-0.0104020468474802	0.137451171875	-0.174560546875	0.669189453125	0	0	0	-0.30653029658736	0.0400778659450959	-0.856183527742957	-0.413983947462915	-0.469312937034176	0.684322312866029	0.558075567684202	-0.733462633404984	-0.654022111808619	0.185169227097863	0.49170919508484	-0.322425261694989	0.808865883870705	12.894225784588	-33.9228146297936	124.442596918143
17584	1650606421186	5.60668160477514	1.83668494425646	8.09503383736472	0.00237747007602301	0.0256494605495798	0.204158420148451	0.00387352346577374	-0.00408097531354437	-0.00840681477587833	0.138427734375	-0.168701171875	0.666748046875	0	0	0	-0.306539337275452	0.0400670020891615	-0.85616688168461	-0.414012730182013	-0.469254187899925	0.68436375182128	0.558074154867866	-0.733492200889383	-0.653976189181646	0.185214295392933	0.491721159167298	-0.322430456341446	0.808856540092627	12.897403181158	-33.922717076974	124.437633228107
17585	1650606421187	5.60736052894725	1.83133475116286	8.12876581215195	0.0191883028301365	0.0192775346496424	0.230836564706031	-0.000900776008664123	-0.00484857663918268	-0.00814618142353211	0.14404296875	-0.170654296875	0.668212890625	0	0	0	-0.306377623302545	0.0401358665256721	-0.856205051900661	-0.414046824957642	-0.46939595736396	0.684424503713676	0.557880393925669	-0.73361142929497	-0.653908677921459	0.184980300969592	0.491407881518157	-0.322438427696356	0.809043728315435	12.8787718258728	-33.9093392364635	124.44333349248
17586	1650606421187	5.61270693833567	1.81454891449952	8.09051106941994	0.0101869165231657	0.0466433284122647	0.199762730872212	0.00446824099268042	0.00268385842048804	-0.00840386222646857	0.1474609375	-0.168701171875	0.667724609375	0	0	0	-0.306357314599783	0.0401088525797677	-0.856199518438891	-0.414075911350752	-0.469372670860508	0.684487911055284	0.557822189831533	-0.733638472527349	-0.653864839167558	0.185028007955881	0.491389751090732	-0.322392729011615	0.809072951471888	12.8815327401764	-33.9053210601663	124.439532001101
17587	1650606421188	5.59024549916614	1.83153367727204	8.1110496905145	0.0176352049616452	0.0129954393197177	0.206993645955073	0.00561438564795558	-0.00396143129559983	-0.00411290647099871	0.147705078125	-0.165771484375	0.670166015625	0	0	0	-0.306350955814043	0.0401659097865282	-0.856194821886794	-0.414084796312403	-0.469365746669476	0.684464787140967	0.557856389241421	-0.733684246557941	-0.653840962307872	0.184930858325541	0.491328018950793	-0.322490234227931	0.809071583125685	12.8750157434767	-33.907682026769	124.440040582025
17588	1650606421189	5.61340937347319	1.81005219187873	8.12404039076638	0.0292376378027574	0.0388108911825055	0.226452283455695	0.00267654975395752	-0.00595486420452421	-0.00798466371476937	0.1494140625	-0.16455078125	0.668701171875	0	0	0	-0.306363724204075	0.0401656317513454	-0.856176537260732	-0.414113182067473	-0.469303081859523	0.684497395456401	0.557869100211293	-0.733718565569807	-0.653793988927935	0.184960770380869	0.491336629914093	-0.322516256419895	0.80905598103565	12.8772688724084	-33.9085595490867	124.43519955462
17589	1650606421190	5.59074384059498	1.83284732078494	8.11040944858054	0.0178714573424654	0.01242539903729	0.206993950474168	0.00227460918922192	-0.00269377869383555	-0.00770126800870129	0.140380859375	-0.169189453125	0.66748046875	0	0	0	-0.306423599867803	0.0401603766358	-0.856141704559132	-0.414141404965878	-0.46918294827389	0.684515282390424	0.55794819582375	-0.733739631113578	-0.653748081682718	0.185039453710487	0.491419896608114	-0.322571346945329	0.808983443185054	12.8836807776019	-33.9140202453691	124.427660460969
17590	1650606421191	5.59676099792104	1.81016330924503	8.10602466188753	0.0297272819415597	0.0330176625629106	0.20260528329074	0.00189530428333544	-0.00436474170709678	-0.0092743984376609	0.14697265625	-0.1650390625	0.670654296875	0	0	0	-0.306428889273823	0.0401580011726874	-0.85612276287342	-0.414176877251986	-0.469117700336409	0.684561361552905	0.557946525663448	-0.733783648332119	-0.653689698583215	0.185071163087583	0.491416463573907	-0.322591878749324	0.808977341520451	12.8859088500024	-33.913904935254	124.42214608339
17591	1650606421192	5.59153351110816	1.82829109244406	8.14389550036987	0.0370500957739694	0.00579723262556447	0.233681278884822	0.00387353592825023	-0.0040820484728399	-0.00840735564269719	0.1416015625	-0.17333984375	0.66455078125	0	0	0	-0.306401195933053	0.0401541779535265	-0.856119211539646	-0.414205075725065	-0.469104924748777	0.684611269397585	0.557896029193856	-0.733824421984262	-0.65364359447294	0.185072334788209	0.491367771914183	-0.322579387466593	0.809011898247343	12.8854556596243	-33.9104186646996	124.41947079282
17592	1650606421192	5.60823510927989	1.83616705336132	8.12707218180516	0.0155055661343017	0.0177639671837032	0.230845716529338	0.00445389035361943	-0.00404196392615684	-0.0069761013322525	0.14208984375	-0.167236328125	0.667724609375	0	0	0	-0.306409647768907	0.0401435838535912	-0.856106176040228	-0.41422679268162	-0.469058583957664	0.68464346821462	0.557895479679382	-0.733844993769661	-0.653609313800175	0.185111831153142	0.491381287733707	-0.322580511414935	0.809003240859048	12.8882470483489	-33.9103807270668	124.415575104632
17593	1650606421194	5.59769390222716	1.80634953092483	8.13925222719716	0.0463143778461929	0.0259973375031052	0.229308533636441	9.49288743380117E-05	-0.00134696634148468	-0.00842688785990088	0.1328125	-0.17041015625	0.663330078125	0	0	0	-0.30631408996305	0.0402062272021076	-0.856122255653696	-0.414258157383422	-0.469123714662801	0.684679788451556	0.55779613446752	-0.7339427240366	-0.653547276670929	0.184943329130159	0.491173104083183	-0.322629112824532	0.809110275168562	12.8752598239743	-33.9035223641176	124.417867157982
17594	1650606421195	5.61476305958163	1.80820567534561	8.15654019390306	0.0455800731304972	0.0311931394013492	0.253159313097242	0.00643224522906295	-0.0037588990479337	-0.00610922511436274	0.144287109375	-0.16455078125	0.6650390625	0	0	0	-0.306324463435299	0.0401883912292505	-0.856112112402979	-0.414273179566805	-0.469086111585372	0.684707198982416	0.557794112177038	-0.733949948500928	-0.653525251804029	0.184992481874172	0.491198221712173	-0.322615555911576	0.809100432622962	12.8787190652427	-33.9033827596759	124.414656217247
17595	1650606421196	5.59165839783617	1.83703635896709	8.10883106353905	0.0100691715910001	0.0129597651573437	0.20700415218063	0.00267701765413424	-0.0059563337383534	-0.00798488746554371	0.141357421875	-0.159912109375	0.672119140625	0	0	0	-0.306228373832855	0.0401868798957789	-0.856140517567461	-0.414285664636429	-0.469183142272874	0.684760760925423	0.557646733428779	-0.733986212445025	-0.653504805521989	0.184920818460968	0.491051340439631	-0.322543283074542	0.809218395487855	12.8720821371284	-33.8932094023794	124.418091932444
17596	1650606421196	5.61494672218796	1.81562985145249	8.12173304074632	0.0216272095369932	0.0387856564060048	0.226471660665382	0.00485665834765493	-0.00730391470240962	-0.00725969279589906	0.146484375	-0.16552734375	0.67333984375	0	0	0	-0.306249848890291	0.0401812559285502	-0.856122698649506	-0.414307158499301	-0.469121216941818	0.684784518095779	0.557669658123301	-0.734006532321141	-0.653470090176479	0.1849628388478	0.491080130248537	-0.322563179890507	0.809192993453356	12.8753003521912	-33.894791783581	124.413638898363
17597	1650606421197	5.59279884455514	1.8326276188733	8.14205172734843	0.0305799618116754	0.00763079958189181	0.233701831281845	0.00367180885859872	-0.00245254653690009	-0.00826625768992031	0.14697265625	-0.1669921875	0.675048828125	0	0	0	-0.306249060842883	0.0400841222067872	-0.856112081529183	-0.414339087873125	-0.469069265986637	0.684889948394848	0.557583879155826	-0.733992847517008	-0.653432766814756	0.185148910465837	0.491150204622406	-0.322414915660728	0.809209551759527	12.887565637734	-33.8888710253632	124.406568122205
17598	1650606421198	5.6153272177294	1.81716998882755	8.12112550523213	0.0213246757722189	0.040238261890952	0.226466590708476	0.00445384017510068	-0.00404278782427376	-0.00697661494828611	0.150634765625	-0.16455078125	0.67236328125	0	0	0	-0.306255772076039	0.0400728399249515	-0.856099868760667	-0.414360452116786	-0.469025635583363	0.684922780292591	0.557580252700801	-0.734012934414574	-0.653399166443843	0.18518785436037	0.491161852425175	-0.322413266362843	0.809203139140916	12.8902845851722	-33.8886207240677	124.402803087601
17599	1650606421198	5.60963131578605	1.84119239625984	8.12497137128428	0.00959546330913255	0.019257810664235	0.230850348609572	0.00247551622369047	-0.00432660541627429	-0.00784344131321262	0.14599609375	-0.1689453125	0.66259765625	0	0	0	-0.306313361840609	0.0400680807262126	-0.856059699042909	-0.414401333177616	-0.468887318837037	0.684957784106526	0.557653580841809	-0.734051338145515	-0.653332167935064	0.185271992778315	0.491236516558565	-0.322474669289149	0.809133346529644	12.8970205702061	-33.8936820432319	124.393560608575
17600	1650606421199	5.5821924610273	1.81011689920564	8.11963554063969	0.0427656818969448	0.0226686928297544	0.205472867323424	0.000876187115394713	-0.00293892745409432	-0.00713738398824437	0.140625	-0.1611328125	0.669189453125	0	0	0	-0.306308566685826	0.0400693289772602	-0.856047909447434	-0.414429110440936	-0.468847148788019	0.684995189760071	0.557641409042505	-0.73408950466842	-0.653285922588894	0.1852838430162	0.49121782358646	-0.32248890423198	0.809139021700374	12.8977304565802	-33.8928418898514	124.389814187202
17601	1650606421200	5.59884886837354	1.81784011956354	8.10286426846516	0.0210013803761724	0.0349977772189493	0.20262065851338	0.00445384739165939	-0.00404305039493916	-0.00697689503566745	0.142333984375	-0.166259765625	0.67236328125	0	0	0	-0.306300789520096	0.0400411623191749	-0.856047701869001	-0.414438009579596	-0.468841925110138	0.685028132072221	0.557605333124302	-0.734086690598883	-0.653275683071665	0.185331089115748	0.491227014673053	-0.322439669049721	0.809153063318991	12.9006928789969	-33.8903518132278	124.388232395217
17602	1650606421200	5.58308235708647	1.80536185163057	8.15312032586658	0.0624139490068775	0.0162587029106324	0.232179546177978	-0.000319829095473031	-0.00481309452829387	-0.0067143289030262	0.146240234375	-0.1669921875	0.663330078125	0	0	0	-0.306301334001572	0.0400517906637908	-0.856033767014908	-0.414465362344969	-0.468795912410221	0.685056857031785	0.557608729434181	-0.734128524669668	-0.653228634961754	0.185331216292183	0.491208409714049	-0.322473957242653	0.809150693706962	12.9007379513541	-33.8905862344271	124.384491737386
17603	1650606421201	5.61619378287642	1.82000520469912	8.11989128077362	0.0193472517833301	0.0401687497368096	0.226470874679606	9.35761363715191E-05	-0.00134957447517234	-0.00842724767864291	0.146240234375	-0.158935546875	0.6640625	0	0	0	-0.306271370006813	0.0400616723580313	-0.856029500218103	-0.414495361950374	-0.468782885671556	0.685101028510484	0.557565410364852	-0.734180001621918	-0.653177314659012	0.185308177998928	0.491143900827334	-0.322484071465116	0.809185820644054	12.8986466935733	-33.8875962999034	124.382027993175
17604	1650606421201	5.59346412839405	1.84291340031647	8.10625170835319	0.00680727292298681	0.014336983960995	0.207005023248117	0.0076528196859177	-0.00681865610691029	-0.0083896895896709	0.14453125	-0.164306640625	0.664794921875	0	0	0	-0.306297239881131	0.0400397240904365	-0.856010673692932	-0.414517246757883	-0.46871490596293	0.685134261360104	0.557581725703691	-0.734190489258115	-0.653144545270052	0.185382114743863	0.491193100940039	-0.322479839516398	0.809157642671925	12.9040552512317	-33.8887223920073	124.37686040585
17605	1650606421202	5.58271875718682	1.81929615421077	8.08418457762841	0.0202664862696121	0.0301890939781301	0.178774259386074	0.00151583904140161	-0.00604075311373097	-0.0108478531449518	0.151123046875	-0.164306640625	0.67138671875	0	0	0	-0.306358387543594	0.039980647247734	-0.855980211405058	-0.414540666171962	-0.46860114894279	0.685180400884209	0.55762064295868	-0.734174027379269	-0.653115167870716	0.185550734352927	0.491326226382433	-0.322441305885832	0.809092172454682	12.9164091365744	-33.8914085386632	124.368581754209
17606	1650606421203	5.61707692246044	1.82244895779279	8.11873220813544	0.019273030715684	0.0406551554143166	0.226469059449174	0.00171778518692787	-0.00767193209349696	-0.0109894877177221	0.1455078125	-0.17529296875	0.667236328125	0	0	0	-0.306376609099267	0.0399812704553395	-0.855953381794102	-0.414582536541099	-0.468509387583966	0.685227996231086	0.557639262361276	-0.734225300509437	-0.65304563681585	0.185592576165125	0.491337116283234	-0.322480990783815	0.809069742819223	12.9195702190526	-33.8926937169316	124.361499174072
17607	1650606421203	5.60049333160251	1.82205317244719	8.10078128464349	0.0187316887979715	0.0338255712292236	0.202629188300016	0.00369613686884158	-0.00738783971136306	-0.0101232465367708	0.1435546875	-0.171875	0.669189453125	0	0	0	-0.306415195172998	0.0400636179977869	-0.855913862807877	-0.414627657221897	-0.468387268067549	0.685218916783292	0.557752994787612	-0.734323322095806	-0.652957624759217	0.185514416946451	0.491307058506591	-0.322678441100631	0.809009269360042	12.9152447852284	-33.9005443593576	124.354894044705
17608	1650606421206	5.61141479619241	1.85334904872847	8.08795303741146	-0.0151338494071132	0.0251974919207345	0.2041484170042	0.00349397557783336	-0.00575729128699283	-0.00998187914354098	0.15283203125	-0.169189453125	0.6640625	0	0	0	-0.306428916253931	0.0400548711138178	-0.855892228032543	-0.414663020508204	-0.468311797412908	0.685265771518746	0.557758803416593	-0.734361654503138	-0.652900373446136	0.185564174207497	0.491321708048103	-0.322694785732145	0.808993853166994	12.9188305319704	-33.9009453327392	124.348767813591
17609	1650606421208	5.57919695918014	1.83393934948233	8.15470205341468	0.0467684216818614	-0.00750536739166927	0.236576002474969	0.00247522746403281	-0.00432852104636338	-0.00784429296622864	0.143310546875	-0.166015625	0.673095703125	0	0	0	-0.306447895342793	0.0401606110085979	-0.855864170594986	-0.414696677410303	-0.468232706369656	0.685233786282	0.557864491452344	-0.734462325159062	-0.652827582136543	0.18542179193315	0.491246603660211	-0.322909904058996	0.808953625526777	12.9098706334624	-33.9082413749312	124.345505689619
17610	1650606421204	5.60188276172821	1.81833664054296	8.13369927406893	0.0375409113883163	0.0250899840802064	0.229347472823203	0.000699055631100715	-0.00624442460004551	-0.0088520489169573	0.146728515625	-0.168701171875	0.670654296875	0	0	0	-0.306457836004995	0.0401674482842246	-0.855843383014968	-0.414731569330048	-0.468162640304342	0.685271280119017	0.557877239961723	-0.734509797235121	-0.65276860299874	0.185441388866385	0.491242404510123	-0.322949568172983	0.808940341698939	12.91139424957	-33.9091214946383	124.340051496518
17611	1650606421205	5.61864989718132	1.82600105197121	8.11684541358029	0.0154262516622491	0.0372170039435306	0.226489042022202	0.000496703088358566	-0.00461373021252894	-0.0087106540363917	0.13623046875	-0.173095703125	0.66845703125	0	0	0	-0.306432652478245	0.040179353954006	-0.855831412494393	-0.414773724335135	-0.468123574192618	0.68532823271262	0.557840060171484	-0.734577296740573	-0.652696754234001	0.185426918557453	0.491178699047954	-0.322973931547729	0.808969298021972	12.909973877135	-33.9065547363312	124.335606710895
17612	1650606421207	5.60235135346799	1.81955090952554	8.13310496145114	0.0360233542548452	0.0252203000710106	0.229352704915897	0.00329146204266763	-0.00412710891296758	-0.00984094042302924	0.13427734375	-0.16748046875	0.666015625	0	0	0	-0.306438927712159	0.040169062502422	-0.855812430684716	-0.414809249518157	-0.468056940193611	0.685379095320384	0.557833484504477	-0.734616553082163	-0.65263946586372	0.185473037217811	0.491183489822567	-0.322981769291907	0.808963260000597	12.9131703278431	-33.9061007840966	124.329827696414
17613	1650606421208	5.59151490310845	1.79580986634011	8.11114483870746	0.0440388282095671	0.0419825078683859	0.201150092352533	0.00465608927311674	-0.00567496307648226	-0.00712009859537517	0.14697265625	-0.1728515625	0.673583984375	0	0	0	-0.306249926431898	0.0401780388703069	-0.855875190749343	-0.414818473085238	-0.468273233895378	0.68545663665994	0.557556613875226	-0.734674722452778	-0.652622719159536	0.185301480365776	0.490890242932266	-0.32285102709401	0.809193415505987	12.8980790766473	-33.8869891683583	124.339137494526
17614	1650606421209	5.60285113718476	1.82113105788081	8.1324069816537	0.030919275611292	0.0265908257083958	0.229366181848269	0.00387241676128824	-0.00408594926113507	-0.00840992354673447	0.146240234375	-0.164306640625	0.67041015625	0	0	0	-0.306255163959499	0.0401673778000205	-0.85586010261954	-0.414846768160102	-0.468219866990518	0.685498661389842	0.55754976583989	-0.734704528885716	-0.652577481415577	0.185342617830114	0.490896538376672	-0.322853242173647	0.809188712617622	12.9009191638575	-33.8865165216392	124.334459965224
17615	1650606421210	5.60311031501809	1.82185672680396	8.13206587359254	0.0300601586135051	0.026036957214485	0.229370241641542	0.00267767515322527	-0.00596064239997358	-0.00798620384816085	0.14892578125	-0.162353515625	0.67626953125	0	0	0	-0.306261666782071	0.0402046026602966	-0.855837337422554	-0.414885325431341	-0.468147916403197	0.68552244725959	0.557580938223832	-0.734774961751804	-0.652507513333317	0.185309742394209	0.490859739589613	-0.322944142765889	0.809174762769591	12.8989223171677	-33.888668039448	124.329433200829
17616	1650606421211	5.60283803902223	1.8284841628583	8.09771031107829	0.00876198665541172	0.0328103911585228	0.202646249716066	0.00387229282685196	-0.00408632683592898	-0.00841014754342264	0.145263671875	-0.16064453125	0.669921875	0	0	0	-0.30626692337336	0.0401940937949535	-0.855822219601818	-0.414913647530707	-0.468094473480361	0.685564394656912	0.557574232435329	-0.734804880434354	-0.652462199833533	0.185350655456735	0.490865920172707	-0.322946649722658	0.809170012942838	12.9017480816531	-33.8882052013725	124.324754309986
17617	1650606421211	5.60909672516452	1.80584732666671	8.09319315404254	0.0224177178482646	0.0544846293110079	0.198274373877988	0.000901945382375243	-0.00787765829829435	-0.0089935758995265	0.14111328125	-0.17138671875	0.669189453125	0	0	0	-0.306340502118658	0.0401146298220385	-0.855779356941576	-0.414955425881615	-0.467934982586192	0.685643103356797	0.557611322420305	-0.734798046724747	-0.652405622011298	0.185576762816764	0.491028189212755	-0.322893851268978	0.809092626471858	12.9181532252845	-33.8907652087879	124.31259951914
17618	1650606421212	5.59297240104926	1.79957211383992	8.10930592360006	0.0429974296151535	0.0425121682774837	0.201152383479531	0.00628805252656547	-0.00527247929061512	-0.0111138271172658	0.149169921875	-0.169677734375	0.67041015625	0	0	0	-0.306356958303059	0.040091118076352	-0.855757191589625	-0.414991259417982	-0.46785533741195	0.685699123409868	0.557609267686693	-0.734827895365228	-0.65234991371613	0.185654394689883	0.491059413358771	-0.322887445140712	0.809076232701371	12.9236289153034	-33.8906233859253	124.305879230818
17619	1650606421213	5.60370055275279	1.8309943782598	8.09654620271724	0.00768430579489452	0.0330042367858656	0.202646497634745	0.00329076341449218	-0.00412908634105701	-0.0098416995394005	0.13671875	-0.162841796875	0.669921875	0	0	0	-0.306318369399761	0.0401558072045141	-0.855748496564555	-0.415031418501695	-0.467835956449485	0.685724102050124	0.557594811418243	-0.734925947589396	-0.652272865608449	0.18553695144302	0.490931124917562	-0.322990038017416	0.809113135432051	12.9151584642321	-33.8896255847178	124.303802529009
17620	1650606421213	5.60417413919111	1.82596803764474	8.13041053515638	0.0279609849822712	0.02624442110761	0.229375765904107	0.00349773950969119	0.000965292280563295	-0.0114143510279277	0.146240234375	-0.16357421875	0.668701171875	0	0	0	-0.306302067306809	0.0401313345781727	-0.855734773460458	-0.41507411029734	-0.467785053048894	0.685802077999039	0.557541616344684	-0.734971320979341	-0.652205917891693	0.185592559131382	0.490911704364364	-0.322959673147056	0.8091370390971	12.9185305970742	-33.8859540524617	124.297867264166
17621	1650606421214	5.5982462522309	1.85009502156076	8.13435409575063	0.0148648742570171	0.00724672253843515	0.23373765919947	0.0020968769789451	-0.00600435862656581	-0.00941765624601291	0.142333984375	-0.17138671875	0.665283203125	0	0	0	-0.306268940792711	0.0400553832546128	-0.855736781098286	-0.415101750964245	-0.467779744504258	0.685900232791937	0.557425314537739	-0.734971112001682	-0.652172205237489	0.185711817714117	0.490917075639605	-0.322819276641959	0.809189804356074	12.9257384730704	-33.8779274339607	124.293747564583
17622	1650606421215	5.59287640066836	1.80888954860522	8.0742210178544	0.0185271296016817	0.0500478076810871	0.174431580111237	0.0034939827244746	-0.00576084967620216	-0.00998330126959498	0.142578125	-0.16796875	0.66650390625	0	0	0	-0.306280786036006	0.0400462667546393	-0.855715977578465	-0.415136775462154	-0.467707075528104	0.6859475391679	0.557428080572239	-0.735009147405574	-0.652115508355803	0.185760375193374	0.490929368372966	-0.322833296410631	0.809176753248365	12.9292060976226	-33.8781183242391	124.287764865057
17623	1650606421216	5.587696190404	1.82713928824021	8.1120336859059	0.0245930945838037	0.0221907774806237	0.205535030354538	0.00329077905193999	-0.0041300591529888	-0.00984209189604852	0.14208984375	-0.165771484375	0.6650390625	0	0	0	-0.30621460562776	0.0400960210035788	-0.855725386321158	-0.41516139946462	-0.467747255389627	0.685972323367282	0.557363863781609	-0.735084272402695	-0.652066642988518	0.185634602291398	0.490778583010374	-0.322879334544313	0.809249848799832	12.9196180825566	-33.8736866888156	124.289092260756
17624	1650606421216	5.62138639978315	1.83636622582796	8.11261117363032	0.00270079312366883	0.0394231513509365	0.226492109777215	0.00291254881992238	-0.00580393124679126	-0.0114146582502563	0.14453125	-0.1640625	0.66552734375	0	0	0	-0.306225124435861	0.040087715609325	-0.85570161933076	-0.415203428329033	-0.467664572536117	0.686028760544043	0.557363783628802	-0.735132223347303	-0.651998176322086	0.185685196688168	0.490785555809318	-0.32289768933685	0.809238296442934	12.9231993951852	-33.8736811575709	124.282183935014
17625	1650606421217	5.57154502339804	1.82157896886333	8.12801463410486	0.0444213957898499	0.0105733617401667	0.208430374835858	0.00206846028273629	-0.00106967393148792	-0.0075629140026816	0.138916015625	-0.16650390625	0.669189453125	0	0	0	-0.306198346863115	0.0400623076369062	-0.855706361103371	-0.415215856455807	-0.467676729851932	0.686071674460552	0.557300757094316	-0.735139723940321	-0.651981608108953	0.18571367470548	0.4907627355861	-0.322839960647003	0.809275167770203	12.9245457292486	-33.8693318863847	124.281209110752
17626	1650606421218	5.58821803824443	1.82935622158037	8.11117452652225	0.0228294595603481	0.0225871854673656	0.205538318648706	0.00288205440932776	-0.00759424612470188	-0.00812811255545888	0.154052734375	-0.164794921875	0.6669921875	0	0	0	-0.306215683403498	0.0400626553512374	-0.855686752415066	-0.415243447420057	-0.46760966922487	0.686101007194335	0.557320917581897	-0.735172260743687	-0.651935726041828	0.185745945159866	0.4907778970985	-0.322870278962364	0.809253877767874	12.927044779334	-33.870723076764	124.276245285605
17627	1650606421218	5.60550781973192	1.83125776341945	8.12830114914351	0.0224463637440928	0.0275101117496674	0.22938621897111	0.00227165261899073	-0.00270110818008983	-0.00770436725342655	0.145751953125	-0.16162109375	0.66943359375	0	0	0	-0.306236544002534	0.0400614312071307	-0.855667108593344	-0.415268660168964	-0.467542237997715	0.686126918991086	0.557345590028206	-0.735200015953753	-0.651894043222219	0.185782380631179	0.49080056258086	-0.322899376659646	0.809228521694041	12.9298868248677	-33.8724256492751	124.271393099058
17628	1650606421218	5.60506845532479	1.83786430802061	8.09404244536175	0.00116472141904094	0.0343011154353486	0.202645020155453	0.00329055201215662	-0.00413116019417013	-0.00984262325557814	0.1435546875	-0.17041015625	0.66845703125	0	0	0	-0.306240488840728	0.0400501428809927	-0.855649236358413	-0.415303664044838	-0.467479259251048	0.686178575325601	0.557334823005184	-0.735238476661666	-0.651837705372288	0.18582784584454	0.490802938669201	-0.322903342533207	0.809225498099608	12.9329913852029	-33.8716826447009	124.265794362412
17629	1650606421219	5.60570012858366	1.83285521954956	8.1278084585493	0.0212081541706651	0.0276909194599701	0.229388413371735	0.00448388565917594	-0.00225622395631617	-0.010267300121256	0.13720703125	-0.16650390625	0.66357421875	0	0	0	-0.306227765611933	0.0400263809638501	-0.855639135026176	-0.415336147002543	-0.46744088112281	0.686241344716537	0.557289726674349	-0.735270101548904	-0.651787547640038	0.185878644576642	0.490792115282423	-0.32287119652119	0.809244888790519	12.9361083399598	-33.8685707331329	124.261167034808
17630	1650606421220	5.60575654438643	1.833863601201	8.12754208926778	0.0206916036463445	0.0277214336182695	0.229389406815724	0.00666609979094965	-0.00360062779991165	-0.00954335714472331	0.140869140625	-0.170654296875	0.6650390625	0	0	0	-0.306236321454954	0.0399998516664148	-0.855623422099592	-0.415364763603012	-0.467382857157504	0.686292826041062	0.557274996532109	-0.735290455773328	-0.651744250047357	0.185949934602998	0.490816880805805	-0.322849174468174	0.809238654576806	12.9409990751408	-33.867554291423	124.255858029005
17631	1650606421220	5.59482165260529	1.81031269745947	8.10563885258548	0.0302967254743191	0.0435446150300125	0.20119442712044	0.00468751205578886	-0.00388806566452806	-0.0104087013785904	0.147705078125	-0.17138671875	0.673095703125	0	0	0	-0.30612676050743	0.0400079236148864	-0.855656231108341	-0.415377162004271	-0.467496439573009	0.686345121756398	0.557115295812057	-0.735335105959813	-0.651722358666607	0.185850071716706	0.490641784736716	-0.322782188255843	0.809371545098504	12.9322307221188	-33.8565350473872	124.260304253962
17632	1650606421221	5.57910793992212	1.79807121214825	8.15591635868283	0.0715856684683442	0.0248356355262342	0.230854631835241	0.00305709239911539	-0.00429039283718006	-0.00641466185453548	0.1513671875	-0.16650390625	0.67236328125	0	0	0	-0.306129203534873	0.0400032051836322	-0.855645615484238	-0.415397682974689	-0.467459351444727	0.686374113555793	0.557110699042275	-0.735358710922623	-0.651689017108591	0.185873589437164	0.490641744062908	-0.322787857919929	0.809369308636281	12.9338466950975	-33.8562178943655	124.257063303679
17633	1650606421222	5.61234117506898	1.81315371492024	8.122399156827	0.0292441593712318	0.047486238120207	0.225049317422997	0.00567684152596779	-0.00710778630417767	-0.00926010160530265	0.15087890625	-0.177001953125	0.6689453125	0	0	0	-0.306190480265395	0.0400529175056381	-0.855599580793425	-0.41544254830271	-0.467309757709194	0.686377296248939	0.55723226534702	-0.735432584437265	-0.651606505718074	0.185870587920218	0.490673520885018	-0.322947625629728	0.809286307188267	12.9349267402047	-33.86460572857	124.248408192898
17634	1650606421222	5.61268941293684	1.81406620821326	8.12195476667177	0.028712634921305	0.0475132664167041	0.225050724003854	0.0034942751758145	-0.00576436408565807	-0.00998417650383865	0.143310546875	-0.16796875	0.668701171875	0	0	0	-0.306201218109066	0.0400442812679138	-0.855579178292537	-0.415477483431447	-0.467238549579992	0.686424552341582	0.557233767577885	-0.735470983151731	-0.651549832598416	0.185917316522163	0.490683778749829	-0.32296152957223	0.809274539132521	12.9382510300433	-33.8647093846777	124.242511608332
17635	1650606421224	5.62351500438322	1.84549107082566	8.10906454421756	-0.00662423498251265	0.0369954301674114	0.226499527552193	0.00765547423315624	-0.00682076041391185	-0.00839540554784876	0.143798828125	-0.161376953125	0.672607421875	0	0	0	-0.306202439355815	0.0401472528765258	-0.855561011856703	-0.415504054384253	-0.467192893845593	0.686391764870654	0.557312430381675	-0.735564511927562	-0.651489157753432	0.185759861440764	0.49058704501133	-0.323153558617993	0.809256528438034	12.9279398270358	-33.8701374080415	124.241180311572
17636	1650606421224	5.57987012317391	1.80742803604039	8.12021578800816	0.0476270410665815	0.0284340504228418	0.20412721547995	0.000496513407749944	-0.004622426500435	-0.00871091270845643	0.143798828125	-0.16162109375	0.662109375	0	0	0	-0.306201646627714	0.0401519149931104	-0.855544345657216	-0.415538503557527	-0.467136607327295	0.686434069270713	0.557307508148952	-0.735612399215299	-0.651431151567114	0.185773660373733	0.490568841464127	-0.323180635732392	0.809256750649725	12.9288644639183	-33.8697977457205	124.236326838484
17637	1650606421225	5.60717488596298	1.84574137496856	8.09079040264151	-0.00648661241563729	0.0330434285814851	0.202647215728025	0.00390242230366272	-0.00902787193172011	-0.0102666085680307	0.138671875	-0.158447265625	0.66455078125	0	0	0	-0.306241409528231	0.0400647781459993	-0.855523185187781	-0.4155611775039	-0.46705021368347	0.686505456173309	0.557291984997544	-0.735583432700776	-0.651407442607368	0.185971388261397	0.490694519466408	-0.323076774714626	0.809222025284549	12.9426988585635	-33.8687265679927	124.228626839839
17638	1650606421226	5.6082575097891	1.8406581545443	8.12428013968536	0.0137248166306799	0.0263015722933468	0.229405164353015	0.00288341701118771	-0.00759772418263639	-0.00812835921378275	0.145263671875	-0.167236328125	0.67431640625	0	0	0	-0.30625831367101	0.0400655255901402	-0.855503707351653	-0.415588745846363	-0.466983679266472	0.686534625003216	0.557311808568993	-0.735616226217532	-0.651361495970066	0.1860026056084	0.490708682442266	-0.323107428325829	0.80920119793315	12.9451202110678	-33.8700944993214	124.223698580583
17639	1650606421227	5.61397483906147	1.8239599168223	8.08574565477844	0.00471978846256007	0.0552540703948338	0.198294144197058	0.00387149732551928	-0.00409098801093378	-0.00841270477267138	0.149169921875	-0.16162109375	0.674560546875	0	0	0	-0.306229186683982	0.0399774517218291	-0.855508899093969	-0.415608002988058	-0.466987346150291	0.686628165128965	0.557193486490231	-0.73559721523486	-0.651343582412215	0.186140470046525	0.490733690991588	-0.322944732891022	0.809250977153392	12.953621552967	-33.861929974778	124.220277778109
17640	1650606421227	5.59230690194406	1.83499233753774	8.140173077574	0.0336696509643696	0.015928720407554	0.232317549891786	0.00131076292761023	-0.00442304347205356	-0.0107084995294869	0.143310546875	-0.166259765625	0.662353515625	0	0	0	-0.306229520945538	0.0399736298392678	-0.855488810854795	-0.415649472417792	-0.466917993160555	0.686684734749973	0.557181893751294	-0.735649156814506	-0.651275249992568	0.186174291526042	0.490721821138031	-0.322962263753022	0.809251178837879	12.9558926815266	-33.8611300882825	124.214125855315
17641	1650606421230	5.59791899346544	1.81828973250268	8.10171389065721	0.0255045945361752	0.04347622712316	0.201208076084189	0.000933099344768911	-0.00609846777593119	-0.0122806926668664	0.150634765625	-0.1728515625	0.66748046875	0	0	0	-0.306267698916143	0.0399482443091295	-0.855454290310427	-0.415694829853238	-0.466795810067797	0.686746137595037	0.557208591284671	-0.735685565036225	-0.651203892419812	0.186280004011749	0.490783476800595	-0.322975591950205	0.809208468754458	12.9636618842085	-33.8629722005611	124.204771902116
17642	1650606421230	5.6151271131728	1.8205651449431	8.11881506116884	0.0246515375040534	0.0487420865211943	0.225055627327944	0.00806121256125873	-0.00335782364178052	-0.0101125732375422	0.147705078125	-0.164794921875	0.67724609375	0	0	0	-0.306277644708244	0.0399139392066756	-0.855438353667878	-0.415723591924931	-0.466735798938008	0.686802315531822	0.557189620658737	-0.735701304696816	-0.651161545148079	0.186365856282122	0.490816955959247	-0.322941514055555	0.809201763617952	12.9695384141452	-33.8616632357376	124.199168367755
17643	1650606421231	5.59883368982348	1.81439917173015	8.13506566803446	0.0453138274599225	0.035544596726804	0.227977936978686	0.00445364253014194	-0.00404778921807658	-0.00698210954644565	0.13818359375	-0.162353515625	0.666015625	0	0	0	-0.306311873878696	0.0399650297185111	-0.855405877163819	-0.415760288668985	-0.466632836573609	0.686804062552162	0.557273698906663	-0.735771115122941	-0.651092357530962	0.186331983608606	0.490810209736932	-0.323077268817571	0.809151664641041	12.9680365687626	-33.8674647503947	124.193224321054
17644	1650606421231	5.58651420249526	1.86762017344681	8.10895541373159	-0.00060838115295142	0.00110728912596217	0.209902238112775	0.00151525180306759	-0.00605603689929483	-0.0108496756760058	0.14306640625	-0.1708984375	0.666748046875	0	0	0	-0.306320158853292	0.0399635406665771	-0.855382812553812	-0.415801779319203	-0.466553681190157	0.686856114667227	0.557275820677836	-0.735822667168531	-0.651023591464751	0.186368682555109	0.490808175409603	-0.323105185815051	0.809141751394969	12.9706578562386	-33.8676111606215	124.186687885759
17645	1650606421232	5.60917092779928	1.8522266726097	8.0879242431873	-0.01148028329768	0.0344159874296634	0.202638114041816	0.00387140998130021	-0.0040921114958175	-0.00841339317509633	0.146240234375	-0.160888671875	0.6650390625	0	0	0	-0.30624226910095	0.0399474184926023	-0.855406658130622	-0.4158116467795	-0.466632694036843	0.686908926199086	0.557144555715962	-0.735843278534685	-0.651009756316594	0.186335628949309	0.490702148243967	-0.323020779964118	0.809239752743356	12.9669177723791	-33.8585538550049	124.189150093599
17646	1650606421233	5.60995846483991	1.84707540985423	8.12164890566703	0.00871769952308652	0.0276959020856121	0.22940701068214	0.00247491003583068	-0.00433696009225275	-0.00784682478975069	0.14892578125	-0.167236328125	0.666015625	0	0	0	-0.306243975018521	0.0399427269466148	-0.855392941911862	-0.415839056915405	-0.466585013017124	0.686947149567024	0.557137361275971	-0.735876027459867	-0.650964914615549	0.186362958093759	0.490698377659531	-0.323029864937147	0.809238412657847	12.9687760410056	-33.8580574651409	124.184946860349
17647	1650606421234	5.58207977557951	1.82189419880212	8.0823447262136	0.0222549868763378	0.0374055306623031	0.177373441054693	0.0038713541347701	-0.00409246707126462	-0.00841358429321239	0.146484375	-0.16943359375	0.67626953125	0	0	0	-0.306304211518188	0.0399291539729123	-0.855362608541889	-0.415858390053205	-0.466479058857155	0.686958498551357	0.557212086117852	-0.735880370648402	-0.650934924170728	0.186450541938658	0.490792591368405	-0.323066163135222	0.809166785338457	12.975774353702	-33.8632133446982	124.178459117008
17648	1650606421234	5.57687463100062	1.8401040139478	8.12018302601682	0.0301325817691846	0.0100630338650002	0.208484052299527	0.00445363307963928	-0.00404835599696747	-0.00698265669454525	0.143798828125	-0.16015625	0.671630859375	0	0	0	-0.306309051689296	0.0399166427483435	-0.855351359658028	-0.415879162757727	-0.466438573674272	0.686991956662797	0.557204727608562	-0.735899272610259	-0.650902367231266	0.186489594627757	0.49080272774344	-0.323060613218874	0.80916285296981	12.9784611019636	-33.8627056069862	124.174851189264
