// Start Time : 22/04/2022 05:46:24																																
// Update Rate : 100Hz																																
// Filter Profile : 46.1 human																																
// Firmware Version : 4.4.0																																
PacketCounter	Time_Of_Arrival	Acc_X	Acc_Y	Acc_Z	FreeAcc_X	FreeAcc_Y	FreeAcc_Z	Gyr_X	Gyr_Y	Gyr_Z	Mag_X	Mag_Y	Mag_Z	VelInc_X	VelInc_Y	VelInc_Z	OriInc_q0	OriInc_q1	OriInc_q2	OriInc_q3	Mat[1][1]	Mat[2][1]	Mat[3][1]	Mat[1][2]	Mat[2][2]	Mat[3][2]	Mat[1][3]	Mat[2][3]	Mat[3][3]	Euler_X	Euler_Y	Euler_Z
17424	1650606421042	9.52829297923434	-1.09524006097478	-1.01336990685663	6.50521303491303E-17	2.08166817117217E-15	-0.168267404669574	0.0208514068454206	0.0106195364348269	0.00257328560518077	0.59912109375	0.300537109375	-0.131591796875	0	0	0	-0.509807513492401	-0.540985248392081	-0.400171309886082	0.535998304990708	0.0943957675324315	0.122614401027968	0.987955033254305	0.980578976247373	0.159918443861506	-0.113538375250695	-0.171913671398224	0.979485477163121	-0.105137479582291	-132.799943306005	-81.0982104943549	52.4088104677383
17425	1650606421043	9.52272777209653	-1.08318706641311	-0.98046446839225	-0.00915716821346851	0.0627165949599828	-0.178740524504798	0.0266426750950157	0.00925015077940688	0.0010554937359688	0.5947265625	0.298828125	-0.1376953125	0	0	0	-0.507516766475035	-0.544564032145136	-0.396981721864858	0.536919229629344	0.0917110547980874	0.126456512904593	0.987723560907521	0.979044994027033	0.169664488503875	-0.112627088266211	-0.181824041585343	0.977354956852795	-0.108246506718888	-133.863802920036	-81.0129089941416	54.048954974094
17426	1650606421044	9.53050875959235	-1.06890273914902	-0.927303609152122	-0.00353669796100715	0.117016982204691	-0.17840811213239	0.031431864805455	0.008295784055927	0.00140950340111273	0.599365234375	0.2900390625	-0.135986328125	0	0	0	-0.507419749346574	-0.544600566753977	-0.396913400596175	0.537024369178427	0.0917399502368552	0.126377829005358	0.987730948116151	0.97898650329986	0.169969900800481	-0.112675015769189	-0.182124155144922	0.977312067436889	-0.108129158671384	-133.820576480735	-81.0156188971161	54.0234243357579
17427	1650606421045	9.48484493773855	-1.06350347869937	-0.955511734965934	0.00337949398265765	0.0836503635927854	-0.221059923476655	0.0311819525546472	0.0067453419064174	0.00165532693582896	0.5986328125	0.29296875	-0.14013671875	0	0	0	-0.507328423399648	-0.544638920880983	-0.396838705112613	0.537126948492598	0.0917749759722863	0.126316084663485	0.987735592423688	0.978927135547054	0.170273825870743	-0.112731927655748	-0.182425373988727	0.977267144121109	-0.108027366655148	-133.779164899644	-81.0173230170345	53.9997124759145
17428	1650606421045	9.49803829745264	-1.05438711860081	-0.993797711002505	0.0210537635270884	0.0487916769253589	-0.204915837720918	0.0285377646569264	0.00236583902643617	0.00127881827485617	0.598876953125	0.295654296875	-0.13671875	0	0	0	-0.507250564368743	-0.54468594204917	-0.39676355399321	0.537208313137722	0.0917918135133703	0.126295143905884	0.987736705604139	0.978873862126763	0.170551094340538	-0.112775379690243	-0.182702558868124	0.977221500400516	-0.1079718210368	-133.753414730186	-81.0177315201783	53.9901965393864
17429	1650606421046	9.50555928943143	-1.03274959036881	-1.00066435086589	0.0446507744415646	0.0462784071943216	-0.19918525015	0.0206030104834536	0.00245487811598791	0.00192842666048319	0.595947265625	0.291015625	-0.141845703125	0	0	0	-0.507194508788627	-0.544714748168213	-0.396709624263394	0.537271856139423	0.0918146342896743	0.126270825901462	0.987737693649693	0.978834490606928	0.170750408542921	-0.112815504168095	-0.182901921609723	0.977189836474258	-0.107920853234593	-133.729720407508	-81.0180941180819	53.9781748860819
17430	1650606421047	9.50702441047059	-0.984075609764653	-1.09480509927296	0.110144897589667	-0.0373758720289975	-0.193072646416379	0.0155079011664639	-0.00116390989350853	0.00380167309742201	0.606689453125	0.29833984375	-0.13671875	0	0	0	-0.507165510179669	-0.544738992830458	-0.396654221771139	0.537315552841518	0.0918497160823812	0.126288693511473	0.987732147673017	0.978802623343	0.170897147270656	-0.112869790429561	-0.1830547846751	0.977161875507798	-0.107914850051491	-133.714360190786	-81.0160590157155	53.9716196420394
17431	1650606421048	9.51261304289991	-0.997087719726377	-1.12657938883108	0.104148566957412	-0.0697939791960929	-0.18265860818752	0.011665782760069	-0.00365060555046556	0.00355910133932881	0.59716796875	0.2919921875	-0.13232421875	0	0	0	-0.507148651128814	-0.544764045994438	-0.396606484079386	0.537341303675962	0.0918708619559161	0.126326611815994	0.98772533220049	0.978778792622222	0.171007084888825	-0.112909928840696	-0.183171558481282	0.977137740579555	-0.10793524030001	-133.709591588107	-81.013558696437	53.973527707337
17432	1650606421049	9.55053336840265	-1.01806957674187	-1.14969317634359	0.0916769256824013	-0.0907161020205896	-0.140339478510421	0.0107193107639471	-0.00682282802502362	0.00255880226717559	0.5986328125	0.300537109375	-0.1376953125	0	0	0	-0.507140350022925	-0.544797144062987	-0.396553110082535	0.537354974000714	0.0918834054093639	0.126397656346581	0.987715076467132	0.978756800979792	0.171108592524989	-0.112946775518042	-0.183282744267387	0.977110782887084	-0.107990525601123	-133.714908796515	-81.0097975852997	53.9851290913771
17433	1650606421050	9.57510365620452	-1.04128530833669	-1.19304434296297	0.079332237979502	-0.133501532129737	-0.108764256097283	0.0119166558928043	-0.00210228093895583	0.00331359504540384	0.603271484375	0.296142578125	-0.13818359375	0	0	0	-0.507119394506997	-0.544824172750208	-0.396509556806458	0.537379485897121	0.0918935842963957	0.126429605615823	0.987710040441519	0.978734012775621	0.171220182152006	-0.112975136467999	-0.183399294985805	0.977087101566519	-0.108006918996184	-133.712067612556	-81.007951282018	53.9889975109265
17434	1650606421051	9.55042345249047	-1.01909378013799	-1.14969886581458	0.0914967517157011	-0.090659926800464	-0.140337245755674	0.0159541146226583	0.0055218793588479	0.00618085905486936	0.60595703125	0.29931640625	-0.136962890625	0	0	0	-0.507082415387877	-0.544825291479194	-0.396463488219101	0.537447233017485	0.0919642085475084	0.126386240063715	0.987709017205365	0.97869905900698	0.171368253027079	-0.113053411064416	-0.183550364328386	0.977066753183734	-0.107934348461984	-133.673011397865	-81.0075761900338	53.9587100829655
17435	1650606421052	9.55464509471942	-1.08129617170598	-1.08584018446942	0.0197726556959602	-0.0391665733793699	-0.136036701145144	0.0213568366826167	0.0137093157637322	0.0020782938771638	0.59765625	0.299560546875	-0.1318359375	0	0	0	-0.507003429972699	-0.544838395294561	-0.396436204143871	0.537528586265666	0.0919789181136939	0.126278285674364	0.987721455264478	0.978661455106291	0.171571716079834	-0.11307034328531	-0.183743394199278	0.977045004494964	-0.107802709982467	-133.633803674103	-81.0121367143398	53.9310530238789
17436	1650606421052	9.56808496734301	-1.07952204540775	-1.06428539987959	0.0194644032138209	-0.0172465995970976	-0.125291179341373	0.0203541496681968	0.0075140403122618	0.00306270825963107	0.59130859375	0.30029296875	-0.13623046875	0	0	0	-0.506942171443536	-0.544850778660442	-0.396391569940043	0.537606721577856	0.0920227045471553	0.126210128940519	0.987726088144201	0.978621218446784	0.171766716185161	-0.113122526566102	-0.18393567531493	0.977019548711173	-0.107705472389554	-133.594779151915	-81.0138359873745	53.9033504850223
17437	1650606421054	9.54344741475104	-1.05716082058944	-1.02058221747206	0.0313013166306367	0.0258579499651683	-0.156864394177889	0.00832512043082731	0.00357236973353464	0.00371401940426198	0.598388671875	0.30322265625	-0.139404296875	0	0	0	-0.506923430589429	-0.544862817161056	-0.396369151778657	0.537628720878107	0.0920320119871708	0.126208576819208	0.987725419287599	0.978606337084406	0.171840262075424	-0.113139565794159	-0.184010178489764	0.977006816489588	-0.107693708010477	-133.587344049346	-81.0135906407984	53.9002564178369
17438	1650606421055	9.5035552105641	-1.07151263181517	-1.0219021571166	0.0142457494839441	0.0168753289172568	-0.194501605112379	0.00882622296649194	5.68299105638604E-05	0.00233626216800224	0.6015625	0.2958984375	-0.131591796875	0	0	0	-0.506905955952129	-0.54487423473187	-0.396338969880995	0.53765587609482	0.0920549785580601	0.126212037497118	0.987722836889732	0.978587941824657	0.171923545547859	-0.113172145873598	-0.1840964992553	0.976991717506898	-0.107683159708767	-133.576303109955	-81.0126434410842	53.8941981536989
17439	1650606421056	9.49019704075381	-1.07397187008882	-1.04206593219428	0.0141901351704829	-0.00483222514576845	-0.205245863640952	0.0115277834042512	0.000843381957363837	-0.000158420830658699	0.594482421875	0.284912109375	-0.134033203125	0	0	0	-0.506871304903239	-0.544909789464009	-0.396313705262461	0.537671134275513	0.0920175367348581	0.126225393205546	0.987724619032731	0.97857115095514	0.172033854573654	-0.113149703485531	-0.184204439283047	0.976970574270605	-0.107690396776046	-133.583900572805	-81.013297104108	53.9081807189638
17440	1650606421057	9.51105497902993	-1.04988597734017	-1.02908613994515	0.0374826595332831	0.014610648464633	-0.188767825916102	0.0129193476543392	-0.00252214130291855	0.00144752535195268	0.59619140625	0.292724609375	-0.133544921875	0	0	0	-0.506845513630049	-0.544938501021782	-0.396268221577672	0.537699871661594	0.0920270533436044	0.126252525122583	0.98772026472735	0.978546012666113	0.172158243761523	-0.113177913924055	-0.184333183524145	0.976945156600472	-0.107700689165549	-133.579502237717	-81.0117000940605	53.911221955788
17441	1650606421058	9.48445980251221	-1.06200063485931	-1.01057126318189	0.0197091331630735	0.0277428819274776	-0.215660779576259	0.00851909678659802	-0.00451364518935003	0.00456733293235458	0.595703125	0.29248046875	-0.134765625	0	0	0	-0.506841000955524	-0.544971458612772	-0.396226592064084	0.537701401141147	0.0920211940774997	0.1263245717065	0.987711598809957	0.978530946595457	0.172233374983369	-0.11319386510247	-0.184416068702131	0.976922600375796	-0.10776338190426	-133.592120657367	-81.0085225695105	53.9285158402137
17442	1650606421059	9.49588452186945	-1.09485130759766	-1.0144920784103	-0.0101314721042629	0.0197614286751108	-0.200235894321505	0.0116668383331048	0.00296024531072292	0.00444832231610739	0.598388671875	0.29150390625	-0.138671875	0	0	0	-0.506815890266877	-0.544975339484547	-0.396190342873447	0.537747845128659	0.0920701831350466	0.126303317426748	0.98770975158924	0.97850532999067	0.172341731173626	-0.11325037252004	-0.184527506235058	0.976906238951864	-0.107720934546609	-133.566567931627	-81.0078453946501	53.9094129655313
17443	1650606421060	9.49019306704331	-1.08297081327809	-0.982465668582603	-0.00461200089590789	0.052272165419015	-0.210652405347403	0.0231385455236546	0.000780238224379162	0.00627512608051325	0.5908203125	0.296875	-0.14111328125	0	0	0	-0.506764427870921	-0.545017371864721	-0.396119501397697	0.537805931189655	0.092090809956226	0.126319998642336	0.987705695369125	0.978461667888616	0.172558310514198	-0.113297810857554	-0.184748605391853	0.976865849242099	-0.107708241979337	-133.551214128816	-81.006358597483	53.9069052672712
17444	1650606421061	9.51671266474521	-1.07194377048217	-1.00056078885845	0.0127488360888503	0.039336058126821	-0.183757238456772	0.017460321425462	0.0081973379138232	0.00381853078609376	0.598876953125	0.29931640625	-0.129638671875	0	0	0	-0.506711644295451	-0.545020234105859	-0.396082420545756	0.537880070355102	0.0921433210996183	0.126246517537003	0.987710192914153	0.978425878455285	0.172724051340029	-0.113354322624646	-0.184911894549102	0.9768460569089	-0.107607492098811	-133.510172796954	-81.0080071758813	53.8754817376167
17445	1650606421061	9.52238222939155	-1.0851441104129	-1.03139890918947	0.00640824627548661	0.00695939272799886	-0.17334116025202	0.0188517045560594	0.0048317425069518	0.00542612781226047	0.597412109375	0.296630859375	-0.14111328125	0	0	0	-0.506657800301326	-0.545042342360101	-0.396039397283596	0.537940065646427	0.092163281667721	0.126208989755884	0.987713126579289	0.97839082724912	0.172901338386137	-0.113386579184072	-0.185087327137812	0.976819542233406	-0.107546563143128	-133.485829841998	-81.0090826745232	53.8614592941262
17446	1650606421062	9.57545944938622	-1.06243229321681	-1.06807675334634	0.0411274474384356	-0.0189128828102347	-0.119549339536032	0.0208021219594599	0.00758373813373576	0.00455460064762657	0.598388671875	0.289794921875	-0.143798828125	0	0	0	-0.506599235945522	-0.545051600064957	-0.395989673165826	0.538022440193777	0.0922218640253053	0.126142787791155	0.98771611553319	0.97834810878401	0.173098785770872	-0.11345390431096	-0.185283852060693	0.97679312418389	-0.107448065187912	-133.442637307776	-81.0101785735858	53.8297962041488
17447	1650606421063	9.5413102864582	-1.08970171075711	-1.09991158373759	0.0176935507326726	-0.060243025168067	-0.146772263970742	0.0275437478153711	0.0159914772405995	0.00492239917991536	0.59375	0.296142578125	-0.14111328125	0	0	0	-0.506498502820115	-0.545064028860293	-0.39595272095376	0.538131874035428	0.0922532944237991	0.125998669605129	0.98773157534104	0.978297788630224	0.173361418820593	-0.11348680639495	-0.185533733938521	0.976765147679957	-0.107271057832864	-133.387182752595	-81.0158490238803	53.7892795509197
17448	1650606421065	9.54335539159708	-1.05594953608589	-1.07331313584942	0.0472253737799638	-0.0303404899020275	-0.151449807816508	0.0287450368376211	0.0273228431829594	0.00655428743457941	0.60546875	0.29052734375	-0.13330078125	0	0	0	-0.506384925058665	-0.545030824714847	-0.395925911416365	0.538292095848624	0.0923681455595482	0.125743209341597	0.987753395838438	0.978238363969964	0.1736339606849	-0.113582353181476	-0.185789743912998	0.976749657282433	-0.106968584432033	-133.282358198723	-81.0238585358532	53.6998296766596
17449	1650606421066	9.51696199145656	-1.06134627256283	-1.11065819515872	0.047321256099387	-0.0740388779515051	-0.172933171833362	0.0266615770941815	0.0356731425899793	0.00458230020616356	0.60400390625	0.29052734375	-0.140625	0	0	0	-0.506248264607604	-0.544993555702666	-0.395941031120224	0.538447229261892	0.0924254482360382	0.125417381278042	0.987789459850492	0.978190785909167	0.173886788914486	-0.11360532999563	-0.186011620284256	0.976746571590793	-0.106610562351291	-133.180712743192	-81.0371118866228	53.6119055558381
17450	1650606421067	9.51155643397459	-1.04957123541764	-1.07583880055303	0.0532534203679211	-0.0416594534404291	-0.183348725230257	0.0191096628698643	0.0262132522011667	0.00782502267968811	0.60595703125	0.293212890625	-0.144287109375	0	0	0	-0.506166247030436	-0.544940991332252	-0.395934224412335	0.538582525033953	0.092550811809651	0.125174964208673	0.987808471095856	0.978147981534094	0.174063640612253	-0.113703013317976	-0.186174309329064	0.976746168332473	-0.106329907334108	-133.08078789591	-81.0441062577733	53.5218312318234
17451	1650606421068	9.49086859916211	-1.07451047891858	-1.08649806763719	0.0293039181330701	-0.0607563729731149	-0.199826848513654	0.0247640788629248	0.0160997336201542	0.000834300240403171	0.601318359375	0.29443359375	-0.133544921875	0	0	0	-0.506065969310547	-0.544970308381916	-0.395912636485287	0.538662957663848	0.0925210945067771	0.12505491122221	0.987826460594407	0.978108798204838	0.17430083795409	-0.113676720408315	-0.186394812013522	0.976719246799052	-0.106190804624208	-133.049981413039	-81.0507297136832	53.5043440434022
17452	1650606421069	9.50433483969982	-1.07257068883821	-1.06456225287974	0.0289929885511129	-0.0388342452390375	-0.189084473901738	0.0163239499420487	0.0131024013408984	0.00196967306095588	0.60107421875	0.298828125	-0.144775390625	0	0	0	-0.50600146405429	-0.544962335681069	-0.395895936687504	0.538743889411539	0.0925649200067155	0.124930445951632	0.987838103769275	0.978076512884633	0.174457851378478	-0.113713644897349	-0.186542409461189	0.976707142272816	-0.106042857872102	-133.000853912608	-81.0550191441348	53.4640828039776
17453	1650606421070	9.56907783954766	-1.08177458196738	-1.10439983491647	0.0331078887887755	-0.0722329290786923	-0.11986156046415	0.0185840138316337	0.0138066690999066	-0.00201496520539795	0.596923828125	0.289306640625	-0.134033203125	0	0	0	-0.505915644551096	-0.544997225555938	-0.395892500247194	0.538791715770393	0.0924943047687108	0.12483804635375	0.987856399365784	0.978052444229017	0.174636977692948	-0.11364568781929	-0.186703561623767	0.976686944831788	-0.105945230530442	-132.991615554592	-81.0617635000051	53.4647208747274
17454	1650606421071	9.56352544354929	-1.06926986390818	-1.07134913658999	0.0390414888736694	-0.0398540893733423	-0.13027892282849	0.0235660255154441	0.0113772214069611	8.85277315426905E-05	0.602294921875	0.2958984375	-0.134765625	0	0	0	-0.50582988521839	-0.545012997717504	-0.395856796955077	0.538882506529389	0.0925164572468937	0.124727118216258	0.987868336935621	0.978008330095646	0.174867047048834	-0.113671553697247	-0.186923544268797	0.97665995199859	-0.105806080922141	-132.947555726259	-81.0661668016182	53.4337892114966
17455	1650606421073	9.53132547643262	-1.06135846860977	-1.07906387457051	0.0448678741224385	-0.05077324548029	-0.162172619948189	0.021229883049389	0.011567388209966	-0.00251884077829889	0.5927734375	0.303955078125	-0.13330078125	0	0	0	-0.505743504422848	-0.545061476395132	-0.395839187689071	0.538927483223589	0.0924386488792309	0.124665368030849	0.987883415291053	0.977979836761013	0.175069690447506	-0.113604763876858	-0.187111023411996	0.976631532104277	-0.105737010631889	-132.945690600245	-81.0717316945807	53.4432791477676
17456	1650606421075	9.57139532302004	-1.05449266374123	-1.0168318877817	0.0439270208063031	0.0149932192234893	-0.129952427722223	0.0120361484673687	0.0105414651203392	0.000234663904986053	0.59423828125	0.30029296875	-0.139404296875	0	0	0	-0.505690849018878	-0.545056230974063	-0.395832445811487	0.538987147469966	0.0924607598384889	0.12456269472062	0.987894297470143	0.977957098096594	0.175186880122925	-0.113619854406191	-0.187218915103622	0.976623618451209	-0.10561905941017	-132.910004022637	-81.0757500642351	53.4141323249303
17457	1650606421076	9.54308836252329	-1.10091472386078	-1.02118944323679	-0.0039402709042152	-0.00144259314975234	-0.152182255856388	0.0055468077029609	0.0102965590566609	0.000494935541827706	0.592529296875	0.287353515625	-0.135498046875	0	0	0	-0.505651388113816	-0.545076780571666	-0.395852787040381	0.538988448830364	0.0923837485479807	0.124517502145202	0.987907199418925	0.977957820753489	0.175234489381869	-0.113540189176187	-0.18725315439616	0.976620840137357	-0.105584046039602	-132.920571136559	-81.0805165835759	53.4270297587533
17458	1650606421077	9.53173748304473	-1.06841771699617	-1.01637080111313	0.0259036499829584	0.00653311327270534	-0.167593702475461	0.0100093439440336	0.00868470786169973	-0.00548527115233296	0.598876953125	0.296630859375	-0.1357421875	0	0	0	-0.505592160587972	-0.54508709427387	-0.395862472946125	0.539026464397653	0.0923459243380952	0.124422825045369	0.987922664415526	0.977944221764814	0.175338939329929	-0.113496059277266	-0.18734281244541	0.976614159718353	-0.10548674638389	-132.905336177796	-81.0862333313956	53.4174021516741
17459	1650606421078	9.53758289489723	-1.08794250389394	-0.987926388610079	0.00125753710235393	0.0314543912240187	-0.162603738214024	0.00888527908967274	0.00307163700843423	0.000360544135757667	0.599853515625	0.29248046875	-0.141845703125	0	0	0	-0.505563679396289	-0.545125684536031	-0.395850511521906	0.539022937046519	0.092280721173939	0.124446482911103	0.987925777268047	0.977936504318722	0.175415477206264	-0.113444276529832	-0.187415212884376	0.976597400799099	-0.105513291731179	-132.925564361478	-81.0873844595739	53.4419796780427
17460	1650606421079	9.48444104389987	-1.1043562326218	-1.00928871568289	-0.0154610032658718	0.000533092260000118	-0.210987047207702	0.0144298963641576	0.00675574871407848	-1.9374685237782E-05	0.591796875	0.29833984375	-0.136962890625	0	0	0	-0.505511260432252	-0.545136081462086	-0.395828543176977	0.539077714871196	0.0922928341891085	0.124380162220717	0.98793299772975	0.977909548367274	0.175556259965176	-0.113458868314266	-0.187549854623927	0.97658055214764	-0.105429963471284	-132.89931622865	-81.0900551433925	53.4237668629974
17461	1650606421080	9.50533176245976	-1.0731646749979	-1.05501988184193	0.0250111820278595	-0.0362902864187546	-0.189063372271027	0.0187757206103023	0.00571996609179757	-0.00114610316192833	0.59619140625	0.294677734375	-0.133544921875	0	0	0	-0.505444273925198	-0.545193141524331	-0.395801390784904	0.539102757777955	0.0922113949751325	0.124374260524543	0.987941345402506	0.97788474574251	0.175734690017931	-0.113396396628857	-0.187719159067069	0.976549211275743	-0.10541895121788	-132.912067807664	-81.0931437468388	53.4466676879709
17462	1650606421081	9.50541902381478	-1.07329735932492	-1.05409833595362	0.0250058208574504	-0.0362919343902847	-0.189063364553755	0.0305587192611016	0.00809983685843665	-0.00153557053900008	0.595947265625	0.296630859375	-0.14404296875	0	0	0	-0.505341557910737	-0.545235743225164	-0.395742913482981	0.539198887782658	0.0922110614754111	0.124292282224262	0.987951693515965	0.977828837415829	0.176034912552702	-0.11341284883368	-0.18801033178947	0.976505575069619	-0.105304211683894	-132.876809391975	-81.0969739802498	53.428691424019
17463	1650606421082	9.52064989609801	-1.02951223998218	-1.0676653090858	0.0713802530216217	-0.0406731848035011	-0.177552207708331	0.0255200907079916	0.0141213813092473	-0.000779131511185201	0.60107421875	0.292236328125	-0.1396484375	0	0	0	-0.505241847883716	-0.545284798937947	-0.395716584824955	0.53926203991077	0.0921457450833544	0.12421153335816	0.98796794312561	0.977791264395075	0.176278119283044	-0.113359022290747	-0.188237628904835	0.976471975861493	-0.105209673611498	-132.864712076404	-81.102991884432	53.4303009573064
17464	1650606421083	9.51326575611411	-1.05173415219538	-1.05847259629909	0.0477763012875521	-0.0381987401702928	-0.183305642506633	0.0185290018847896	0.0173943244199405	0.000849006321191113	0.5947265625	0.296875	-0.135986328125	0	0	0	-0.505159634260668	-0.54527256690689	-0.395707947368645	0.53935775889635	0.0921860963361301	0.124043077601666	0.987985343282689	0.977755684282575	0.176457928605845	-0.113386160025152	-0.188402615415553	0.976460912853782	-0.105016856615201	-132.805473313685	-81.1094403639282	53.3810775757142
17465	1650606421084	9.57239208101111	-1.04839524473115	-1.06591202035244	0.0576235396903008	-0.0390027037296195	-0.124490989220883	0.0151906828362457	0.0246180228097105	0.000979036841545446	0.5966796875	0.3017578125	-0.134033203125	0	0	0	-0.505071968421525	-0.545272519059802	-0.395731987658102	0.539422265592691	0.0921481478046906	0.123870438355331	0.988010543141025	0.97773701975546	0.176597001317948	-0.113330575420846	-0.188518007245664	0.97645768655235	-0.104839626654032	-132.771234943959	-81.1187876382254	53.3541642592717
17466	1650606421085	9.54034027378551	-1.04070637904631	-1.07224492532379	0.064192404368886	-0.0504801035895792	-0.156383628115627	0.0120438701690573	0.0303723902340589	0.00284993002599989	0.598388671875	0.288330078125	-0.143310546875	0	0	0	-0.504987003323941	-0.545207381520798	-0.395768394110865	0.539540930636451	0.0922325787162832	0.123578788218421	0.988039186735937	0.977711778918701	0.176711009393625	-0.113370615781671	-0.188607605326439	0.976474015149176	-0.104525924781718	-132.675569257953	-81.1294241473443	53.2643139124518
17467	1650606421085	9.54062602968934	-1.04113805391434	-1.06927917218058	0.0631195169925099	-0.0497124583634476	-0.156372572975954	0.0088948343343347	0.029515074438337	0.00384924605581669	0.599365234375	0.29443359375	-0.129638671875	0	0	0	-0.504914397141964	-0.545181529011978	-0.395814505972265	0.53960117572598	0.0922159545721872	0.123376060523969	0.988066073403963	0.977703951692099	0.176784656841396	-0.113323289535396	-0.18865630275184	0.976486319819718	-0.104322896034142	-132.631978228712	-81.1394197639889	53.2241650909416
17468	1650606421086	9.50283377439369	-1.02079514164808	-1.04384265605532	0.0756312275671579	-0.0288175270580684	-0.198690865553727	0.0072558664568786	0.0313278211080682	0.00248306922891906	0.602783203125	0.291748046875	-0.13720703125	0	0	0	-0.504839427400968	-0.545105294917854	-0.395867329617509	0.539709576842476	0.0922985495880441	0.123074512011877	0.988095968131123	0.977688067826384	0.17685241976593	-0.113354592552958	-0.188698224087709	0.97651210239094	-0.104005260012035	-132.537046064386	-81.1505468319433	53.1322876625494
17469	1650606421087	9.50314659809005	-1.02095899847353	-1.04083013434692	0.074573841879884	-0.028153708770786	-0.198680638634348	-0.0030168326017681	0.0316183771785221	0.000499978920097061	0.594482421875	0.292724609375	-0.137451171875	0	0	0	-0.504784044353562	-0.545055106975122	-0.395963826369518	0.539741277959366	0.0922551571342977	0.122834199248203	0.988129923379097	0.977706285929659	0.176811433545743	-0.113261358905546	-0.188625036609029	0.97654978186601	-0.103784002147201	-132.499749263231	-81.1632021189897	53.091460398789
17470	1650606421088	9.51491783339317	-1.05350841845643	-1.04172611310149	0.0447122046058286	-0.036129557805583	-0.183282941567736	-0.00553409365672103	0.0293713299631098	0.00473204843909019	0.594970703125	0.296142578125	-0.13720703125	0	0	0	-0.504753594784512	-0.544952906961085	-0.396040568498112	0.539816640953637	0.0923563945967117	0.122555298817715	0.988155096687153	0.977712456289794	0.17675135331161	-0.113301861936564	-0.188543494167458	0.976595698246831	-0.103499724506448	-132.411278671254	-81.1725959522062	52.9987020732738
17471	1650606421089	9.52085432520076	-1.07355594750399	-1.01120147312588	0.0195654764708684	-0.0109206264133743	-0.17831062054297	0.00215348836824092	0.0277203780266739	0.00435700577000189	0.604248046875	0.294189453125	-0.14208984375	0	0	0	-0.504703071993389	-0.544921588243116	-0.396103317146425	0.53984945487852	0.092325249624398	0.122374879489492	0.988180366710311	0.977719518837776	0.17675394253207	-0.113236859206698	-0.188522122748023	0.976617853957883	-0.103329456425927	-132.380678261785	-81.1820358614531	52.9674149007581
17472	1650606421090	9.52865096731607	-1.05193064775345	-1.01618066630014	0.0431532456109218	-0.0133973527664526	-0.172545851044996	0.0055542446006534	0.0235111729273162	0.00224156214827194	0.600341796875	0.2939453125	-0.140625	0	0	0	-0.504647461527974	-0.54486353648636	-0.39614177384216	0.539931811618964	0.0923908432495274	0.122148909916898	0.988202193829661	0.977707092351087	0.176805269181119	-0.113264020572182	-0.188554431531122	0.976636851954659	-0.103090667638102	-132.307841287845	-81.1901977115069	52.8969123033199
17473	1650606421092	9.52125718522254	-1.07433564951874	-1.00656949714154	0.0182070981898094	-0.00980815041226671	-0.178306760942142	0.00738207023846763	0.0202281953018024	0.00535193654927336	0.59814453125	0.289306640625	-0.13720703125	0	0	0	-0.504602956302419	-0.544873409049513	-0.396159244896825	0.539950624857865	0.0923416415870781	0.122076602383402	0.988215727652383	0.977702329684444	0.176867418347274	-0.113208086534405	-0.188603223086496	0.976634639708062	-0.103022350796758	-132.303022706299	-81.1952622057002	52.8952732690078
17474	1650606421092	9.50812834153803	-1.07713249615572	-1.02535963715407	0.0185263759799548	-0.031735753287656	-0.18903260639088	0.0110326268601751	0.0109560705779662	0.00211677716692855	0.595703125	0.294921875	-0.143798828125	0	0	0	-0.504557163932093	-0.544860530254708	-0.396151157693002	0.5400123435199	0.0923825256581047	0.121973537659865	0.988224632896674	0.977679597875543	0.176972657166593	-0.113239933386197	-0.188701014440688	0.9766284527527	-0.102901858209278	-132.261626277881	-81.1985962158446	52.8597811659737
17475	1650606421093	9.52729012777049	-1.08800788916514	-1.03506281234637	0.0111654564956516	-0.0411696402497635	-0.16786732999212	0.011918725276166	0.0177219341365509	0.00597448918407701	0.6025390625	0.300537109375	-0.1298828125	0	0	0	-0.504512351418266	-0.544872355769208	-0.396147468247708	0.540044985705688	0.0923625986388897	0.12191475920951	0.988233748593701	0.977664574518222	0.177068941334688	-0.113219122707769	-0.188788585737526	0.976618339732313	-0.102837193630148	-132.248941686007	-81.2020103150695	52.8524376592846
17476	1650606421094	9.54084742318799	-1.07937896404397	-1.07202508530082	0.0288096783206424	-0.0760052715673469	-0.151659517391396	0.00788831991108539	0.023319287487166	0.00485459613218169	0.60107421875	0.2958984375	-0.1357421875	0	0	0	-0.50445808329327	-0.544813115897836	-0.396171471398955	0.540137830738931	0.0924536679905561	0.121696362073549	0.988252151393133	0.977645158721877	0.177140414899335	-0.113274962092102	-0.188844546923568	0.976632617142882	-0.102598578108457	-132.168649146247	-81.2089067183554	52.7757819664365
17477	1650606421095	9.54108237210255	-1.07993473146965	-1.06937118777398	0.0274414994873276	-0.0753972269109448	-0.151650769819335	0.00165400714235503	0.031232641671595	0.00572428987842729	0.59228515625	0.298583984375	-0.14453125	0	0	0	-0.504394159642737	-0.544770005391149	-0.396247272483361	0.540185405202623	0.0924274805512493	0.12146363124196	0.988283232238849	0.977651605029393	0.177149261535588	-0.11320546948292	-0.188823992178963	0.976659984550874	-0.102375654111151	-132.124138119054	-81.2205663920308	52.7307599538184
17478	1650606421096	9.52813458891703	-1.08278659966535	-1.08675626516137	0.0277618651035893	-0.0973278593134827	-0.162372831315785	-0.000235645807854239	0.0314987158999047	0.00460467924282938	0.59521484375	0.294921875	-0.142822265625	0	0	0	-0.504344808402017	-0.544673034162835	-0.396315059968702	0.54027953259011	0.0925313181957098	0.121164203396577	0.988310270597366	0.977647864829825	0.177141374959874	-0.113250102300222	-0.18879249865037	0.976698607090539	-0.102064799812432	-132.026238990556	-81.2307220767662	52.6315604061495
17479	1650606421097	9.47707562501533	-1.06478230197231	-1.08178349798242	0.0392211133438134	-0.0969500775480435	-0.215393947234519	-0.00647292355369814	0.0328025038550501	0.004601821761588	0.599609375	0.29833984375	-0.133056640625	0	0	0	-0.504318507313392	-0.544632148366742	-0.39639695393332	0.540285221951336	0.0924905557556239	0.121001311725007	0.988334042546771	0.977670976671797	0.177064596187155	-0.113170624062491	-0.188692762101861	0.976732722569438	-0.101922667706762	-132.006536385892	-81.239660538508	52.6065547288702
17480	1650606421097	9.46388060530531	-1.07441680139939	-1.04013393559823	0.0215626337472063	-0.0621006102065752	-0.231614128131516	-0.00339003614811739	0.0240331876841418	0.00472852004767076	0.59912109375	0.294189453125	-0.140625	0	0	0	-0.504292715088038	-0.544549385613612	-0.396453918891413	0.540350917767901	0.0925805136469563	0.120776098489911	0.988353166902611	0.977673054192535	0.177026295409552	-0.11321258693012	-0.188637874242438	0.976767538755831	-0.101690351726056	-131.930968258932	-81.2468580378387	52.5281515680059
17481	1650606421098	9.45812357078098	-1.0620001597065	-1.00731531438719	0.0262652425668892	-0.0285659283706496	-0.242048716734786	0.00428581693978873	0.00255668690759351	0.00174626594239636	0.599365234375	0.300537109375	-0.138916015625	0	0	0	-0.504285904245961	-0.544607815057927	-0.396441663904362	0.540307377034041	0.0924726697971433	0.120875377809454	0.988351126057947	0.977676800094161	0.177059467799149	-0.113128331642982	-0.188671354206808	0.976749245150517	-0.101803890886671	-131.983964339154	-81.2460896809635	52.5831126191579
17482	1650606421099	9.51700039589603	-1.05887935284131	-1.01696218923447	0.0369506504161751	-0.0299562326796593	-0.183228847006232	0.0125304938436245	-0.0101063980719256	0.0057336560210108	0.600830078125	0.302490234375	-0.13427734375	0	0	0	-0.504287460280426	-0.544646380000636	-0.396366534766931	0.540322170813837	0.0925077817381169	0.120985426436443	0.98833437505122	0.977647932449349	0.177175455041547	-0.113196193877422	-0.188803682420145	0.976714587134243	-0.101891043687757	-131.991258525756	-81.239785627272	52.5977768763109
17483	1650606421099	9.53575997380737	-1.07649548246744	-0.969012168544829	0.0109932302020716	0.0174317350067947	-0.167578722634849	0.00674427461712718	0.00178615233847647	-0.000491402387104117	0.592529296875	0.30322265625	-0.139404296875	0	0	0	-0.504251938687261	-0.544731794442684	-0.396362823219755	0.540271937844876	0.0923275689850361	0.121076705643422	0.988340048442766	0.977651548005834	0.177252989398808	-0.113043480267472	-0.188873160314296	0.976689208038935	-0.102005491093216	-132.061712603336	-81.2419202404059	52.672510295241
17484	1650606421100	9.51500811466129	-1.10094105681636	-0.981226818534811	-0.0122914541432268	-0.00202566086135794	-0.18407887502739	0.00624594550586347	0.0119107884968241	0.00174827048719722	0.5908203125	0.295166015625	-0.141845703125	0	0	0	-0.504215763216698	-0.544708691774096	-0.396371433701046	0.540322673756463	0.0923642553030603	0.120964471791227	0.988350363437269	0.977638363223353	0.17731230133916	-0.113064488446964	-0.188923463593789	0.976692348878643	-0.101882189540889	-132.02195228958	-81.2458025793518	52.635907907519
17485	1650606421101	9.51511711722063	-1.10117837063588	-0.979902647590555	-0.0137382030948229	-0.000888044273720384	-0.18408065844725	0.0129904694940535	0.013696358571106	0.00125758884602568	0.603271484375	0.298095703125	-0.135986328125	0	0	0	-0.504157097826049	-0.544760575152515	-0.39637118191966	0.540325293332387	0.092251603806227	0.120951070879392	0.988362524607397	0.977628571436372	0.177431013710456	-0.112962877464057	-0.189029145653412	0.9766724496098	-0.101876927057765	-132.046099929287	-81.2503819740074	52.6665685546639
17486	1650606421101	9.54192835886354	-1.08994773509789	-0.996808180902036	0.00352278646331867	-0.0137676631657806	-0.157129008262951	0.0254706321430631	0.0176915079087634	0.00214247351048024	0.593994140625	0.2998046875	-0.133544921875	0	0	0	-0.504058373398087	-0.5447596134731	-0.396340986767865	0.540440507312125	0.0923015714730261	0.120783841405616	0.988378309939526	0.977578737235271	0.177677956830298	-0.113006000557955	-0.189262337534713	0.976648251578793	-0.101675760528175	-131.97890869331	-81.256329627634	52.6133687298703
17487	1650606421101	9.53067742478687	-1.05795446356397	-0.990601344102645	0.0321899256777588	-0.00511895571861792	-0.172495058529963	0.0195576336685088	0.0301631766418842	0.000766400554362596	0.593505859375	0.29150390625	-0.12744140625	0	0	0	-0.503939198399843	-0.544765658833059	-0.396371220811484	0.540523372838512	0.0922404645371942	0.120561720517903	0.988411133207091	0.977553357194472	0.177870279257075	-0.112922971953574	-0.189423152069065	0.976640688944902	-0.101448677455385	-131.936153205308	-81.2687097652037	52.5807892367654
17488	1650606421102	9.51022691797329	-1.08256100976375	-0.99986419308847	0.00888932362161792	-0.0245769807939847	-0.18899793477188	0.00973669602093728	0.0437513613417177	0.00199632444703622	0.59326171875	0.294921875	-0.135498046875	0	0	0	-0.503830749726059	-0.544663462659282	-0.396450272376319	0.540669464282218	0.0923377879534872	0.120139288719547	0.988453481061106	0.977533514240522	0.17796351432644	-0.112947846837191	-0.189478129219262	0.976675759335996	-0.101007423851043	-131.805748652744	-81.2847081243101	52.4545007692225
17489	1650606421104	9.5237752727082	-1.08060766177421	-0.975556236800252	0.00807607964103103	-0.00230233168695554	-0.178288224509094	0.00890940893091152	0.0360997749993291	0.00473557092304282	0.59912109375	0.290283203125	-0.134033203125	0	0	0	-0.503756618241386	-0.54458335415533	-0.396516345682091	0.540770771734062	0.0924075159677012	0.119826037160331	0.988484988156689	0.97752383819903	0.178008114369846	-0.112961307407136	-0.189494054643719	0.976706113443007	-0.100683520090134	-131.710931345524	-81.2966299453382	52.361287297101
17490	1650606421104	9.51845168298505	-1.06143578714948	-1.00058285317374	0.031950394647367	-0.0267015965779493	-0.183201383223636	0.00385926509516999	0.0222986186571287	0.00286417008570139	0.5966796875	0.288818359375	-0.1396484375	0	0	0	-0.503708851232387	-0.544525072208332	-0.396555292022089	0.540845393154028	0.0924726922115735	0.119613991536588	0.988504574710622	0.977514402820578	0.178042587118849	-0.112988625314041	-0.189510932332341	0.976725821405737	-0.10046032214668	-131.640900341495	-81.3040493838474	52.2926556873218
17491	1650606421105	9.53177309681672	-1.05930688066506	-0.978540089451611	0.0313775112047915	-0.00368891048410022	-0.172491726711483	0.00120490510899583	0.011322240354822	0.00161751664741516	0.60302734375	0.293212890625	-0.131103515625	0	0	0	-0.503717143437904	-0.54451766678873	-0.396555563403044	0.540844927031594	0.0924883913781043	0.1196156378272	0.988502906747109	0.977515896837967	0.178025449081706	-0.113002703101841	-0.18949556429995	0.976728743647104	-0.100460900076569	-131.637519392547	-81.3034173101796	52.2883307425005
17492	1650606421107	9.53780211421776	-1.07228871374649	-1.00873871311084	0.0253832177412778	-0.0360406732181892	-0.162035435975762	0.000955752152712523	0.0163835286422619	0.00273603572871481	0.60107421875	0.286865234375	-0.14208984375	0	0	0	-0.503688836020206	-0.544469836070837	-0.396587414320045	0.540896086952519	0.0925420408238734	0.119461594876605	0.988516513787044	0.977511917037924	0.178031958543104	-0.113026871964813	-0.189489901390539	0.976746409815181	-0.100299691844788	-131.585749318754	-81.308575020693	52.2365117555538
17493	1650606421108	9.57052362756726	-1.07377072617421	-1.05767701213712	0.03646908575068	-0.080195936377822	-0.124610911807437	0.00548551787607904	0.0072706091224104	0.00249827113215227	0.596435546875	0.298828125	-0.135009765625	0	0	0	-0.503692336478282	-0.544483868416896	-0.396559676347844	0.540899038917352	0.0925554802573314	0.119507208095429	0.988509742130835	0.977502199335129	0.178068906535884	-0.113052708150224	-0.189533462399968	0.976734094694329	-0.100337305586356	-131.589913226011	-81.3060078637769	52.2430727712187
17494	1650606421109	9.52478209830655	-1.07532771831326	-1.02702401028995	0.025436978203842	-0.0568745820913478	-0.17273403505831	0.0100245035702244	0.0113713017560966	0.00400007753791341	0.604736328125	0.286865234375	-0.140380859375	0	0	0	-0.503653164556984	-0.544464143989774	-0.396550327690392	0.540962219891427	0.0926132670362501	0.119404687084383	0.988516718862737	0.977479669348653	0.178162654880755	-0.113099798478549	-0.189621409073237	0.976729537337804	-0.100215428517563	-131.543499225334	-81.3086527772944	52.2019480564339
17495	1650606421110	9.55160053640734	-1.06430348925525	-1.04407675555883	0.0420874051623585	-0.0685646016078976	-0.145762399509131	0.00857975604841986	0.0183240850564555	0.00523987492281395	0.599609375	0.286376953125	-0.133544921875	0	0	0	-0.503625180935906	-0.54446392006372	-0.396538682044799	0.540997033742604	0.0926322267820425	0.119358979009452	0.988520462454481	0.977463982011203	0.178237501538899	-0.113117447442792	-0.189693000482891	0.97672146857484	-0.100158566247755	-131.522921300892	-81.3100723207323	52.185643295254
17496	1650606421110	9.51740186521143	-1.09848227075512	-1.01603543435224	0.00118381776002834	-0.0531974254378092	-0.178524307668916	0.00662721605611323	0.0221860503590681	0.00697692531598028	0.601318359375	0.289306640625	-0.13427734375	0	0	0	-0.503581993463785	-0.544400741942101	-0.396557423771222	0.541087070335137	0.0927400836496426	0.119156632444694	0.988534761062603	0.977445011036774	0.178294771021944	-0.113191099586292	-0.189738049120303	0.976735722481098	-0.0999339839361394	-131.440590840848	-81.3154963707588	52.1062351777437
17497	1650606421111	9.50950666035868	-1.12790939058052	-0.94714929019168	-0.0402387900064375	0.00695382885081489	-0.189885250881051	0.00858035018712758	0.0183226363257652	0.00524120259850734	0.599609375	0.295166015625	-0.1298828125	0	0	0	-0.503572690874551	-0.544363096829326	-0.396543282220906	0.54114396341567	0.0928444882717122	0.119078772152535	0.988534342863316	0.977426785780055	0.178335940661669	-0.113283585342221	-0.189780872158483	0.976737701888773	-0.099833272368501	-131.388716465017	-81.315337682851	52.0568257126798
17498	1650606421112	9.54190812603969	-1.13621861212445	-0.936004681570348	-0.0468742132198307	0.0184971120387879	-0.158021723834063	0.00827676967538619	0.0176591657457021	-0.00110457296551213	0.599609375	0.2998046875	-0.1318359375	0	0	0	-0.503512325274525	-0.544335295487446	-0.396567615984676	0.541210264440233	0.0928664240776516	0.118906132088761	0.988553063335864	0.977411989350757	0.178418928497743	-0.113280576565944	-0.189846333523787	0.976743578277025	-0.0996511512335282	-131.33758346163	-81.3224440849185	52.0099435963152
17499	1650606421112	9.54799369774869	-1.14918201297983	-0.965899038390334	-0.0537654026816214	-0.013667259716417	-0.147560037462279	0.0134329926261957	0.0137655900122851	0.0027674274403053	0.594482421875	0.2939453125	-0.144287109375	0	0	0	-0.503445660291934	-0.54434446328527	-0.396581195326674	0.541253108939945	0.092824921607875	0.118794105654459	0.988570429656001	0.977397325325187	0.17853164529297	-0.113229501792407	-0.189942102693593	0.976736613468925	-0.0995368551522206	-131.31778968856	-81.3290416102617	51.9961683358272
17500	1650606421113	9.54982832351492	-1.11489492384767	-0.939768822770164	-0.0242345180705476	0.0162315431480237	-0.152225378338064	0.0163439719544979	0.0262831636374919	0.0037665075657462	0.600830078125	0.2939453125	-0.138916015625	0	0	0	-0.503359383294558	-0.544296830133262	-0.396592727844542	0.54137279223935	0.0929103378554157	0.118544808580082	0.988592331286413	0.977362858400164	0.178687078940295	-0.113281820428728	-0.190077647658672	0.97673847890748	-0.0992594160875893	-131.225382202797	-81.337369225335	51.9121734620877
17501	1650606421114	9.53904747595465	-1.07625145748379	-0.992614114009502	0.0228815605836336	-0.0310099687036186	-0.162011704245744	0.0235999428989723	0.0311529078035237	0.00279055156817538	0.599609375	0.290771484375	-0.135498046875	0	0	0	-0.503258874391264	-0.544316597946375	-0.396561846251761	0.541468972928198	0.0929162865949585	0.118412445605049	0.988607635217954	0.977316187974851	0.178938414887666	-0.113287741613094	-0.190314561733224	0.976708521721461	-0.0991001069069556	-131.178285644506	-81.34319292823	51.8793097892469
17502	1650606421114	9.5070911419877	-1.06880498521284	-0.99858155280827	0.0295003282175225	-0.0425207147913997	-0.193871852474139	0.0201975116646115	0.0353606206516334	0.00489520675412001	0.603515625	0.293701171875	-0.13525390625	0	0	0	-0.50314729602813	-0.544249820219296	-0.396582043382316	0.541624975935888	0.0930296321159399	0.118078171407165	0.988636957121022	0.977273130221375	0.179130962732576	-0.113354872580832	-0.19048022599653	0.97671369583294	-0.0987301366183105	-131.055302156448	-81.3543618541769	51.766670149636
17503	1650606421115	9.49590065591717	-1.03701992732423	-0.991713871429845	0.0591997128215261	-0.0336998123970401	-0.209229914226581	0.0154048242429006	0.0297148513061691	0.00364051425051616	0.59326171875	0.295166015625	-0.1416015625	0	0	0	-0.503075911346869	-0.544215245120666	-0.396583230034986	0.541725148073992	0.0931030172665407	0.117884942787148	0.988653108243704	0.977241378844607	0.17927273815507	-0.11340446564521	-0.190607228744762	0.976711024622152	-0.0985112111984585	-130.979911024379	-81.3605200542795	51.6990722801514
17504	1650606421116	9.522352819629	-1.03277830725305	-0.94830444283093	0.0585113773177271	0.0102139584655034	-0.187845166702226	0.0167776319221047	0.0197515895318574	0.00439884198401799	0.6025390625	0.29052734375	-0.140869140625	0	0	0	-0.503003320144344	-0.54418503894618	-0.396574556788017	0.541829238985218	0.0931825285910659	0.117702382114912	0.988667368536987	0.977205143336317	0.17943256166431	-0.113463931060193	-0.190754093540411	0.976703693583197	-0.0982993933781761	-130.903996339236	-81.3659609305983	51.6320729139923
17505	1650606421116	9.53559725178593	-1.03101583178657	-0.925923876631953	0.0574904820624183	0.0337538432535069	-0.17715422519235	0.0119179717806171	0.0177033238972038	0.00600167988971659	0.5859375	0.290283203125	-0.135986328125	0	0	0	-0.502969792854629	-0.54421046139976	-0.396529201371128	0.541868022343825	0.0931991323260724	0.117709857782019	0.988664913463912	0.977175834376217	0.179571959871495	-0.113495814632323	-0.190896072366121	0.976677173178962	-0.0982872776423343	-130.892534685664	-81.3650239788757	51.6288757921919
17506	1650606421117	9.56085847025877	-1.05481869516097	-0.966359175393402	0.045226354652978	-0.00896868153976437	-0.145506755911168	0.0139507802725363	0.0234533086282317	0.00314349057824123	0.604248046875	0.291015625	-0.130859375	0	0	0	-0.50289422287946	-0.544168404742095	-0.396540223659044	0.541972322997534	0.0932731966017592	0.117490641679755	0.988684004074795	0.97714594639357	0.179706503229799	-0.113540178542811	-0.191012853604947	0.976678822241272	-0.0980437042501846	-130.811117201909	-81.3723123615282	51.5547240071064
17507	1650606421118	9.53487199680651	-1.06005853616817	-1.00444988768532	0.0456525761010263	-0.0524333295272593	-0.16688032664341	0.00652438691194803	0.0332581479849859	0.00410499358568083	0.6005859375	0.30078125	-0.13037109375	0	0	0	-0.502838465741207	-0.544087809338721	-0.39659912455689	0.542061866857215	0.0933551802594002	0.117214034850263	0.988709097941784	0.977139082255244	0.179725223543475	-0.113569617202967	-0.191007916715814	0.976708612666219	-0.0977561337999579	-130.720538672148	-81.3819019626038	51.4644124942055
17508	1650606421118	9.52043582395455	-1.09753755127603	-1.04569027155675	0.0164423803310934	-0.104234953561696	-0.17289385014085	0.00565174749175108	0.0330967924531292	0.00111664630735825	0.605224609375	0.291015625	-0.145751953125	0	0	0	-0.502760768821959	-0.54400815775822	-0.396662411043403	0.542167562005784	0.0934281119154858	0.116896934610405	0.98873975068397	0.977126903949356	0.179781081997575	-0.1135859856414	-0.191034555728157	0.97673633557602	-0.097426532747879	-130.620805550871	-81.3936302715817	51.366930982745
17509	1650606421119	9.50770605439888	-1.09995385429409	-1.0627863010271	0.0158527719157938	-0.12499048793948	-0.183564211715307	0.00238911666581194	0.0367185380156958	-0.00163541799741056	0.59716796875	0.29150390625	-0.130126953125	0	0	0	-0.502675188608818	-0.543983577507521	-0.396727235532371	0.542224144377628	0.0933787359779223	0.116663923171703	0.988771935633973	0.977124266523069	0.179850310687863	-0.113499046327421	-0.191072183844013	0.976751449845695	-0.0972009556815845	-130.576858015445	-81.4059619275532	51.3259409416531
17510	1650606421120	9.47362367787759	-1.13337644119277	-1.03353869726097	-0.0250287171894037	-0.109623632901504	-0.216352362415135	0.00351089378685039	0.0318169336475033	0.000240629973275332	0.6015625	0.28662109375	-0.12744140625	0	0	0	-0.502603437308952	-0.543905657820621	-0.396795243045236	0.542319053042226	0.093440340974779	0.116358465464957	0.988802108711929	0.977116947304766	0.179886639803797	-0.113504484977092	-0.191079496462423	0.976781195731541	-0.0968871596081121	-130.483992910053	-81.4175387060757	51.2341905563228
17511	1650606421121	9.47714435986965	-1.06381593910647	-0.982837425935115	0.0344427115205462	-0.0497261648265621	-0.22570245888814	-0.00153748369584322	0.0246302832897679	-0.000770827465655429	0.59912109375	0.301025390625	-0.13818359375	0	0	0	-0.502588467955202	-0.543809404397906	-0.396870321568567	0.542374512145343	0.0935305590929131	0.116119976740515	0.988821614608798	0.977129364923384	0.17979755947301	-0.113538723843341	-0.190971827032659	0.976825976624973	-0.0966476728663259	-130.405456140302	-81.4250309659467	51.1497777532359
17512	1650606421122	9.46968307888846	-1.08558905270917	-0.973593689063078	0.0108596117089883	-0.0472314768523989	-0.23151118148118	-0.00274504606364304	0.0133142799647366	-0.00238560673047122	0.595947265625	0.294921875	-0.137451171875	0	0	0	-0.502563398657228	-0.543775046469054	-0.396916115366337	0.542398678584463	0.0935325924001502	0.1159893179498	0.988836757144701	0.977136423884118	0.179775255385185	-0.113513288517901	-0.190934709463377	0.976845604828487	-0.0965225416646504	-130.375156302134	-81.430851731594	51.1176527368929
17513	1650606421124	9.49659141823367	-1.07396810630693	-0.991151964925273	0.0265930583038822	-0.0587872695169168	-0.204520257169179	0.0029072716017912	0.00590858985666463	0.000133788925362513	0.590576171875	0.288818359375	-0.135498046875	0	0	0	-0.502531792923689	-0.543851714869267	-0.396909649112171	0.542355823953531	0.0933760853508225	0.116073035157075	0.988841725047027	0.977138074274428	0.179849055085113	-0.11338210259232	-0.191002854658822	0.976822075863571	-0.0966257813306798	-130.438090871211	-81.4327622401205	51.1847223608996
17514	1650606421127	9.47145456922047	-1.05053270667886	-0.948267959502019	0.0388379505562499	-0.0159931381085852	-0.236178678495792	0.00399110623338029	0.00188604345940019	-0.00458681527153738	0.58935546875	0.28662109375	-0.133544921875	0	0	0	-0.502504900837472	-0.543868058133834	-0.396914400776669	0.542360874724711	0.0933329875956621	0.116051046050284	0.988848374695081	0.977134412434558	0.17989556618084	-0.113339866351809	-0.191042648282102	0.976816123934853	-0.0966072800478895	-130.44321315188	-81.4353201604076	51.1923389897484
17515	1650606421128	9.5097192735998	-1.071202328146	-0.970595208537175	0.0261785026387272	-0.0357470591542612	-0.193834679865397	-0.00486821912595532	-0.00864930932789058	0.000730168531139397	0.6123046875	0.30224609375	-0.1318359375	0	0	0	-0.502576816958706	-0.543893196486515	-0.396886269170303	0.542289611937583	0.0933229603195184	0.11624162112794	0.988826936624782	0.977150824694815	0.179795664799467	-0.113356890913438	-0.190963585207874	0.976811857236012	-0.096806532257327	-130.497253006744	-81.427076292999	51.2412482952131
17516	1650606421129	9.51023499098253	-1.06465581851328	-1.03104496524381	0.0441344198597137	-0.0924561172509657	-0.188207157335743	-0.00160632925249229	-0.0122722469721891	0.00348505438134413	0.59423828125	0.30029296875	-0.136474609375	0	0	0	-0.502615276526494	-0.543916780007184	-0.396848341043819	0.542258069962617	0.0933318612747725	0.116373334616846	0.988810604039593	0.977150196545997	0.179778556025932	-0.113389435942474	-0.190962449348316	0.976799323189461	-0.0969351595423731	-130.526703494484	-81.4208009827188	51.270253075186
17517	1650606421129	9.52256156533952	-1.06904677740946	-0.9522049738334	0.0240812923957742	-0.0131003693761206	-0.183150379875309	-0.002402878246511	-0.00942413810519048	-0.00149750293155138	0.59033203125	0.29052734375	-0.135498046875	0	0	0	-0.502604391484784	-0.544016666142541	-0.396849406318844	0.542167171012545	0.093112831327071	0.116532891004514	0.988812462480316	0.977167770772097	0.179798748729183	-0.113205820167124	-0.190979444984395	0.976776584112022	-0.0971306147612699	-130.629599651777	-81.4215148035928	51.3742295506854
17518	1650606421130	9.54324475989186	-1.04476856080662	-0.939762220118708	0.0472878981027349	0.00644239838608895	-0.16665515882838	-0.00732714366621174	-0.00127162713796512	0.00382564138746063	0.592529296875	0.290771484375	-0.131591796875	0	0	0	-0.502637079967439	-0.543998510046885	-0.396854407009354	0.542151424000556	0.0931444014080472	0.116557281431172	0.98880661437498	0.977178008955242	0.179725090958122	-0.113234405082399	-0.190911653129416	0.976787229556913	-0.0971568261828479	-130.630090892266	-81.4192687649427	51.3706050304942
17519	1650606421130	9.49632114355215	-1.07418669006218	-0.993501875852176	0.0242785425771691	-0.0561996149155974	-0.204498645919642	-0.0118527919908144	0.00783782918677617	0.00404875704848846	0.59765625	0.283935546875	-0.135009765625	0	0	0	-0.50268717668833	-0.543962721815127	-0.396896573859191	0.542110015889238	0.0931553338686288	0.116562953783511	0.9888049158338	0.977209385628272	0.179557424103903	-0.113229625492565	-0.190745643231607	0.976817387874742	-0.0971796806628109	-130.637946154329	-81.4186165281099	51.368685379448
17520	1650606421131	9.47719265135033	-1.06397499488908	-0.982199157062617	0.0305537520503728	-0.0457552127824001	-0.225669501732982	-0.010408616820151	0.000886956125350648	0.00281505783335704	0.60693359375	0.288818359375	-0.130859375	0	0	0	-0.502721156691773	-0.543935340525603	-0.396918047327187	0.542090257842507	0.0931808180665389	0.116564793873251	0.988802297718679	0.977226420345008	0.179455004640918	-0.113244976440511	-0.190645898262024	0.976835989375195	-0.0971884321164351	-130.636657361338	-81.4176112728566	51.3614830847682
17521	1650606421131	9.46244496400019	-1.10120944421203	-1.02709842945612	0.00249057389104847	-0.0967139393344078	-0.231659323118809	-0.014006979135704	-0.00664576761475612	0.00143442074362347	0.59912109375	0.293701171875	-0.143798828125	0	0	0	-0.502833707106925	-0.54389967816217	-0.396888215692078	0.542043492108294	0.0933057686796932	0.116720834108367	0.9887721074222	0.977243531749822	0.179276014483733	-0.113380731537435	-0.1904970162082	0.976850222662551	-0.0973371938156092	-130.646042345889	-81.4060277952905	51.3614191450498
17522	1650606421132	9.47546323385168	-1.09869009588863	-1.00737398563514	0.00213994257380758	-0.0747091564501333	-0.220985756636585	-0.00838557564174597	-0.00657042044224371	-0.00177587891214959	0.600830078125	0.289794921875	-0.1328125	0	0	0	-0.502865047990173	-0.543907331711206	-0.396897178682831	0.542000173038946	0.0932748881288116	0.116787293876797	0.988767173420261	0.977260651975851	0.179198746126901	-0.113355315209655	-0.190424298198237	0.976856456893991	-0.0974168839587245	-130.675567535988	-81.4041361797246	51.3865735196229
17523	1650606421134	9.49612144151198	-1.07413522315005	-0.995464478266582	0.0250959921702582	-0.0534779203395244	-0.204485212202494	-0.00676098515714372	-0.0149858264070232	-0.00126730605441236	0.60009765625	0.292236328125	-0.13720703125	0	0	0	-0.502933616985851	-0.543999678284557	-0.396819933760478	0.541900421758609	0.0931965803932578	0.117117672743532	0.988735479354383	0.977265230611635	0.179183434151718	-0.113340045717233	-0.190439141041412	0.976819710927629	-0.0977557461363447	-130.777757243629	-81.3919950304975	51.4889221876609
17524	1650606421135	9.54028790653438	-1.10754811217703	-1.05055904401357	0.00652548857292886	-0.106536915243836	-0.151629576493654	-0.00890236664268036	-0.0162627615758809	-0.00214663936746332	0.601318359375	0.290771484375	-0.131103515625	0	0	0	-0.502984786634462	-0.544033872513594	-0.396806211398228	0.541828645023436	0.0931439523072958	0.11727957885877	0.98872124713252	0.977283466293909	0.17910227002014	-0.113311091170254	-0.190371296831053	0.976815170467956	-0.097933100055704	-130.836370791255	-81.3865485728219	51.5432442163963
17525	1650606421135	9.55388084243098	-1.09820001689858	-1.09068471974946	0.0241675449183823	-0.140385305905295	-0.135291873497355	-0.00794943955353114	-0.00649163301075583	-0.000279648608365194	0.601806640625	0.285400390625	-0.133056640625	0	0	0	-0.503045287633793	-0.544055505509057	-0.396784540088091	0.541766623429131	0.093131271344734	0.117439875490293	0.988703414549853	0.977298357539915	0.179014934673033	-0.113320666754982	-0.190301042160828	0.976811920898201	-0.0981019089705617	-130.88279911373	-81.3797291315608	51.5851490035152
17526	1650606421135	9.58068199155719	-1.0865021854879	-1.10924222043938	0.0414522708808218	-0.15316105225577	-0.108296804151502	-0.0102591173412627	0.0069036490293683	-0.00116471922089115	0.59912109375	0.290771484375	-0.139892578125	0	0	0	-0.503057001653859	-0.54402158241854	-0.396829874624894	0.5417566073017	0.0931331369360375	0.117377319067434	0.988710667370892	0.9773181452784	0.178919407384439	-0.113300876301949	-0.190198479788987	0.976836941679492	-0.0980516581002855	-130.873224517971	-81.3825020705701	51.5697268763209
17527	1650606421135	9.53650616486277	-1.05262768970627	-1.05482761854737	0.0606749344646433	-0.0983973505595745	-0.16114486463891	-0.0135893678812901	0.0141215091553404	-0.00105596306275887	0.59814453125	0.290283203125	-0.136962890625	0	0	0	-0.503115780472244	-0.543981032605474	-0.396833871249262	0.541739814149386	0.0932150295896119	0.117409468245288	0.98869913271175	0.977332298880314	0.178794780138258	-0.11337550070731	-0.190085601306172	0.976855896927316	-0.0980817047894265	-130.863244250025	-81.3780924908293	51.5528457560519
17528	1650606421135	9.51527622398955	-1.08343111191101	-1.00748475059147	0.0194873957638152	-0.0610769282870224	-0.183293823717667	-0.0118899346583275	0.00871510365280023	-0.00254051732738583	0.6064453125	0.299072265625	-0.134033203125	0	0	0	-0.503125012404413	-0.54394229097595	-0.396891045821335	0.54172825634975	0.0932085636693635	0.117327755361878	0.988709442394699	0.977356132216361	0.178685439279811	-0.113342421927783	-0.18996619298646	0.976885720855374	-0.0980159880382117	-130.852515884529	-81.3820336686885	51.5353546258597
17529	1650606421137	9.53545600500091	-1.06563343840728	-0.934812387008363	0.0241373501734293	0.016418597472119	-0.172484155589391	-0.00863396374846801	-0.00151231147251634	-0.000658673226412445	0.600341796875	0.284912109375	-0.131591796875	0	0	0	-0.503158332007047	-0.543985892593392	-0.396880367201315	0.541661347819288	0.0931306455790409	0.117472559462755	0.988699590688345	0.977371577947867	0.178635334124072	-0.113288198953282	-0.189924936418914	0.976877482172484	-0.0981779168174851	-130.912884526193	-81.3782675278295	51.5930982040373
17530	1650606421138	9.52933500703819	-1.0527353001844	-0.904224173231808	0.0301151377345454	0.0488359309085785	-0.183003744830129	-0.0128166482444475	-0.0151434254398289	0.000444963746079725	0.593505859375	0.2978515625	-0.136474609375	0	0	0	-0.503225546154776	-0.544002524310201	-0.396871855941531	0.541588435255851	0.0931079670113071	0.117629519898236	0.988683064752063	0.977394349724074	0.178513559317505	-0.113283689325737	-0.189818838913517	0.976880855165207	-0.0983493935172862	-130.96350433758	-81.3719536054875	51.6371269369469
17531	1650606421140	9.54728328800024	-1.09097108200815	-1.00061488270559	0.0119671736423469	-0.0472359838148174	-0.151440477577582	-0.0128225680341023	-0.0217473430893457	-0.000425229422071295	0.605712890625	0.291259765625	-0.135498046875	0	0	0	-0.503326530189956	-0.54406146072771	-0.396836803781274	0.541461062425021	0.0930353562309862	0.117937779706798	0.988653176098071	0.977424489245831	0.178365910343203	-0.113256213295195	-0.189699210102466	0.976870657838217	-0.0986809380844608	-131.065867062753	-81.3605459354021	51.7318158467971
17532	1650606421141	9.56014835359838	-1.08836076640876	-0.982621330078052	0.011643029281173	-0.0251955734025235	-0.140782721873233	-0.00967267596429476	-0.0275009168996372	-0.0022781690992298	0.59130859375	0.295166015625	-0.1396484375	0	0	0	-0.503402384730011	-0.544124647291467	-0.396795862450826	0.541357045580806	0.0929628235036823	0.118210818483667	0.988627389788309	0.977443761663936	0.178278165180086	-0.113228038066004	-0.18963545615332	0.976853672877081	-0.0989711854838517	-131.156292687887	-81.3507160144803	51.8179397370418
17533	1650606421142	9.56048481411455	-1.08146814536133	-1.0444577525946	0.0289755026769749	-0.0803708195822629	-0.135082503352336	-0.00400642903787182	-0.0217019805791973	0.0019752160642586	0.59423828125	0.291259765625	-0.127197265625	0	0	0	-0.50347280497375	-0.544239532332751	-0.396699473682895	0.541246703156525	0.0928657180518858	0.118595043292752	0.988590498698576	0.977444172391935	0.178289324463157	-0.113206919574366	-0.189680911711626	0.976805063709675	-0.0993630678038131	-131.273812151816	-81.3366721194306	51.9373191654745
17534	1650606421142	9.56198236723312	-1.04677407504457	-1.02161876512046	0.058535038414976	-0.0503898789861894	-0.139787995290595	-0.0132394908651587	-0.00201727423618961	0.000696723899984701	0.597412109375	0.296142578125	-0.1416015625	0	0	0	-0.50351588639411	-0.544219632844898	-0.396723917177183	0.541208718439116	0.0928702495315126	0.118625576070734	0.988586409705212	0.97746734722917	0.17816377137669	-0.113204486084271	-0.18955923046036	0.976824264272096	-0.0994065132501635	-131.286840621484	-81.3351168904362	51.9431213338553
17535	1650606421143	9.55982434586771	-1.08825732507213	-0.985882508175346	0.0101174308429022	-0.0227111457967284	-0.140774852769711	-0.00401580032547901	0.0121986830304723	-0.000262874193449377	0.6064453125	0.288818359375	-0.139404296875	0	0	0	-0.503507446396342	-0.544220429792274	-0.396767970793345	0.541183474038776	0.0927986022984873	0.11858954012034	0.988597461247749	0.977486615405372	0.178110857551933	-0.113121346904405	-0.189494950103687	0.976838289276256	-0.099391249559706	-131.303349622461	-81.3393209293113	51.9561345692493
17536	1650606421143	9.49656194453034	-1.04429106577169	-0.919853425348708	0.0350084566773953	0.0408345682152165	-0.214850645626859	-0.0100652017665733	0.0186440602447324	0.00232816699987621	0.60205078125	0.297119140625	-0.134033203125	0	0	0	-0.503505247755515	-0.544147033594828	-0.396831533891107	0.541212716981261	0.0928574790791621	0.118421228649091	0.988612108556386	0.977502319213279	0.178014398384578	-0.113137482296709	-0.189385069400215	0.976876290311632	-0.0992270573747863	-131.252332487024	-81.34489593075	51.8989888048288
17537	1650606421143	9.48356687958782	-1.04672839740597	-0.939172826245869	0.0354106515262453	0.0201827886519408	-0.225505012399884	-0.0156234120242649	0.00836799127284224	0.00180740493055704	0.6064453125	0.294189453125	-0.1337890625	0	0	0	-0.503555026623052	-0.544132153924038	-0.396832189691036	0.541180882380061	0.0928888245820083	0.118484973363742	0.988601526073456	0.977516951658969	0.17791309677535	-0.113170399023605	-0.189294150694441	0.976887015515509	-0.0992949315427115	-131.263492149589	-81.3408677103166	51.9045705562294
17538	1650606421144	9.51635196788315	-1.04787821556625	-0.989510778043835	0.046757932323439	-0.0248737287333094	-0.18796243337203	-0.0202479958068441	-0.0119469052408225	0.000540053325155204	0.601806640625	0.297119140625	-0.138427734375	0	0	0	-0.503636436473785	-0.544125782411843	-0.396850799162041	0.54109788021682	0.092873152238297	0.118612887716958	0.988587659472222	0.977553392472685	0.177719566120874	-0.113159713162214	-0.189113570265246	0.976906719541458	-0.099445054458626	-131.30909116632	-81.3355922039225	51.9392772261813
17539	1650606421144	9.52062812910533	-1.09511576266858	-1.04647785023295	0.010672638059131	-0.086071366647459	-0.172706446908048	-0.0192338016123673	-0.0123725775350161	-0.00132209620607871	0.598388671875	0.2939453125	-0.12939453125	0	0	0	-0.503705141720883	-0.544181967691788	-0.39684142903339	0.540984284841784	0.0927657324836612	0.118844556953843	0.988569921735036	0.977584463678722	0.177596020813364	-0.11308523230398	-0.18900564872711	0.976901031156025	-0.0997057675139223	-131.402201944102	-81.3288485786072	52.0256983963808
17540	1650606421145	9.50910674711682	-1.06256109348354	-1.04353628754854	0.0405852954148425	-0.0780473519285105	-0.188063907793563	-0.0170793124906142	0.00210977280593987	0.00130578881524201	0.599853515625	0.292236328125	-0.13916015625	0	0	0	-0.503752170069694	-0.544142018249022	-0.396884653384165	0.540948968974049	0.092784071768025	0.118836756938521	0.988569138313796	0.97761413313767	0.177432646116411	-0.113085201426235	-0.188843116675271	0.976931666644328	-0.0997135697480885	-131.404433744729	-81.3285508534451	52.0183806138095
17541	1650606421146	9.48452531240103	-1.03243567220127	-1.06058893261705	0.0704421760538858	-0.0913312363059602	-0.214057814480121	-0.0168304962834059	-0.00294914361421357	0.000184497413948863	0.6064453125	0.291748046875	-0.138427734375	0	0	0	-0.503816893959803	-0.544143122335106	-0.396910827352133	0.54086837114657	0.0927401150920942	0.118943970168154	0.98856036892713	0.977650020889696	0.177260664982683	-0.113044651816326	-0.18867884806486	0.976949839352325	-0.0998464004478039	-131.452469388792	-81.3252188976709	52.0566068576923
17542	1650606421146	9.48390197432813	-1.03908670651527	-1.00184111523149	0.0524770422533468	-0.0344902830631211	-0.219781651201382	-0.0242685504148213	-0.00635450377486044	-0.000591251891948492	0.59619140625	0.294677734375	-0.13330078125	0	0	0	-0.503894999571437	-0.544116554994581	-0.39695740526962	0.540788149268584	0.0927239859648787	0.119015501423178	0.988553272640264	0.977694943560048	0.177029295617023	-0.113018696818076	-0.188453866407407	0.976983080157651	-0.0999459920245394	-131.487341780683	-81.3225235707519	52.0781406158841
17543	1650606421147	9.51002152911783	-1.03398234241897	-0.96221124429419	0.0515064424615168	0.0105901575426511	-0.198493994843369	-0.0300075515430626	-0.0151652436565383	-0.00285737858767851	0.5947265625	0.2919921875	-0.130615234375	0	0	0	-0.504012246645557	-0.544148136721053	-0.396969723934471	0.540638047878333	0.0926356871647935	0.119280776564076	0.988529577607963	0.977748523023009	0.176773387021377	-0.112955723039228	-0.188219167966047	0.97699706549368	-0.10025107893139	-131.589870729822	-81.3135296849171	52.1664166425902
17544	1650606421148	9.52845835970987	-1.05082916861089	-0.915608014695192	0.0272338390849825	0.0570697146574935	-0.183040442089812	-0.0324704340013676	-0.0143970355899116	-0.000624461105200437	0.596435546875	0.298828125	-0.134521484375	0	0	0	-0.504128478566964	-0.544127160957283	-0.397018145499369	0.540515218981452	0.0926044497056168	0.11943129589231	0.988514330425312	0.977808695309116	0.176462138484	-0.112921517256622	-0.187921715809014	0.977034942693012	-0.10043978038735	-131.651985617457	-81.3077472189694	52.2107722397523
17545	1650606421148	9.5343083957078	-1.06321179001566	-0.949165218300183	0.0199642514653156	0.0249388977735097	-0.172492886630378	-0.0320393322861263	-0.0209245886514175	-5.95340579913986E-06	0.5966796875	0.293212890625	-0.135009765625	0	0	0	-0.504244434266296	-0.544152568039263	-0.397091536013017	0.540327535143787	0.092432589446195	0.119652825890273	0.988503625519271	0.977890789411769	0.176111725076571	-0.112757546417884	-0.187578837803997	0.97707106269044	-0.100728933584525	-131.775154881078	-81.3036896828242	52.3136794284027
17546	1650606421149	9.5515767686676	-1.1078995109676	-0.986811743749403	-0.0158654326702318	-0.0152232432182021	-0.146593346988507	-0.0327301042175585	-0.0225489553259108	-0.00125278334795444	0.60107421875	0.29736328125	-0.140869140625	0	0	0	-0.504375496856119	-0.544154800171474	-0.397122361200484	0.540180286437814	0.0923787673697912	0.119881353757981	0.988480968132615	0.977952037054536	0.175798376811391	-0.11271532252256	-0.187285815159938	0.977099478933253	-0.100998176757027	-131.861819483711	-81.2951079257085	52.3826943426046
17547	1650606421150	9.54969081200199	-1.14219657367049	-1.0136179709202	-0.0464412306453084	-0.0436546253501285	-0.141877373322503	-0.0205113397235992	-0.0267080400501823	-0.000969309757696635	0.59912109375	0.296875	-0.135009765625	0	0	0	-0.504472164431726	-0.544275132415344	-0.397070787811995	0.540006671268226	0.0921987394012421	0.12030155942345	0.988446724539622	0.977985056960282	0.175685249559861	-0.11260515729523	-0.18720208549911	0.977068179753785	-0.101455168904342	-132.018268354025	-81.282153662637	52.5335572178663
17548	1650606421151	9.54516360607617	-1.0947923517543	-0.95983885105065	-0.0109554961621559	0.0186822724703474	-0.157142839250698	-0.0140734221332115	-0.00967319952673195	0.00342886201239364	0.595458984375	0.2998046875	-0.13134765625	0	0	0	-0.504539934490239	-0.544268421730742	-0.397070386628847	0.539950412235912	0.0922139863382899	0.120413669796431	0.988431651076471	0.978006945584106	0.175549125134007	-0.112627345941972	-0.187080183645542	0.977078836527965	-0.101577320777374	-132.046940656817	-81.2764574608043	52.5547483244057
17549	1650606421152	9.55878884454481	-1.08534973531204	-0.999040322151826	0.00489156390284652	-0.0160155427488547	-0.140757393283899	-0.0125826748985567	0.00709379867146042	-0.00375964072790549	0.596923828125	0.29541015625	-0.135498046875	0	0	0	-0.504514710029367	-0.544285069040667	-0.397178328244179	0.539877807060579	0.0920062783851111	0.120344117831824	0.988459477187104	0.97805517728964	0.175428565874286	-0.112396122941237	-0.186930240770861	0.977109058180596	-0.101562658033239	-132.101394110602	-81.2869757229865	52.6011259389466
17550	1650606421152	9.51521473055309	-1.04443695876096	-1.00397963755897	0.0414551122359801	-0.0196019668062243	-0.187925952233224	-0.0149726290837603	0.0108750493506005	-0.00351192406123478	0.600830078125	0.288330078125	-0.135498046875	0	0	0	-0.504524769133991	-0.54423887745943	-0.397251736443037	0.539860963105303	0.0919902043093837	0.120242577945138	0.988473330323194	0.978085398070706	0.17529163044657	-0.112346777329179	-0.186779967855192	0.977146133771449	-0.101482396816014	-132.091377593734	-81.2922169051173	52.5826190234014
17551	1650606421153	9.50008107698796	-1.08785272497663	-0.988267883439631	-0.00555928797971229	-0.0137661667869278	-0.199601650575753	-0.0180542976887629	0.0130340763269025	-0.00451272957612566	0.599609375	0.29296875	-0.1337890625	0	0	0	-0.50456103106597	-0.544199368742956	-0.397309775884356	0.539824188950566	0.0919839780929822	0.120208734138983	0.988478026063753	0.978118444254599	0.175126215832736	-0.112317040279153	-0.186609905372552	0.977179957205841	-0.101469574021172	-132.095320988808	-81.2939941975773	52.5767067781403
17552	1650606421154	9.49640307438308	-1.03298347274624	-0.991115064652787	0.0479105604789994	-0.00817085758569383	-0.209111306705315	-0.0140318402215869	0.0074380919340216	-0.00338962030990673	0.60009765625	0.29638671875	-0.13525390625	0	0	0	-0.504575881597451	-0.544164004340757	-0.397371234519162	0.539800720698577	0.0919632767130981	0.12014150689102	0.988488125400677	0.978146622004329	0.174998563373743	-0.112270604695294	-0.186472361484781	0.977211093438404	-0.101422567820027	-132.093900432395	-81.2978179194801	52.567461520346
17553	1650606421154	9.48885039099924	-1.05424587332005	-0.983602736802094	0.0238658605336022	-0.0051412334970316	-0.214948339113132	-0.0141530190830331	-0.00128486706079023	-0.00887982922434891	0.590087890625	0.294921875	-0.14013671875	0	0	0	-0.504594054350844	-0.544192298377974	-0.39742034139853	0.539719051861754	0.0918236292575473	0.120201736669714	0.98849378531762	0.978183056070471	0.174883825112907	-0.112131871162982	-0.186350019926497	0.977224227194282	-0.10152083460025	-132.15674801994	-81.29996155649	52.6233321591282
17554	1650606421159	9.50252172321714	-1.04403521870252	-1.02320800960991	0.0414895696457639	-0.0397998075470911	-0.1985530946511	-0.0214798359212946	-0.00917650063546698	-0.00592983810632165	0.594970703125	0.2880859375	-0.129150390625	0	0	0	-0.50465507254478	-0.544193407986945	-0.397467029842096	0.539626493648041	0.0917469897841137	0.120292448263302	0.988489866794989	0.978227406880869	0.174686435886651	-0.112052619533637	-0.186154855678504	0.977248369662513	-0.101646415083245	-132.212149355869	-81.2984773993712	52.6672522550453
17555	1650606421159	9.55429407513715	-1.05461360236075	-1.08607894956925	0.0460274605008657	-0.0943889999047514	-0.139772379600934	-0.0304433613868874	-0.0218583124446399	-0.00523327203452671	0.599853515625	0.287353515625	-0.12939453125	0	0	0	-0.504787006542023	-0.544231539805817	-0.397500883366404	0.539439669314244	0.0916101576070357	0.120586529538083	0.988466725751138	0.978297509839254	0.174366251498544	-0.111939236108972	-0.18585360170179	0.977269307423653	-0.101995781786135	-132.338873027034	-81.2897177473726	52.7758910301163
17556	1650606421160	9.51972256214416	-1.08761027491457	-1.0624221276709	0.00517523099466332	-0.0790586469270216	-0.172641865425469	-0.0298177685562393	-0.0166507000426835	-0.00111342814537061	0.60546875	0.30078125	-0.13232421875	0	0	0	-0.504898447410594	-0.544224353543976	-0.397538198284322	0.53931511356244	0.0915664678289922	0.120759345188542	0.988449676270348	0.97835277940101	0.174081877414452	-0.111898789064844	-0.185583999869711	0.977298664946133	-0.102205178375975	-132.407689562539	-81.28326954241	52.8285675030205
17557	1650606421160	9.54803692049543	-1.04076965174333	-1.05805737768164	0.0522810414604565	-0.0623318801011866	-0.150333754319607	-0.0270237445264896	-0.00625393904802301	-0.00469042254364176	0.59765625	0.29931640625	-0.13525390625	0	0	0	-0.50498841778323	-0.544162022438167	-0.397632626901824	0.539224151224655	0.0915519747183183	0.120764805976813	0.988450351592107	0.978417268938276	0.17374998385589	-0.111850753030292	-0.185250867119541	0.977357050799482	-0.102251217518411	-132.432789850123	-81.2835248626864	52.8341811916372
17558	1650606421161	9.54040584989211	-1.06208740280354	-1.0513255700802	0.0287003611163672	-0.0597991115885051	-0.15617353963456	-0.0178831150576463	-0.00164435535795699	-0.0045304421883469	0.597412109375	0.290283203125	-0.1328125	0	0	0	-0.505028586029438	-0.544145977950848	-0.397684915169169	0.539164158879197	0.0915037258536116	0.120783642103985	0.98845251780498	0.978453453248506	0.173585671079994	-0.111789331430969	-0.185083516232489	0.97738391975508	-0.102297436053957	-132.461358225617	-81.2843438972959	52.8530219523974
17559	1650606421161	9.51531444626793	-1.03851811039165	-1.00916111263067	0.0402835160021379	-0.0165438112161	-0.187915234878352	-0.0263313792899333	-0.00463470700068849	-0.00343947976033642	0.594970703125	0.286376953125	-0.130126953125	0	0	0	-0.505100669689761	-0.544146384722509	-0.397755600683883	0.53904406832557	0.0913903882360538	0.120881812281361	0.988451002527509	0.978513001049045	0.173327591207117	-0.111668495576548	-0.184824521414379	0.977417584037607	-0.102443949055244	-132.53306752198	-81.2837709701873	52.909592033528
17560	1650606421162	9.53439938895652	-1.0482972524343	-1.02114055982352	0.0339599123997848	-0.0267985643148227	-0.166726791046727	-0.0282891645624234	-0.00738275961961549	-0.00257968222424081	0.608642578125	0.296142578125	-0.1318359375	0	0	0	-0.505185503018628	-0.544120286332757	-0.397816558134292	0.538945922718746	0.0913502001506891	0.120960137114344	0.988445135635615	0.97856658510027	0.173059187228002	-0.111615215097131	-0.184560503514768	0.977455453176902	-0.10255855691805	-132.578604878618	-81.2815530480101	52.9395642601542
17561	1650606421163	9.57257155270257	-1.06848079031903	-1.04441824176958	0.0224304996141291	-0.047669405882049	-0.124353594646978	-0.0235026057609834	-0.00834157558716947	-0.00219614983605453	0.59521484375	0.2919921875	-0.13623046875	0	0	0	-0.505303542854588	-0.544042735718837	-0.397866195269524	0.538876907977989	0.0914399847466322	0.121011633454445	0.988430530567638	0.978615253837677	0.172741640480709	-0.111680394878653	-0.184257738360575	0.977505248176561	-0.102628337419669	-132.58135574986	-81.2760341723346	52.9242222914215
17562	1650606421164	9.55293955931497	-1.06502220228931	-0.974543660704465	0.0107720775085329	0.0195120965508277	-0.151312454666366	-0.0115302031075968	-0.000832274039300141	9.39617567886954E-05	0.602783203125	0.29833984375	-0.138427734375	0	0	0	-0.505337716310971	-0.544024704416278	-0.397890869090356	0.538844847570166	0.0914399545586061	0.121029514083838	0.988428344105404	0.978635292902053	0.172633297536268	-0.111672324540449	-0.184151291596972	0.977522174327715	-0.102658173083211	-132.591716305529	-81.2752082631761	52.9283030996258
17563	1650606421165	9.53982097807105	-1.06693894980389	-0.995230048407331	0.010427112305461	-0.000989209882725633	-0.161940441064967	-0.0113925826797195	-0.00140167377992969	-0.00475964787210816	0.60009765625	0.2939453125	-0.132568359375	0	0	0	-0.505354666116098	-0.544096481244861	-0.397877879879658	0.538766065406977	0.0913044235988576	0.121197191518415	0.988420327087282	0.978649590939348	0.17261970827431	-0.111567981381479	-0.184142554521019	0.977503799012229	-0.102848638936706	-132.671325980705	-81.2721805968847	53.0073009688517
17564	1650606421166	9.52023365043466	-1.06350666462169	-0.924959715312411	-0.00124142690470475	0.0661968499085695	-0.188911486920984	-0.00964312077959327	-0.00110206750913529	0.00121782893972837	0.595947265625	0.3017578125	-0.1318359375	0	0	0	-0.505387372195432	-0.544080597237818	-0.397893325405097	0.538740020170035	0.0913144106148264	0.121220810292555	0.988416508141221	0.978665042909612	0.17252901124694	-0.111572729933802	-0.184055459578886	0.977516882427189	-0.102880184530528	-132.678867288463	-81.270738719536	53.0096548478156
17565	1650606421167	9.48796817214219	-1.05521002020918	-0.934720139567054	0.00403831741088402	0.0544220348925414	-0.220725527023564	-0.0150540985713122	-0.00535128805192849	-0.0032866000837981	0.6025390625	0.292236328125	-0.13134765625	0	0	0	-0.505404588534857	-0.544101885211265	-0.397979942910401	0.538638380955622	0.0911302071011628	0.121248634628341	0.988430095633709	0.978717723036618	0.172356333857892	-0.111377344164273	-0.183866538466681	0.977543893019557	-0.102961319205082	-132.751431681117	-81.2758698752225	53.0715570511673
17566	1650606421168	9.48079667823704	-1.06958519958505	-0.987430747251703	-0.00155358845843831	0.000208560699371113	-0.220787908436854	-0.0165034893546876	-0.00500768750419914	-0.00291541734254439	0.59326171875	0.296630859375	-0.136474609375	0	0	0	-0.505451959850679	-0.54409338237111	-0.398016000059022	0.538575873243584	0.0910913099139638	0.121302503329113	0.988427071636673	0.978749762515937	0.172203159960248	-0.111332717898655	-0.183715202509631	0.977564204738387	-0.103038584913855	-132.784302776357	-81.2747276395074	53.0955255180605
17567	1650606421169	9.46926903680136	-1.03683107089943	-0.984483664401542	0.0279685702045529	0.00861719416425585	-0.236131288173308	-0.015816080248365	-0.00998994414078155	-0.0025555409024924	0.594482421875	0.285400390625	-0.134765625	0	0	0	-0.505513076417699	-0.54411646336389	-0.398036301023105	0.538480182490434	0.0910087547284339	0.121446654623718	0.988416975088696	0.978785294674674	0.172047265277116	-0.111261338475133	-0.183566754864251	0.97757375608768	-0.103212392265826	-132.850765581634	-81.2709150070634	53.1531278700663
17568	1650606421169	9.53417132731199	-1.04543769718623	-1.02618904748589	0.0325781241153865	-0.0247686904794993	-0.166716599402502	-0.013420801128292	-0.00716761162545955	-0.0019188714927161	0.59765625	0.292724609375	-0.141357421875	0	0	0	-0.505559133329837	-0.544117429937736	-0.398055831200578	0.538421526679566	0.0909755553703404	0.121523415940522	0.988410596717379	0.978810729295398	0.171923035908003	-0.111229609099322	-0.183447552562771	0.977586072477674	-0.103307629710524	-132.885262919885	-81.2685072743296	53.1805293038806
17569	1650606421170	9.5668398015897	-1.04609944771395	-1.07685838525523	0.0447911510748883	-0.0678737506992176	-0.129105446216684	-0.0211719611926411	-0.00193878435834244	0.00131616852114413	0.6015625	0.296142578125	-0.135498046875	0	0	0	-0.50567126382711	-0.544118393253641	-0.397997547570764	0.538358337160506	0.0910662525014651	0.121759475367979	0.988373192581351	0.978820666984604	0.1717890501343	-0.111349109281441	-0.183349501060556	0.977580253693818	-0.103536505874863	-132.917812564235	-81.2544010515633	53.2064791379274
17570	1650606421174	9.58598380147533	-1.05625547503905	-1.08787815382495	0.038481505718457	-0.0781073932937672	-0.107912335387216	-0.0208429337728682	0.0092267990955591	-1.43086412195411E-05	0.593994140625	0.29736328125	-0.145263671875	0	0	0	-0.505710294762585	-0.544055939759266	-0.398072407892928	0.538329443982148	0.0910829849739767	0.121681183314718	0.98838129255635	0.978857575337256	0.171590911690933	-0.111330167654339	-0.183144033626812	0.977624799528022	-0.103479535632397	-132.906947550671	-81.2574538795775	53.1837518964253
17571	1650606421175	9.54073722590025	-1.05029387913353	-1.11653955037609	0.0441597512709609	-0.109459125551574	-0.150311203391322	-0.0136575543363364	0.0176943829222535	0.00189724240843081	0.598876953125	0.2861328125	-0.141845703125	0	0	0	-0.505690282016059	-0.544119224897234	-0.398061823899976	0.538292106690388	0.0909621069013154	0.121764533017011	0.988382159696958	0.978858684137556	0.171648246055887	-0.111231992315294	-0.183198175745736	0.97760435664183	-0.103576784456497	-132.958996051271	-81.257780761927	53.2390604818174
17572	1650606421176	9.51582092470579	-1.0276304438187	-1.07204490550423	0.0564193414140513	-0.0666635548557899	-0.182083799221928	-0.0180722330646308	0.0223081010605296	0.00588564459846568	0.59716796875	0.292236328125	-0.138427734375	0	0	0	-0.505711818654326	-0.544013232510415	-0.398145728069377	0.538316949897557	0.0910591641473505	0.121570654471623	0.988397088520665	0.978885030267819	0.17147107138688	-0.111273398415818	-0.183009087595004	0.977659576564755	-0.103389681346193	-132.89670029067	-81.263410320731	53.1659608161701
17573	1650606421177	9.49683141019279	-1.01756553347207	-1.05953477638382	0.0638135070530451	-0.0536812597138975	-0.203269767942464	-0.0149275818414974	0.00996286491279945	0.00311166451546994	0.59716796875	0.287353515625	-0.129150390625	0	0	0	-0.505790606846871	-0.544017001773646	-0.398053278847353	0.538307487413614	0.0911981779601679	0.121767258138076	0.988360069601297	0.978867499710354	0.171458898448691	-0.111446238848879	-0.183033631738939	0.977637244067705	-0.103557272386626	-132.898630602948	-81.2494573284933	53.1684466812745
17574	1650606421178	9.4963597741492	-1.02501364155942	-0.99976662852795	0.0458042295580811	0.00319597098409549	-0.209098085439253	-0.0147490728879805	0.00188873669231599	0.00395341554024479	0.596435546875	0.291015625	-0.138427734375	0	0	0	-0.505839136219879	-0.543977922831285	-0.398080206218684	0.53828146648141	0.0912403377781009	0.121772250854092	0.988355563390052	0.978889039576553	0.171317835370434	-0.111473976698074	-0.18289737275049	0.977661351494431	-0.103570424519026	-132.895148871706	-81.2477603759744	53.1568672510172
17575	1650606421179	9.50778228200018	-1.05759365812078	-1.0039232316053	0.0169887278354991	-0.00395393917289877	-0.193748447736215	-0.0128670393485442	-0.00498275048544073	0.00418098627055965	0.603759765625	0.294921875	-0.135986328125	0	0	0	-0.505951207486431	-0.54392954251961	-0.398052375050435	0.538245608560013	0.0913899189822318	0.121903731955117	0.988325534853692	0.978903503346237	0.171135364719461	-0.11162713863036	-0.182745215655255	0.977676923670469	-0.103691943165138	-132.889422789264	-81.2364605318318	53.1414985569522
17576	1650606421180	9.48853463686823	-1.04745293749418	-0.993852781547624	0.0233280632622409	0.00653665281423188	-0.214947865813373	-0.0138173477723535	-0.0147503994804566	0.00227519602052611	0.59814453125	0.299560546875	-0.14306640625	0	0	0	-0.506026114059688	-0.543941046223129	-0.398038638388052	0.538173719605041	0.091386761167747	0.122068878660054	0.988305443041748	0.978924616931349	0.171005628479675	-0.11164080523752	-0.182633661325287	0.977679018845627	-0.10386857975332	-132.934554903538	-81.2289079775161	53.1796695293636
17577	1650606421181	9.53204685643092	-1.08790523073406	-0.990413294810717	-0.0144249608940743	0.0122145646489595	-0.167791521119643	-0.0191158521011772	-0.0234883880187996	0.00148334971986393	0.601806640625	0.291748046875	-0.13330078125	0	0	0	-0.506095400590651	-0.544094664839918	-0.397940127973625	0.538026110650831	0.091209300482144	0.122523256071702	0.988265609655191	0.978931973373876	0.171022200098647	-0.111550878883797	-0.182682935743564	0.977619281108452	-0.104343117612549	-133.087853410135	-81.2139535685249	53.3351037389335
17578	1650606421182	9.53224128380142	-1.08080097131267	-1.05216910640094	0.00362685764827492	-0.0443304384699888	-0.16194461169232	-0.0221511463132493	-0.0222395564765686	0.00708199518578734	0.598876953125	0.297119140625	-0.146240234375	0	0	0	-0.506220658741673	-0.544098365578217	-0.397916689853667	0.537921854151846	0.0912385530220264	0.122771498878446	0.988232101029706	0.978963833294645	0.170805905198094	-0.11160266954923	-0.182497505581588	0.977625951891929	-0.104604773523481	-133.146178601151	-81.2013931561212	53.3818393666131
17579	1650606421183	9.57182347084966	-1.06728462784175	-1.05246667538516	0.0202297378852163	-0.0329830608653304	-0.124287619906163	-0.0160992890356191	-0.0220678604819088	0.00535369856331892	0.594482421875	0.29296875	-0.13037109375	0	0	0	-0.506318854726101	-0.544215773273258	-0.39778297521971	0.537809551881328	0.0911957934918916	0.123230446797324	0.988178923187252	0.978956381393058	0.170819843948411	-0.111646693830361	-0.182558841416114	0.977565771646887	-0.105059181061121	-133.258835920576	-81.1814963467485	53.4969777807584
17580	1650606421184	9.59235931876156	-1.04364749921157	-1.04091801757948	0.043442930152995	-0.0132027711008578	-0.107842902563391	-0.0152126647180002	-0.00871887129589741	0.0101390430807264	0.600341796875	0.294921875	-0.14306640625	0	0	0	-0.506407027818807	-0.544189779922539	-0.397765864314955	0.537765490515482	0.0912796012272701	0.123353547772595	0.988155826098144	0.978972568307181	0.170668478722997	-0.111736211106428	-0.182430109636082	0.977576683755444	-0.10518118879284	-133.269106800292	-81.172868291741	53.4991663887299
17581	1650606421184	9.5642458526681	-1.0831522173826	-1.1068539932205	0.0142544609228946	-0.0859424010278518	-0.124263655731907	-0.0242037627111501	-0.000692809832624241	0.00692183688499369	0.5966796875	0.296142578125	-0.1357421875	0	0	0	-0.506493218189013	-0.544183254169244	-0.397769245462211	0.53768841644091	0.0912884264923914	0.123498423974555	0.988136914837385	0.979002086780443	0.170488494585921	-0.111752348044079	-0.182267213914302	0.977589797660362	-0.10534158837938	-133.308553579314	-81.1658101025128	53.5286706568435
17582	1650606421185	9.55821281581836	-1.07121507865488	-1.0753608290457	0.0201937846196141	-0.0534265724698252	-0.134873938455735	-0.0271664815025808	0.00357428586430258	0.0105441439663791	0.596923828125	0.28955078125	-0.134765625	0	0	0	-0.50659020484026	-0.544099726872559	-0.397814399408868	0.537648170461011	0.0913983816803366	0.123502816129351	0.988126201572621	0.979039552230246	0.17022013596573	-0.111833181482996	-0.182010689232847	0.977636005740341	-0.105356296845779	-133.291868426956	-81.1618141062828	53.4966710554768
17583	1650606421186	9.52588659586371	-1.0638654170013	-1.08456170709787	0.0267460774993383	-0.0642907736678126	-0.166664842641124	-0.0158923818720024	0.00286215842812695	0.0106859027377859	0.5908203125	0.289794921875	-0.133544921875	0	0	0	-0.506671262860018	-0.544058325202816	-0.397812852925208	0.537614828866214	0.0914909456500269	0.123577259707702	0.988108327941425	0.979057615092366	0.170058330878684	-0.111921179534548	-0.181866965647179	0.97765475756112	-0.105430459661317	-133.289498223245	-81.1551513144197	53.4854470669909
17584	1650606421186	9.51434056199704	-1.03241254727473	-1.08055551729201	0.0566575841649456	-0.0561649445850652	-0.182018248580011	-0.0096581192372048	0.00156108025395391	0.010691286335187	0.596435546875	0.29443359375	-0.135498046875	0	0	0	-0.506725639251181	-0.544014755520306	-0.397804677148332	0.537613719263725	0.0915987692301859	0.123601945461764	0.988095250749432	0.979062953550644	0.169961130728788	-0.112022082760863	-0.18178393344904	0.9776685394956	-0.105445855396672	-133.267904287351	-81.1502796539371	53.4586434206877
17585	1650606421187	9.49510027893702	-1.02312657094619	-1.06964629103769	0.0625358528821173	-0.0451141946503392	-0.203217329014059	-0.0196251065549578	-0.00411213029038699	0.0141324023112429	0.598388671875	0.290771484375	-0.135009765625	0	0	0	-0.506841446574153	-0.543973682561189	-0.397805214914307	0.537545711267815	0.0916872873356013	0.12373984194085	0.988069781370473	0.979093790729479	0.169725518043204	-0.11210975639946	-0.181573099042835	0.977692027195385	-0.105591238569122	-133.284932026862	-81.1407991470332	53.4627306216851
17586	1650606421188	9.50088178513274	-1.03657549199818	-1.10183534789201	0.0566325288776928	-0.0772254731167488	-0.192598303934838	-0.0310811488165049	-0.00192631184346638	0.012257335165063	0.600830078125	0.291259765625	-0.133056640625	0	0	0	-0.506964576067882	-0.543893074280156	-0.397842162385209	0.537483819469064	0.0918038751574823	0.123801593688125	0.988051220284835	0.979136493626662	0.169417064881947	-0.112203319805047	-0.181283687502646	0.977737706916874	-0.105665515275214	-133.281184956962	-81.1338964599469	53.4415740866499
17587	1650606421188	9.52577750845576	-1.06000923869828	-1.14530004660793	0.0452591010376909	-0.119354650536604	-0.160771752370113	-0.0401482048721032	-0.00352036474494444	0.0101205637277438	0.60400390625	0.296142578125	-0.133056640625	0	0	0	-0.507148846586187	-0.54377408835818	-0.397887480384876	0.537396819109962	0.091990587566411	0.123901870783594	0.988021284292758	0.979195736073632	0.168971200718549	-0.112358550110568	-0.180868577299662	0.977802157772244	-0.10578042352694	-133.272730909939	-81.1227747747163	53.4080665913129
17588	1650606421190	9.53114796411287	-1.08049395056293	-1.11810500518772	0.0213181744269216	-0.0947565220048019	-0.156032962736912	-0.0461892284981944	0.00290391274566869	0.0127583424042582	0.603271484375	0.296875	-0.134521484375	0	0	0	-0.507304525341807	-0.543648791399677	-0.397976075463209	0.53731103984219	0.0921220699371444	0.123917106268419	0.988007122952338	0.979264862026222	0.168514323853252	-0.11244221919299	-0.180426866711304	0.977879068919231	-0.105823779645212	-133.2631628605	-81.1175184301698	53.3722640974811
17589	1650606421190	9.54423320914985	-1.07885307222978	-1.09770834300374	0.0205276871650997	-0.0726453016229742	-0.14544492286889	-0.0513381136954416	0.00680964920823219	0.00891574045445787	0.596923828125	0.292724609375	-0.134033203125	0	0	0	-0.507441111293302	-0.543525458705872	-0.398109752275224	0.537207799134887	0.092177401763861	0.123878997896004	0.988006741112805	0.979349653231636	0.168024287425556	-0.112437073735527	-0.179937720667841	0.977968216618217	-0.105832811384022	-133.266911864359	-81.1173767433579	53.3473505725003
17590	1650606421192	9.54977588626002	-1.09886438641997	-1.069470733674	-0.00341526648406226	-0.04805312925742	-0.140708804863001	-0.0427456789821251	0.0158477975650533	0.00387943816720788	0.60498046875	0.2958984375	-0.130126953125	0	0	0	-0.507537529136554	-0.543394528213786	-0.398245891198917	0.537148260137236	0.0922451937009963	0.123752057263294	0.988016322012024	0.979420407520498	0.167611733322285	-0.112436525137876	-0.179517379580492	0.978055077782331	-0.105743913549442	-133.243022159597	-81.1209325456962	53.2990318156247
17591	1650606421192	9.50577141608076	-1.06604657018182	-1.01397478858289	0.0151009264067789	0.00479740523701144	-0.19374568249226	-0.0212030902248215	0.021434835573946	0.00693407643916599	0.597900390625	0.29052734375	-0.14208984375	0	0	0	-0.507581420371131	-0.543262261330049	-0.398356902206814	0.537158259335903	0.0923557877575047	0.123538260112168	0.988032745791428	0.979461060847587	0.167345760316431	-0.11247856145699	-0.179238496844314	0.978127647494218	-0.105545565782827	-133.178653043659	-81.1270312654653	53.2186312303928
17592	1650606421194	9.49990257617615	-1.05414270602132	-0.980952895728061	0.0210525914194623	0.0373031077925801	-0.204368072907259	-0.0212847352113383	0.0118106566953544	0.00799826552032212	0.5966796875	0.295654296875	-0.134521484375	0	0	0	-0.507639394805485	-0.543174090773369	-0.398413648388936	0.537150553133348	0.0924569437798828	0.123456910212441	0.988033453314047	0.97948935664441	0.167137619237875	-0.112541620993367	-0.179031599912427	0.978173505854811	-0.105471696091911	-133.142613689444	-81.1272940866184	53.1704409383398
17593	1650606421194	9.46543140735916	-1.08838283525117	-0.955324204426534	-0.0202862201566517	0.0545290158804265	-0.237290333415533	-0.0268529443271136	-0.00507157685387486	0.00651946020835108	0.58740234375	0.289794921875	-0.13916015625	0	0	0	-0.507738708382408	-0.543222669684925	-0.398358506129981	0.537048448228311	0.0924392634685456	0.123754718228427	0.987997850344623	0.979505988451044	0.167023809208108	-0.112565828501185	-0.178949716842294	0.978155313267692	-0.105778929698907	-133.219625252808	-81.1140783350994	53.2419064549798
17594	1650606421195	9.49198875095678	-1.07718761016097	-0.97508886954251	-0.00298658050087114	0.0420302598260938	-0.210229028136878	-0.0236733932460992	-0.0183352813405275	0.0103023172169824	0.59912109375	0.296142578125	-0.13720703125	0	0	0	-0.50786950130934	-0.543205499833946	-0.398338335681244	0.536957097836178	0.0925087105536978	0.123973819249726	0.987963881228625	0.979536205986903	0.166790279932997	-0.112649117531636	-0.178748313649321	0.978167416478646	-0.10600729082009	-133.260139435062	-81.1014872171281	53.2698643158462
17595	1650606421196	9.5166958120819	-1.10076845147544	-1.02016633097873	-0.0163020641942473	0.00155415909112583	-0.178391282253004	-0.0127299725900654	-0.0236199083371913	0.0126518536335779	0.597412109375	0.302490234375	-0.131591796875	0	0	0	-0.50797473957428	-0.543331881795208	-0.398199217899982	0.536832853915595	0.0924556981774413	0.124464897170239	0.987907097477756	0.97953058745906	0.16679809363657	-0.11268639754343	-0.178806521432054	0.978103719107339	-0.10649573964136	-133.382147832051	-81.0804789123429	53.3940938837944
17596	1650606421196	9.52449511465352	-1.07204733647682	-1.08871792373325	0.0253714637831192	-0.0573043367552352	-0.166617094682145	-0.00464777580268089	-0.0176692219914981	0.00809663295187632	0.600341796875	0.29443359375	-0.12939453125	0	0	0	-0.508047108599049	-0.543357275123862	-0.398134411912905	0.536786733316764	0.0925037232414733	0.124675644342433	0.987876027087541	0.979528725909311	0.166754250989823	-0.112767437211747	-0.178791879863005	0.978084353971897	-0.106697985971764	-133.4158537699	-81.0690045376448	53.4262461889835
17597	1650606421197	9.52593716980988	-1.03845588088561	-1.06599375209652	0.0531069674101679	-0.0282628906366315	-0.171391144175271	-0.00736202531933931	-0.0184619499982872	0.010577533323973	0.6015625	0.298828125	-0.129638671875	0	0	0	-0.50809056712372	-0.543377729559338	-0.398170259595464	0.536698297922134	0.092402174785239	0.124775596332208	0.987872911185897	0.979564798764607	0.166608839947154	-0.112668981857114	-0.178646699147265	0.978096388405256	-0.10683076276233	-133.47641523835	-81.0678546338296	53.4783185145405
17598	1650606421198	9.55071324556426	-1.06178552497002	-1.11031534385522	0.0408851745032419	-0.0706726648427934	-0.139546928609537	-0.0194249527892572	-0.0082628023362695	0.00639602929326896	0.60546875	0.2978515625	-0.13330078125	0	0	0	-0.50817881594229	-0.543352676208521	-0.398175054836547	0.53663654924953	0.0924489899259005	0.124890064419987	0.987854066181262	0.979591214118895	0.16642183346681	-0.112715689088139	-0.17847755456289	0.97811361566779	-0.106955679430939	-133.497989785842	-81.0609031310219	53.4895652824601
17599	1650606421198	9.52977117958615	-1.08622112980895	-1.12427415902924	0.0167377496550708	-0.0909946205186133	-0.155987756202801	-0.0246348075662092	-0.000773706229401033	0.00544264418953883	0.602783203125	0.292724609375	-0.13818359375	0	0	0	-0.508229442505245	-0.543296327485408	-0.398279398533189	0.536568220281185	0.0924052424898206	0.124830243174885	0.987865720403992	0.979646515357339	0.166152708949698	-0.11263206584672	-0.178196453692604	0.978167003991433	-0.106936131376648	-133.513993231385	-81.0652014814693	53.4894067022096
17600	1650606421199	9.47026912609116	-1.09754169103047	-1.05628153058646	-0.0118706730094817	-0.033082689178586	-0.220758966388308	-0.0133027855954687	-0.00506284296566629	0.00269013916663729	0.595458984375	0.3037109375	-0.133056640625	0	0	0	-0.508284573567236	-0.543284000798475	-0.398286359237746	0.536523310579435	0.0924209410430881	0.124905921309779	0.987854685912086	0.979665585377241	0.166029536637429	-0.112647830833218	-0.178083436860867	0.978178257673782	-0.107021426500049	-133.532799904693	-81.0611316506621	53.5013572291555
17601	1650606421200	9.47059776743422	-1.08986440033638	-1.11655755213875	0.00442638532589818	-0.0889626115841813	-0.214833791172643	0.00432166667251863	-0.0142277374330493	-0.00295076559833073	0.596435546875	0.294677734375	-0.13037109375	0	0	0	-0.508246313896249	-0.543436113183692	-0.398238256934961	0.536441204618065	0.0921669632024093	0.125135982177055	0.987849298657761	0.979661623277811	0.166183950248559	-0.112454428798821	-0.178236794099115	0.978122630677958	-0.107274249402647	-133.64948239805	-81.0591453473748	53.6270739958627
17602	1650606421201	9.49846781141749	-1.05136489098142	-1.05291247217877	0.0330906861487773	-0.0148298564392281	-0.198449576219438	0.0161295765705753	-0.0259768986518529	0.00146570050844045	0.599609375	0.2939453125	-0.136962890625	0	0	0	-0.508260540443378	-0.543542108542368	-0.398115631352786	0.536411356462645	0.0921318406277774	0.125414519997094	0.987817251376203	0.979629503368815	0.166350334201557	-0.112488232452999	-0.178431387574909	0.978058671289677	-0.107533601460956	-133.709984960919	-81.0473384143852	53.6983036389501
17603	1650606421201	9.4981632254442	-1.0515044619324	-1.05551766568824	0.0326200508711903	-0.0144706864101812	-0.198447420579853	0.0123446813615963	-0.0320311820046155	-0.0016867291081219	0.6015625	0.302490234375	-0.1416015625	0	0	0	-0.508288401237653	-0.54367597876614	-0.398009150954946	0.536328301543068	0.0920102917376043	0.125761244216186	0.987784498596509	0.979615531937245	0.166463233846786	-0.112442880453043	-0.178570758529128	0.977994939266286	-0.107881337440101	-133.813930526797	-81.0352874968605	53.8097988986907
17604	1650606421202	9.53008129826366	-1.05947932101577	-1.04951504820208	0.025875130845069	-0.00257625617141044	-0.166664833745543	0.00377590809340627	-0.0371269514993235	-0.00520873368249327	0.59619140625	0.294677734375	-0.139892578125	0	0	0	-0.508339721037733	-0.543804230347903	-0.397909761873712	0.536223375541024	0.0918895609226606	0.126137550163091	0.98774775475943	0.979611612853679	0.16651709884177	-0.112397258665568	-0.178654405363135	0.977937305880175	-0.108264625857992	-133.927070071061	-81.0217872214382	53.9271499444766
17605	1650606421202	9.54330958506639	-1.04938365901459	-1.09166510817069	0.0414931966271327	-0.0350346243284449	-0.150143871792087	0.0064294856526922	-0.0327606179955633	-0.00480518185488538	0.603515625	0.297607421875	-0.1337890625	0	0	0	-0.508316501893584	-0.544093173377495	-0.397736949978079	0.536080470833262	0.0915358746122847	0.126705054366788	0.987707959296104	0.979581100014924	0.16683930504961	-0.112185180768741	-0.179002938949382	0.977809017900977	-0.108846094826647	-134.134507188721	-81.0071884040971	54.1544223074471
17606	1650606421203	9.58848635585161	-1.05537733330251	-1.06450738293941	0.0343053055398432	-0.00111241740339552	-0.107797383657029	0.0164599555965938	-0.0214084351178503	-0.000747274470649114	0.59716796875	0.28271484375	-0.135986328125	0	0	0	-0.508314464952496	-0.544194188155678	-0.397630726474878	0.536058668114509	0.0914849818812874	0.126936759894167	0.987682923350278	0.979550350436278	0.167012420166238	-0.112196089372052	-0.17919712344328	0.977749410891045	-0.109061819404719	-134.188420285238	-80.9980160935582	54.2192146478052
17607	1650606421204	9.57110774449972	-1.01081719651462	-1.02952314252817	0.0715753138613447	0.0396565661737049	-0.133788814950353	0.0151171489396341	0.00176402223379063	0.000389299783702565	0.596923828125	0.29248046875	-0.138427734375	0	0	0	-0.508329754746284	-0.544176184789479	-0.397552265455833	0.536120636217713	0.0916489522778049	0.126969946133661	0.987663456003712	0.979513840077557	0.167106113341036	-0.112375192905605	-0.17931287361174	0.977729093186282	-0.1090537193049	-134.140617429824	-80.990890327176	54.1776421785397
17608	1650606421205	9.5653402994912	-0.998685892004246	-0.996594647895591	0.0774620193404853	0.0721858659299218	-0.144435302302167	0.00532873502378194	0.0219399514426513	0.00262301285035667	0.601806640625	0.294189453125	-0.13818359375	0	0	0	-0.508280862188724	-0.54412986810914	-0.397577046346073	0.536195621003146	0.0917103577005247	0.126783454486042	0.987681712880738	0.97949973953456	0.16716611470284	-0.112408853507575	-0.179358497267824	0.977743036673616	-0.108853496471565	-134.079421223822	-80.9975728539943	54.1194448501823
17609	1650606421204	9.55785714060857	-1.02090155094436	-0.987525753837888	0.0538456232403921	0.0759928760191548	-0.150316755990797	-0.00425049941750329	0.0172567379798182	0.000972901731168554	0.59765625	0.29541015625	-0.129150390625	0	0	0	-0.508268350879245	-0.544132354249879	-0.397559156291217	0.536218222183835	0.0917333966149988	0.126773580710492	0.987680840747312	0.979487436708018	0.167220001487017	-0.112435903668885	-0.179413893766988	0.977735102334228	-0.108833470894047	-134.067263779371	-80.9972535169195	54.1104910022753
17610	1650606421204	9.53715119117	-1.04529510569106	-0.999159874692157	0.0306667381687954	0.0565851942907883	-0.166751814766377	-0.00293293664669305	0.0174645242121809	0.00545546927491799	0.60205078125	0.29345703125	-0.135986328125	0	0	0	-0.508258338082578	-0.544074673793199	-0.397586983205257	0.536265607597674	0.0918146802451333	0.126636528746918	0.987690869694772	0.979485429232891	0.167196105110557	-0.112488916593231	-0.179383272386093	0.97775694936052	-0.108687577787281	-134.015359976934	-81.0009263568067	54.0569400591267
17611	1650606421206	9.52409461196849	-1.04763695983201	-1.01816385790577	0.0309363314731892	0.0340638961476243	-0.177311838216566	-0.000415491476467995	0.0131327582352729	0.000328528141433354	0.590087890625	0.29150390625	-0.13818359375	0	0	0	-0.508238586197556	-0.544010748567829	-0.397660818609494	0.536294432457962	0.0918363575709966	0.126447941402881	0.987713015780934	0.979501073510669	0.167118825685473	-0.112467529060419	-0.179286726835925	0.977794567491804	-0.10850831011484	-133.973542685361	-81.0090420528854	54.0099213232458
17612	1650606421207	9.53561571225582	-1.08010429271261	-1.02099640752698	0.00102335528386595	0.0263540962555396	-0.161970795366265	0.0062555950748924	0.0118994181284292	0.00181934981801815	0.589111328125	0.296142578125	-0.13916015625	0	0	0	-0.508205039799698	-0.543995147059914	-0.397659626545059	0.536342930328623	0.0918722027826134	0.126358291975727	0.987721155187459	0.979486009473978	0.167188917876464	-0.112494546463549	-0.1793506498472	0.977794174552229	-0.108406165005101	-133.939703451425	-81.0120266614321	53.9799635912745
17613	1650606421209	9.53608529633288	-1.07274782341046	-1.07932767306903	0.0171812464442714	-0.0284381489682614	-0.156002893588308	0.00215425482343856	0.00787441327384452	0.00179185797487523	0.60009765625	0.28857421875	-0.131103515625	0	0	0	-0.508163954636435	-0.544102089339322	-0.397629835407332	0.536295464812804	0.0916868607410456	0.126491984082805	0.987721265099748	0.979480293695661	0.167319818404394	-0.11234960004816	-0.17947666653165	0.97775449696328	-0.108555376830313	-134.015994994025	-81.012066971485	54.0637754390521
17614	1650606421209	9.51156376909896	-1.04269995335293	-1.09502678636946	0.047471503958587	-0.0422841925602491	-0.181897640570254	0.00189893813704091	0.00632722006986746	0.00203122200319497	0.599853515625	0.299560546875	-0.1298828125	0	0	0	-0.508153569282875	-0.544093199756226	-0.397625517067586	0.53631752552088	0.0917130763115308	0.126458736162037	0.98772308856368	0.97947286975263	0.167347796403617	-0.112372649952735	-0.179503785620308	0.977754009496843	-0.10851491999179	-133.999449463	-81.0127357484119	54.048833500768
17615	1650606421210	9.50982185231329	-1.07729073457112	-1.11913558575269	0.0180758453695608	-0.0733817270197654	-0.177127189738222	0.000694099815209586	0.00161649882082596	0.0012549248821958	0.603515625	0.296630859375	-0.129150390625	0	0	0	-0.508165453830804	-0.54401902002748	-0.397698295200487	0.53632755231845	0.0917587436859335	0.126310237957513	0.987737848188625	0.979496450861902	0.16720787505512	-0.112375394408602	-0.179351709515456	0.977797141694875	-0.108377645237454	-133.962509778642	-81.0181508328656	54.0032706785593
17616	1650606421211	9.47756233550655	-1.06922204805363	-1.12833876484429	0.0247902072871937	-0.0848719685977842	-0.208898829744539	0.000183322736861494	-0.00147767847965437	0.00173352961799098	0.599609375	0.30029296875	-0.1337890625	0	0	0	-0.508174308181569	-0.544027798422091	-0.397680176477866	0.536323693570152	0.0917684635610931	0.126351297972898	0.987731693627475	0.979492502405853	0.167218699481435	-0.112393702112068	-0.179368299390821	0.977789985653515	-0.108414745903606	-133.96764490529	-81.0158924234422	54.0092397177121
17617	1650606421212	9.48303458800186	-1.08917073915848	-1.10098355359485	-0.000441004208343775	-0.0615590935258439	-0.204221670241003	-0.00598862699388234	-0.00375097081536544	-0.00114789670899817	0.59423828125	0.291015625	-0.137451171875	0	0	0	-0.508157667642412	-0.544023566593393	-0.397771928777059	0.536275709392293	0.0916317033359656	0.126268646922694	0.987754959363942	0.979530340047725	0.167106554986405	-0.112230620628078	-0.179231537040047	0.977819834164192	-0.108371712385543	-133.997850088475	-81.0244327214401	54.0320400386239
17618	1650606421213	9.52885866969887	-1.08734336379609	-1.13090421399339	0.0104470145128608	-0.0843288627800517	-0.155918391344201	-0.0111390210428525	0.000164036895374485	-0.00498623607377033	0.60205078125	0.289306640625	-0.130859375	0	0	0	-0.508175041176783	-0.544022228381067	-0.397807638010295	0.536234114629929	0.0915777963359372	0.126280983494321	0.987758381602486	0.979553089740216	0.16701442133129	-0.112169191170181	-0.179134730297203	0.977833981959659	-0.108404114895454	-134.022084603007	-81.0256896237747	54.0507264708856
17619	1650606421213	9.50768461007562	-1.11881505305263	-1.08456798805982	-0.0297430294389333	-0.0468477581096624	-0.178320642291334	-0.00433315540735367	0.00762951478603714	0.00203462829041431	0.592041015625	0.29541015625	-0.135009765625	0	0	0	-0.508226011577961	-0.543952870792517	-0.397808155264943	0.536255785159322	0.0917278919225636	0.126248146729759	0.987748651879993	0.979555845307292	0.166909985520523	-0.112300501592177	-0.17904284338604	0.977856053916342	-0.108356808975725	-133.976091533741	-81.022116598134	53.9990363467669
17620	1650606421213	9.54179136580251	-1.09262947565785	-1.04997346137715	-0.00702220431363469	-0.0050015968516115	-0.151321439634298	0.000339324482880059	0.0111726451067937	-0.00129962004820366	0.6005859375	0.2998046875	-0.132080078125	0	0	0	-0.508200969851266	-0.543935168790545	-0.397830441538263	0.536280939602094	0.0917309438765431	0.126158994650222	0.98775975925544	0.979554526612045	0.166925428055407	-0.112289050500799	-0.179048494351029	0.977864923973329	-0.108267387209931	-133.955374854906	-81.0261956504238	53.9788805113915
17621	1650606421215	9.51692483282499	-1.069929998615	-1.0060445399726	0.00333162098829572	0.037512060629985	-0.183184998739614	-0.000925751181602205	0.0100375910153742	0.000808017733544677	0.59423828125	0.29150390625	-0.136962890625	0	0	0	-0.508146754584347	-0.543952447629959	-0.397911828846429	0.536254405097863	0.0915638223629346	0.126051399703861	0.98778900128873	0.97957928394164	0.166906104538972	-0.112101644680221	-0.17899858353259	0.977882097647934	-0.108194778954454	-133.983989616494	-81.0369432453824	54.0053197693472
17622	1650606421215	9.50204093129192	-1.10638535795134	-1.0506221339941	-0.0257768587692314	-0.0142266397355602	-0.1889765162543	0.00075442743091569	-0.00195926017134355	-0.00162930289805761	0.59765625	0.2958984375	-0.13525390625	0	0	0	-0.50814549620571	-0.543971855711567	-0.397901079789013	0.536243886288975	0.0915387017929029	0.12608965431571	0.987786447137545	0.979577739854271	0.166925770777179	-0.112085853846248	-0.17901988061684	0.977873808896111	-0.108234450240867	-133.998518546665	-81.0360039851617	54.0210607278542
17623	1650606421216	9.50374429520897	-1.07175811292716	-1.02687348813801	0.00310473789483009	0.0166954976643478	-0.193747622724837	0.00721838017719124	-0.0149157200422244	-0.00369453019149648	0.593994140625	0.294189453125	-0.139404296875	0	0	0	-0.508146052126835	-0.544087009066037	-0.397826697109841	0.536181718580707	0.0914064912644976	0.126336527033527	0.987767146290977	0.979566135648091	0.167043017549173	-0.112012571524509	-0.179150884022881	0.977821922552964	-0.108486167453029	-134.083755092223	-81.0289094703667	54.1136621809956
17624	1650606421217	9.56082896379208	-1.10231663287632	-1.06216273339394	-0.0159273136387272	-0.0139871797169386	-0.130110613263918	0.00746227306608675	-0.0199698302134966	-0.0048450241968432	0.598388671875	0.294921875	-0.14111328125	0	0	0	-0.508153863259673	-0.54417649495359	-0.39776041455758	0.53613267593505	0.0913171899020163	0.126546065535968	0.987748583459255	0.979555487287129	0.167132607730504	-0.111972044541823	-0.179254618222442	0.977779517442745	-0.108696812811409	-134.149661718135	-81.0220914771234	54.1853224490037
17625	1650606421217	9.54201422680557	-1.08413355939366	-1.11170775311451	0.00752289794968745	-0.0581790130646451	-0.145328171860687	0.0139614088171732	-0.0131246898879777	-0.00417555044548681	0.59423828125	0.294921875	-0.135498046875	0	0	0	-0.508114678120359	-0.544376607961304	-0.397607154594664	0.536080342111445	0.0911253186393599	0.12691273093889	0.987719259217167	0.979510248783153	0.167456048987557	-0.11188451271844	-0.179599133716287	0.977676649195996	-0.109052834833622	-134.26569993395	-81.0113313473663	54.3210637976456
17626	1650606421218	9.50941309751544	-1.08314332242497	-1.06169356847216	-0.00386815830424403	-0.0129946993398501	-0.183089954007462	0.0129342812215498	0.00801663239022341	-0.00616473744957852	0.607177734375	0.297119140625	-0.1376953125	0	0	0	-0.508048580984858	-0.544406036385588	-0.397600081212114	0.536118347313656	0.0910724859341072	0.12684803166815	0.987732443107797	0.979490825393006	0.167601629558784	-0.11183656262675	-0.179731814870681	0.97766009974385	-0.108982586187588	-134.259522094879	-81.01616741431	54.3229646075743
17627	1650606421218	9.50403500908348	-1.06318057747832	-1.08815485356343	0.0196205754608018	-0.0367428707719469	-0.187752027927692	0.0134362025372724	0.013761364467877	0.00283049998862037	0.6005859375	0.2978515625	-0.1357421875	0	0	0	-0.507977871471368	-0.544436481842038	-0.397565249850426	0.53618026021689	0.0910615787016661	0.126790092158968	0.987740887791267	0.979456648630945	0.167800708413574	-0.111837362757446	-0.17992349023126	0.977633466482313	-0.108905201330234	-134.23897506784	-81.019266419489	54.3138139014932
17628	1650606421219	9.49823102655769	-1.05114718073165	-1.05526308328986	0.0254703117892969	-0.0042158927815103	-0.198415855060539	0.0136803545563599	0.00870696349091235	0.00168122274298525	0.599853515625	0.290283203125	-0.1376953125	0	0	0	-0.507929720010597	-0.544445729408506	-0.397536852276343	0.536237539100922	0.0910865976221146	0.126731967065669	0.987746040365281	0.979428700532041	0.167943701224346	-0.111867483180697	-0.180062912082813	0.977616449198116	-0.108827505482407	-134.210825410486	-81.021157817097	54.293905912832
17629	1650606421219	9.50597964186205	-1.02920401422331	-1.06160740114053	0.0491201638947204	-0.0057900006394121	-0.192527603997442	0.00272474323141087	0.00739196036678201	-0.00157215981575008	0.59326171875	0.295654296875	-0.14208984375	0	0	0	-0.507909605267865	-0.544465693658492	-0.397510969445843	0.536255508573894	0.0910842751984076	0.126743816928193	0.987744734069513	0.979413605263721	0.168025724093737	-0.111876475932588	-0.180146175745977	0.977600818797349	-0.108830117388761	-134.209210737007	-81.0206782670048	54.2971370150802
17630	1650606421220	9.49107958236102	-1.06568400779919	-1.10633335889858	0.0200276885360147	-0.057520309410148	-0.19829513766207	0.000937907500211631	-0.00343709558457292	0.000105336990480234	0.59521484375	0.28857421875	-0.13916015625	0	0	0	-0.507915543887375	-0.5444862167342	-0.397490444461101	0.536244260226799	0.0910722126971899	0.126802087148932	0.987738367569627	0.979409964497989	0.168046293679416	-0.111877453593915	-0.180172066415649	0.977589726764396	-0.10888687987186	-134.223892872753	-81.0183414449214	54.3132120300044
17631	1650606421221	9.52325472572739	-1.07383556153023	-1.09776855437086	0.0128462083183018	-0.0434265509188882	-0.166519821996037	0.00527199431285747	-0.0110674558262205	-0.00192603556215878	0.599853515625	0.28955078125	-0.134033203125	0	0	0	-0.507925939056298	-0.544638583690791	-0.397348439612987	0.536184922509194	0.0909660613848266	0.127167643528798	0.987701152229491	0.979376612740952	0.168250915941804	-0.111861877781496	-0.180406834937566	0.977507043311748	-0.109239892821867	-134.320576989813	-81.0046936105717	54.422951731127
17632	1650606421221	9.53082584822883	-1.05168525526389	-1.10587200614905	0.0363710040480864	-0.0455376698593003	-0.160628538343511	0.00263044528648185	-0.00883439187398939	-0.00141759019107482	0.603759765625	0.295166015625	-0.1337890625	0	0	0	-0.507934026494818	-0.544681468115878	-0.397312983030368	0.536159972895594	0.090928983613284	0.127277866089154	0.987690368862047	0.979371138939673	0.168290836488544	-0.111849749959463	-0.180455235864918	0.977485825553383	-0.109349753960213	-134.352470875419	-81.0007429046446	54.4574869955412
17633	1650606421222	9.51757037153155	-1.05378102696154	-1.12701739538429	0.0378631960318	-0.0677666160648717	-0.171175941279968	-0.00246917428949008	-0.00584508181034304	0.00133317315317332	0.604248046875	0.286376953125	-0.13818359375	0	0	0	-0.507991732492885	-0.544636202098978	-0.397298558286046	0.536161974281939	0.0910505258940603	0.127308616985181	0.987675208646919	0.97937413454524	0.168196510605412	-0.111965344655953	-0.180377676884302	0.9774980561932	-0.109368385835844	-134.327766481541	-80.9951915588116	54.4278277810467
17634	1650606421223	9.52348076939025	-1.06599864209479	-1.15876219223778	0.0319297910783489	-0.0998299431912396	-0.160496764776351	-0.0034476825977451	0.00511766268430887	-0.00445350562395577	0.5986328125	0.293212890625	-0.137939453125	0	0	0	-0.507980293692295	-0.544636829863726	-0.397323202763074	0.53615391197153	0.0910099922041687	0.127276774622672	0.987683048331117	0.97938233253659	0.168180587532767	-0.111917544166774	-0.180353619409719	0.977504942503506	-0.109346510447437	-134.334267140413	-80.9980618592242	54.4331175919806
17635	1650606421224	9.51002599611527	-1.07539726264363	-1.11922195786186	0.0159591777640033	-0.0638761731418039	-0.177055748739063	0.00486663852647728	0.00866601408154132	-0.000692337325467385	0.59814453125	0.29931640625	-0.133056640625	0	0	0	-0.50800345453685	-0.544619308852241	-0.397235310482848	0.536214888556378	0.0911878330618058	0.127330005126382	0.987659783982322	0.979343956091258	0.168273196568443	-0.112113991027717	-0.180472144025102	0.977482072015213	-0.109355402792132	-134.28636960914	-80.9895468585185	54.3915214256199
17636	1650606421225	9.51186728378236	-1.04089687068372	-1.09410540987411	0.0454008063472222	-0.0336850321766051	-0.18185374073877	0.00511084014461901	0.00361182404887345	-0.00184125363551399	0.59912109375	0.302734375	-0.14404296875	0	0	0	-0.507979557810597	-0.544634158872923	-0.397225106418742	0.53623000351151	0.0911716956388071	0.127317997966065	0.987662821669551	0.979334078805191	0.168337967354339	-0.112103036701946	-0.180533886030111	0.977472483572261	-0.109339196329332	-134.284923366212	-80.9906582315252	54.3937638815616
17637	1650606421226	9.50972416163719	-1.08277250418698	-1.05928284870672	-0.00496087742031552	-0.00603843864733361	-0.183083580336387	-0.00265265404030445	-0.00436794812839841	-0.000400900779539731	0.592529296875	0.299072265625	-0.138427734375	0	0	0	-0.507909225562426	-0.544788197879982	-0.397217425665475	0.536145833507033	0.0908482723967487	0.127472967827674	0.987672634973619	0.979338838895411	0.16849307067254	-0.111828099180517	-0.180671054775011	0.977425561159797	-0.109531923921483	-134.405690191153	-80.9942494717896	54.5230381425277
17638	1650606421226	9.54784053091949	-1.10329701855658	-1.08211222519662	-0.0176587559437712	-0.0263517689990229	-0.140640850035554	-0.0023974800297555	-0.00282094845617747	-0.000640637265979448	0.597900390625	0.293701171875	-0.13037109375	0	0	0	-0.507921126277837	-0.544803035486905	-0.397208472225174	0.536126115384665	0.0908301642335954	0.127526272344266	0.987667419290155	0.979341613192107	0.168483118146393	-0.1118187979275	-0.180665120971316	0.977420323485063	-0.109588435990184	-134.422846303577	-80.9923405828727	54.5397559159079
17639	1650606421227	9.54961662454518	-1.06879821083671	-1.05754593758604	0.0103100679852942	0.00352660180262879	-0.145433773194441	-0.000682964450579776	0.00498415819502677	-0.000345185423736783	0.60205078125	0.298828125	-0.131591796875	0	0	0	-0.507886220748326	-0.544822608397434	-0.397272627968795	0.536091756343787	0.0906855688915674	0.127466629364229	0.987688405314822	0.979364952864642	0.168452091681501	-0.111661013377832	-0.180611230811515	0.977433451037282	-0.109560175694002	-134.455904224398	-81.0000237043006	54.5702194985113
17640	1650606421228	9.56841247018885	-1.08664896590789	-1.00837633397092	-0.0142060330093616	0.050157546798113	-0.13025852526909	0.00368425166150047	0.0171569772622959	0.000351512574083168	0.5927734375	0.293212890625	-0.14306640625	0	0	0	-0.507844595862952	-0.544793596956748	-0.397295629256649	0.536143624545968	0.0907122393769842	0.127325930778585	0.987704103959572	0.979356005522309	0.168500098852717	-0.111667054828241	-0.180646350847731	0.977443514499939	-0.109412393664552	-134.415693808685	-81.005775336936	54.5323623456451
17641	1650606421230	9.53633762471239	-1.07861459275117	-1.01581563599768	-0.00848787491435326	0.0392414331370335	-0.162018271151997	3.28187950806764E-05	0.0198026016025831	0.00272804287304152	0.60498046875	0.2900390625	-0.13623046875	0	0	0	-0.507790511203213	-0.544801779167491	-0.397320007674971	0.536168471330678	0.0906556658341948	0.127229425607395	0.987721733846011	0.979351270184126	0.16857121646628	-0.111601230135771	-0.180700414611858	0.977443818456432	-0.109320363704169	-134.408480742365	-81.0122388849985	54.5287239485941
17642	1650606421230	9.50251015246348	-1.10520324949542	-1.04761834272693	-0.0312351299779941	-0.00220880136002424	-0.188982421900203	-0.00242550546583968	0.0205580810466377	0.0049702512822981	0.6025390625	0.296142578125	-0.12841796875	0	0	0	-0.507770980719595	-0.544740084143543	-0.397355928840574	0.536223029794124	0.0907330130850605	0.127063613386582	0.987735976103762	0.979349213664786	0.16855379390861	-0.111645583222891	-0.180672737375266	0.977468391669091	-0.109146256267309	-134.351448991699	-81.0174638137937	54.470298393727
17643	1650606421231	9.50813270279042	-1.12552194666729	-1.01837195266994	-0.0540039452179101	0.0213448924457897	-0.184338780406586	0.000460583068366579	0.0132708976819041	0.00331371084545334	0.590576171875	0.300048828125	-0.1376953125	0	0	0	-0.507786529307056	-0.544615802255401	-0.39740030886982	0.536301653081708	0.0909332448877566	0.126844250901964	0.9877457572611	0.979350021230227	0.168451670328932	-0.111792534096633	-0.180567662914867	0.977514486223357	-0.108907062823999	-134.250946040901	-81.0210538854636	54.363678439161
17644	1650606421232	9.51582618104556	-1.10377345265412	-1.02501970144187	-0.0304808402904483	0.0192345184613772	-0.178444782709686	0.00496661214130028	-0.00243640289558972	0.00210770398574003	0.594970703125	0.29150390625	-0.137939453125	0	0	0	-0.507785203796623	-0.544637027983746	-0.397365551532772	0.536307106991237	0.0909422524081756	0.12689730977879	0.987738112810189	0.979337187220864	0.168509610520557	-0.111817641222383	-0.180632722542885	0.977497613262107	-0.108950610891491	-134.25596410575	-81.0182479480849	54.3723371974896
17645	1650606421232	9.52213032196882	-1.10887391601441	-1.11624162084403	-0.0200488222305182	-0.068480238600141	-0.161704454546644	-0.0015211150793428	-0.00268066955124823	0.00234705763933163	0.598388671875	0.298583984375	-0.141357421875	0	0	0	-0.507770095935591	-0.544738292833058	-0.397341497212968	0.536236381260581	0.0907598538277659	0.127065697242978	0.987733242083772	0.97934156360355	0.168578528532236	-0.111675339786633	-0.180700721447692	0.977463855240726	-0.109140556010227	-134.342320745583	-81.0164605747582	54.4627278257069
17646	1650606421233	9.53563431566367	-1.09946019660713	-1.15562342935156	-0.00242361324884402	-0.102876853581178	-0.145112150793764	0.000609706424833799	-0.00800761026883398	0.00231874591973605	0.599365234375	0.293212890625	-0.140869140625	0	0	0	-0.507791902137651	-0.544765875412015	-0.397303915622734	0.536215557160412	0.0907594792348497	0.127174319234983	0.987719296893676	0.979336481145615	0.168593965508539	-0.111696604654892	-0.180728452730456	0.977447066250252	-0.109244949779985	-134.364249461335	-81.0113451640502	54.4859922803486
17647	1650606421234	9.53377765824192	-1.13415072484181	-1.18072755409468	-0.0327428245528737	-0.130799872363616	-0.140296182165789	0.00590438629485325	-0.00587357243047251	0.00221313230879459	0.599365234375	0.29052734375	-0.12890625	0	0	0	-0.507768943571117	-0.544913685480078	-0.397170393191071	0.536186025641886	0.0906495082979377	0.127466063571835	0.987691788607582	0.979294922082817	0.168852757434244	-0.111670058160916	-0.18100862473416	0.977364389030189	-0.109520449357619	-134.443196563089	-81.001262958958	54.580862731867
