// Start Time : 08/03/2022 10:04:38																																
// Update Rate : 100Hz																																
// Filter Profile : 46.1 human																																
// Firmware Version : 4.4.0																																
PacketCounter	Time_Of_Arrival	Acc_X	Acc_Y	Acc_Z	FreeAcc_X	FreeAcc_Y	FreeAcc_Z	Gyr_X	Gyr_Y	Gyr_Z	Mag_X	Mag_Y	Mag_Z	VelInc_X	VelInc_Y	VelInc_Z	OriInc_q0	OriInc_q1	OriInc_q2	OriInc_q3	Mat[1][1]	Mat[2][1]	Mat[3][1]	Mat[1][2]	Mat[2][2]	Mat[3][2]	Mat[1][3]	Mat[2][3]	Mat[3][3]	Euler_X	Euler_Y	Euler_Z
9311	1646733919664	9.76743019729319	-0.40704545494824	0.206971104702281	2.60208521396521E-16	6.93889390390723E-16	-0.034588638843374	0.0123185550011376	-0.0365866383601162	0.00609408066974349	0.574462890625	0.41943359375	0.123291015625	0	0	0	-0.564585078463942	-0.413001454785635	-0.558713937976183	0.44554710528962	0.0345370677121909	-0.0315178379887662	0.998906310342645	0.964215673012245	-0.261835150625978	-0.0415991564122962	0.262859899702079	0.964597833184994	0.021346975041628	-62.8349718627675	-87.3200649255195	-42.3829528743235
9312	1646733919665	9.76591953388877	-0.38363436102238	0.302408898395802	-4.33680868994202E-16	-2.08166817117217E-15	-0.0345581602434066	0.0122265098592781	-0.0121682829265192	0.00463046594184001	0.577392578125	0.425048828125	0.1298828125	0	0	0	-0.561296011001207	-0.411647991025212	-0.561862313681405	0.446993803070712	0.0297133438989716	-0.0401851941908959	0.998750352872118	0.964410695387345	-0.261484943002577	-0.039212691892244	0.262733948733007	0.964370662531155	0.0309854390380789	-51.6845962933933	-87.1353170414839	-53.5203995029299
9313	1646733919665	9.76561413282561	-0.383951088079073	0.325750878354299	0.02844523744001	0.0634004642209196	-0.0343479000788243	0.010725440203329	-0.0106370409653293	4.62913222266092E-05	0.573974609375	0.432373046875	0.126708984375	0	0	0	-0.562825582781415	-0.412437746112905	-0.560223219716748	0.446399387363231	0.0320900993430155	-0.0359055745023286	0.998839834630064	0.964427633770524	-0.261245385086078	-0.0403755865717746	0.262392005868973	0.964604394812135	0.0262449378961355	-56.9753277720962	-87.2398062005087	-48.211698559603
9314	1646733919665	9.74061847305293	-0.383988173548356	0.37265699139536	0.0399350383360146	0.111193128533246	-0.0580982253833095	0.0123537240466739	-0.0228188576362549	-0.00760239026191689	0.56982421875	0.4189453125	0.1279296875	0	0	0	-0.562846244869474	-0.412544672277655	-0.560150492214181	0.446365796274608	0.0320766388950648	-0.0356656017168209	0.998848864489204	0.964462480246365	-0.261128938582915	-0.0402964220693376	0.262265539928954	0.964644827016005	0.0260219960233085	-57.1470640207907	-87.2505708948657	-48.0326772642589
9315	1646733919666	9.76528454433593	-0.358379607412347	0.345851663610464	0.0581533762222539	0.0807247062271199	-0.0352167197201343	0.0200508590769195	-0.036516266307881	-0.00911011628133929	0.57763671875	0.430419921875	0.1259765625	0	0	0	-0.562880840215971	-0.412710666046829	-0.560031014742403	0.446318639959771	0.0320703373155545	-0.0352907087291753	0.998862382584237	0.964518414611304	-0.260939155511285	-0.0401868759267736	0.262060529916588	0.964709968331648	0.0256701316978907	-57.4308199886813	-87.2667652943789	-47.7370909575326
9316	1646733919667	9.74084068052296	-0.333053204227217	0.341800706319331	0.0806578029247085	0.0750794870816085	-0.0607857471342612	0.0292580240245067	-0.0440998395374125	-0.0121199981778201	0.573486328125	0.429443359375	0.12060546875	0	0	0	-0.562914003587038	-0.412925101323214	-0.55987355075621	0.4462760271698	0.0320689357216957	-0.0348336439629947	0.998878471391759	0.964598931832728	-0.260661136541507	-0.0400583649697493	0.261764176442915	0.96480173566653	0.0252413705256525	-57.784361900314	-87.2861652066337	-47.3663666860665
9317	1646733919667	9.74118637159495	-0.282742298474514	0.289573856516382	0.115207044608543	0.0153448375875983	-0.0637900330493561	0.0292053060299109	-0.0318926342954677	-0.0120940229246583	0.581298828125	0.42333984375	0.132080078125	0	0	0	-0.562911208876944	-0.413111657519539	-0.559752316892376	0.446258975344781	0.0320322043101517	-0.034498625695554	0.998891276722422	0.964679355837481	-0.260383370691371	-0.0399279437034097	0.261472136771808	0.964888773430657	0.0249394586843134	-58.0106202885248	-87.3017055055529	-47.1230886717197
9318	1646733919668	9.76678312508825	-0.305471678055417	0.214920490365183	0.0738701604992237	-0.0497833333209761	-0.0391710502744544	0.0244916341529009	-0.00292372677387086	-0.0105384411319652	0.572021484375	0.42578125	0.128662109375	0	0	0	-0.562842970796042	-0.413216384790943	-0.559717008343932	0.446292370690233	0.0319381798216449	-0.0344429859442469	0.998896207515538	0.964746736333586	-0.26015067840799	-0.0398165701380354	0.261234927609948	0.964953524913561	0.0249200191315785	-57.9587623977503	-87.307713321784	-47.1609557798008
9319	1646733919669	9.69399544754153	-0.353727033267716	0.215106011467727	0.0234274037419897	-0.0354650454830914	-0.10994889465946	0.0152199184464378	0.0275596075826004	-0.0135888704115517	0.582763671875	0.42578125	0.132080078125	0	0	0	-0.562700038356019	-0.413237537211544	-0.5597971673367	0.446352479678651	0.0317237385622898	-0.034676151437476	0.998894973925246	0.964791263593806	-0.260008403448115	-0.0396667093345287	0.26109657620256	0.964983520407394	0.0252068093469462	-57.5654660059639	-87.306209025046	-47.5459296534264
9320	1646733919669	9.69282241340924	-0.328388002809673	0.291726934041742	0.0658289577626826	0.0290525282336689	-0.110184036345604	0.00599108143087268	0.0397201813500362	-0.0105722143525039	0.577392578125	0.427001953125	0.123291015625	0	0	0	-0.562553635126755	-0.413195396172619	-0.559920123997107	0.446421803825139	0.0315180386496347	-0.0350319592364757	0.998889070453639	0.964810247774661	-0.259954275302523	-0.0395595821633378	0.261051334087145	0.964985252003363	0.0256059443748533	-57.0860111609251	-87.2990216501633	-48.022479861218
9321	1646733919670	9.71688775701825	-0.400708038061923	0.368362385679549	0.0148581665061557	0.117961609811053	-0.0812933699032499	-7.34136920314148E-05	0.0290085739267208	-0.00910426034701708	0.57421875	0.436279296875	0.1259765625	0	0	0	-0.562448694477495	-0.413159118773649	-0.560027245580337	0.446453237038824	0.0313380535637657	-0.0352903393071337	0.998885638274183	0.964813567169978	-0.259958099423474	-0.0394533540890645	0.261060734319768	0.964974807181888	0.025902017309487	-56.7141975065676	-87.2948518028363	-48.394712709229
9322	1646733919671	9.74171341103922	-0.375057829001479	0.320720902108345	0.0269364797376477	0.0639130087399506	-0.0587292000754722	0.0168971655858553	-0.0136424139213046	-0.00754339986306344	0.571533203125	0.424072265625	0.13037109375	0	0	0	-0.562433589244522	-0.413258097804427	-0.559970808919419	0.446451448028475	0.0313008755143958	-0.0351390865264886	0.998892136213974	0.964860027456518	-0.259797698304689	-0.0393736380360482	0.260893431516855	0.96502352331623	0.0257724045771832	-56.7928502650751	-87.3027517718126	-48.30628032997
9323	1646733919671	9.74191484427204	-0.350210801613868	0.293198909436874	0.0440405291693826	0.0339112136285381	-0.060229911834007	0.0215992791563343	-0.0533102915639139	0.00157509930415809	0.578369140625	0.43212890625	0.125	0	0	0	-0.562528929174473	-0.413432979492935	-0.559781418839529	0.446406920232448	0.0314358691791973	-0.0346445758958636	0.998905170419066	0.964916620854153	-0.259588066072351	-0.0393694139176494	0.260667798027203	0.965097813340084	0.0252687506188307	-57.3061467351322	-87.3186684219823	-47.7799610587923
9324	1646733919672	9.89026193348792	-0.3726766749752	0.167063152719876	-0.00453479208463317	-0.0814551389716089	0.0856670489274336	0.0278039699162586	-0.0670051507580315	-0.00451200947268474	0.579345703125	0.43017578125	0.1279296875	0	0	0	-0.562645046617923	-0.413673021437755	-0.559545515875209	0.446333954024136	0.0315668939970091	-0.0339861722512694	0.998923656391763	0.96499047797696	-0.259321265639478	-0.0393174083700539	0.260378395066065	0.965192945106235	0.0246103657017481	-57.9558753996	-87.3414057558098	-47.113578518276
9325	1646733919673	9.89092599622872	-0.372048214254335	0.113381178662437	-0.0173112781697955	-0.128748206869689	0.0850303335809137	0.0306996137903441	-0.0334213930484952	-0.00444614329385212	0.588623046875	0.426513671875	0.127685546875	0	0	0	-0.562652063948759	-0.413847858434943	-0.559406519251519	0.446337261744875	0.0315885925754225	-0.0336632445915193	0.998933905112183	0.965072651428299	-0.259025997693796	-0.0392467831024086	0.26007102546085	0.965283543049557	0.0243052100060252	-58.2304075474401	-87.3540955820636	-46.8210793654768
9326	1646733919673	9.91547428009272	-0.322174226734768	0.0642477109211237	0.0183353616001157	-0.189053091440563	0.106409200507944	0.0274389182981155	0.0169247775490072	-0.00897686930790867	0.576904296875	0.431396484375	0.1298828125	0	0	0	-0.562524906424987	-0.413912083704436	-0.559417381225929	0.446424361115448	0.0314579610915524	-0.0338033817133063	0.998933295104687	0.965146806329343	-0.258764153532232	-0.0391504160771982	0.25981154500182	0.96534887177201	0.0244850332300239	-57.9777572765338	-87.3533385773588	-47.0582612218488
9327	1646733919675	9.81690505261359	-0.346900515967483	0.16441197237303	0.0154086427401214	-0.0857685855249937	0.0113342026751333	0.0241913799920385	0.0565817325982438	-0.00742351865456649	0.584716796875	0.43115234375	0.129150390625	0	0	0	-0.562296104475446	-0.413885436662327	-0.559544553833387	0.446577908640776	0.0312174751884618	-0.0343081358158087	0.998923631245003	0.965212810753191	-0.258534033665732	-0.0390433527562832	0.259595260358858	0.965392720737716	0.025043872421146	-57.3223633226588	-87.3413746938705	-47.7004809487563
9328	1646733919675	9.79089615337307	-0.346531732214987	0.292339268869489	0.0457333333890387	0.0327976970482861	-0.0114617781447155	0.0287273633375844	0.0672864301442603	-0.00891081679847849	0.576904296875	0.433837890625	0.123291015625	0	0	0	-0.562025232140178	-0.413840589101349	-0.559694138149626	0.446772959086576	0.0309568770663932	-0.0349347062516109	0.998910025007964	0.965290118886466	-0.258259779682547	-0.0389470483923492	0.259338886676198	0.965443655786	0.0257272105000548	-56.5524879430649	-87.3246207615537	-48.4547136947515
9329	1646733919676	9.7404307940224	-0.321953919101501	0.394873067032852	0.0920101311294784	0.122399620050912	-0.0601429738279968	0.0242474235189811	0.042847534386	-0.00590976818832918	0.578125	0.427001953125	0.12646484375	0	0	0	-0.561837179052546	-0.413843470690763	-0.559779784491434	0.446899495273406	0.0307603492826956	-0.0353053100225289	0.998903066366411	0.965355902591382	-0.258028845781997	-0.0388470858159098	0.259117313670826	0.965491921161758	0.0261451320018019	-56.0583872942189	-87.3160926851632	-48.9354397506668
9330	1646733919676	9.71554068832174	-0.346010935850297	0.445576049788576	0.0799338762915694	0.176447711949994	-0.0827095001982592	0.0198687965969827	0.0016263905828211	-0.0059708799313089	0.577880859375	0.43701171875	0.1298828125	0	0	0	-0.561775871720265	-0.41391221923849	-0.559756579435119	0.44694196099393	0.0306984930883278	-0.0353056110272292	0.998904958618236	0.965409202140718	-0.257839116535937	-0.0387822434367881	0.258926002835035	0.965542595546132	0.0261690894360089	-55.989709194877	-87.3184090279727	-48.9927966890925
9331	1646733919676	9.71568896295296	-0.320972969717469	0.420231317038149	0.0967450263110458	0.146490134464654	-0.0842028621250854	0.0184514293210417	-0.0227963761249535	-0.00447094650821932	0.577392578125	0.4306640625	0.132080078125	0	0	0	-0.561772812880788	-0.41403520767648	-0.559680591118701	0.446927051583727	0.0306649654586311	-0.0350853463384429	0.99891374921248	0.965460239330831	-0.257662114733942	-0.0386879942887614	0.258739610737659	0.965597873394067	0.025972307024604	-56.1254595213622	-87.3291960924752	-48.8461965199793
9332	1646733919677	9.71689846511593	-0.369240544830484	0.369411464249134	0.0370514063516478	0.111819366890294	-0.0824744893578533	0.0123257783154258	-0.0182484072086664	-0.00450820455786565	0.571533203125	0.423583984375	0.127685546875	0	0	0	-0.561786998028138	-0.414123139407211	-0.559613889724369	0.446911276073462	0.0306686396701562	-0.0348975245271724	0.998920215694255	0.965493505733433	-0.257544673451811	-0.0386397666033977	0.258615012958155	0.965636010077542	0.0257947885080965	-56.2740749799064	-87.3371590802448	-48.6903501801839
9333	1646733919678	9.71813053880826	-0.392941483383033	0.295469537802427	-0.00598527828774148	0.0468473461524718	-0.082243596699028	0.0152923260413874	0.00313073200962735	-0.00752975970895701	0.5751953125	0.431640625	0.128662109375	0	0	0	-0.561699764495328	-0.414181603852484	-0.559635839328126	0.446939258664509	0.0305226527393759	-0.0349550356183297	0.99892267626412	0.965537872987281	-0.257397796189206	-0.0385096136586337	0.258466600350894	0.965673091683651	0.0258939471921529	-56.0830286801924	-87.3401953446555	-48.8726166963893
9334	1646733919678	9.69434464014779	-0.392516944231953	0.247420822060804	-0.0195989868643157	0.000276607289010494	-0.107265159459354	0.00909400079416886	0.018358080630523	-0.00451096932211962	0.57861328125	0.422607421875	0.13134765625	0	0	0	-0.561618727335156	-0.41417868504188	-0.55967864826294	0.446990193004262	0.0304316550710945	-0.0351207220496941	0.998919641038428	0.96556274597997	-0.257311568429983	-0.0384621934855753	0.258384399577942	0.965690059819822	0.0260808439268384	-55.8591813142058	-87.3364504715582	-49.0914903606834
9335	1646733919679	9.7421539070376	-0.391476407254223	0.323945394984451	0.000771862380012471	0.0693209220950841	-0.0575374350818141	0.0151339527009979	0.0351745157366842	-0.00751660746672175	0.580078125	0.432373046875	0.12939453125	0	0	0	-0.561442701283659	-0.41416226050116	-0.559790282717697	0.447086741613657	0.0302089227028189	-0.0354928703634507	0.998913248056356	0.965606383585523	-0.257166134899704	-0.038339158045472	0.258247425869114	0.965715193633253	0.0265034303037535	-55.3443292295937	-87.3285799466103	-49.598013145409
9336	1646733919680	9.74228806873784	-0.415178320676543	0.328094684045102	-0.0227974746838344	0.0755763020908587	-0.0563580069232614	0.0181067130964917	0.0489223265641738	-0.00596628154461575	0.580810546875	0.427001953125	0.126953125	0	0	0	-0.561252923439242	-0.414120296272806	-0.559903443571429	0.447222170763798	0.0300250281835577	-0.035950013027006	0.998902444809269	0.965654920781555	-0.256993420384479	-0.0382747416641215	0.258087333383383	0.96574426140798	0.0269990722916564	-54.8007875320268	-87.3153322605321	-50.1317643939171
9337	1646733919680	9.76716098233795	-0.438610936316889	0.308728033943219	-0.0521210602723691	0.0569315977762046	-0.031114554543608	0.0242359533117788	0.0459017206018226	-0.00745039820037634	0.573486328125	0.430419921875	0.1318359375	0	0	0	-0.561023719300304	-0.414098488622339	-0.560028915117501	0.447372822526654	0.0297801119060208	-0.0364452844182342	0.998891829067863	0.96572158139239	-0.256759998770461	-0.0381592749456258	0.257866190431875	0.965787784285486	0.0275496562062986	-54.1720385564888	-87.3023778337196	-50.7471100140396
9338	1646733919681	9.74301397117083	-0.438188673096495	0.287758400011324	-0.0594541259269387	0.0339552530086128	-0.0558207065905023	0.0349798279860956	0.0291705630232623	-0.00432336259867692	0.574951171875	0.422607421875	0.126708984375	0	0	0	-0.560854839859866	-0.414143299764378	-0.56004795364993	0.447519234758199	0.0296632337455986	-0.0367159151538504	0.998885395897933	0.965813011427396	-0.256423723563419	-0.0381064423873003	0.257537025534775	0.965866872590776	0.0278543517320746	-53.834624706909	-87.2945575761725	-51.0648343939411
9339	1646733919682	9.74281644482161	-0.388756959550506	0.266283227700048	-0.0188871700886432	-0.00292705582423946	-0.0585013386379671	0.0502569520053647	0.0277223819151132	-0.00573738535954803	0.576904296875	0.43017578125	0.1259765625	0	0	0	-0.56062610479496	-0.414222944161799	-0.560059086541558	0.447718150999707	0.0295063442243322	-0.0370488459496829	0.998877749609186	0.965945628758202	-0.255935619590669	-0.0380263186183105	0.257057226962083	0.96598361354556	0.0282354463047222	-53.40523487953	-87.2852919119175	-51.4655752623712
9340	1646733919682	9.71737552429226	-0.363949723855038	0.317292475051133	0.0161819825342116	0.0386161255802049	-0.0834136227167814	0.0395960840579575	0.0215645905939753	-0.00428913626572512	0.574951171875	0.42626953125	0.1259765625	0	0	0	-0.560468189347832	-0.414297557312449	-0.56004710317013	0.447861792258334	0.0294095524713676	-0.0372461951534483	0.998873264818928	0.966048602346001	-0.255554698080181	-0.0379722819236099	0.256681078634115	0.966076869216802	0.0284658854682016	-53.1429732283117	-87.2798719806992	-51.7054195248259
9341	1646733919683	9.66899059779936	-0.339701156434687	0.269933918425887	0.0248118737429423	-0.0143528042565566	-0.134008819389226	0.0395729844519955	0.0215661090588244	-0.00123747838293649	0.580078125	0.431640625	0.12939453125	0	0	0	-0.560290561695806	-0.414348379309768	-0.560052131551186	0.448030709865898	0.0293140610166833	-0.0375301357591413	0.998865443759374	0.966152080484008	-0.255167807160858	-0.0379413701010392	0.256302249703616	0.966168142249899	0.0287798140759349	-52.8184512255952	-87.2704458512457	-52.0072951924404
9342	1646733919684	9.69247264624696	-0.290352675488057	0.296647505517598	0.0792836401737734	-0.00388976866083149	-0.111654987921709	0.0456997980164505	0.0170199493838435	-0.00118728303920833	0.57568359375	0.434326171875	0.130615234375	0	0	0	-0.560138066245059	-0.414441580638202	-0.560007725176341	0.448190663361223	0.0292590479618561	-0.037691456567931	0.99886098242656	0.966269478768845	-0.254726611027869	-0.0379163293851184	0.255865594623721	0.966278276551866	0.0289670459627078	-52.6211549603003	-87.2650834859602	-52.1785973911528
9343	1646733919685	9.69193143229752	-0.241283260834526	0.29801841333548	0.125900612908108	-0.0171476699689435	-0.114005886921408	0.0396279882459609	0.0108848895971973	-0.00122869183547891	0.5810546875	0.421630859375	0.123046875	0	0	0	-0.559984738783541	-0.414520908812629	-0.559990889908837	0.448329913909155	0.0291652387525221	-0.0378705692419675	0.998856951136547	0.966372100608993	-0.254345408902723	-0.0378599542349233	0.255488457690504	0.96637168468214	0.0291790169733627	-52.3782262086939	-87.2602470368323	-52.3990747083056
9344	1646733919685	9.6913884323741	-0.265426207789944	0.347967341341079	0.114884513873124	0.0362903677604089	-0.112170542409867	0.0319948690984331	0.00932123880354983	0.000239360030338702	0.574951171875	0.434814453125	0.122802734375	0	0	0	-0.559887380385753	-0.41458899198676	-0.559950126685809	0.448439454812718	0.0291436466958973	-0.0379611697461189	0.99885414222937	0.966453748387068	-0.254036046181348	-0.0378528660623594	0.255181896077782	0.966449500404473	0.0292841780163625	-52.2733268077406	-87.2568821508269	-52.4857371416396
9345	1646733919686	9.71590603896629	-0.240743728127738	0.324630886402901	0.132500466464163	0.0051802679951314	-0.0892831390465361	0.0274410342854723	0.00471987206289358	0.000209516999629504	0.575439453125	0.437255859375	0.130859375	0	0	0	-0.559776168766002	-0.414654480991415	-0.559939412490762	0.448531109974434	0.0290590314664815	-0.0380730989437686	0.998852347360234	0.966527885867886	-0.253763009557685	-0.0377912796817118	0.254910608900424	0.966516825573691	0.0294246045507937	-52.0953784105815	-87.254734173758	-52.6475646432269
9346	1646733919687	9.71615183392658	-0.265095561273077	0.324924792763141	0.108931177755375	0.0114385818739987	-0.0881070936243162	0.0213692440047258	-0.00141531540287381	0.00017044637203031	0.571044921875	0.420166015625	0.12890625	0	0	0	-0.559732589808236	-0.4147171611828	-0.559890614016668	0.44858845779075	0.0290643531130372	-0.0380595128129703	0.998852710294446	0.966582355480042	-0.253556143514792	-0.0377866664388242	0.254703383277045	0.966571650510372	0.0294182082540899	-52.098025872437	-87.2551683732129	-52.632641043405
9347	1646733919687	9.71692330807453	-0.265201943483825	0.276084183425632	0.0951946651801957	-0.0364339528591044	-0.0887599832718848	0.0137323183353367	7.11022135436451E-05	0.00010801479489562	0.57421875	0.43359375	0.130615234375	0	0	0	-0.559651564732359	-0.414762795379982	-0.559910704639237	0.448622282651674	0.0289436527979535	-0.0381315419383754	0.998853467968207	0.966622131647072	-0.25341974215397	-0.0376840668809341	0.254566139878781	0.966604582958315	0.0295238993224108	-51.9227770086081	-87.2560750439814	-52.7997739319039
9348	1646733919688	9.74157811354236	-0.289191191562317	0.276954780810199	0.0726722734344875	-0.0308008499806715	-0.0632027791598446	0.00761381028517611	0.00766423653060106	-0.00300428683208766	0.5732421875	0.421875	0.12353515625	0	0	0	-0.559606776974895	-0.41477544477782	-0.559923055895599	0.448651041511849	0.0288950037717923	-0.0381978247472273	0.998852343913558	0.966642424029004	-0.253347146719391	-0.0376516575528451	0.254494602741122	0.966620995754657	0.0296031711462652	-51.8242183592142	-87.2547300506275	-52.8940693747884
9349	1646733919689	9.71755218405005	-0.288906086583804	0.252940883918037	0.0640527551287294	-0.054251156839364	-0.0879138323813997	0.0168170302370202	0.00770198626648393	-0.00903533672376501	0.57421875	0.42626953125	0.1240234375	0	0	0	-0.559479360099469	-0.41484779173635	-0.559976479896203	0.448676383685636	0.0286553033090627	-0.0382988897790185	0.998855379238637	0.966693998016343	-0.253181624828509	-0.0374403398538978	0.254325751333688	0.966660364290836	0.0297683106283245	-51.5122621696969	-87.2583634980465	-53.1960931891413
9350	1646733919689	9.74196257466972	-0.287729465748889	0.254346829432323	0.0650968063873084	-0.0548741296869111	-0.0635301471232754	0.0152673616300856	0.0122717204979496	-0.00905558309104133	0.5771484375	0.431884765625	0.127685546875	0	0	0	-0.559391933335973	-0.414888469116612	-0.55999941450905	0.448719153660992	0.0285364278871908	-0.0383944009424168	0.998855115749883	0.966735452374192	-0.253037358663673	-0.037345150198891	0.254181504847039	0.966694349366326	0.0298964462254322	-51.321181724494	-87.2580478971394	-53.3786255879254
9351	1646733919690	9.76701180822224	-0.311122795171254	0.231811726388909	0.0348599080298065	-0.0730896356506	-0.0383077818901469	0.0167648950233771	0.0153343106525547	-0.00752318603675408	0.572021484375	0.42529296875	0.13232421875	0	0	0	-0.559248319253203	-0.414948436171964	-0.560070273798689	0.448754277013569	0.0282781674510075	-0.0385494305788135	0.998856489515717	0.966786292602476	-0.252874788360941	-0.0371295818367112	0.254016947626674	0.966730718873388	0.0301182254618189	-50.9522374797007	-87.2596937619447	-53.7378655393153
9352	1646733919691	9.76685527562598	-0.33474480738903	0.258014899929465	0.0175652028693845	-0.0432409239122127	-0.0368033037140574	0.015210576700206	0.0183808393257767	-0.00601558383737092	0.576416015625	0.43212890625	0.123779296875	0	0	0	-0.559150213275949	-0.414966795205899	-0.560103516460273	0.448818057478577	0.0281732194507651	-0.0387116004056083	0.998853183255586	0.966826688572871	-0.252729820315405	-0.0370647027043391	0.253874819485898	0.966762147540635	0.0303071957400121	-50.7277000501079	-87.2557343073436	-53.9539204628422
9353	1646733919691	9.71867371491861	-0.359153291371805	0.234668060791464	-0.01577751210467	-0.059429155252394	-0.0847431833296195	0.012167088341954	0.0168386087572445	-0.00603745536142414	0.576904296875	0.42919921875	0.120849609375	0	0	0	-0.559019811714331	-0.415010042696181	-0.560181313773499	0.44884341397773	0.0279271203206205	-0.0388697147861036	0.998853953900692	0.966865058496407	-0.25261250838026	-0.036862979648611	0.253755856305502	0.966786463435582	0.0305270291443754	-50.371110753787	-87.2566566929833	-54.3035028219423
9354	1646733919692	9.76722456866313	-0.333592867063662	0.236548520540227	0.00986770666160271	-0.0669328215876834	-0.0371394113464394	0.0198533232139741	0.00619839329446655	-0.00595236162018109	0.567626953125	0.435791015625	0.124755859375	0	0	0	-0.55894549817437	-0.415068545992907	-0.560170752959122	0.448895043108242	0.0278536593130889	-0.03891435816209	0.998854266843619	0.966917139028156	-0.252422684800369	-0.0367972071192936	0.253565415458175	0.966834246873272	0.0305960643958803	-50.2572257244219	-87.2570313430646	-54.4061182278441
9355	1646733919693	9.71801053041373	-0.333164285132614	0.260902947343424	0.0127105719857522	-0.0416855843160327	-0.0855655853542227	0.0244605531240964	0.00773959314282157	-0.0104953199975307	0.57470703125	0.43798828125	0.12646484375	0	0	0	-0.558816027378757	-0.415194030571609	-0.560194100531784	0.448911053831058	0.0275929734141731	-0.0389204905285288	0.998861263256907	0.966988805550132	-0.25218556545198	-0.0365388904921085	0.253320504023844	0.966895876501024	0.0306771290446525	-49.9840297743878	-87.2654207242801	-54.6649799670679
9356	1646733919693	9.69401700723682	-0.332692282979226	0.236892889408826	0.00539314824052486	-0.0646448638195067	-0.110287658385101	0.0106901007013665	0.00767453741897793	-0.00603204330457553	0.578369140625	0.43017578125	0.12548828125	0	0	0	-0.558757877331781	-0.415224110948038	-0.560206777939265	0.448939793466786	0.0275146072766365	-0.0389787446728921	0.998861153439324	0.967017716074098	-0.252083999058821	-0.0364745694607467	0.253218646993556	0.966920014728332	0.030757144414188	-49.8607722300733	-87.2652888436379	-54.7822115301284
9357	1646733919694	9.69402309742239	-0.332004782527497	0.237607125373406	0.00391503959760002	-0.0642809596461777	-0.110284531573686	0.0152886543593211	0.00617039671104294	-0.0075160548350653	0.579345703125	0.43212890625	0.12158203125	0	0	0	-0.558656727005698	-0.415318444499968	-0.560244321366709	0.44893156650626	0.0272737800689656	-0.0389818358958862	0.998867637573135	0.967063607373685	-0.251942076504726	-0.0362376790079318	0.25306939801988	0.966956879367779	0.0308265020588163	-49.6130050044163	-87.2730866029507	-55.0213040037187
9358	1646733919695	9.7424354220502	-0.330652148163981	0.26356709439244	0.0122448798116726	-0.0419282878684625	-0.061177817076393	0.0183190357738041	0.00771679711619895	-0.00596832972366203	0.577880859375	0.4345703125	0.122314453125	0	0	0	-0.558581386589485	-0.415369792395837	-0.560241119558089	0.448981801498799	0.027195647042677	-0.0390404650980833	0.998867478130535	0.967111803433496	-0.251766554975865	-0.0361712794243786	0.252893567418275	0.967000229514197	0.0309095402416155	-49.4850291262367	-87.2728945915666	-55.1388724375833
9359	1646733919695	9.7184291920223	-0.3303441235714	0.240066876327469	0.00366393187437881	-0.0641941397342201	-0.0858949478909618	0.0136954189513799	0.018368932824632	-0.00755965462112669	0.572509765625	0.42822265625	0.12451171875	0	0	0	-0.55846251549047	-0.41543863621511	-0.560301690624923	0.448990393900182	0.0269455100451662	-0.0391263419280024	0.998870896991068	0.967153965178485	-0.251636731450178	-0.0359466691726276	0.252759069328761	0.967030550061582	0.0310607166635731	-49.170434221424	-87.277014776084	-55.4456117109666
9360	1646733919696	9.71712742639412	-0.329432836003031	0.315638248254067	0.0224848865751521	0.00659423754783769	-0.0848834382390695	0.00901940323427956	0.029036017237725	-0.00304877540115635	0.584228515625	0.425048828125	0.1279296875	0	0	0	-0.558354430106265	-0.415408207049428	-0.560370501302674	0.449067092054714	0.0268418455715383	-0.0393978775693706	0.998863014917132	0.967177928403566	-0.251549536699006	-0.0359121900683089	0.252678392695736	0.967042210986441	0.0313527037933744	-48.877807595784	-87.2675251641572	-55.7333244860277
9361	1646733919697	9.74118114631781	-0.304351336707147	0.318851886091803	0.0462885668772274	0.000135627304670434	-0.0616482903622195	0.00444674399262409	0.0305323212974349	-0.00461830610783316	0.576416015625	0.426025390625	0.126220703125	0	0	0	-0.558236188112151	-0.415395237228231	-0.560470459822705	0.449101345841049	0.0266393211084539	-0.0396387680405962	0.998858906272104	0.967193383201518	-0.25150955610372	-0.0357757275217519	0.252640665891463	0.967042765991625	0.0316383103402328	-48.5120218692677	-87.2625916001965	-56.0968390600177
9362	1646733919698	9.74137898137402	-0.3283744662588	0.321672951496448	0.0227163315367589	0.00640477411837925	-0.0604973413304606	0.00446748796667376	0.0244326261937186	-0.00307626117703349	0.56591796875	0.4375	0.1279296875	0	0	0	-0.55815134398826	-0.415362258338775	-0.560535725960066	0.449155843192799	0.02654778854027	-0.0398657877989904	0.998852308345326	0.967205798734134	-0.251466445746958	-0.0357431050478068	0.252602766846856	0.967044645105156	0.0318825431036244	-48.2673119424646	-87.2546875020241	-56.3391986324939
9363	1646733919699	9.74105525331294	-0.303729623270952	0.323259314402705	0.045096890631002	0.000570277693930785	-0.0616427219799505	-4.63725590673819E-05	0.0106774362535164	-0.00155449248155985	0.5791015625	0.43359375	0.119873046875	0	0	0	-0.55809307560811	-0.415382783499056	-0.560593875785637	0.449136692514088	0.026383299208429	-0.0399220480327365	0.998854419624677	0.967211068823321	-0.251466749220163	-0.0355980671145594	0.25259982159243	0.967042245260007	0.0319785242617124	-48.0659514502258	-87.2572142685897	-56.5404650995971
9364	1646733919699	9.74118948148828	-0.279215880848514	0.299909513311385	0.0623850646709913	-0.0292608638756409	-0.0631267827597863	0.00147600678132872	0.013733989411624	-0.00307480681605277	0.569580078125	0.42626953125	0.12548828125	0	0	0	-0.55804475786637	-0.415365575750003	-0.560635656606448	0.449160491629875	0.0263181980466523	-0.0400456100023087	0.998851190904392	0.967215938584051	-0.251452582481356	-0.0355658110048304	0.252587966064402	0.967040820174103	0.0321149733994674	-47.9188101884094	-87.2533510953632	-56.6868596572149
9365	1646733919700	9.74132167489618	-0.254547115514026	0.276940071640106	0.0786789818365067	-0.0584006667608196	-0.0645984875204437	0.00604142674238857	0.0183338475766358	-0.00457151303551814	0.57275390625	0.433349609375	0.130859375	0	0	0	-0.557955944053433	-0.415400193000002	-0.560695924501584	0.449163583116795	0.0261255198057516	-0.0401383672856426	0.998852525994966	0.96723839466682	-0.251389510514486	-0.0354005916001639	0.252521969533809	0.967053372609253	0.0322556883020077	-47.661394839205	-87.2549478763742	-56.9404418545131
9366	1646733919701	9.71731083090635	-0.254564965636063	0.254330267488188	0.0713768947911968	-0.0813540508915925	-0.0893184376966882	0.00750134229874238	0.0275020692357533	-0.00305666262427902	0.578857421875	0.4287109375	0.12890625	0	0	0	-0.557855583984203	-0.41536914855232	-0.560763302091269	0.449232831476353	0.0260259789172345	-0.0403945741036288	0.99884479615423	0.967258569842331	-0.251316667109319	-0.0353665364381602	0.252454961305908	0.967061637754311	0.0325312356971293	-47.391189497343	-87.2457157394068	-57.20656238683
9367	1646733919702	9.71770481664855	-0.254301531997532	0.23276757414125	0.0637377109394825	-0.104574950999802	-0.0896406310415134	0.0120756121012351	0.0305761300785759	-0.00454844738783724	0.571044921875	0.43408203125	0.126220703125	0	0	0	-0.557703331025988	-0.415387876891086	-0.560865973133189	0.449276380945844	0.0257645438265553	-0.0406412639899525	0.998841566987833	0.967294074429839	-0.251207290512243	-0.0351720168090998	0.252345718914214	0.967079720010091	0.032839812588867	-46.9639689286727	-87.2418681280149	-57.6273315146806
9368	1646733919702	9.74158080909055	-0.253416267153752	0.260863842689995	0.0710240790406272	-0.0815846092098692	-0.0649201852863896	0.0105237291357568	0.0351451542926244	-0.00457580797201276	0.57373046875	0.434326171875	0.120361328125	0	0	0	-0.557571518311328	-0.415352180393239	-0.560951937221575	0.449365655494437	0.0256309807398886	-0.0409679782293378	0.998831656279531	0.967322161652452	-0.251106147809275	-0.0351217611804117	0.252251637065726	0.967092202063581	0.0331931364211665	-46.6171101727182	-87.2300926836551	-57.968481755359
9369	1646733919703	9.71613738028468	-0.252964112360612	0.312790423870575	0.0809759617627666	-0.0326335099030045	-0.0886176855925971	-0.000174246398009506	0.0381353250606694	-0.00468730047524218	0.5751953125	0.4345703125	0.126953125	0	0	0	-0.557432958708208	-0.41535338375456	-0.561086639054309	0.449368275053091	0.0253267001567546	-0.0412057390628022	0.998829637789877	0.967332401525882	-0.251099439958894	-0.0348869060035359	0.252243103408874	0.967083842446257	0.0335001262989013	-46.1617076072399	-87.2277005337572	-58.4234479354615
9370	1646733919704	9.73968476252492	-0.227761246392114	0.340792472830255	0.11182288681588	-0.0158872437444134	-0.0650355142854177	-0.0062397591213312	0.0289486583826545	-0.00319497753454352	0.57958984375	0.43017578125	0.13671875	0	0	0	-0.557358865837112	-0.41528124647033	-0.561186923081066	0.449401622566745	0.0252214473857099	-0.041475258519489	0.998821145912776	0.967317996663991	-0.251159335928852	-0.0348551474784092	0.25230888197155	0.967056767158226	0.0337851620056338	-45.8930712471989	-87.2176591605663	-58.6958700559021
9371	1646733919705	9.74087631726178	-0.252082217218738	0.294314589975888	0.0740118206165105	-0.0563467603676697	-0.0645498466682568	-0.0122573076295553	0.0167016203726557	-0.00474674559152431	0.57861328125	0.429931640625	0.1298828125	0	0	0	-0.557292720796677	-0.4152735242971	-0.561309008205195	0.449338314271778	0.024960194651133	-0.0415774626042594	0.998823459519434	0.967293111525684	-0.251285958690525	-0.0346324033232612	0.252430238041996	0.967019483551586	0.0339454467298048	-45.5739228783124	-87.2203913340997	-59.0223463587476
9372	1646733919706	9.7652500495695	-0.251672355184137	0.29602599893885	0.0750065172356005	-0.05694216088101	-0.040164123385523	-0.015326145602618	0.00907050606171067	0.00134719981857291	0.581298828125	0.430419921875	0.123291015625	0	0	0	-0.557304189272375	-0.415207596753878	-0.56136279107246	0.4493178262841	0.0249489367944137	-0.0416667519056031	0.998820019992824	0.967254484260208	-0.251432285162401	-0.0346492230292805	0.252579320672434	0.966977604582262	0.0340293844346604	-45.5170921856065	-87.2163305137438	-59.0879531539594
9373	1646733919706	9.76522392116531	-0.251773499067732	0.296800859881377	0.0736720172527214	-0.0559128469911185	-0.0401480285417399	-0.0137761174266632	0.0075495330643073	-0.000159111006508458	0.573486328125	0.435791015625	0.12646484375	0	0	0	-0.557297722545009	-0.415214522396378	-0.561427083575168	0.449239110792434	0.0247930604388601	-0.0416337922019662	0.998825275761962	0.967226222998425	-0.251562243451143	-0.0344945099114279	0.252702864444147	0.966945223379645	0.0340322976745896	-45.3864532690754	-87.2225380443107	-59.2260621530979
9374	1646733919707	9.7412847755625	-0.252211444125217	0.272810945096074	0.0663858916203889	-0.0788744091481767	-0.0648651877574871	-0.0214314694582368	0.0120828379362057	-0.000248417314355917	0.56787109375	0.43408203125	0.12548828125	0	0	0	-0.557311376548067	-0.415129054799335	-0.56150517773686	0.449203553866404	0.0247596064722167	-0.0417479527569373	0.998821340544917	0.967172532658199	-0.251768070110408	-0.0344982745134681	0.252911553628668	0.966886729308809	0.0341437948630187	-45.2958827950936	-87.2178889013583	-59.3289415691272
9375	1646733919708	9.74075056827393	-0.252203094451487	0.298345098188523	0.0706751370468792	-0.0541126501231483	-0.0645124266127048	-0.0199212587641963	0.0120954582089059	0.0012929177797356	0.574462890625	0.4306640625	0.12890625	0	0	0	-0.557291616898674	-0.415125876399226	-0.561606509288333	0.44910431884275	0.0245372709374973	-0.041747475873175	0.998826847152778	0.967132159373189	-0.25195163508113	-0.0342893552884492	0.253087551335683	0.966838932727765	0.0341931209564728	-45.0805142824772	-87.2243966903257	-59.5549210295285
9376	1646733919709	9.71608523535993	-0.276970686608855	0.323427863815354	0.0523594565981808	-0.0236347834894096	-0.087445439653143	-0.0168608881013924	0.0105873228377947	0.00132787731000974	0.572509765625	0.436767578125	0.12890625	0	0	0	-0.557302145725072	-0.415052742985897	-0.561667536311833	0.449082528677647	0.0245215983865581	-0.041850586455891	0.998822917050799	0.967089723476358	-0.252112205952746	-0.034306010494674	0.253251175631998	0.966792616864102	0.0342910778202286	-45.0124725295209	-87.2197504838067	-59.6325970298814
9377	1646733919709	9.71553252061965	-0.277195146899982	0.348966932781607	0.0567496251103287	0.000885559433123909	-0.0871043064388459	-0.0169099786116398	0.0136460325338058	0.00437231289580044	0.567626953125	0.4326171875	0.125732421875	0	0	0	-0.557276288298875	-0.415034776814067	-0.561763708853328	0.449010921860572	0.0243353389005025	-0.0418980016843029	0.998825484624547	0.967054161435884	-0.252270652169634	-0.0341433288278645	0.253404893658622	0.966749230932598	0.034378545069454	-44.8033205425561	-87.222785016012	-59.8509785609283
9378	1646733919710	9.69181489915406	-0.253760436428313	0.30043538765059	0.0667536189906547	-0.0519218248330108	-0.113265737055737	-0.0214434685813902	0.00598989083585237	0.00434219621136287	0.5791015625	0.42333984375	0.120361328125	0	0	0	-0.557316064823699	-0.414950854674675	-0.56181484538435	0.448975134723453	0.0243597354210316	-0.0419642369471083	0.998822109340629	0.966999346637189	-0.252474233209629	-0.0341910100532168	0.253611645815933	0.966693211097842	0.0344291841883674	-44.801132624522	-87.2187965614026	-59.8653497134976
9379	1646733919710	9.71748522969042	-0.27841792136062	0.25313632301345	0.0306365682339729	-0.0920561338807101	-0.0884032928585956	-0.0153522338444891	0.0136485345162222	0.00133746745651005	0.572509765625	0.43017578125	0.12939453125	0	0	0	-0.557317663829341	-0.41493859937071	-0.561878446494196	0.448904880460603	0.0242371402350859	-0.0419547320459266	0.998825491010406	0.966965175381538	-0.252620734101851	-0.0340751273100024	0.253753641614412	0.96665534972957	0.034445960672158	-44.6899205814582	-87.222792567383	-59.9850847652372
9380	1646733919711	9.74080605195977	-0.278195160731376	0.304336306922363	0.0441602999365194	-0.0454398345620797	-0.0633642955487588	-0.0200153234702873	0.0258326932014268	0.00278985808327318	0.5751953125	0.429931640625	0.138671875	0	0	0	-0.557295470796067	-0.414818780047953	-0.561984863348161	0.448909959031059	0.0241967861741536	-0.0422079493196482	0.998815801113034	0.966914458607145	-0.252810456804522	-0.0341072230875147	0.253950674886472	0.966594724765514	0.0346942758994362	-44.5111322757616	-87.2113576315624	-60.1754062701603
9381	1646733919711	9.71632216546682	-0.327556368663499	0.331592203957008	0.000774004373251674	-0.00839163573094839	-0.0851958711955341	-0.0323084721876741	0.041022064411423	0.00263010553062079	0.576904296875	0.43505859375	0.13818359375	0	0	0	-0.557226022433239	-0.414667949339877	-0.562201136558887	0.448864716552091	0.0239607476843135	-0.0425769635311219	0.998805829351671	0.966832051695951	-0.253141916049745	-0.0339846164030453	0.254286583176948	0.966491786056733	0.0350993034269866	-44.0755979037476	-87.1996387828159	-60.6307926970782
9382	1646733919712	9.71592326097934	-0.352242977082268	0.359907222440679	-0.0165447178812935	0.0214780129516902	-0.0837595218385409	-0.024670935249854	0.0395399415844456	0.00271523359264381	0.57861328125	0.432373046875	0.131103515625	0	0	0	-0.557175422821084	-0.414503962138967	-0.562355988645394	0.448885013795187	0.023884414811517	-0.0429635107102002	0.998791105024752	0.966769192173375	-0.253377419522385	-0.0340178238665782	0.254532637973113	0.966412965570947	0.0354840271504879	-43.7914738949447	-87.1824237521891	-60.9292994744697
9383	1646733919712	9.66616218742596	-0.328738630487833	0.386244825546955	0.00953891815799295	0.0404796080210497	-0.133316747730499	-0.0230840583240237	0.0258176646839951	0.00428127044325623	0.582275390625	0.429443359375	0.126953125	0	0	0	-0.557121622188777	-0.414424535675204	-0.562507347157926	0.448835478447828	0.0236755772474898	-0.0431767694036915	0.998786880984056	0.966716247764492	-0.253598035033803	-0.0338782073778316	0.25475314198286	0.966345592017087	0.035735604640275	-43.4716282872882	-87.1775045565997	-61.2622512455212
9384	1646733919713	9.66743884538629	-0.35394435841629	0.339180433518357	-0.0266067344360936	-0.000433982816759602	-0.132863728525491	-0.0260833573113218	0.0105453850922727	0.00732325143104989	0.574462890625	0.43017578125	0.125244140625	0	0	0	-0.557165099164019	-0.414308438587906	-0.562574385713133	0.448804668567397	0.0237171565086844	-0.0432956169083375	0.998780749736232	0.96664842598962	-0.25384577437392	-0.0339579646665395	0.255006503875748	0.966275226003974	0.0358311399767996	-43.4625210702874	-87.1703794858896	-61.2862578327057
9385	1646733919713	9.69288624754639	-0.3545868988044	0.291626756111102	-0.0389703778636323	-0.0468873002296921	-0.109125919804349	-0.0214803680039191	0.00599342404799371	0.00738114457791752	0.5703125	0.43701171875	0.1318359375	0	0	0	-0.557215316375801	-0.414277062426346	-0.562608310650313	0.44872875496319	0.0236928086691968	-0.0432340047258482	0.998783996494102	0.966600102354385	-0.254034040033166	-0.0339256338617442	0.255191874764574	0.966228506793188	0.0357712134872259	-43.4831563839955	-87.1741502794881	-61.2766736261507
9386	1646733919714	9.69254901787943	-0.379941512810242	0.31682501359779	-0.0562831886922725	-0.0170175431804816	-0.107699854834857	-0.021557304275664	0.0105769591935624	0.0119523184813771	0.568603515625	0.431884765625	0.130859375	0	0	0	-0.557258450509567	-0.414160927754504	-0.56265503957407	0.448723803356927	0.0237800647268603	-0.0433640649470797	0.99877628445656	0.966542772395398	-0.254235348444845	-0.0340507963393943	0.255400817641222	0.96616972912237	0.0358674905144101	-43.5116126433747	-87.1652016838077	-61.2604372789243
9387	1646733919715	9.74156201278172	-0.355970607532208	0.294928057470475	-0.0387750617284898	-0.0474351036989423	-0.0603556345565988	-0.0200216123669766	0.0212602420602502	0.00585289694731652	0.576416015625	0.443603515625	0.129150390625	0	0	0	-0.557217943122625	-0.414100349210846	-0.562779312972439	0.448674168563242	0.0236006913474507	-0.0435207909977476	0.998773722180781	0.96649737033226	-0.254424782495078	-0.0339243746170738	0.255589202645083	0.966112814739181	0.0360581292912943	-43.2536024343818	-87.1622348094695	-61.5296677067395
9388	1646733919716	9.74091284720337	-0.356320780686103	0.321796766751271	-0.0325324465569888	-0.0238190897725601	-0.0600326294365683	-0.0123909302288282	0.0304533757843588	0.00135170145708978	0.5732421875	0.43603515625	0.134521484375	0	0	0	-0.557162095699799	-0.413995340323377	-0.562886724507222	0.448705686034253	0.0235327871281245	-0.0438159249101257	0.998762420525648	0.966465970608222	-0.254542131022123	-0.0339386386147652	0.255714167746509	0.966068562918278	0.0363565146118789	-43.030027822546	-87.1491853703327	-61.760511808729
9389	1646733919716	9.73997508464988	-0.332179482120059	0.348931914470733	-0.00493746288450295	-0.00553349509530079	-0.0608077614786975	-0.00935790859446449	0.0274212684159256	0.00444179731589862	0.57568359375	0.4296875	0.131103515625	0	0	0	-0.557062117747557	-0.41398729655566	-0.563007248830298	0.448686029452313	0.0232747121101509	-0.0439936937813096	0.998760653351776	0.966460254340837	-0.254590730529708	-0.0337362817719076	0.255759388010751	0.966047677309886	0.0365926305222853	-42.6742590291562	-87.147150297666	-62.1190755662224
9390	1646733919717	9.73991260975222	-0.283711716125555	0.326994962040833	0.0358872397319346	-0.0416042352773961	-0.0633132098646349	-0.00626243003873255	0.0259092753497908	0.00142738758623057	0.5791015625	0.429443359375	0.131103515625	0	0	0	-0.557004874823139	-0.413910142722019	-0.563089581284672	0.448724956542145	0.0232170344009809	-0.044244761312786	0.998750905085947	0.966444630252409	-0.254648614256176	-0.0337469985879105	0.255823661864783	0.966020954407193	0.0368479263501938	-42.4848625964573	-87.1359501889777	-62.3121676225147
9391	1646733919718	9.7157060555529	-0.308474010867909	0.328383083196713	0.0109329169881259	-0.0339698427047896	-0.0866058180421483	-0.00312636407134559	0.0137169564690517	-4.99879165152557E-05	0.577880859375	0.42919921875	0.12646484375	0	0	0	-0.556979076060063	-0.413903790838155	-0.56312817452109	0.448714407860532	0.0231406219806992	-0.04429594876204	0.998750409530638	0.966438952757213	-0.254678064216354	-0.0336873002858965	0.25585203186195	0.966010844934094	0.0369159215221662	-42.3817400601057	-87.1353819975631	-62.4170082256882
9392	1646733919718	9.76331570965466	-0.307935099533559	0.379458998235065	0.0253771569691182	0.0120633113976733	-0.0371895631864909	-0.00311953041763105	0.00914040911587193	0.00148039416169877	0.572265625	0.43359375	0.13134765625	0	0	0	-0.556962334531634	-0.413872765249764	-0.5631569359963	0.448727709793864	0.0231271992475466	-0.0443851612231549	0.998746759753522	0.966431327353441	-0.254705553295336	-0.0336982288909014	0.255882047367202	0.965999502372394	0.0370045841951723	-42.3225635218296	-87.1312007174122	-62.4779173849414
9393	1646733919719	9.71530834447748	-0.332935877493034	0.355104732410028	-0.00710722105108129	-0.00301789754997422	-0.0851952853129312	-0.00769361913271386	0.015216636089325	-0.00163175683653347	0.56982421875	0.42822265625	0.124755859375	0	0	0	-0.556934125252419	-0.413874596354075	-0.56321110613611	0.448693044905996	0.0230021368353835	-0.0444160397048612	0.998748275151424	0.96641958484348	-0.254764739891475	-0.0335873985147025	0.255937663762024	0.96598247537156	0.0370643972441488	-42.1825662294269	-87.1329360571967	-62.6213070850074
9394	1646733919719	9.73907183246265	-0.332504196273044	0.381691373049233	9.18064641517759E-05	0.0200216756265234	-0.0604893340591506	-0.0122874966681996	0.0182435354914089	-0.00168954761631892	0.568359375	0.43359375	0.13232421875	0	0	0	-0.556905814210001	-0.413806466919803	-0.563291013509828	0.448690713224062	0.0229348840688424	-0.0445844384381854	0.998742318589685	0.966389347979531	-0.254881703603667	-0.0335700056566707	0.256057843473785	0.965943862249377	0.0372402440688924	-42.0328990991545	-87.1261210021571	-62.7780507879623
9395	1646733919720	9.71517569336527	-0.332693214274419	0.358941259714557	-0.00800254218061344	-0.00208555848164524	-0.0851957360940307	-0.0153973063018861	0.0289086274199092	-0.00173594277873929	0.57763671875	0.429443359375	0.126953125	0	0	0	-0.556850252444343	-0.413750539080033	-0.56341157467076	0.448659877067996	0.0227557778759939	-0.04476615138954	0.998738287171884	0.966354519932336	-0.255029612240627	-0.0334490461260081	0.256205223170026	0.965896417101837	0.0374565755273087	-41.7651296463023	-87.1215177016427	-63.0546066137004
9396	1646733919721	9.71534189414903	-0.357217001889578	0.36158518096275	-0.0316287024722995	0.00420745687495019	-0.0841110343269715	-0.0169623583535581	0.0258514936716731	0.00282522216048968	0.57373046875	0.43115234375	0.135498046875	0	0	0	-0.55682009911907	-0.413640154396036	-0.563512171880748	0.44867274491604	0.0227117096269307	-0.0450188023618128	0.99872793376361	0.966311409443527	-0.255189181281458	-0.0334774810307529	0.256371679842153	0.965842528153947	0.0377063997765043	-41.6001468014534	-87.1097291594756	-63.2293356815073
9397	1646733919721	9.71524365314533	-0.357484470211374	0.363952594596882	-0.0319907720486059	0.00488913878599409	-0.0841125368933415	-0.0215123871648191	0.0242996303433696	0.00124396439176574	0.5751953125	0.42626953125	0.12890625	0	0	0	-0.556806032562063	-0.413552066825343	-0.563615239770869	0.448641941446637	0.0226250990450255	-0.0451862996257068	0.99872233539625	0.96625944197315	-0.255390192798959	-0.0334445843126778	0.256575126797084	0.965781573518695	0.0378834602539624	-41.4389701450625	-87.1033747444048	-63.4025489423115
9398	1646733919722	9.71604155113317	-0.382107799539617	0.341507318634742	-0.0618839781180653	-0.0124093203234081	-0.0833444645414243	-0.0123163941460024	0.016719808310755	0.00136295823417394	0.576904296875	0.431884765625	0.13525390625	0	0	0	-0.556788278331987	-0.413479296804993	-0.563683879523312	0.448644812954857	0.0225907101583932	-0.0453468458008641	0.998715837158124	0.966228548976754	-0.255505405844699	-0.0334571177242032	0.256694470054996	0.965743574226641	0.0380433684515012	-41.3299085815936	-87.0960163547037	-63.5186159048617
9399	1646733919722	9.81482856853661	-0.381406747943487	0.296584100915932	-0.0705797599665334	-0.0613838597508943	0.0135806696084941	-0.0123381435230821	0.013669184542607	0.00441623154989573	0.572021484375	0.435791015625	0.13427734375	0	0	0	-0.556798869239301	-0.413416947761892	-0.563726709921726	0.448635311849061	0.0225972476481355	-0.0454352385303887	0.998711671854503	0.966195594683126	-0.255625568530675	-0.0334909171013698	0.25681790672313	0.965707620252143	0.0381228930341554	-41.2992681439347	-87.0913094846904	-63.5565124710793
9400	1646733919722	9.81475894195384	-0.381947701800194	0.29818804297036	-0.0706188200908577	-0.0613417782136409	0.0135806517608952	-0.00781329512602861	0.0197985393105458	0.00599675120634341	0.576171875	0.42724609375	0.13232421875	0	0	0	-0.556772128738344	-0.413336861868851	-0.563783993057257	0.448670307077477	0.0226004955856508	-0.0456373856432367	0.998702381408463	0.966175163518226	-0.255695188334825	-0.0335488310220741	0.256894474443909	0.965679656870781	0.0383148705611653	-41.2056694305785	-87.0808384273328	-63.6545174767032
9401	1646733919723	9.76737062606898	-0.407528036418561	0.250360994975543	-0.109174830704	-0.100628267417859	-0.0347405972511474	-0.00784618530474629	0.025902500620684	0.00599389356245431	0.57470703125	0.43505859375	0.134033203125	0	0	0	-0.556724833284729	-0.413266498445705	-0.563862428813887	0.448695244724769	0.0225399252690601	-0.0458533360768015	0.998693858667156	0.966156225874197	-0.255766757247612	-0.0335486675080841	0.25697100804058	0.965650473752107	0.0385365225330327	-41.0417908710802	-87.0712655289938	-63.8228534150082
9402	1646733919723	9.81366181347373	-0.358742491410131	0.327679554042753	-0.0413237686605092	-0.043472791733383	0.0128115969875129	-0.00483560671711437	0.0335488611822426	0.00602985457921151	0.570068359375	0.4326171875	0.132080078125	0	0	0	-0.55665259675481	-0.41316386587381	-0.563951881556346	0.448766957062785	0.0225077904505301	-0.0461884619839227	0.998679140339175	0.966143417279572	-0.255807676369634	-0.0336055048722496	0.257021976913231	0.965623663074765	0.0388670129246699	-40.8476090317473	-87.0548068357091	-64.0198726020634
9403	1646733919724	9.78977062568856	-0.359540961745534	0.305849694627896	-0.0494895411337017	-0.0657834426714535	-0.0118891738553017	0.00282105109549518	0.0320632618810903	0.00460407700837522	0.57177734375	0.43603515625	0.136962890625	0	0	0	-0.556549835194951	-0.413135051978894	-0.564031995379221	0.448820251280403	0.0223746740298624	-0.0464374736083572	0.998670583829789	0.9661584539768	-0.255759621733985	-0.0335388983070224	0.25697707246215	0.965624449222037	0.0391434195417401	-40.5906575279421	-87.045280668203	-64.2741320824359
9404	1646733919724	9.7393062373637	-0.336056661398628	0.356127439438425	-0.0153524512972564	-0.0236505412939993	-0.0611207556911957	0.00591297925363295	0.024449587014272	0.00464751702419225	0.5732421875	0.430908203125	0.1318359375	0	0	0	-0.55647590903669	-0.413087365001321	-0.564077285618733	0.448898883254409	0.0223512894505341	-0.046680993265493	0.998659754234466	0.966173661068218	-0.255697242978418	-0.0335764291024249	0.256921926892068	0.965629227395786	0.0393867830761082	-40.4469150467324	-87.0332676372852	-64.4144712558481
9405	1646733919725	9.71419100348905	-0.336357630720481	0.381468832426202	-0.0108706715389619	0.00105632480890405	-0.0851983522408819	0.00762894834688905	0.00766939509982715	-0.00295342193863108	0.576904296875	0.42919921875	0.131591796875	0	0	0	-0.556417028522052	-0.413137530567709	-0.564099860468038	0.448897336400035	0.0222174565127116	-0.0466923353966208	0.998662210380124	0.966199363914313	-0.255617124418739	-0.0334465973676339	0.256836862225194	0.965649890757051	0.039434942414211	-40.3028175908804	-87.0359879201857	-64.5536508830012
9406	1646733919726	9.73832383894878	-0.31152968909756	0.3825534939666	0.0135983736594161	-0.00572970386991528	-0.0618857862203441	-0.00153380388994733	0.00151789408459436	-2.11176677758083E-05	0.57421875	0.4296875	0.128173828125	0	0	0	-0.556414503661973	-0.41313351085185	-0.564107583287769	0.448894460650894	0.0222066733769135	-0.0467025839245647	0.998661970995341	0.966196493471606	-0.255628930816335	-0.0334392842756954	0.256848592872735	0.965646269803009	0.0394472046516498	-40.2878505359838	-87.03572268194	-64.5693178332918
9407	1646733919726	9.73923211281059	-0.33596789365462	0.358231417384143	-0.0158153517049098	-0.021881928184702	-0.0611173664038631	-0.00610288563939022	-3.23958109857045E-05	-8.15244505855938E-05	0.574951171875	0.430908203125	0.128662109375	0	0	0	-0.556461134861427	-0.413150984798512	-0.564074380546825	0.448862297770117	0.0222527139414714	-0.0465785133908145	0.998666740615978	0.966188376871199	-0.255657802801101	-0.0334530755822711	0.256875139165391	0.965644618872397	0.0393145382975064	-40.3947432541676	-87.0410118981367	-64.4640324746822
9408	1646733919727	9.73895831265977	-0.311722947827713	0.35847526821236	0.00770287970235928	-0.0280821226527089	-0.0621931818314145	-0.0107531568304902	0.00604823692609267	0.00290609669107576	0.57861328125	0.41796875	0.13818359375	0	0	0	-0.556472877883139	-0.413102896777531	-0.564106577184656	0.448851537182934	0.0222595325020498	-0.0466390929453643	0.99866376134414	0.966161324271979	-0.255756588485061	-0.0334792910244374	0.25697628041087	0.965615535529394	0.0393678657089406	-40.3785638868471	-87.0377069625821	-64.4861641777975
9409	1646733919727	9.73824636640493	-0.311968484536444	0.384165103772219	0.0153787395437194	-0.00413428989924636	-0.0618876246699038	-0.0184419357112431	0.021267447949517	0.00127209330909165	0.5732421875	0.423828125	0.135986328125	0	0	0	-0.556515983655299	-0.412963853238469	-0.564163222207175	0.448854847989223	0.0223614292545075	-0.0468128246916446	0.998653356238332	0.966096764688002	-0.255980362710015	-0.033631758298133	0.257210045956744	0.965547830690556	0.0395016317092213	-40.4111308997292	-87.0261932648498	-64.4672472967804
9410	1646733919728	9.73905522367178	-0.336735805966904	0.362297469314513	-0.0145013605779684	-0.021429724471516	-0.0611143196343811	-0.0231166395474858	0.0319258259169284	0.00425852114100985	0.571044921875	0.440673828125	0.12841796875	0	0	0	-0.556485895755119	-0.41281828228979	-0.564289405112698	0.448867442471035	0.0223170661697297	-0.0471271809646311	0.998639563291933	0.966037387381123	-0.25619816979364	-0.0336788357317038	0.257436816985119	0.965474767463509	0.0398090272658613	-40.2315554836226	-87.010999076165	-64.6601151872537
9411	1646733919728	9.71586277373875	-0.337337593913979	0.316005675600213	-0.0286259129184624	-0.0671874730031309	-0.0861097959964105	-0.0185138502488549	0.0350018507003204	0.0012688849295434	0.583251953125	0.444091796875	0.1357421875	0	0	0	-0.556425776763971	-0.412733145211033	-0.564414135952705	0.448863441297665	0.0221760679619412	-0.0473790209209873	0.998630787822164	0.96600046460213	-0.256345923821253	-0.0336135349033503	0.257587508234032	0.965423221036659	0.040083411593641	-39.9828495041359	-87.0013721329867	-64.9177412774124
9412	1646733919729	9.71439171622045	-0.33782130584338	0.367788349381556	-0.0161299804323659	-0.0199494463228915	-0.0855017902326356	-0.0155068079024261	0.0273876847439401	0.00741486496780477	0.568359375	0.429443359375	0.138427734375	0	0	0	-0.556397671114014	-0.412610908033368	-0.564504908731337	0.448896511647181	0.0221728931802106	-0.0476570720624059	0.998617627668598	0.965960065286423	-0.256488320805745	-0.0336881813415318	0.25773923853358	0.965371713265252	0.040347740301564	-39.8600558775974	-86.9869926646447	-65.0493608311245
9413	1646733919729	9.71498241194037	-0.338297669953256	0.34539335312525	-0.0236634705762558	-0.0431530197231703	-0.0858069352551993	-0.0184093483962762	0.0151645076959182	0.00126953882614279	0.569580078125	0.428955078125	0.13525390625	0	0	0	-0.556363216250409	-0.412572089605807	-0.564602678499865	0.448851933172374	0.0220161726181521	-0.0477661380214514	0.998615884212625	0.965925876854407	-0.256632425931442	-0.0335707965885406	0.257880764242496	0.965328024051441	0.0404884849635973	-39.6636314500665	-86.9850928139603	-65.2542723972452
9414	1646733919731	9.76423882986726	-0.386943735573857	0.348036470017262	-0.0689558729265292	-0.0317425391350462	-0.0348833069682399	-0.0108077869569221	0.0121515608893566	0.00442799548592718	0.5810546875	0.422607421875	0.13037109375	0	0	0	-0.556360913374093	-0.412505814348179	-0.564648650220195	0.448857871717767	0.0220217098669158	-0.047889759526539	0.998609841342969	0.965898206098047	-0.256731128251885	-0.0336122484087331	0.257983913744857	0.96529565352746	0.0406029743969818	-39.6188838625515	-86.9785171128505	-65.3050547107873
9415	1646733919731	9.76368202950848	-0.338435971805704	0.349126789733109	-0.020586193816293	-0.0435299742018683	-0.0370238827400051	-0.00770541784240423	0.0106421729149826	0.00141936837953424	0.570556640625	0.424560546875	0.124755859375	0	0	0	-0.556406255133886	-0.412444308852982	-0.564644081905522	0.448863934964417	0.0221335057277106	-0.0479235422366222	0.998605749043984	0.96586991559731	-0.256821719966091	-0.0337329260175226	0.258080247342269	0.965269878455323	0.0406035426853405	-39.7193872777062	-86.9740720822751	-65.2101284561745
9416	1646733919732	9.74044289668035	-0.387509098646856	0.324964976318802	-0.0750104301309431	-0.0540059322042742	-0.0595622171832737	-0.00155148814809173	0.00914864487266064	-0.00154593112733792	0.567138671875	0.425537109375	0.135498046875	0	0	0	-0.556379854319559	-0.412427208473635	-0.564675431473433	0.448872935816233	0.0220909096018752	-0.0480026570815895	0.998602892358154	0.965867417753522	-0.256833770404723	-0.0337126934823908	0.258093244845938	0.965262741067323	0.0406905108359832	-39.6422536197559	-86.9709730297262	-65.2880271100497
9417	1646733919733	9.73920729662781	-0.338626206653216	0.350496320504197	-0.020886359993432	-0.0418451610441003	-0.0614060748833971	-7.11876607389413E-05	0.0137341181502368	2.23479869438613E-06	0.576171875	0.427734375	0.138427734375	0	0	0	-0.556386646262322	-0.412410897214919	-0.564670855073171	0.448885260562524	0.0221281545786381	-0.0480250158562784	0.998600992702765	0.965864679790055	-0.256838549416201	-0.0337547014182578	0.258100300482193	0.965260357305627	0.0407023034387017	-39.6691520612072	-86.9689139563815	-65.2614943193187
9418	1646733919734	9.73985764693903	-0.338612941151404	0.327426640780052	-0.0271900238407905	-0.065380134211572	-0.0617038266625407	-0.0015968908911885	0.0137262322499627	-1.95532943899979E-05	0.57080078125	0.43017578125	0.1318359375	0	0	0	-0.556350798054528	-0.412379457317813	-0.56471108068749	0.448907972790776	0.0220891570620673	-0.0481513325277023	0.998595773231638	0.965861893247934	-0.256849630294285	-0.0337501198398514	0.258114068411241	0.965251115820901	0.040833945372713	-39.5744518211132	-86.9632636516477	-65.356971717522
9419	1646733919734	9.76375858816036	-0.362566984759298	0.354305903367961	-0.0432777906181865	-0.0356507436729908	-0.0359381637414398	-5.29970452598963E-05	0.022891707927943	-0.00457334710942662	0.578857421875	0.429931640625	0.132568359375	0	0	0	-0.55629866093776	-0.412342083760795	-0.564772816299405	0.448929250292181	0.0220113438580891	-0.0483153759245598	0.998589567936111	0.965856772102222	-0.256873068383812	-0.0337182817379674	0.258139877829514	0.965236681435364	0.0410116115973221	-39.4258210648622	-86.9565597854474	-65.5071110868444
9420	1646733919735	9.76343115956745	-0.337856981767322	0.356623380924709	-0.0197348096107922	-0.0418448140250868	-0.0370147683317636	-0.00010506018468537	0.0244167923169976	-0.00152162417635457	0.57763671875	0.425537109375	0.125244140625	0	0	0	-0.556226227193033	-0.412294866691388	-0.564843081173916	0.448973964426104	0.0219304730997753	-0.0485412384850071	0.998580393616839	0.965858111248227	-0.256870644334878	-0.0336983829729565	0.258141750372982	0.965225994389566	0.0412506541650708	-39.2459890472471	-86.9466752884741	-65.6869968850252
9421	1646733919735	9.76334366601635	-0.337715435665695	0.359144041265987	-0.0182002447804986	-0.0400131430226415	-0.0370041219782138	-0.00622375843864755	0.0274371008763267	-0.00161012478199111	0.57470703125	0.426025390625	0.13525390625	0	0	0	-0.55622298708739	-0.412270000379705	-0.564826813919012	0.449021275331801	0.0220082341300326	-0.048610410459587	0.998575317953247	0.965866614850463	-0.256826682172642	-0.0337896084839709	0.258103312547098	0.965234211639405	0.0412988708449978	-39.289093766919	-86.9412204326032	-65.6414861501533
9422	1646733919736	9.71396784094331	-0.362593232780905	0.384976300842176	-0.037457696467441	-0.00898157822075349	-0.0844106762209815	-0.0047444280338685	0.032022659093832	-6.10500631070659E-05	0.573974609375	0.427490234375	0.135009765625	0	0	0	-0.556143216470153	-0.412188883975578	-0.564923214068932	0.449073277881493	0.0219241722659907	-0.048911735531726	0.998562453128359	0.965855942441408	-0.256867030039478	-0.0337879761056769	0.258150400195451	0.965208252661556	0.0416100934024011	-39.0770800368893	-86.9274378418136	-65.8561924712455
9423	1646733919737	9.71285989531943	-0.338294061630473	0.412398130096685	-0.00668911751865895	0.0087746704378458	-0.0851984782658306	-0.0108619159550179	0.0304643133835032	0.0013735043709367	0.578857421875	0.43994140625	0.135498046875	0	0	0	-0.556128839936446	-0.412065571091726	-0.565000377870674	0.449107171527898	0.0219530762536908	-0.0491683471774023	0.998549215651809	0.965814539293365	-0.257009427206122	-0.0338884938692556	0.258302803183676	0.965157307366537	0.0418453570235857	-39.0023086834907	-86.9133201943242	-65.939812167542
9424	1646733919739	9.71373002001696	-0.362862761052575	0.390680495718444	-0.0365317486942647	-0.00850041132728352	-0.0844067226892573	-0.0108380399070149	0.0258862909618016	0.00137223246024829	0.572265625	0.4287109375	0.12744140625	0	0	0	-0.55608332544364	-0.411976627181386	-0.565088815173608	0.449133860653458	0.0218997792438738	-0.0494143766458622	0.998538241155426	0.965787708038182	-0.257108067741539	-0.0339049333367329	0.258407628895561	0.965118469869328	0.0420931876395841	-38.8505115799984	-86.901664719102	-66.0977306034051
9425	1646733919740	9.68798320467919	-0.31448517531503	0.416562087204759	0.0155000851364052	0.00483085280510304	-0.110668006170663	-0.00622919651357158	0.0198059937954089	0.00143963485576131	0.5771484375	0.427978515625	0.129638671875	0	0	0	-0.556037499780285	-0.412015014853118	-0.565092963942434	0.449150162502954	0.0218271392766803	-0.0494315957063103	0.998538979377833	0.965814790629769	-0.257015518118311	-0.0338350949038335	0.258312535878094	0.965142238632371	0.0421318527473489	-38.7671241499428	-86.9024473744581	-66.1755445373738
9426	1646733919741	9.68939605360954	-0.314595482835159	0.369513793620322	0.00296814117777492	-0.0422739812366679	-0.111238473913776	-0.00316195966256393	0.0167697853427612	0.00148511327764927	0.57861328125	0.423583984375	0.1279296875	0	0	0	-0.556000640307172	-0.411968877493446	-0.565139532943386	0.449179518966901	0.0217979045626425	-0.0495882877674123	0.998531848802518	0.965808126459344	-0.257038807434907	-0.0338484022892137	0.258339919915157	0.965127998344643	0.0422898639096097	-38.673445837188	-86.8948958579636	-66.2707810085875
9427	1646733919742	9.71299167381429	-0.314528164772781	0.395980482882063	0.012259492780959	-0.0173588531068254	-0.086563568131222	-0.0061816108762162	0.0106498396926667	0.00143601659538063	0.568115234375	0.42919921875	0.132080078125	0	0	0	-0.556067034376593	-0.411963302763144	-0.565052358808097	0.449212112772473	0.0220041379637759	-0.0494983037755342	0.99853179009775	0.965815151933485	-0.256989429829946	-0.0340224227734882	0.258296167621918	0.965145766648243	0.0421513809122072	-38.9086811540394	-86.8948337638055	-66.0327827580034
9428	1646733919744	9.71369912587256	-0.314436600999032	0.372749811253763	0.00602145959910068	-0.0408514669578086	-0.0868425013649023	-0.00154994340773179	0.0137281769187474	-0.00306943040379561	0.572021484375	0.428955078125	0.1259765625	0	0	0	-0.556026669092573	-0.41194150166706	-0.565095872903084	0.449227333195574	0.0219417072643783	-0.0496121019022987	0.998527516309471	0.965813946034011	-0.256998004628561	-0.03399187054504	0.258305987403577	0.965137640423258	0.0422770849242113	-38.8001823702174	-86.8903165508757	-66.1418600470896
9429	1646733919745	9.73830697861436	-0.338230813607236	0.375035172688341	-0.0166045056553102	-0.0333679111049319	-0.0613651505813095	-0.00307584482451305	0.0182992720211538	-0.00461688854838734	0.571044921875	0.427978515625	0.134521484375	0	0	0	-0.555984477869803	-0.411996371089993	-0.565094837960388	0.449230536236177	0.0218536286383996	-0.0495885396330354	0.998530618284887	0.965842888691928	-0.256901831043269	-0.0338963651421497	0.258205215436422	0.965164455387619	0.0422805011530406	-38.7192230607667	-86.8935945543382	-66.2169518853398
9430	1646733919746	9.73825473982915	-0.338017344787659	0.376580719235425	-0.0165847569224244	-0.0332456784216402	-0.0613646994730743	-0.00464879416138453	0.0137105390277099	-6.54259467560171E-05	0.567138671875	0.427001953125	0.136962890625	0	0	0	-0.555957342281129	-0.411958533918207	-0.565137262380476	0.449245450243813	0.0218200820021249	-0.0497079444809524	0.998525414937897	0.96583343106974	-0.256937383534389	-0.0338963769532587	0.258243426730432	0.9651488492445	0.0424031997913306	-38.6382294000253	-86.8880978925539	-66.3001740347252
9431	1646733919747	9.76361280385232	-0.362158341953219	0.354535260208002	-0.045563255851405	-0.0509494524050712	-0.0361687209339685	-0.00620636851657748	0.019806790691748	-8.65650337628093E-05	0.5732421875	0.429443359375	0.132080078125	0	0	0	-0.555929129683758	-0.411887356045795	-0.565218932712484	0.449242881748865	0.0217527280659297	-0.0498808055529814	0.998518264259135	0.965801523050114	-0.25705927825516	-0.0338813449705968	0.2583684131154	0.965107472098482	0.0425832173973275	-38.5075185162325	-86.8805599124482	-66.4382651804023
9432	1646733919748	9.76174438277381	-0.337819367188505	0.405354748646982	-0.00945353255111395	-0.00987699032177352	-0.0367014520937143	-0.00316300650315807	0.0213487714019704	-3.78568601400048E-05	0.574462890625	0.423828125	0.1337890625	0	0	0	-0.555876981040323	-0.411836412507499	-0.565279707098068	0.449277646924006	0.0216992441521516	-0.0500743099835321	0.998509742708051	0.965795836652114	-0.257080730614763	-0.0338806707729178	0.258394165392078	0.96509173731115	0.0427831025648994	-38.3763051149691	-86.8716005060468	-66.5709445078023
9433	1646733919748	9.71232172719103	-0.362941214148739	0.430460569580954	-0.0276296533561546	0.0220330994763054	-0.0841228951500064	-0.0108635772612441	0.025885225484763	0.00289498054587968	0.576416015625	0.433349609375	0.130859375	0	0	0	-0.555882869712645	-0.411751683075441	-0.565307688476696	0.44931281307538	0.021775537667353	-0.0502285611312354	0.998500334304393	0.965771389919185	-0.257157094981661	-0.0339978074904735	0.258479106259798	0.96506337623354	0.0429095732891537	-38.3902386257302	-86.8617383587476	-66.561869539644
9434	1646733919749	9.6883453891097	-0.338997620222453	0.407412402625765	-0.0112582203529544	-0.00714002690153717	-0.109864955566017	-0.00927379203269819	0.0182640179381407	0.00138947950924914	0.568603515625	0.42578125	0.1337890625	0	0	0	-0.555856500672902	-0.411686455221482	-0.56536864427041	0.449328509358894	0.0217451173260192	-0.0503953155888747	0.998492594884497	0.965749685084253	-0.25723630652897	-0.0340151196234921	0.258562749892834	0.965033571835732	0.043075626493693	-38.2967556185541	-86.8536488363913	-66.6602444570894
9435	1646733919749	9.71162866796188	-0.314461932580645	0.434376176010272	0.019717351094034	0.0109822410962121	-0.0862907675216	-0.0046723187203277	0.0182889351945038	-6.27358342412477E-05	0.578125	0.432373046875	0.136474609375	0	0	0	-0.555827822517081	-0.411696959597606	-0.565372295190034	0.449349766891629	0.0217195625792809	-0.0504345689211744	0.998491169144275	0.965765067281333	-0.257180800905053	-0.0339980950189496	0.258507437843569	0.965046314900778	0.0431220903480162	-38.2527696244362	-86.8521608663323	-66.7009528913398
9436	1646733919750	9.71205436108676	-0.363301679338364	0.436151028612219	-0.0274128796981968	0.0235924771426067	-0.0841259385457391	-0.00468026504793455	0.0198150231415496	-6.18144736441533E-05	0.56982421875	0.43505859375	0.1318359375	0	0	0	-0.555783831277759	-0.411645830033196	-0.565430907173247	0.449377272144171	0.0216711996590417	-0.050611404212309	0.998483272202893	0.96575579039376	-0.257215555793091	-0.0339986937833632	0.258546151443531	0.965027794222379	0.0433040870129932	-38.1359947495036	-86.8439319350024	-66.819968392474
9437	1646733919751	9.71330970126657	-0.338748035727944	0.38921671957649	-0.0170323414944844	-0.0286727266622926	-0.0857396005883508	-0.00312188421584734	0.0182981280135883	-0.00156369718259687	0.57470703125	0.4296875	0.128173828125	0	0	0	-0.555712030074541	-0.411692135750747	-0.565453439859787	0.449395296306221	0.0215439854234467	-0.0506596872587797	0.998483576619524	0.965788777353863	-0.257106906037665	-0.0338832761855955	0.258433539288932	0.965054213479524	0.0433874499828429	-37.9879315834578	-86.8442487521666	-66.9614634071461
9438	1646733919751	9.73869750209981	-0.362945196156002	0.367136742117815	-0.0458678884399524	-0.0464244437957867	-0.0605343488360006	0.0014041972576054	0.0137399879185104	0.00308520980323777	0.572265625	0.4345703125	0.134033203125	0	0	0	-0.555677780593035	-0.411663830626212	-0.56547548214458	0.449435839472897	0.0215407392950165	-0.0507850085323796	0.998477280391993	0.965794783543582	-0.257080633502892	-0.0339114133848494	0.258411363199513	0.965054625804218	0.0435101894187049	-37.9325001269907	-86.8377024995489	-67.015505397454
9439	1646733919752	9.78719255556262	-0.338251395050331	0.369886499210087	-0.020485499382295	-0.0518826605367284	-0.0128273315691878	-0.00159828350585317	0.00914724948904355	0.00150651401684484	0.575927734375	0.426513671875	0.143310546875	0	0	0	-0.555652888846572	-0.411750875238651	-0.565418832640828	0.449458148832288	0.0215255208705764	-0.0506830770443967	0.998482787859942	0.965845330290241	-0.256897178376916	-0.033862039196032	0.258223643200588	0.965108836061141	0.0434221677133266	-37.9482812815487	-86.8434279276247	-66.9886681997081
9440	1646733919752	9.78875155341484	-0.338321112100791	0.322282385182469	-0.0329603302628154	-0.0989191857509078	-0.0133449091762969	0.0029469811332199	0.0152751798207544	0.00158577468609993	0.57275390625	0.429931640625	0.1376953125	0	0	0	-0.555607745405693	-0.411728653965619	-0.565444722259689	0.449501740616792	0.0215035631446448	-0.0508175154591008	0.998476427811217	0.965856032054134	-0.256855401372268	-0.0338737085441698	0.258185441333799	0.96511288609595	0.0435590974977251	-37.8704023784336	-86.836817102931	-67.0642225968487
9441	1646733919755	9.8106549540647	-0.338249810128323	0.398259389503168	-0.01273347123119	-0.0292790307619174	0.011820473461432	0.00902732520618089	0.0244643412757948	0.000166740144469982	0.576171875	0.4375	0.140625	0	0	0	-0.555550025070942	-0.411625862274245	-0.565526629243159	0.449564178697026	0.02148756224771	-0.0511235130013867	0.998461151516196	0.965838545426606	-0.256912397478907	-0.0339400086897346	0.258252180701092	0.965081554294785	0.043856638301321	-37.7357619160179	-86.8209945736363	-67.2026514226155
9442	1646733919755	9.78721770496472	-0.362790949203632	0.375732450277769	-0.0435205905550702	-0.0459694280044422	-0.0117478881210538	0.0029184893982644	0.0305383396838571	-0.00145702472589303	0.5751953125	0.42626953125	0.13525390625	0	0	0	-0.555455558979522	-0.411576826081962	-0.565602259602656	0.449630650827338	0.0213972003293367	-0.0513989522003619	0.998448950888713	0.965849496177857	-0.256873588137766	-0.0339221233151559	0.258218726181982	0.965077254643344	0.04414727646209	-37.538150002288	-86.8084139720807	-67.3982123869826
9443	1646733919756	9.71449455034016	-0.338940354230156	0.351528236785117	-0.029123041823737	-0.0738695879817168	-0.0862516458722098	0.00906066762236276	0.0229395885771679	-0.00135882725276145	0.5751953125	0.43359375	0.131103515625	0	0	0	-0.555371074132784	-0.411570628018994	-0.565638512644011	0.449695075781935	0.0213253823318439	-0.051580864088433	0.998441106189189	0.965878551146085	-0.256767913939062	-0.0338948787772229	0.25811596716271	0.965095670299724	0.0443451763372984	-37.3921969328991	-86.8003510590302	-67.5380407430029
9444	1646733919757	9.73661569015042	-0.363114876606323	0.427039315321478	-0.0329656309975847	0.00278004215450434	-0.060005393420937	0.00453726098524499	0.00765408686538789	8.14283176303368E-05	0.57861328125	0.43017578125	0.140869140625	0	0	0	-0.555340782374648	-0.411573247601515	-0.565643934127727	0.449723267215254	0.0213088032864988	-0.0516396576178227	0.998438421067424	0.965893294927824	-0.256712889567958	-0.0338915202247124	0.25806215862844	0.965107164044897	0.0444081545805111	-37.3502348776739	-86.7975959047228	-67.5767940599644
9445	1646733919758	9.7132724913565	-0.387812328803012	0.402322784718909	-0.0633766888671228	-0.0131596080545575	-0.083569481678273	0.00300955296846704	0.00306692719153411	0.00157894825884068	0.576416015625	0.429931640625	0.130859375	0	0	0	-0.555342306824138	-0.411613390829576	-0.565591371950994	0.449750751767705	0.0213616329287407	-0.0515776294905705	0.9984404983647	0.965922949422579	-0.256597355548325	-0.033921275099733	0.257946770511676	0.965141204830537	0.044338677482048	-37.4177712143404	-86.7997271739672	-67.5023901451881
9446	1646733919759	9.68858664040694	-0.363723067637955	0.40226400268916	-0.0407533285951919	-0.0187144577877517	-0.109038012037999	-6.33555533172427E-05	0.0122086294253242	5.90983180173668E-06	0.573486328125	0.431640625	0.135986328125	0	0	0	-0.555309444128923	-0.41159311547197	-0.56561880980042	0.449775377891299	0.0213329385920688	-0.0516797395207598	0.998435831815993	0.965925916160884	-0.256586433477634	-0.0339194139687828	0.257938035620544	0.965138646349992	0.0444450571146094	-37.3500152324987	-86.7949413619456	-67.569598542607
9447	1646733919760	9.71234998688949	-0.387912546625449	0.428810689338321	-0.0566401825345641	0.0119849726976581	-0.0833119923034378	0.00297207979864997	0.0152765844936153	5.93585862855453E-05	0.573974609375	0.427490234375	0.136474609375	0	0	0	-0.555277430056985	-0.411635852783798	-0.565580089992696	0.449824479298448	0.0213501730136186	-0.0516793420588614	0.998435484003174	0.965967735871273	-0.256427725053672	-0.0339286763597655	0.257779951446997	0.965180847006489	0.0444458007445309	-37.3570977443487	-86.7945849458847	-67.5531194755241
9448	1646733919760	9.7120133190888	-0.363344879856429	0.430847248735246	-0.0330340554477958	0.00592099083341693	-0.0843923050081585	0.002968836353699	0.0259611649217548	-0.00298700312431354	0.5712890625	0.435546875	0.137939453125	0	0	0	-0.55519285761096	-0.411602020107815	-0.565645653125296	0.449877386630401	0.021257544287247	-0.0519053728895064	0.998425735383498	0.965979379857913	-0.256388228083533	-0.0338956367326145	0.257743970831907	0.965179210698919	0.0446893358018846	-37.1793205632749	-86.7846112467341	-67.7287317131634
9449	1646733919760	9.76068247356091	-0.362673994175796	0.435531147947557	-0.0314445919464066	0.00530040840611007	-0.0356160061809625	0.0104967524683272	0.0351554032066738	0.000199967623467238	0.571533203125	0.4267578125	0.1357421875	0	0	0	-0.555063204686485	-0.411580607560437	-0.565716824410337	0.449967462004127	0.0211317561185317	-0.0522018253472953	0.998412949792699	0.966014829424521	-0.256261373235493	-0.033844614333375	0.257621424216353	0.965196911525245	0.0450124845667036	-36.9392839554977	-86.7715771142102	-67.9614664672299
9450	1646733919761	9.76196249611764	-0.338401321371927	0.390524066268537	-0.0203262904362765	-0.04796518160766	-0.037196527223502	0.0134365532243226	0.0412730832491485	0.00483249725955527	0.57470703125	0.43310546875	0.14306640625	0	0	0	-0.554927628381975	-0.41152035393944	-0.565785939149222	0.450102873366689	0.0210745387091838	-0.0525957257580225	0.998393486281928	0.966051781928118	-0.256116803361219	-0.0338841802252856	0.257487511253855	0.965213899955869	0.0454126511038317	-36.7280793278463	-86.7518355546573	-68.1645575433549
9451	1646733919761	9.73543137179679	-0.314703373681274	0.441953835361382	0.0148478613573885	-0.0066345012715921	-0.0621632621438426	0.0150254057971116	0.0290723355085206	0.00485533229664109	0.56982421875	0.430419921875	0.1376953125	0	0	0	-0.554834471201169	-0.411457543278796	-0.565841593472304	0.450205165166527	0.0210519623514033	-0.0529079592009338	0.998377465057354	0.966071272988225	-0.256035998672715	-0.0339391056242643	0.257416220133978	0.965218273364557	0.0457227992917932	-36.585748901716	-86.7356749447608	-68.3024978387518
9452	1646733919763	9.71004190670442	-0.315226455152175	0.467994583611309	0.0201252225635975	0.0176394875760641	-0.0863013980085743	0.0181701745708882	0.0214589470984887	0.00185627823435585	0.572265625	0.42822265625	0.139892578125	0	0	0	-0.554738048119762	-0.411463159413706	-0.565853015180308	0.450304487680194	0.0210168673132908	-0.053103764353424	0.998367808725737	0.966120844058822	-0.255847873640738	-0.0339467263308382	0.257232979929486	0.965257403890283	0.0459275328271358	-36.4694675662529	-86.7259730890505	-68.4078356712213
9453	1646733919764	9.71020063996918	-0.339729615335875	0.469839595424939	-0.0035956174433539	0.0237976564375845	-0.0852219950408575	0.0212528170229111	0.0153702831952091	0.00190981623326149	0.577392578125	0.436767578125	0.129150390625	0	0	0	-0.554658661949651	-0.411465847918664	-0.565868510128839	0.450380343671175	0.0209773704822849	-0.053265914839954	0.998360001324127	0.966158301418134	-0.255706804062418	-0.0339435849168869	0.25709548134589	0.965285850239423	0.0460992494415946	-36.3647861771501	-86.7181498262851	-68.5043127179991
9454	1646733919765	9.7349070453648	-0.290589747137546	0.447725039581899	0.0383144943072903	-0.0126260781864423	-0.0632418523123253	0.0152208010569227	0.0122875229117237	-0.0012511934594561	0.56591796875	0.42578125	0.1337890625	0	0	0	-0.554588267202988	-0.411492186413221	-0.56586789062172	0.450443742064399	0.0209354217683839	-0.0533658230705176	0.998355546407885	0.966200777592426	-0.255549231511776	-0.0339211977019118	0.256939225294955	0.965322059833787	0.0462120688033085	-36.2799092350913	-86.7136941957279	-68.579914108504
9455	1646733919766	9.73398015655274	-0.290482283314162	0.473212435611668	0.0444384578676481	0.0129758005078709	-0.062993190653545	0.0136834126447231	0.00922724962066582	0.000247048321464568	0.569091796875	0.427978515625	0.1357421875	0	0	0	-0.554526941428467	-0.411634983040356	-0.565773390680742	0.450507472041222	0.0209142222699651	-0.053244903706889	0.998362446978093	0.966295656228198	-0.255199316744787	-0.0338528209682751	0.256583904525126	0.965421301278482	0.0461130239347118	-36.2834017014923	-86.7205984434925	-68.5554504639497
9456	1646733919767	9.78384676317878	-0.314430300924072	0.451813355477139	0.0165820655541484	-0.00526190043273686	-0.01338349073486	0.00904765287686347	0.0153080250702803	0.00168949294177252	0.568115234375	0.43310546875	0.134521484375	0	0	0	-0.554467959903784	-0.411629951473984	-0.565786557190062	0.450568126028327	0.0208927095050849	-0.0533795387521425	0.998355707917846	0.966322016468437	-0.255098293713695	-0.0338617931116394	0.25648636450679	0.96544056543475	0.0462521289793224	-36.2083497159247	-86.7138556261607	-68.6246642107843
9457	1646733919768	9.75847188007632	-0.314666561677312	0.47728631503628	0.0210460177944015	0.0196820267447884	-0.0375270098513827	0.00295354108961878	0.0244335248203484	-0.00147372663596972	0.578369140625	0.431640625	0.14111328125	0	0	0	-0.554370881809415	-0.41164912475167	-0.565841253735862	0.450601374902101	0.0207373473236245	-0.0535251172501016	0.998351152776087	0.96635027038873	-0.25500679805504	-0.033744449400515	0.256392506414691	0.965456676795535	0.0464358469860715	-36.0055167788058	-86.709305762011	-68.8220342280293
9458	1646733919768	9.71067252061866	-0.339583665084315	0.454225341169034	-0.0107321696203253	0.00349196371210517	-0.0854745067674614	-0.00633422730262743	0.0396475665791016	0.001408094837714	0.575439453125	0.43408203125	0.13916015625	0	0	0	-0.554276812443373	-0.411547066169542	-0.565954247448146	0.450668411706723	0.0206496042452912	-0.0538934115785079	0.99833315783507	0.96633739560601	-0.255053990033965	-0.0337564811724886	0.256448107222314	0.96542372166639	0.0468124550297143	-35.7953893356241	-86.691392783242	-69.0353470547945
9459	1646733919769	9.71024208146198	-0.315484757820645	0.457826101133684	0.0129437942777883	-0.00280438657912357	-0.0865493683146106	-0.00636702432468975	0.0350691489584181	0.00445990965509987	0.57080078125	0.428466796875	0.13671875	0	0	0	-0.554202191972653	-0.411432641373731	-0.566054010577421	0.450739358314934	0.0206120774429037	-0.0542518996016835	0.998314516399064	0.966319386395364	-0.255114424956153	-0.0338152873088428	0.256518977348609	0.965387674237091	0.0471662240498836	-35.6382001872473	-86.6729378435504	-69.1965722922063
9460	1646733919770	9.68503358025334	-0.340685786809301	0.484110496793249	-0.00538700414319188	0.0276947102055843	-0.109620384000216	-0.00480744833484353	0.0228679013393308	0.0060150991927717	0.574951171875	0.43359375	0.12890625	0	0	0	-0.554161583939452	-0.411359616878242	-0.566107193969645	0.450789140755763	0.0206118210752031	-0.0544705573745202	0.998302615047799	0.96630934480641	-0.255144832356934	-0.033872771681098	0.256556822111149	0.965367325374576	0.0473764089750088	-35.563679034982	-86.6612088502339	-69.2732082542723
9461	1646733919771	9.68492214423325	-0.34114372139992	0.486013415285518	-0.0052013681332997	0.0294381312536347	-0.109625415452681	-0.00471924986953433	0.0167637950546329	0.00296426792205861	0.5791015625	0.42529296875	0.135009765625	0	0	0	-0.554134855110048	-0.411404406031707	-0.566067281343245	0.45083124341879	0.0206284953807326	-0.0544545907573069	0.998303141697842	0.966348674469369	-0.254995209310332	-0.0338774641919065	0.256407302020869	0.96540775881191	0.0473619540997283	-35.5757070057516	-86.6617270027565	-69.2523035341083
9462	1646733919771	9.68577160819436	-0.341663789131576	0.462638787361808	-0.0114355899194573	0.00601599595645499	-0.10986440095496	-0.001692379440643	0.00456958736331442	0.00759919288492964	0.569580078125	0.427978515625	0.14111328125	0	0	0	-0.554142387139974	-0.411377862757576	-0.56605912762385	0.45085644371745	0.0206906361334696	-0.0544989886585339	0.998299432941635	0.96634663219863	-0.254993442382927	-0.033948943725419	0.256409992033772	0.965405720190689	0.0473889376156396	-35.6174192456104	-86.6580797947311	-69.2106468244222
9463	1646733919772	9.76076089529818	-0.341584910301884	0.416894952097365	-0.0195283864621725	-0.0426528295994967	-0.0371702781942513	-0.00164827867081662	0.00151755801051569	0.00607369031313618	0.57958984375	0.43212890625	0.1416015625	0	0	0	-0.554214284726923	-0.411298194412522	-0.566029317969591	0.450878179862925	0.020889212943758	-0.0545258680187411	0.998293829741221	0.966315206521986	-0.255085324392991	-0.0341525829725274	0.256512304630719	0.965379928834304	0.0473606437552476	-35.7960281918778	-86.6525771099963	-69.0378403162096
9464	1646733919773	9.76073634626918	-0.342108327537523	0.41704048349923	-0.0195171574052202	-0.0424726371885009	-0.0371694712084416	-9.39242448155008E-05	0.00152542144277198	0.00457682940764081	0.57373046875	0.417236328125	0.135986328125	0	0	0	-0.554221007952637	-0.411290900505437	-0.56601597690402	0.450893317088175	0.0209314181016287	-0.0545335278225734	0.998292527308243	0.966317757582057	-0.255070023533298	-0.0341946556687944	0.256499253639927	0.965383539034071	0.0473577390107801	-35.8311675969919	-86.6512993350391	-69.001869861568
9465	1646733919773	9.73791277752876	-0.318372544053115	0.367616165996457	-0.00698781581820151	-0.0955909855365637	-0.0631098589376364	-0.00316028558790625	0.00456251086097152	0.00451917172634162	0.56689453125	0.427978515625	0.1337890625	0	0	0	-0.554319238163836	-0.411157902637992	-0.5659921241269	0.450923803680968	0.0212041890492948	-0.0546131722188812	0.998282416847534	0.966264113640209	-0.255233804744431	-0.0344872093214703	0.256678875363484	0.965335747984023	0.0473587225995856	-36.0625716665589	-86.6413968034258	-68.7807284597922
9466	1646733919774	9.76159329325128	-0.343079196267079	0.393369831707879	-0.0233129225278515	-0.0660998434366768	-0.0374004579482161	-0.00318909782639772	0.00456225735981839	0.00604479581073675	0.578125	0.42724609375	0.13671875	0	0	0	-0.554328039777474	-0.41113001458361	-0.56598980490897	0.450941322307071	0.0212553036951744	-0.0546545919203107	0.998279063011366	0.966258172231578	-0.255248069888862	-0.034548045005484	0.256697013345532	0.965329631991081	0.0473850708498874	-36.0954662784455	-86.6381183766494	-68.7488204895956
9467	1646733919775	9.73621932498278	-0.343859910554923	0.417717061183231	-0.0172988789285707	-0.0410638027618343	-0.0615485424231377	-0.00625649488857505	0.0137043407843216	0.004461456751574	0.57421875	0.427001953125	0.1396484375	0	0	0	-0.554344590890876	-0.411094492053522	-0.565975825892212	0.450970905557012	0.0213453662177692	-0.0547012454221726	0.998274586018442	0.966253277481782	-0.25525312188869	-0.0346474749699162	0.256707964614935	0.965325653608843	0.0474067863065666	-36.1613794649336	-86.6337470168665	-68.6834160244417
9468	1646733919776	9.73521310283744	-0.344110772478459	0.443720538706598	-0.0110232210657719	-0.0172807303388686	-0.0613154655454622	-0.00772513587923658	0.019802429318198	-0.00014419501249469	0.574951171875	0.432373046875	0.136474609375	0	0	0	-0.554307996471144	-0.411036720947345	-0.56603858731791	0.45098977454943	0.0212982633999981	-0.0548733472327816	0.998266146746255	0.966237112290347	-0.255314074569417	-0.0346491869972921	0.256772714299934	0.965299766440577	0.0475829181620022	-36.0615610795838	-86.62552224678	-68.787027261573
9469	1646733919776	9.70955295260498	-0.320123060431261	0.46908279620502	0.0182389219789814	0.00100389634474785	-0.0865575041108908	-0.0108345076170108	0.0197867630264524	0.00284882229772474	0.567138671875	0.426513671875	0.135498046875	0	0	0	-0.55430086477354	-0.410959420788226	-0.566084763366033	0.451011026984412	0.021320790300456	-0.0550306163123914	0.998257008575068	0.966211265631379	-0.255402816007743	-0.0347158716198336	0.256868086900599	0.965267337499614	0.0477258115534235	-36.0322338877906	-86.6166388618588	-68.8218854469776
9470	1646733919777	9.70734596890118	-0.295991045803082	0.519625664291908	0.0543329253228665	0.042174941791958	-0.087181910749937	-0.00773918027829632	0.0167498792813349	0.00138134256141983	0.569091796875	0.422119140625	0.1435546875	0	0	0	-0.554276163630908	-0.410904179877054	-0.566135556209006	0.45102796075863	0.0212965739109696	-0.0551771459754847	0.998249437015446	0.966194715744117	-0.255463067146955	-0.0347331627125266	0.256932339746867	0.965243028405733	0.0478713787803371	-35.9628277971435	-86.6092960193264	-68.8950424756051
9471	1646733919778	9.70727092227258	-0.296178008833415	0.520919365921847	0.0547527147890048	0.0416481289075579	-0.0871819947522052	-0.0153372847787273	0.0106081800088154	0.00123344505259545	0.569091796875	0.4228515625	0.137451171875	0	0	0	-0.554324787513119	-0.410752374509506	-0.566238662498676	0.45097704362312	0.0213125278530267	-0.0553408305565439	0.998240035577529	0.966101721438506	-0.255804385919507	-0.0348077574385253	0.257280469507635	0.965143258080196	0.0480130335666779	-35.9407884536077	-86.6002006198351	-68.9376067816432
9472	1646733919779	9.73492370416092	-0.344834575003613	0.449470379379661	-0.0100841104658433	-0.0170489530140407	-0.0613140411838842	-0.0229208313645472	0.00751949024735523	-0.000440228730329475	0.571044921875	0.427978515625	0.134033203125	0	0	0	-0.554356731836962	-0.410679488578853	-0.566299419776497	0.450927864173924	0.021294649642829	-0.0553944974434019	0.998237440466737	0.966046253927592	-0.25601283794431	-0.0348146819627306	0.257490141887131	0.965084906347982	0.0480619430553095	-35.9184856216067	-86.5976942630209	-68.9723345856844
9473	1646733919780	9.71026061174401	-0.320865267839726	0.449052006909858	0.0132657188017645	-0.0220144654967357	-0.0867888051835646	-0.0214394157411486	0.00447302554830408	0.00263944393611396	0.56787109375	0.42236328125	0.143798828125	0	0	0	-0.554433886812543	-0.410610857718397	-0.566307921456201	0.450884826506344	0.0213881232394399	-0.0553661502054089	0.998237014739349	0.96599244545438	-0.256203193500214	-0.0349072910057168	0.257684193363428	0.965036016453129	0.0480035773553968	-36.0239370634927	-86.5972832717669	-68.8782918753343
9474	1646733919781	9.71024239627837	-0.321219709204626	0.449192460485574	0.0133209166918993	-0.0218393498927986	-0.0867884858320362	-0.0229427312463545	-0.000112754078304688	0.00260778543007595	0.5703125	0.427001953125	0.146240234375	0	0	0	-0.554493956922186	-0.41054675407267	-0.566340305226385	0.450828651633031	0.0214200427929603	-0.0553534840066724	0.998237032760793	0.965936260675929	-0.256409779174276	-0.034945177853352	0.257892074477195	0.964981873898221	0.0479756289143435	-36.0693838918491	-86.5973006684112	-68.8451429549663
9475	1646733919781	9.75927306188431	-0.345442019070975	0.4507485438207	-0.00816649308574939	-0.0185077072746807	-0.0369262211511874	-0.0213654038265293	-0.00468262936661785	0.00110911637527029	0.570068359375	0.42578125	0.136474609375	0	0	0	-0.554600706248704	-0.410322123872267	-0.566497805720135	0.45070394651441	0.0214319815504494	-0.0555157140815826	0.998227767424266	0.965775472837691	-0.257003414514577	-0.0350282884678105	0.258492565138646	0.964814619716068	0.0481076225787835	-36.0592411943473	-86.5883682466748	-68.890792592044
9476	1646733919781	9.73487062876109	-0.345801562025758	0.44987682245907	-0.00910491900105292	-0.0178515115615167	-0.0613145139343434	-0.0168182951072514	0.00754993851060601	-0.000319652821611563	0.573486328125	0.4326171875	0.135009765625	0	0	0	-0.554619122099129	-0.410264997016584	-0.566546352111426	0.450672267323174	0.0214157262644367	-0.0555718331527801	0.998224993690604	0.965735083046138	-0.257154279377545	-0.0350346395969034	0.258644768055409	0.964771189431907	0.0481605232499484	-36.0342237279201	-86.5856987163532	-68.9248258993399
9477	1646733919782	9.73364812423434	-0.3215625570321	0.475054175642632	0.02069781948433	0.000782134330537532	-0.0621716994309587	-0.0214319909383081	0.0090526505094957	0.0011183445798166	0.5810546875	0.427001953125	0.1337890625	0	0	0	-0.554640329897813	-0.410261915128286	-0.566551388847945	0.450642640282275	0.0214093695794702	-0.0555288195495335	0.998227523710724	0.965720035354579	-0.257212743509382	-0.0350202497296684	0.25870147314803	0.964758080959062	0.0481185308922318	-36.0468030926383	-86.588133605338	-68.9156452990238
9478	1646733919782	9.73289424427493	-0.346386312558365	0.499996924191855	0.00341111283166185	0.0307716108382754	-0.0608540875101777	-0.0199435494675164	0.00447836137489794	0.004195235000233	0.572021484375	0.43408203125	0.141845703125	0	0	0	-0.554683763742842	-0.410190855286855	-0.566587305869216	0.450608709754902	0.0214445741338042	-0.0555659347956501	0.998224702725045	0.965670764649283	-0.257390505864122	-0.0350728070259724	0.258882414508768	0.964708533382647	0.0481387689582272	-36.0762256474474	-86.5854188025642	-68.8968908171314
9479	1646733919784	9.73405207775787	-0.37116965042232	0.475776510825977	-0.0258596385010823	0.0142921943949194	-0.0599940389233176	-0.0168480184318532	0.00144244088871178	0.00272605540395221	0.57275390625	0.426513671875	0.138671875	0	0	0	-0.554734837122348	-0.410180257968493	-0.566556718732354	0.450593942386015	0.021531280864257	-0.0554914937678826	0.998226977227	0.965656608147701	-0.257434510115858	-0.0351395523888044	0.258928019119256	0.964701076562485	0.0480428329114859	-36.1825335022344	-86.5876075229809	-68.7932252229619
9480	1646733919785	9.70964050070537	-0.371742839411501	0.474910138163736	-0.0267966633013597	0.0149560708209227	-0.0843828191916778	-0.0137968729934656	0.00145699540534731	0.00278546130591696	0.57958984375	0.4287109375	0.13525390625	0	0	0	-0.554770255087138	-0.410137501895251	-0.566574465611034	0.450566941227657	0.0215612089133886	-0.0554952748016561	0.998226121049175	0.965623620990575	-0.257553322023753	-0.0351754019107045	0.259048522202394	0.964669145764089	0.0480343872193507	-36.2151783430129	-86.5867834708837	-68.7676902816542
9481	1646733919786	9.7603048134812	-0.371257039154532	0.428493658407275	-0.0358989290504486	-0.0323169447969486	-0.036049111657098	-0.00916761275992559	0.00911545997915007	-0.00169366015842114	0.575927734375	0.427490234375	0.134033203125	0	0	0	-0.554803275730471	-0.410118047267959	-0.566541080937238	0.450585969770832	0.0216687818311644	-0.0554812526173463	0.99822457117723	0.965620596859137	-0.257550942301591	-0.0352757004319799	0.259050818982218	0.964670587676215	0.0479930250877105	-36.3165274244112	-86.5852922588636	-68.6663506317481
9482	1646733919786	9.76120731977363	-0.371208470784821	0.405261112047978	-0.0420618573686951	-0.0557470616395161	-0.0362706604663607	-0.00467973790958601	0.0152377087462104	0.00145402278095055	0.572998046875	0.4306640625	0.13720703125	0	0	0	-0.554776783606439	-0.41007377971356	-0.566580757531227	0.450608988767502	0.0216514807735518	-0.0556139393108948	0.998217563026536	0.965611589514191	-0.257582068866728	-0.0352949853975647	0.259085838239358	0.964654636412774	0.0481244311254592	-36.2567300368916	-86.5785574585322	-68.7281651854408
9483	1646733919787	9.78313582661964	-0.322147639658907	0.457123103758953	0.0191808295609708	-0.0200471051754393	-0.0136202177202271	-0.00308582654591542	0.0259364596624042	-0.00460579998510382	0.572509765625	0.42822265625	0.137939453125	0	0	0	-0.55471183777228	-0.410100277551982	-0.56657882974639	0.450667248721601	0.0216123840699966	-0.0557020875078563	0.99821349535161	0.965652002034984	-0.25743358656298	-0.0352726448561301	0.258938440214343	0.964689186192417	0.0482250787741736	-36.182374022439	-86.5746545079518	-68.7937700121901
9484	1646733919788	9.75885881822784	-0.34658301146977	0.458770694240037	-0.00532774094795111	-0.0131573680284901	-0.0369155966297363	-0.00471634899533296	0.0289752091098186	-5.54567945690231E-05	0.57568359375	0.428466796875	0.132568359375	0	0	0	-0.554643609231438	-0.410029582434624	-0.566659507123745	0.450714112551944	0.0215454890295252	-0.0559622987584027	0.998200387206974	0.9656434487312	-0.257465060550003	-0.0352770820575919	0.258975909738711	0.964665726411827	0.0484924165344236	-36.0350001258634	-86.5621073000488	-68.9432908359254
9485	1646733919788	9.7828773413412	-0.321966293674349	0.462748432071908	0.0200418139445697	-0.0183491932373533	-0.0136186143304933	-0.0138844270672395	0.0319840097756577	-0.000233689475484761	0.578857421875	0.431640625	0.138427734375	0	0	0	-0.554601093016892	-0.40999935004566	-0.566678693853821	0.450769806573969	0.0215515817885291	-0.056111115093075	0.998191901432498	0.965655465779229	-0.257414228886807	-0.0353190625202924	0.258930590570358	0.964670647179452	0.0486363211732101	-35.9866639737032	-86.5540089887764	-68.9888381265399
9486	1646733919789	9.70785377712721	-0.347258415296807	0.511027057707452	0.00597998346106672	0.0367251604242467	-0.0852633851859998	-0.0092489358311489	0.0197965715948172	-0.000157780725908598	0.575439453125	0.423095703125	0.134033203125	0	0	0	-0.554569118267796	-0.409937224196198	-0.566742782675363	0.450785074694561	0.0215081810074034	-0.0562813253065672	0.998183255004555	0.965635425177101	-0.25748857730187	-0.0353250364769551	0.259008926087098	0.964640889129626	0.0488091305639903	-35.8946989992489	-86.5457768647725	-69.0854014400321
9487	1646733919790	9.73292282800193	-0.322426646739448	0.489120705203052	0.0260819130465391	0.00771083039781822	-0.0621876325309429	-0.0137200709234895	0.010622468610629	-0.00331337290939163	0.581787109375	0.4228515625	0.142333984375	0	0	0	-0.554612845695695	-0.409922752430109	-0.566696473392316	0.450802656906722	0.0216368881696719	-0.0562397032485019	0.998182819351673	0.9656334002112	-0.257480603131928	-0.0354383324576057	0.259005755663635	0.964645445119262	0.0487358568588945	-36.0228156057377	-86.5453626051827	-68.9569573748317
9488	1646733919791	9.71093767261239	-0.371146624271881	0.440043412277666	-0.0344438445602901	-0.0264047128798253	-0.0847988512192526	-0.0152616453994698	0.00756042918360835	-0.00182288966414426	0.5703125	0.4296875	0.14111328125	0	0	0	-0.554626185274297	-0.409875898616683	-0.566741895444163	0.450771745221023	0.0216107433630496	-0.0562866544271814	0.998180739297594	0.965598278769761	-0.257613162887121	-0.0354319396049496	0.259138842723686	0.964607314320542	0.0487830846824976	-35.9915077457696	-86.5433853784069	-68.9961664474527
9489	1646733919792	9.76266237202459	-0.370317013518032	0.369444447225215	-0.0496856512597223	-0.0985513533563936	-0.0366442246379837	-0.0137287016848717	0.0060415813424403	-0.00179429552682546	0.570068359375	0.43115234375	0.137939453125	0	0	0	-0.554696681172821	-0.409747181367093	-0.566788365035477	0.450743595093698	0.0217163932442676	-0.0563816473782506	0.998173085242923	0.965523253875229	-0.257874917687462	-0.0355720825068608	0.259409414807271	0.96453182252666	0.0488376785151602	-36.0686116871044	-86.5361194070901	-68.9349233805541
9490	1646733919793	9.78527353056102	-0.394617535925278	0.420212584063249	-0.0596978104632766	-0.0454141973021647	-0.0107358626821004	-0.0107603465871203	0.0167367664300647	-0.000190344870556714	0.570556640625	0.4345703125	0.138671875	0	0	0	-0.554677532055729	-0.409687221809427	-0.566846246012057	0.450748875872894	0.0216834273362238	-0.056522022149366	0.998165862966222	0.965499210581452	-0.257963662370791	-0.0355812206485764	0.259501644205868	0.964499875535708	0.0489784314372769	-35.9971725299785	-86.5292772527217	-69.0117905421111
9491	1646733919794	9.7829604616657	-0.37041457219937	0.471041542982155	-0.0253989564210143	-0.00334252926319292	-0.0114249048722748	-0.0138484987353739	0.0243530895326373	-0.000240201342603924	0.577392578125	0.429931640625	0.137451171875	0	0	0	-0.554573582460658	-0.409719136667028	-0.566925982758247	0.450747491129094	0.0214503182448412	-0.0566421099201087	0.998164092337023	0.965519747616596	-0.257913856579305	-0.0353844534615993	0.259444600656058	0.964506150300862	0.0491567413711544	-35.7474383689556	-86.5276018704469	-69.2583663056564
9492	1646733919794	9.78383106649837	-0.37050203110452	0.449221968477061	-0.0315240736492956	-0.0267449041952875	-0.0116306463375562	-0.00477987406825724	0.0289698189394724	0.00300592351906432	0.56787109375	0.422119140625	0.1318359375	0	0	0	-0.554512353436388	-0.409640468332452	-0.566998523355293	0.45080307352959	0.0214147224345735	-0.0569079537149856	0.998149735494141	0.965510754346235	-0.257942551201288	-0.0354206651763582	0.25948100682866	0.964482827780642	0.0494214731816149	-35.6293952707486	-86.51404701789	-69.3784523969147
9493	1646733919795	9.78291745856288	-0.395400009111421	0.476270179092192	-0.0476616859831746	0.00479829296167953	-0.0103226888954957	-0.00632945002799694	0.0274335583242418	0.00449744365475172	0.571044921875	0.42529296875	0.138671875	0	0	0	-0.554493148117748	-0.409626095993007	-0.566960374771951	0.450887728387506	0.0215247898399533	-0.0570012238966173	0.998142045951694	0.96554067797	-0.257813435742164	-0.035544782121364	0.259360526309575	0.96451184172363	0.0494876203439933	-35.6880256145256	-86.5068086258096	-69.3124715009996
9494	1646733919795	9.7584191634935	-0.395946638160059	0.477175486611852	-0.0485690541236317	0.00548975140707911	-0.0347108049914748	-0.00314155645541339	0.0121920883014598	0.00148330124480587	0.574951171875	0.431884765625	0.133544921875	0	0	0	-0.554473032112128	-0.409594567557126	-0.566985650741216	0.450909324301055	0.0215191241625014	-0.0570999497081193	0.998136525250233	0.965536516948342	-0.257826142972115	-0.0355656356527851	0.259376486471968	0.964502605358562	0.0495838937761473	-35.6511940316155	-86.5016210521544	-69.350196530794
9495	1646733919798	9.73476946231539	-0.371899056402463	0.452440158579377	-0.0317702447857535	-0.0223072405338233	-0.0603932461059671	-6.34428709493811E-05	-5.91393473937298E-06	0.00305112727188558	0.573974609375	0.431640625	0.142822265625	0	0	0	-0.554483646301529	-0.409681227106302	-0.566885020949807	0.450944066557674	0.021605330358823	-0.0569437919811028	0.998143583987244	0.965589954489851	-0.257621481986205	-0.0355979185840803	0.259170309812628	0.964566522627675	0.049418356281671	-35.7666383826265	-86.5082552248254	-69.2225020717996
9496	1646733919799	9.73454071160693	-0.347708661150206	0.452227394210786	-0.0080740987436251	-0.0282726473030105	-0.0614910645136124	-2.43091987846835E-06	-0.00610771127680191	0.00151494513600108	0.573974609375	0.42041015625	0.13916015625	0	0	0	-0.554508527056326	-0.409700306539353	-0.566852533318281	0.450936977541242	0.0216477285844148	-0.0568649091449596	0.998147162474087	0.965594163199608	-0.257603002215058	-0.0356174850970348	0.25915109075978	0.964576111749469	0.0493319044867671	-35.8291698563103	-86.5116232885884	-69.1588240577499
9497	1646733919799	9.73556377116303	-0.347908803699947	0.427391120302699	-0.0131914063924432	-0.0519503909965711	-0.0616857329314442	0.00144513219104149	-0.00305404917428498	0.00460308476722209	0.57470703125	0.42626953125	0.13623046875	0	0	0	-0.554574044609261	-0.409643468506329	-0.566823111188503	0.450945028111427	0.0218075786653799	-0.0568568572635698	0.998144141542124	0.965567397972855	-0.257681620663376	-0.0357740456787675	0.259237399857127	0.964555586865997	0.0492797155116599	-35.9773443190276	-86.5087797807992	-69.0155686112366
9498	1646733919800	9.73656066464252	-0.348255827221717	0.40300608509239	-0.0192863791609476	-0.0753354279507921	-0.0618790781267329	0.00294156468679706	0.00305786609986051	0.00464533870467151	0.571533203125	0.430419921875	0.13671875	0	0	0	-0.554572947106467	-0.409641146100299	-0.566802857669217	0.450973944144549	0.0218573039192858	-0.0568748452531499	0.998142029093461	0.965578435848804	-0.257633266248685	-0.0358243540878542	0.259192095730479	0.964567443002025	0.0492859555185634	-36.0121808094172	-86.5067927731169	-68.9779681007246
9499	1646733919800	9.7108878038528	-0.324821150844313	0.426783707681608	0.00993865255848247	-0.0560607507481811	-0.0871666357201306	0.00742314452528952	0.00307049217634939	0.00931713302987677	0.57177734375	0.421142578125	0.142822265625	0	0	0	-0.554572756675537	-0.409712833252856	-0.566690502396639	0.451050248103976	0.021994537522726	-0.0567806326435797	0.998144378372066	0.965642934173103	-0.257378135906519	-0.035919616351592	0.258940078011732	0.964641101609236	0.0491689036424262	-36.1494445529104	-86.5090026177723	-68.8256323354562
9500	1646733919801	9.73625856072944	-0.325163694732822	0.403714981763162	0.00486804405565475	-0.079901832005852	-0.06296736839532	-0.000109435515808197	0.00304379966412655	0.0045818194433674	0.575439453125	0.423583984375	0.135986328125	0	0	0	-0.554578571357363	-0.409702516858248	-0.566676148871914	0.451070502439409	0.022043979959428	-0.0567973174226414	0.998142338387237	0.965646263345693	-0.257358499018153	-0.035970780775866	0.258923457867476	0.964645358521315	0.0491729117424882	-36.1860742315077	-86.5070836299288	-68.7879421032704
9501	1646733919801	9.7598113566386	-0.350116466477332	0.429706453218127	-0.00938753831109095	-0.0504763932062592	-0.0372840073532572	-0.00176581048181991	0.0106591618629098	0.00913958417391255	0.570068359375	0.425048828125	0.14599609375	0	0	0	-0.554664723595282	-0.409560859214152	-0.56665920250216	0.451114503444915	0.0223145016387642	-0.0569184479755793	0.998129427126896	0.965594291061434	-0.257511214762827	-0.0362717430094115	0.259094052587436	0.964597462442974	0.0492138939974713	-36.3910469087711	-86.4949625085548	-68.5926653753457
9502	1646733919802	9.75996722779339	-0.375276322072605	0.430590230060637	-0.0328412324274219	-0.0440496746442656	-0.0361756356034633	0.00135592768123845	0.00915262987909966	0.00614953847432457	0.580078125	0.42529296875	0.136474609375	0	0	0	-0.554653619794082	-0.409536026196377	-0.566654864807752	0.451156147565686	0.0223650148739776	-0.0569983728802304	0.998123735615326	0.965600930343849	-0.257476747521939	-0.0363396175628972	0.259064952142857	0.964601943795745	0.0492792105932045	-36.4059125911361	-86.4896325790529	-68.5759564338003
9503	1646733919803	9.75990505446319	-0.375879329832519	0.431472601708733	-0.0314416904278321	-0.0441997778019246	-0.0361717119077873	-0.00627173475558828	0.00911811990073643	0.00599004258616593	0.5693359375	0.43994140625	0.143798828125	0	0	0	-0.554718119494355	-0.409407813728491	-0.56667189994851	0.451171816242382	0.0225363997336057	-0.0571209155510535	0.998112875226874	0.965544645702109	-0.257658468573215	-0.0365465556310737	0.259259807612049	0.964546170268233	0.0493460999254074	-36.5242735261819	-86.4794845131861	-68.4688574218746
9504	1646733919803	9.71129542961991	-0.401340610608534	0.429910415456198	-0.0569371215348861	-0.036849208357119	-0.0838356087032856	-0.00624384438758427	0.00301335066187466	0.00597958308198185	0.56884765625	0.4248046875	0.1318359375	0	0	0	-0.554741489784412	-0.409375253381522	-0.566666366677243	0.451179576562813	0.0226022615912553	-0.057141706856179	0.998110195874445	0.965531458623125	-0.257697783222833	-0.0366176860429447	0.259303181970569	0.964534435808075	0.0493475628611725	-36.5767586522106	-86.4769853867324	-68.4188475577165
9505	1646733919804	9.71229671495324	-0.401992649406734	0.405283394899432	-0.0651882743532855	-0.0591944743366129	-0.0840283282874488	0.00136836685915587	-0.00764186076359783	0.00917202202117155	0.574462890625	0.429443359375	0.13525390625	0	0	0	-0.554698136028415	-0.409524532869192	-0.566598393720939	0.451182773493985	0.022511834422245	-0.0569538793916041	0.998122974854898	0.965603859553396	-0.257447523761091	-0.0364686019044845	0.259041316639896	0.964612371956492	0.0491992697297449	-36.5474232383254	-86.4889207620384	-68.4328825650847
9506	1646733919805	9.68768057120778	-0.378676439604556	0.403617100197298	-0.0424935010204762	-0.064692261299553	-0.109519499522873	0.00441943022899232	-0.00762836429834105	0.00923588566244339	0.570556640625	0.419677734375	0.13720703125	0	0	0	-0.554733753578063	-0.409538042366076	-0.56653438993106	0.451207091612706	0.0226347537608093	-0.0568795178092545	0.998124435316546	0.965617819708235	-0.257381504666731	-0.0365648371718653	0.258978559313513	0.964634377113566	0.04909810899231	-36.6761629493317	-86.4902873923866	-68.3003091366983
9507	1646733919806	9.71305452663041	-0.379549131971618	0.380032543093135	-0.0464022543223683	-0.0875772578760099	-0.0852988439637325	0.00119345284213396	0.00303007683354143	0.0152926947683702	0.57958984375	0.42041015625	0.143310546875	0	0	0	-0.554799262543473	-0.409523771994942	-0.566422875861173	0.45127949671286	0.0229108117443868	-0.0568230872969307	0.998121351066723	0.965637034084192	-0.257274192035246	-0.036811798620788	0.258882624195406	0.964666329288349	0.0489761169045065	-36.9295320516299	-86.4874019219615	-68.0409307541148
9508	1646733919807	9.68858410587122	-0.381012727113558	0.379764312477322	-0.0472915390776727	-0.0868808099037443	-0.109684288963292	0.00582565580173996	0.0122155993231575	0.0108273655092252	0.576171875	0.423828125	0.13623046875	0	0	0	-0.55477905931708	-0.409492223166021	-0.566406895626564	0.451353013833391	0.0229986955064576	-0.0569434980627198	0.998112467627463	0.965654339525539	-0.257193152140129	-0.0369239630554631	0.258810271358187	0.964680838682207	0.0490726290196126	-36.9590826584333	-86.4791042165919	-68.0068952445459
9509	1646733919807	9.71165886632152	-0.357211346811057	0.406623763069606	-0.0135158142250628	-0.0698038074794474	-0.0862180481976136	0.00899141319667249	0.0152923278263736	0.00479424684247193	0.5771484375	0.4267578125	0.13671875	0	0	0	-0.554843963104729	-0.409363877421101	-0.566364850837267	0.451442408514177	0.0233041431976846	-0.057096072519013	0.998096666366904	0.96562837691998	-0.257241935315363	-0.0372615673595655	0.258879807240168	0.964658812854634	0.0491387849380013	-37.1727659309225	-86.46439288501	-67.7968450710896
9510	1646733919808	9.75914909300655	-0.332977103045276	0.434074160270862	0.018505072375982	-0.0530544170984394	-0.0383777749428891	0.00901173729848522	0.00307998092542203	0.00629984019915937	0.575439453125	0.421630859375	0.134765625	0	0	0	-0.554833827283609	-0.409373812961284	-0.566326677656928	0.451493742523004	0.0233743508712134	-0.057117023501904	0.998093825924013	0.965654781241877	-0.257132963448223	-0.0373293794890535	0.258774966304803	0.964686625145502	0.0491450107267246	-37.2194383904299	-86.4617548460771	-67.7438479723028
9511	1646733919809	9.7081023320178	-0.309720816789716	0.480537260946209	0.054541971319092	-0.00969982420595747	-0.087923873489375	0.0060192072641428	-0.0106686048470057	0.00621374905987017	0.571044921875	0.42822265625	0.142333984375	0	0	0	-0.554928650941344	-0.409428964059248	-0.566148596987478	0.451550530818979	0.0236873790369632	-0.05688167362081	0.998099886424427	0.965697124347652	-0.25694008301294	-0.0375613866620881	0.258588422209956	0.964751920934806	0.0488442315075816	-37.5604115308768	-86.4673858675289	-67.3915667595916
9512	1646733919810	9.70816481873512	-0.310366013717462	0.478856043412797	0.0547159314283889	-0.00945190321590613	-0.0879246065870021	0.00757080865783339	-0.0244006552031321	0.00774992062516789	0.574951171875	0.42724609375	0.13818359375	0	0	0	-0.555003027245104	-0.409492886048697	-0.566033052611435	0.451546010253285	0.0238443192537802	-0.0566403503716399	0.998109873285052	0.965719515941085	-0.256843553799698	-0.0376457886364244	0.258490357595483	0.964791821887665	0.0485744320485581	-37.7761292597659	-86.4766846156439	-67.1699971130801
9513	1646733919811	9.73366148600157	-0.310796234338493	0.453213884715942	0.0493549760813814	-0.0333148543753603	-0.0637070658800773	0.0106154775174551	-0.0228617986600653	0.00781595276371272	0.57470703125	0.431396484375	0.13818359375	0	0	0	-0.555062883988332	-0.409557414039005	-0.565936545636385	0.451534877653316	0.0239571018376794	-0.0564199389963441	0.998119656030873	0.965740416577517	-0.256757957736576	-0.0376934865411268	0.25840182867043	0.964827519105146	0.0483358388484778	-37.9479897228436	-86.4858171384715	-66.9928939896126
9514	1646733919811	9.73371887966317	-0.311439367953129	0.451536307809003	0.0495266704076983	-0.0330682687530809	-0.0637070970779039	0.00755171253532004	-0.0121883674811458	0.00624271946096794	0.5693359375	0.425048828125	0.1435546875	0	0	0	-0.555099541237372	-0.409597851928056	-0.565858485095245	0.451550964853021	0.0240675490832716	-0.0562927304358991	0.998124181442968	0.965763049224208	-0.256662651672455	-0.0377626268898564	0.258306960483613	0.964860306850963	0.0481881980279609	-38.0839841395304	-86.49004979144	-66.8512210044895
9515	1646733919812	9.73493765157591	-0.336356621045809	0.426494046014509	0.0190300619635112	-0.0505452148098002	-0.0627577705232092	0.0013992448487855	-3.58945189464024E-06	0.00613384457920148	0.57861328125	0.425537109375	0.140869140625	0	0	0	-0.555099586746539	-0.409582735097864	-0.565876825047323	0.451541637922722	0.0240508039682276	-0.0563154829060726	0.998123301608342	0.96575231087144	-0.256704264663636	-0.0377543977567609	0.25834866532451	0.964847908682274	0.0482128638071477	-38.0636884892415	-86.4892264761864	-66.8739960519429
9516	1646733919813	9.73307734118641	-0.361512647596075	0.475592418770198	0.0080095411290941	0.00311030529171544	-0.0612977086603799	0.00441912152933398	0.00763966762719632	0.00620791267944304	0.57958984375	0.43408203125	0.14990234375	0	0	0	-0.555086916056405	-0.409569595426491	-0.56586065411763	0.451589395631406	0.0241089332474964	-0.0563798943376235	0.998118262958927	0.965766788880665	-0.256639528510884	-0.0378240915401701	0.258289118688333	0.96486136823908	0.04826252425034	-38.0863516192096	-86.4845152120458	-66.8476830616397
9517	1646733919813	9.7330179943562	-0.36203209132288	0.476411129368963	0.00821777414282531	0.00203835054775961	-0.0612975989291868	-0.00318314113228201	0.00913777197023826	0.00452623731423243	0.57373046875	0.427734375	0.132568359375	0	0	0	-0.555102596861884	-0.40943134478149	-0.565947787500028	0.451586295951767	0.0241381514684886	-0.0565957246687539	0.998105341931854	0.965701335568187	-0.256871582437968	-0.0379199237556401	0.258531004186159	0.96478697860462	0.0484541617352271	-38.0465111887481	-86.4724624468494	-66.901688101146
9518	1646733919815	9.70939257571389	-0.338265953994358	0.451724606390687	0.024725386477911	-0.0270855105390121	-0.0869772001859008	-0.00472190460216702	0.00455071372876285	0.00601357551971927	0.57470703125	0.426025390625	0.140625	0	0	0	-0.555118845808891	-0.409399164654847	-0.56594270889244	0.451601861443468	0.0242023484628005	-0.0566311780957239	0.998101776371717	0.965691945129015	-0.256896165441417	-0.0379924636531566	0.258560077045598	0.964778352705422	0.0484707820154369	-38.0901280296642	-86.4691437177851	-66.8596910410717
9519	1646733919815	9.70937668695646	-0.33894433703621	0.451557639247433	0.0251852342809358	-0.0259154855193462	-0.0869751920447239	-0.00470473310743835	-0.00766129300557248	0.00752151556402114	0.57275390625	0.431396484375	0.13818359375	0	0	0	-0.55517674628508	-0.409446900789228	-0.565842851624516	0.451612536455581	0.0243502053990634	-0.0564526546014654	0.998108293365741	0.965714247228161	-0.256798704700505	-0.0380843532791286	0.258462879728541	0.964814761004718	0.0482640316368148	-38.2763900847924	-86.4752119242244	-66.6676017935188
9520	1646733919816	9.75839310753421	-0.363585554923779	0.452221930683359	0.00384218731362546	-0.0203862936433964	-0.03707973310261	-0.00917560414153092	-0.0183575216472472	0.0043596283793749	0.5810546875	0.431396484375	0.134521484375	0	0	0	-0.555264580659475	-0.409458706968995	-0.565786715554698	0.451564176229872	0.024457919578211	-0.0562621898175047	0.998116414135569	0.965693858707545	-0.256866724066231	-0.0381425919677195	0.258528879285157	0.964807779852766	0.048049625504672	-38.4431308510493	-86.4827880962525	-66.5047764159262
9521	1646733919817	9.73627928740803	-0.388414229784273	0.400454307647088	-0.0334813347047528	-0.0594030297627335	-0.0606766165780268	-0.00913804638926097	-0.0198811086739615	0.00283174725212149	0.57470703125	0.42724609375	0.131103515625	0	0	0	-0.555314428276743	-0.409605430082394	-0.565652330854996	0.451538168921524	0.0245216644906562	-0.055907624990406	0.998134773183732	0.965746845891421	-0.256673347308029	-0.0381027877256289	0.258324829664863	0.964879852753505	0.0476985547893839	-38.6187268332061	-86.4999763133773	-66.3172450236928
9522	1646733919818	9.7615503859477	-0.36403587681271	0.37517863186793	-0.01488108338071	-0.08939810978272	-0.0375692926613969	-0.00456141120012265	-0.0198633698804417	0.00292595929064765	0.5771484375	0.429443359375	0.14453125	0	0	0	-0.555393090605862	-0.409638244699069	-0.565585523465338	0.451495336668689	0.0246190482526096	-0.0556979511562869	0.998144098164252	0.965738954171393	-0.256696938892584	-0.0381438587340247	0.258345069353143	0.964885702972206	0.0474700467742681	-38.7831066025426	-86.5087389674239	-66.1540947189142
9523	1646733919819	9.71380621156461	-0.364624376571258	0.347365463669921	-0.0229027140632398	-0.111288173628599	-0.0864992517996743	0.00149894225177601	-0.00915655184757431	0.00306789258178666	0.57470703125	0.433837890625	0.13671875	0	0	0	-0.555425827131574	-0.409704347795553	-0.565500379039056	0.451501737825351	0.0247033374082096	-0.0555280552465633	0.998151481590561	0.965769560261551	-0.256577056276219	-0.0381755244213084	0.258222581493385	0.964927380310646	0.047288995905256	-38.9132907579443	-86.5156927620892	-66.0166613242098
9524	1646733919819	9.7375895580452	-0.413717425094037	0.372011652508999	-0.0626891910070687	-0.0755082063723787	-0.0597096765668965	-8.15911087515831E-05	-0.0030603069242056	0.00457189765674686	0.577880859375	0.417724609375	0.1396484375	0	0	0	-0.555450261407636	-0.409707478908615	-0.565467189875217	0.451510405199217	0.024773277801945	-0.0554843875339354	0.998152176497618	0.965772892575751	-0.256556271446371	-0.0382308716537174	0.258203417236904	0.964935418730974	0.0472295776570705	-38.9890914918984	-86.5163479472364	-65.9396697431895
9525	1646733919820	9.73738743273834	-0.389671800910185	0.372023150670414	-0.0380635274009635	-0.0811661028806136	-0.0608197164350237	0.00450844990970511	0.00153834049285783	0.00314703355936634	0.5732421875	0.423828125	0.1328125	0	0	0	-0.555483488659877	-0.40970030287749	-0.565413563300766	0.451543196254661	0.0249063285152472	-0.0554537880623385	0.998150565891453	0.965780802251923	-0.256508807476435	-0.0383493636016125	0.258161028820235	0.964949796143071	0.047167511296691	-39.1127028311828	-86.5148295935465	-65.8134042682329
9526	1646733919820	9.73656037317377	-0.414527327126485	0.396444596387768	-0.0552923221977123	-0.0511249227439891	-0.0595371985201325	0.00905984385028547	2.69322727057156E-05	0.00476375190106778	0.576171875	0.43115234375	0.13720703125	0	0	0	-0.555479147435271	-0.409721637818853	-0.565369577126102	0.451584252967122	0.0249708415265791	-0.0554403441508584	0.998149700853479	0.965807648396456	-0.256399683950327	-0.0384029734406245	0.258054341897909	0.964979569892859	0.0471421925352421	-39.1669494553403	-86.5140143759578	-65.752760022717
9527	1646733919821	9.71176793192308	-0.366385246704067	0.39570958658958	-0.00882646448563968	-0.0615635313303858	-0.0861570152500839	0.0105483805616103	0.00155634930011023	0.00632279557569117	0.579345703125	0.42822265625	0.14501953125	0	0	0	-0.555464848517236	-0.409824352442082	-0.565250608022211	0.451657560921627	0.0250715005518979	-0.0553133781617263	0.998154221579218	0.965885465553387	-0.256098895615511	-0.0384528685176	0.257753151858115	0.965066726118383	0.0470056044143049	-39.284834150468	-86.518276843416	-65.6169779681688
9528	1646733919821	9.73195871654691	-0.342527430295338	0.494610159154324	0.0407311845261076	0.0265522961466737	-0.0622709276293047	0.00755380107014255	0.00307603184037749	0.00321150690561488	0.57275390625	0.42724609375	0.14111328125	0	0	0	-0.555452178017337	-0.409839259278163	-0.565221316810923	0.451696272413941	0.0251132891537048	-0.0553245053786511	0.998152554378583	0.965908942190922	-0.256004518083355	-0.0384915850092381	0.257661091559235	0.965091128249306	0.0470093189802467	-39.3108756429759	-86.5167042796335	-65.5854172255948
9529	1646733919822	9.73431889235474	-0.391476795314574	0.445566084611058	-0.0188421118250039	-0.00911958065289014	-0.0603384504604758	0.00758851603031927	-0.00608107170844049	0.00319851900695799	0.5712890625	0.42626953125	0.14111328125	0	0	0	-0.555479172972753	-0.409789519373363	-0.56524200648173	0.451682313483451	0.0251480478405132	-0.0553605477025562	0.998149680883526	0.965878720960227	-0.256111274995971	-0.0385397355488483	0.257770968276198	0.965060736211981	0.0470308764105091	-39.3331116551249	-86.5139955583887	-65.5696310945774
9530	1646733919823	9.7319843878051	-0.343232828191006	0.493615176329284	0.0408948662736138	0.0260033457320237	-0.0622701333172646	0.00144706463882759	-0.0122131583656311	0.00611658464323918	0.576904296875	0.421630859375	0.132568359375	0	0	0	-0.555529362958547	-0.409813130863049	-0.565176649977218	0.451680948218569	0.0252571041855102	-0.0552325953046142	0.998154015723064	0.965885505386203	-0.2560750375772	-0.0386104340130426	0.257734881560495	0.965077683684455	0.046880649326193	-39.4745283667975	-86.5180826340799	-65.4260352818073
9531	1646733919824	9.78378397655631	-0.343014362204108	0.42146246488167	0.0254348933743223	-0.0450908737196179	-0.0139610061680351	0.00304862831627625	-0.0076219898983294	0.00157722438003377	0.5732421875	0.421630859375	0.139892578125	0	0	0	-0.555592820747889	-0.409826765033602	-0.565105228390435	0.451679887798085	0.0253962070157743	-0.0550997155010036	0.998157830215703	0.965886949113009	-0.256054603241603	-0.0387097105640031	0.257715801227584	0.965090701183311	0.0467172803909934	-39.6449798154793	-86.5216830714027	-65.2543822502019
9532	1646733919824	9.71042694401251	-0.319353897730418	0.418266791878733	0.0460597561413343	-0.0497205212210271	-0.0882474389120933	0.00450897612669608	0.00153841629486557	0.00314624761590792	0.56689453125	0.419921875	0.134033203125	0	0	0	-0.55559134394908	-0.409836139986334	-0.56507826296294	0.451706933328175	0.0254417901757772	-0.0550967148789814	0.998156835032549	0.965902362134624	-0.255990369488715	-0.0387499361520079	0.257653531191415	0.965107912483664	0.0467051937799145	-39.6815037463314	-86.5207433754889	-65.2141123345885
9533	1646733919825	9.7603598948688	-0.343859032758285	0.396011119059094	0.0192927013384174	-0.0677935168382937	-0.0385009049686111	-0.00626860166955062	0.00301866580923128	0.00750785629624432	0.56494140625	0.425048828125	0.136474609375	0	0	0	-0.555672756248361	-0.409737860307952	-0.565082034016405	0.451691231512737	0.0255943613242879	-0.055124867347934	0.998151380136437	0.965845532054436	-0.256179834409536	-0.0389140161431049	0.257851385256867	0.965056030208493	0.0466853475872215	-39.8124945125991	-86.515597117526	-65.0946558116325
