// Start Time : 02/09/2022 05:10:56																																
// Update Rate : 100Hz																																
// Filter Profile : 46.1 human																																
// Firmware Version : 4.3.5																																
PacketCounter	Time_Of_Arrival	Acc_X	Acc_Y	Acc_Z	FreeAcc_X	FreeAcc_Y	FreeAcc_Z	Gyr_X	Gyr_Y	Gyr_Z	Mag_X	Mag_Y	Mag_Z	VelInc_X	VelInc_Y	VelInc_Z	OriInc_q0	OriInc_q1	OriInc_q2	OriInc_q3	Mat[1][1]	Mat[2][1]	Mat[3][1]	Mat[1][2]	Mat[2][2]	Mat[3][2]	Mat[1][3]	Mat[2][3]	Mat[3][3]	Euler_X	Euler_Y	Euler_Z
16797	1662095493288	5.78988857595061	-1.57751375476996	7.66189230105795	-5.98479599211998E-15	2.99239799605999E-15	-0.0804752354965235	0.00632756385740933	0.00789292229909397	-0.00902240064779195	0.341552734375	-0.5361328125	0.36572265625	0	0	0	0.150355414877392	-0.289433673801677	0.641025955381638	0.694771273307821	0.0106277459934462	0.803696998279847	0.594943851107869	-0.977768678695603	0.132957947488212	-0.162143748450492	-0.209416957233538	-0.579994240622857	0.787242795373423	-11.6381268522035	-36.50862947571	89.2423892295299
16798	1662095493289	5.81366473847056	-1.57612904208693	7.66700409159092	1.27068494615301E-14	-3.36102673470506E-16	-0.0625164845180741	0.00215508331109134	9.67912321520008E-05	-0.0103357369357008	0.337158203125	-0.526611328125	0.36328125	0	0	0	0.151640858851719	-0.289539736437843	0.642304548971127	0.693265214273163	0.0072232147890034	0.802762692931922	0.596254881745048	-0.978386910152461	0.128899832595421	-0.161690714635049	-0.206656427943658	-0.582200044652662	0.786343581900435	-11.6194048433936	-36.6021415648444	89.4844696234618
16799	1662095493290	5.78897515789089	-1.54146477967612	7.66252941472202	-0.0350335146783791	-0.00482220341305829	-0.0863595118095297	0.00272044524642457	0.00302279991192739	-0.00552848064712374	0.332763671875	-0.5283203125	0.357177734375	0	0	0	0.150994479924949	-0.28949485491471	0.641644696067145	0.694035647513158	0.00896962597362688	0.803224334099098	0.595609112523438	-0.978072834334279	0.130985502082194	-0.161914573098254	-0.208069883806397	-0.581096779680751	0.786786792020212	-11.628677750523	-36.5560665393853	89.3602032091771
16800	1662095493290	5.81358357576432	-1.57508945547946	7.66727926703848	-0.00250048267064172	0.00788285282185553	-0.0625199917281005	-0.000744186131065351	0.00146713286737388	-0.00533465658604676	0.340576171875	-0.521484375	0.364501953125	0	0	0	0.150994912295669	-0.289488123586323	0.641626214062539	0.694055447490378	0.00902485546048776	0.803225870582356	0.59560620615566	-0.978070805908574	0.131032675777195	-0.16188865466124	-0.20807703047976	-0.581084020349803	0.786794325526589	-11.6267586844316	-36.5558592349063	89.3562652924983
16801	1662095493292	5.7924395892994	-1.55805446181218	7.64584208559737	-0.0147246418702682	0.00586146524466092	-0.0947379844203961	-0.00244978401731248	0.00617379353713425	-0.00234888404422045	0.337646484375	-0.530517578125	0.368896484375	0	0	0	0.150971207018667	-0.289472414525594	0.641618387288272	0.694074391527051	0.00906313264463876	0.803257783860277	0.595562584699998	-0.978065783138425	0.131067079489846	-0.161891150245535	-0.208098975202873	-0.581032144843879	0.786826831760099	-11.6264657696325	-36.5527478843631	89.3535609288336
16802	1662095493293	5.81300158962515	-1.57501468934726	7.66773587145973	-0.00247457396672873	0.00786858034841791	-0.0625199735894988	-0.00333550557875443	0.00432697107884592	-0.0043830063603889	0.337646484375	-0.53271484375	0.365966796875	0	0	0	0.150952093959489	-0.289464790218109	0.641601614786864	0.694097232710318	0.00911500625375072	0.803277178230131	0.595535634194657	-0.978058443074002	0.13112166646427	-0.161891292277541	-0.208131205235192	-0.580993015033977	0.786847201106464	-11.6261829082471	-36.5508256711446	89.3498769922499
16803	1662095493294	5.79550740159598	-1.57511806770873	7.62936220516944	0.00556339752786493	0.0165560774274751	-0.10311654029411	-0.00124386231896323	0.00694013642410872	-0.00308851668946097	0.348876953125	-0.53564453125	0.35888671875	0	0	0	0.150930264905507	-0.28944229249301	0.641594246570218	0.694118172374084	0.00915996416877007	0.80331324790844	0.59548628933941	-0.978055655431748	0.131153755807095	-0.161882139890925	-0.208142330952641	-0.580935898419512	0.786886428903889	-11.6249797441034	-36.5473063310489	89.3467000026536
16804	1662095493294	5.76509529421016	-1.61048847888033	7.65851825369027	0.0338978203357474	-0.0288962064719416	-0.0925580078599513	-0.00350224549248949	0.00615089714717404	-0.00363455141467025	0.339599609375	-0.527587890625	0.357666015625	0	0	0	0.150903637988309	-0.289429437294888	0.641581205317637	0.694141375983471	0.00920831562066515	0.803344211271221	0.595443771602701	-0.978048031386052	0.131203298050122	-0.161888056639886	-0.208176019813278	-0.580881892296352	0.786917385738116	-11.6249481810604	-36.5442740385534	89.3432771293172
16805	1662095493295	5.79506134368019	-1.60959108152974	7.63008416417573	0.0393631293053891	0.0127741761676732	-0.0972362159052267	-0.00160294976514645	0.0157256340930887	-0.00414336974489379	0.3388671875	-0.532958984375	0.37060546875	0	0	0	0.150853175202181	-0.289377218653801	0.641576486365671	0.694178476328883	0.00928087493373997	0.803430230977317	0.595326573665412	-0.978044120037724	0.1312458633482	-0.161877183733905	-0.208191173252132	-0.5807532929788	0.787008289711221	-11.6228825371223	-36.5359162971618	89.338173629682
16806	1662095493296	5.77028481847232	-1.60997321418463	7.62593049026726	0.0406412350206966	-0.00371465856069899	-0.11519537040404	-0.00546492304948709	0.00941839101721973	-0.00950718081911352	0.3486328125	-0.52490234375	0.366455078125	0	0	0	0.150817749366901	-0.289354887578257	0.641542683129005	0.69422672178051	0.00939346951642261	0.803472441756113	0.595267837253883	-0.978031853407575	0.13135398439908	-0.161863598448297	-0.208243742884604	-0.580670445365491	0.787055511020953	-11.6212553243874	-36.531727964787	89.3301803380479
16807	1662095493297	5.79089494190374	-1.62665195376281	7.64784914224432	0.0528335412854872	-0.00171090982609573	-0.0829770380239303	-0.00164128883221762	0.00218837775637955	-0.00864572855341716	0.34130859375	-0.527099609375	0.368408203125	0	0	0	0.150815757315717	-0.289348207073443	0.641512345303708	0.694257973113458	0.0094790517726403	0.803473583200174	0.595264939902364	-0.978026659111078	0.131433036336446	-0.161830809883053	-0.208264259164922	-0.580650977833376	0.787064444817341	-11.6188369355276	-36.5315213684688	89.3240792521568
16808	1662095493298	5.79362495317024	-1.60878704545423	7.63134443046573	0.0393054736247627	0.0127708187142304	-0.0972359780645995	-0.00078241831008617	0.009171477765043	-0.00916384302058433	0.3359375	-0.537109375	0.367919921875	0	0	0	0.150796880623633	-0.289311969005519	0.641486317653515	0.694301223999832	0.00958777770696551	0.803514786145734	0.595207579726449	-0.978024155958188	0.13151121011503	-0.161782421716187	-0.208271037066885	-0.580576256885566	0.787117770768663	-11.6146917241579	-36.5274314014983	89.3163621408989
16809	1662095493301	5.78947238042728	-1.59115088354293	7.64875680468396	0.0188979058075074	0.00206148724884909	-0.0888573133797941	0.00182286852377434	0.00374381164052345	-0.00883895559582111	0.341552734375	-0.528564453125	0.365234375	0	0	0	0.150800290193267	-0.289291282622365	0.641461887191792	0.694331674026671	0.00967440215810422	0.803524193176698	0.595193478561905	-0.978025030656038	0.131571839515943	-0.161727828330954	-0.208262923616132	-0.58054950006535	0.787139652552667	-11.6105647868971	-36.526425975752	89.3101942219279
16810	1662095493302	5.76832010280009	-1.57353473639183	7.62744092837671	0.0066484620762128	5.44255274551987E-05	-0.121075565200439	0.00286145593894179	0.00633428118794952	-0.00882970881839138	0.345458984375	-0.52978515625	0.36083984375	0	0	0	0.150802679710921	-0.289253456551085	0.641440147485122	0.694366997242467	0.00977395013503007	0.803549345512919	0.595157894364612	-0.978030130967119	0.131626177972541	-0.161652751887438	-0.208234321904913	-0.580502367435398	0.787181979330511	-11.6047141456138	-36.5238888484946	89.3031187445518
16811	1662095493303	5.79272278045572	-1.6067041193123	7.63246803861781	0.0390370943435785	0.0127463080956604	-0.0972348638105877	0.00633849338581233	0.00532202946249197	-0.00774633516114168	0.34326171875	-0.53076171875	0.370849609375	0	0	0	0.150814533044659	-0.289214387078107	0.641427355988554	0.694392512862206	0.00985197059313486	0.803569241612942	0.595129744349107	-0.97804017256087	0.131651847224107	-0.161571074080678	-0.20818347564717	-0.580469004388763	0.787220029859113	-11.5984641455917	-36.5218818319097	89.2975738426954
16812	1662095493304	5.76557417538351	-1.62370506205255	7.64480912220202	0.0538434746750749	-0.0182242404649472	-0.100934745497746	0.00650580230404561	0.00349743268096935	-0.00849521571100781	0.34326171875	-0.529296875	0.37548828125	0	0	0	0.150838188618312	-0.289174972765035	0.641409905054593	0.694419908757335	0.0099423376483988	0.803578357316869	0.595115932885357	-0.978052873659378	0.131682349104409	-0.161469301295871	-0.208119499924244	-0.58044946600567	0.787251351961376	-11.5909074088416	-36.5208971325988	89.2911395440835
16813	1662095493304	5.78858493707578	-1.58774230418045	7.65013666956853	0.018519045785498	0.00204129772345231	-0.0888565802006003	0.0063514938559553	0.00275319989174488	-0.00647030609440856	0.341552734375	-0.5263671875	0.35888671875	0	0	0	0.150853280250675	-0.289148779236094	0.641400414736956	0.694436303255488	0.0099969828830736	0.803585382176451	0.595105531721527	-0.978061549489423	0.131697591625744	-0.161404305302946	-0.208076105652675	-0.580436282387916	0.787272542607775	-11.5860644897866	-36.5201555816101	89.2872501249797
16814	1662095493304	5.81308888308538	-1.62070772308019	7.65514472916022	0.0510507628917937	0.0147461965581381	-0.0650151817861886	0.00664586043636519	0.0068076337444418	-0.0117977596964362	0.343017578125	-0.52783203125	0.360595703125	0	0	0	0.150871579836189	-0.289094929074207	0.641374192000473	0.694478966000449	0.0101265356386405	0.80360935401561	0.595070970065398	-0.978074188703837	0.131753824466947	-0.161281775565825	-0.208010419612316	-0.580390330619789	0.787323776762623	-11.5767734561701	-36.5176915593327	89.2780359733251
16815	1662095493305	5.78797827765805	-1.58562068429516	7.65103566972676	0.0182121987285811	0.00201501394389159	-0.0888559951693803	0.00527181810615813	0.00786422389366453	-0.010310427313045	0.33447265625	-0.523193359375	0.365966796875	0	0	0	0.150870387495261	-0.289054763539825	0.641353928776274	0.694514656357375	0.0102249634363472	0.803639798529804	0.595028171048818	-0.978079015260223	0.131806528440535	-0.161209425803977	-0.207982908024479	-0.580336207107079	0.787370939703931	-11.5710458643161	-36.5146403753319	89.2710470015801
16816	1662095493305	5.79144872054971	-1.60167435716002	7.63449177671215	0.0384959727717779	0.0127129265224945	-0.0972326608931446	0.00438767802193053	0.00601599388530303	-0.0123451759363179	0.339599609375	-0.52587890625	0.366455078125	0	0	0	0.150884173507612	-0.289010490135265	0.641321936809353	0.69455962749342	0.0103582199177477	0.803658433189147	0.595000697515641	-0.978086868945505	0.13188027910405	-0.161101423891338	-0.20793937596452	-0.580293645275736	0.787413805553397	-11.5628901781422	-36.5126818235157	89.261565112954
16817	1662095493306	5.79411249621042	-1.58315051013644	7.618164936433	0.0246037907797195	0.0271528380733704	-0.111491591048102	0.004373224928332	0.00858225729935637	-0.0136228306675442	0.338134765625	-0.52392578125	0.360595703125	0	0	0	0.150880958393262	-0.288970839886161	0.641289654075211	0.694606629442819	0.0104868665431659	0.803687695688007	0.594958917430277	-0.978088484766927	0.131965031940854	-0.161022191983546	-0.20792532697207	-0.580233847810131	0.787461580179635	-11.5566741214203	-36.5097034715227	89.2524221794179
16818	1662095493307	5.81377409952811	-1.56464420598977	7.64054115605706	0.00303931037799988	0.032943569902269	-0.0851565681425956	-0.000464263980895729	0.00808206978846669	-0.0119429286427836	0.345458984375	-0.525634765625	0.365234375	0	0	0	0.150870685950279	-0.288935246181133	0.641253602620197	0.694656948976802	0.0106204812817347	0.803718824659936	0.594914494918888	-0.978086259806178	0.132063706495023	-0.160954794290693	-0.2079290113373	-0.580168275859726	0.787508919270281	-11.5512912440497	-36.5065368761819	89.2429276001173
16819	1662095493308	5.78326355350022	-1.59929170598897	7.66992273365083	0.0309805187815011	-0.0126354051609591	-0.0745937888143722	0.00282995071708451	0.0114620056795573	-0.0113878561945609	0.338623046875	-0.53173828125	0.361572265625	0	0	0	0.150851819416035	-0.288895929699339	0.641227900856755	0.694701122458332	0.010731841931988	0.80376253171951	0.594853444280681	-0.97808443818764	0.132141015483423	-0.160902404587933	-0.207931862262415	-0.580090117680738	0.787565740764053	-11.546821620666	-36.5021851798674	89.2350318797683
16820	1662095493308	5.74460632747023	-1.58177395762756	7.61024632713955	0.0267756316781633	-0.0059501496363076	-0.1474089169807	0.00162389708991875	0.010694423014643	-0.010649002897754	0.3388671875	-0.52001953125	0.3681640625	0	0	0	0.150838556469471	-0.28884554809311	0.641201316992066	0.694749487453311	0.0108582408688627	0.803810481635255	0.594786355104531	-0.978086663703246	0.132217201939694	-0.160826272098471	-0.207914830858905	-0.580006311279919	0.787631958457994	-11.5405604831386	-36.4974033379497	89.2260693892166
16821	1662095493309	5.76889588575322	-1.61502294474466	7.61539369601003	0.058848766075651	0.00666999883619194	-0.123560864985972	-0.00029618513073556	0.00625513322996271	-0.0126926686400989	0.34326171875	-0.527099609375	0.360107421875	0	0	0	0.150823750652536	-0.288834317156581	0.641163862895557	0.694791936041748	0.0109672762990785	0.803824813180981	0.594764985994587	-0.97807711330386	0.132322194311898	-0.16079800161592	-0.207954031655481	-0.579962504483735	0.787653866943587	-11.5382739254921	-36.4958802972499	89.2183126885414
16822	1662095493310	5.76460789891906	-1.59728544065421	7.63288880564656	0.0385638313053718	-0.00402804659407214	-0.115187011832656	0.00146886654171808	0.00995039535186028	-0.00862404257032834	0.336181640625	-0.53466796875	0.373779296875	0	0	0	0.150809403039813	-0.288788536297801	0.641143531982964	0.694832840799972	0.0110723053987679	0.803871109848876	0.594700464774909	-0.978079216904126	0.132382990702371	-0.160735152449323	-0.207938571490158	-0.579884456183327	0.787715410515498	-11.5330079870218	-36.4912818577174	89.2108731769229
16823	1662095493311	5.78818668082018	-1.59600695843753	7.63815163548548	0.0366770784658678	0.0123771432781451	-0.0972251904963102	0.00424762258741425	0.00270259580446757	-0.00904366324602915	0.3369140625	-0.52978515625	0.36962890625	0	0	0	0.150811546126108	-0.288783083590163	0.641123747546001	0.694852897036331	0.0111293419294574	0.80386974001966	0.594701251746573	-0.978077033344851	0.132432435775249	-0.160707706093921	-0.207945797244264	-0.57987506502294	0.78772041637442	-11.5310201024685	-36.4913379436921	89.2068073313117
16824	1662095493311	5.76023388947554	-1.57852719472887	7.65065373504757	0.0176743240440937	-0.0148087894969694	-0.106812164929609	0.00648927290665297	0.00605896222563569	-0.00977468118583848	0.33837890625	-0.5390625	0.362548828125	0	0	0	0.150828757644635	-0.288733861450213	0.641103744877134	0.694888071148109	0.0112374911131276	0.803891950142056	0.59466919483885	-0.97808942859195	0.132473348343781	-0.160598510750443	-0.207881669394286	-0.579834928643826	0.787766886238851	-11.5227332418078	-36.4890533416747	89.1991226192974
16825	1662095493312	5.78774201231418	-1.59412572015855	7.6388814140428	0.0359884829778224	0.0123153513908046	-0.0972225368414641	0.00407816234315895	0.00452543833584422	-0.00829617640138272	0.340087890625	-0.530029296875	0.365478515625	0	0	0	0.150819867972163	-0.288725489868601	0.641088689608023	0.694907368633881	0.0112857671136095	0.803903428188546	0.594652763894493	-0.978085589237268	0.132517318963055	-0.160585616732101	-0.207897117793977	-0.579808967093081	0.787781917849992	-11.5216188852796	-36.4878823824649	89.1956940021689
16826	1662095493313	5.78673597635448	-1.55872266110442	7.63938093623042	0.00217756387514978	0.0161004353589418	-0.103114424377511	0.00545265721915523	0.00346746685175763	-0.00978377900006984	0.333740234375	-0.533203125	0.36083984375	0	0	0	0.150841740730665	-0.288688611244584	0.641065234530005	0.694939580156438	0.0113885016293279	0.803910624575837	0.594641076385349	-0.978095795172843	0.132564268660666	-0.160484672600431	-0.207843492791676	-0.579788256494171	0.787811309982033	-11.5141517700989	-36.4870494772365	89.1883806314895
16827	1662095493313	5.81140355695659	-1.59175943505746	7.64430987965131	0.0340210532933044	0.0286895901852366	-0.0792603012026181	0.00529854393790694	0.00272517043698866	-0.00775795571708147	0.344482421875	-0.53173828125	0.361083984375	0	0	0	0.150844252715262	-0.288684436617641	0.641051634392932	0.694953314633206	0.0114281961938112	0.803909140120575	0.594642321704698	-0.978094692569034	0.132597626929849	-0.160463832999402	-0.2078465027371	-0.579782686670765	0.787814614955058	-11.512649525272	-36.4871382239491	89.1855506129921
16828	1662095493314	5.75644224496085	-1.59237180188145	7.66880848232134	0.0298248607077255	-0.029465812135091	-0.092546367251721	0.00616470154272434	0.00713898985532348	-0.00700205784182217	0.339599609375	-0.531982421875	0.364013671875	0	0	0	0.150852769607193	-0.288634657629847	0.641041653726086	0.694981348314374	0.0115112652060513	0.80394131064829	0.594597224856008	-0.978106660680635	0.132618080179928	-0.160373954062271	-0.207785589263387	-0.579733398936529	0.787866952633481	-11.5056291172905	-36.4839244970015	89.1796641913898
16829	1662095493315	5.79066177221308	-1.60772531475495	7.62330786088167	0.0548283291706891	0.0227302101401993	-0.105584585934448	0.00601060258815967	0.00639694542087702	-0.0049761227386606	0.33984375	-0.52294921875	0.368896484375	0	0	0	0.150841144731804	-0.288622500910366	0.641040775399104	0.694989730355752	0.0115275524879234	0.803961214417979	0.594569996926525	-0.978105808148682	0.13262734666343	-0.160371490555001	-0.207788699402668	-0.579703676569838	0.787888002048489	-11.5051579059966	-36.481984223507	89.1785239928266
16830	1662095493316	5.76236819764352	-1.59053067168883	7.63598988106526	0.035824319372257	-0.00445618234261337	-0.115176691919743	0.00146572680521134	0.00994485844451034	-0.00862793725070196	0.3447265625	-0.52734375	0.3603515625	0	0	0	0.1508266973546	-0.288576890873806	0.641020417449559	0.695030581939748	0.0116324049328018	0.804007388783744	0.594505513798337	-0.978107786317164	0.132688263555794	-0.16030902363961	-0.207773543795201	-0.579625692577282	0.787949370837423	-11.4999240524661	-36.4773893229501	89.1711006398391
16831	1662095493317	5.78667381502599	-1.62387399361934	7.64114914546416	0.0676358006265986	0.00805074845820548	-0.0913149594912301	0.00270243268749059	0.00558017118013775	-0.00681038139141778	0.33935546875	-0.52978515625	0.365478515625	0	0	0	0.150811718804565	-0.288575529504493	0.641007265277345	0.69504652729445	0.0116676992657219	0.804018604184042	0.594489654173889	-0.978100890622081	0.132731022665745	-0.160315699126434	-0.20780402440313	-0.579600344848113	0.787959978484829	-11.500239471205	-36.4762592489692	89.1685975924189
16832	1662095493317	5.78634113766132	-1.62303708951206	7.64157887961493	0.0676345565878812	0.00804887204228447	-0.0913149492822178	0.00859022835096103	0.00610452671992229	-0.00720312257839736	0.345703125	-0.533203125	0.3681640625	0	0	0	0.150832403595352	-0.288521468029203	0.640999159211751	0.695071957714992	0.011750880752205	0.804044307950542	0.594453251024739	-0.978117853997359	0.132739327830955	-0.160205288734759	-0.207719475478706	-0.579562784950276	0.788009897023845	-11.4918213376845	-36.4736654130649	89.1626979543856
16833	1662095493319	5.78516908433589	-1.5872883352616	7.64225347658924	0.0327856248794247	0.0116522741666545	-0.0972103827164936	0.0101189752513188	0.00578700719128876	-0.0107170281469892	0.328857421875	-0.53173828125	0.36376953125	0	0	0	0.150836446117565	-0.288504155657359	0.640985768913793	0.695090614769795	0.011805192436856	0.804052501286947	0.59444109262881	-0.978120267404966	0.132771221145233	-0.160164119974615	-0.207705031049245	-0.579544112220812	0.788027437382116	-11.4886978339311	-36.4727991094438	89.1588371326015
16834	1662095493319	5.78869301278197	-1.60300857805264	7.62579595892081	0.0530737047368052	0.0223487630200886	-0.105573948225068	0.00994845313466591	0.0076098670847563	-0.00997018308450087	0.33984375	-0.53173828125	0.37060546875	0	0	0	0.150861047739957	-0.288438416712459	0.640971113822853	0.69512607150351	0.011918622018202	0.804083221090427	0.594397274564774	-0.97813970810521	0.132793951038986	-0.160026491542209	-0.207606979355321	-0.57949628137573	0.788088448078425	-11.4782227308184	-36.4696770881546	89.1507884811464
16835	1662095493320	5.78467142821312	-1.58463655341912	7.64318043733323	0.0316895551640661	0.0116241404909768	-0.0972067120717081	0.00804867041440419	0.000605205141134971	-0.0107331907788497	0.334228515625	-0.526611328125	0.369384765625	0	0	0	0.1508675916405	-0.288442177760496	0.640955099820555	0.695137856756054	0.0119553402056101	0.804071155359713	0.594412859012206	-0.97813746210478	0.132831059613236	-0.160009421064025	-0.207615449973714	-0.579504518291722	0.788080159762756	-11.4771483111324	-36.4707874600156	89.1481598848462
16836	1662095493320	5.79239162057354	-1.61746097476742	7.609483702388	0.072266413802085	0.033023381549556	-0.113929207814103	0.0134413752053626	0.00403671379493064	-0.00760502732834176	0.338134765625	-0.526611328125	0.3603515625	0	0	0	0.15091222242976	-0.288379362237848	0.640951178225958	0.695157846598425	0.0120378611320976	0.804084540744179	0.594393086463484	-0.978164422576941	0.132814176504134	-0.159858552865488	-0.207483619363274	-0.579489815144106	0.788125689113206	-11.4659687442834	-36.4693786940289	89.1422952675985
16837	1662095493321	5.75366442039335	-1.58267896010175	7.67289853885569	0.0251970002072169	-0.0302284521858202	-0.0925356108159683	0.0114925242886208	0.00472459880602695	-0.0122063184403649	0.338134765625	-0.53662109375	0.36572265625	0	0	0	0.150928319084708	-0.288358846845673	0.640934948492173	0.695177825988023	0.0121031344943398	0.804084496089825	0.594391821346311	-0.978170560280313	0.132846068599201	-0.15979448381792	-0.207450883672042	-0.579482566783254	0.788139635888197	-11.4612975330159	-36.4692885571004	89.137645154447
16838	1662095493321	5.81132541523829	-1.56243799188128	7.63228051135465	0.0158660933335483	0.0424135056807117	-0.0935119527420358	0.00457056739043815	0.0016089825731487	-0.0118212927878574	0.33544921875	-0.53076171875	0.366455078125	0	0	0	0.150955954323665	-0.288329649573178	0.640901799443215	0.695214496757432	0.0122217932949145	0.80407828911944	0.594397789981936	-0.978178598763948	0.132914366649361	-0.159688446853234	-0.207406018931118	-0.579475518123892	0.78815662606248	-11.4536527005103	-36.4697138107111	89.129185225586
16839	1662095493322	5.78517173152986	-1.61391773426069	7.64439523473945	0.0631627824260837	0.00750950104653918	-0.0912844347139163	0.00648490894806448	0.00604814211418587	-0.00978061090937983	0.339599609375	-0.526611328125	0.358642578125	0	0	0	0.150935038123573	-0.288332528068962	0.64089016274447	0.695228571637676	0.0122483051094546	0.804091342610241	0.594379585585848	-0.978169267075661	0.132956827128004	-0.159710259747824	-0.207448460998411	-0.579447663606743	0.788165935047993	-11.4550441533025	-36.4684167903999	89.1273106897375
16840	1662095493323	5.78796997732274	-1.5952422072267	7.6279730688457	0.0496435331449071	0.0219984435599113	-0.105554999590906	0.00923550816206502	0.00393049547684029	-0.0127547871543787	0.336669921875	-0.533935546875	0.359619140625	0	0	0	0.150972621480493	-0.288279650909225	0.64086236278447	0.695267964457783	0.0123805496759238	0.804097471707034	0.594368554000022	-0.978186810176022	0.133005399059228	-0.15956230199754	-0.207357870329006	-0.579428010899931	0.788204220869927	-11.4441709609069	-36.4676308264722	89.1178964941709
16841	1662095493324	5.78092426773323	-1.59422053759885	7.66220809799644	0.0415625917908812	-0.00356905345807066	-0.0829228678508826	0.00891062434584002	0.00501416193790191	-0.00998135715496802	0.343017578125	-0.52587890625	0.369384765625	0	0	0	0.150972534189806	-0.288285690585495	0.640848431561048	0.695278320019902	0.0124092967387798	0.804089599209608	0.594378604760788	-0.97818248432301	0.133041163372106	-0.159559005425144	-0.207376557783452	-0.579430725187687	0.788197309047905	-11.4440384674349	-36.4683469095423	89.1158399604797
16842	1662095493325	5.75990878228831	-1.57607770316826	7.64084069271909	0.0293386702285503	-0.00556750118728947	-0.115155475942613	0.0113542491944732	0.00141755915049397	-0.00890101447318979	0.341552734375	-0.52099609375	0.359375	0	0	0	0.151019852988756	-0.288237971891539	0.640835114764193	0.695300101573609	0.0124984544900323	0.804086128493282	0.594381431910558	-0.978204753056632	0.133046719376837	-0.159417789347598	-0.207266132623675	-0.579434265838453	0.788223751126214	-11.4338034592349	-36.4685483356946	89.1094846637959
16843	1662095493325	5.79448567608997	-1.59092521719752	7.59525865076697	0.0542262069758027	0.0463652277781136	-0.128165128167208	0.0110118032111192	0.00506515355414689	-0.00740816938620883	0.33544921875	-0.523681640625	0.36083984375	0	0	0	0.151039145882092	-0.288225720832526	0.64082925109709	0.695306393757545	0.0125276095778284	0.804078617797741	0.594390978564396	-0.978212084580922	0.133050094699103	-0.159369977977058	-0.207229767596535	-0.579443913335048	0.788226220523558	-11.4304297303743	-36.4692285107258	89.1073993622945
16844	1662095493326	5.78767788636858	-1.59000096905148	7.62928888258548	0.0474371074964732	0.0211790427428001	-0.105542144058058	0.0092870542559959	-0.0037635178073877	-0.00891431416998091	0.33447265625	-0.53515625	0.360107421875	0	0	0	0.151096173579921	-0.28820257242039	0.640808792402046	0.695322454088754	0.0126067376610021	0.804044872452062	0.594434952916713	-0.978230096086505	0.133068075819475	-0.159244360365725	-0.207139926803437	-0.579486609233768	0.788218447159553	-11.4217666738203	-36.4723616495914	89.101724661402
16845	1662095493327	5.75709438077378	-1.58955754532407	7.65836414802552	0.0405881769318991	-0.0207201438718123	-0.100875306447477	0.0115066180360467	0.00215384025490751	-0.0109298384598907	0.333251953125	-0.535400390625	0.360107421875	0	0	0	0.151108379067851	-0.288206422399364	0.640797420481308	0.695328686138972	0.0126314479845235	0.804028846277595	0.594456105087108	-0.978230467580444	0.133089847359978	-0.159223882715641	-0.207136667007946	-0.579503845442994	0.788206631726492	-11.4205032106652	-36.4738687706164	89.0999463145814
16846	1662095493327	5.78812808681189	-1.58733050165938	7.62950341494012	0.0460585600183793	0.0209493035500572	-0.105535006702279	0.00913337692419807	-0.00450358177655427	-0.00688724646777551	0.331787109375	-0.528564453125	0.36767578125	0	0	0	0.151164072168234	-0.288188075812914	0.640783316924101	0.695337182233565	0.0126887474219947	0.803993565844148	0.59450260030556	-0.97824829820498	0.133092328074528	-0.159112222241924	-0.207048938050699	-0.579552222227569	0.788194112489534	-11.4128810002484	-36.4771817214405	89.0958244517905
16847	1662095493328	5.78148436962853	-1.58640292471117	7.66340796947116	0.0377398352860472	-0.00419361404952447	-0.0829075383237416	0.0113523397755814	0.00141364101515207	-0.00890347289185463	0.3447265625	-0.53173828125	0.366943359375	0	0	0	0.151160418340152	-0.288192970091041	0.640784901325017	0.695334487963328	0.0126790444479855	0.803992942671619	0.594503650086455	-0.97824642235823	0.133090476322237	-0.159125303630959	-0.207058395085084	-0.579553511978447	0.788190679834669	-11.4138430856623	-36.4772565237237	89.0965150520867
16848	1662095493328	5.79243276200942	-1.60169028434204	7.61278752292279	0.0648053001520977	0.0316977551841505	-0.113872061301221	0.0128989067035775	-0.00147128582065953	-0.0111370731374062	0.343505859375	-0.529541015625	0.370361328125	0	0	0	0.15122521634917	-0.288148848849554	0.640764041016021	0.695357906827587	0.0127833692949925	0.803969940646497	0.594532522244441	-0.978271428678649	0.133104755361932	-0.158959541805694	-0.206933799318777	-0.579582141406125	0.788202349693648	-11.402100419001	-36.4793138416452	89.0890562490345
16849	1662095493329	5.78580772323705	-1.60053015727719	7.64672826474205	0.0565656952466563	0.00601796452895087	-0.0912427723024151	0.0103187763401976	-0.00117789830255986	-0.00891011311222793	0.333740234375	-0.526123046875	0.36962890625	0	0	0	0.151246888290852	-0.288181693928866	0.640748648890493	0.695353765368127	0.012784960458595	0.803920802382833	0.594598930609714	-0.978267140259343	0.133131095454686	-0.158963875493277	-0.206953973324696	-0.579644248586302	0.788151380133248	-11.4031212029533	-36.4840460513321	89.088887204322
16850	1662095493329	5.7889129576614	-1.58177569617405	7.63006157863195	0.0430460632032061	0.0205070271928698	-0.105520236030104	0.0124020097839423	0.00143829224067936	-0.00761807236293146	0.34912109375	-0.535888671875	0.36279296875	0	0	0	0.151295779007194	-0.288131644333156	0.640741365628992	0.695370581172638	0.0128613158115327	0.803919188425546	0.594599466058293	-0.978291594769581	0.133120179253002	-0.158822458987508	-0.206833609838406	-0.579648994096307	0.788179485576956	-11.3928466020851	-36.484084208166	89.0834448700928
16851	1662095493330	5.789062618137	-1.58026758042097	7.63026052753087	0.0415113613444207	0.0200918289358459	-0.105512683520086	0.0128977686230471	-0.0014746613885334	-0.0111385492663888	0.332275390625	-0.535400390625	0.365234375	0	0	0	0.15132498942833	-0.28815609596031	0.640724314362455	0.695369804435159	0.0128768346913503	0.803870246000338	0.594665296384184	-0.978291118699948	0.133146201118557	-0.158803577417202	-0.206834895994695	-0.579710890636923	0.788133623870858	-11.3921731238338	-36.4887755148126	89.082283253181
16852	1662095493331	5.7893110532229	-1.57879866430073	7.63037610903153	0.0414952118972164	0.0200935223485545	-0.105512617977849	0.0113688656359542	-0.00115311879247034	-0.00762418619684695	0.334716796875	-0.52197265625	0.359375	0	0	0	0.151378619252244	-0.288118428129381	0.640713503729529	0.695383700660412	0.0129479550217717	0.803853514910372	0.594686368623827	-0.978313394235783	0.133141439543831	-0.158670286238662	-0.206725066500453	-0.579735184064618	0.788144570011078	-11.3827069066989	-36.4902772587009	89.0771962624308
16853	1662095493331	5.81318878278638	-1.5770494249101	7.63550900440313	0.0388018083376847	0.0365146020349565	-0.0875443048735178	0.00632492112615619	0.00529840907970326	-0.00776150130472362	0.34228515625	-0.523681640625	0.36474609375	0	0	0	0.151352483849563	-0.288124712638847	0.640712841445019	0.695387395921726	0.0129424095484648	0.803870486859461	0.594663547219277	-0.978304050524785	0.133158960880036	-0.158713187429864	-0.206769627271217	-0.579707625871596	0.788153151198699	-11.3855834566053	-36.4886508593334	89.0776108925443
16854	1662095493331	5.80599954351159	-1.57650984182298	7.66974071572038	0.0319780979067651	0.0113327396724807	-0.0649293872714107	0.00179615295040046	0.00627496066638913	-0.0101363805768854	0.336669921875	-0.53076171875	0.366455078125	0	0	0	0.15135230840359	-0.288090087148458	0.640685353097718	0.695427105276858	0.0130527600256928	0.803893721559834	0.594629725032638	-0.978306120432276	0.133229514133914	-0.158641202997166	-0.206752896425802	-0.579659193837483	0.788193160855396	-11.3799916873388	-36.4862405366217	89.0697746123048
16855	1662095493333	5.80864415898244	-1.55837844361691	7.65327985897796	0.0172961651722606	0.0254023374674811	-0.0792070781325389	0.00284687846807427	0.00630219273859798	-0.00884948601641481	0.34375	-0.531982421875	0.366455078125	0	0	0	0.15133100682921	-0.288108176270155	0.640666841642357	0.695441301015657	0.0130793535725853	0.803892962957325	0.594630166252786	-0.978291764520086	0.13328984878413	-0.158679046138049	-0.206819133501474	-0.57964637523131	0.788185210276686	-11.3827472971716	-36.4862719794916	89.0678788361266
16856	1662095493334	5.78533092207218	-1.59302961599705	7.64865501833495	0.0523900422387081	0.00514017362754439	-0.0912188686896638	-0.00198749852997508	0.00580448634331855	-0.0071680937565043	0.341064453125	-0.531005859375	0.36767578125	0	0	0	0.151314991041658	-0.288089499736058	0.640643826095279	0.695473724675413	0.0131598564556594	0.803917375706068	0.594595384455627	-0.978286415993098	0.13335852314413	-0.158654317899629	-0.206839325229624	-0.579596719575504	0.788216427255781	-11.3805807504861	-36.4837933477795	89.0621711653646
16857	1662095493335	5.78503581512979	-1.59283737507992	7.64891825865129	0.0508372118066375	0.0046023081968379	-0.0912103548271013	-0.00424228963550202	0.00501134517050265	-0.00771456093046216	0.3330078125	-0.5224609375	0.3720703125	0	0	0	0.151262187330619	-0.288153801435629	0.640615749451676	0.695484434733533	0.0131576965453284	0.803903016192022	0.594614846416562	-0.978250113363166	0.13346242447685	-0.158790733223684	-0.207011088414546	-0.579592720632456	0.788174274804306	-11.3907036455056	-36.485180242581	89.0623083165311
16858	1662095493335	5.78771689563885	-1.57524131056594	7.63232042587375	0.037320481051884	0.0190935514768601	-0.105493651600568	-0.00198784349726881	0.00580381095777077	-0.00716841301721112	0.340087890625	-0.53271484375	0.367919921875	0	0	0	0.151246230447234	-0.288135205750135	0.640592638499022	0.695516895900949	0.0132383494163781	0.803927279473984	0.59458025145668	-0.978244734389369	0.133531298552727	-0.158765965957115	-0.20703136415578	-0.579543200826635	0.788205361965659	-11.3885359751092	-36.4827149598551	89.0565900423798
16859	1662095493336	5.78428919671315	-1.59233733501126	7.64958699289145	0.0497944059916594	0.00464662245376458	-0.0912049786199862	0.00114512485346103	0.00844929716129838	-0.00458905610529728	0.344970703125	-0.530517578125	0.365234375	0	0	0	0.151196365317202	-0.288132503008773	0.640597708670385	0.695524187552826	0.0132284727123043	0.803973227372994	0.594518340488459	-0.978231576111691	0.133548469522239	-0.15883258414539	-0.207094159762498	-0.57947550073814	0.788238639649532	-11.3927212378405	-36.4783032979298	89.0573476298625
16860	1662095493336	5.76693709515059	-1.59247926821971	7.61117480159915	0.057908732460329	0.0133664327909013	-0.131778135232114	-0.00317205648242888	0.0024768729378029	-0.00514516070370556	0.3359375	-0.53564453125	0.3603515625	0	0	0	0.151184016937659	-0.288130319895033	0.640577697571361	0.695546206339992	0.0132822642627211	0.803981376497005	0.594506120828067	-0.97822417315006	0.133607212793536	-0.15882877495726	-0.207125682910006	-0.579450652718179	0.788248623559559	-11.3923146347549	-36.4774325770447	89.0535247666135
16861	1662095493337	5.77069263069367	-1.60910178568498	7.59443752495408	0.0763235149377051	0.0235065386272713	-0.140086605492307	0.0042223082540603	0.00524088947187191	-0.0103366081569045	0.34375	-0.522705078125	0.36669921875	0	0	0	0.151152753911293	-0.288178498741312	0.640554609870509	0.695554303862664	0.0132858892736862	0.803963084103462	0.594530776785405	-0.978198978914548	0.133685273517343	-0.158918234621233	-0.207244403535399	-0.579458028716008	0.788211995696471	-11.3990792031989	-36.4791894654574	89.053244963608
16862	1662095493338	5.76360386972275	-1.60861410816261	7.62857262890046	0.0694837536532839	-0.00167735372747358	-0.117479348485942	0.00181484747608405	0.00371070528863937	-0.00885498612957265	0.341796875	-0.52880859375	0.36474609375	0	0	0	0.151158895941587	-0.288153753194763	0.640529731322197	0.695586131251771	0.0133781556241704	0.803973189135597	0.594515042789695	-0.978201201912977	0.133745302940068	-0.158854028962053	-0.207227974771995	-0.579430155491244	0.788236805394984	-11.3942450171316	-36.4780683170161	89.0466832349462
16863	1662095493339	5.78330458492884	-1.58986529669093	7.65084553577187	0.0468754977088718	0.0034005874340118	-0.0911899501783004	0.0099340889392726	0.00759099036661652	-0.0099849786797541	0.34716796875	-0.531005859375	0.3583984375	0	0	0	0.151175860328527	-0.288146431505826	0.640510036245525	0.695603613226056	0.0134370549584302	0.803960621672903	0.59453070934424	-0.978203760406855	0.133785505445372	-0.158804413221468	-0.207212086230347	-0.579438311929792	0.788234986528777	-11.3908048363879	-36.4791846598058	89.0424719297767
16864	1662095493340	5.78611825374065	-1.57117294402878	7.63437085664636	0.0333667079198758	0.0178919422429783	-0.105476966915441	0.00909583107107891	0.000614898056681121	-0.00945238058051353	0.3466796875	-0.5322265625	0.37109375	0	0	0	0.151218473412124	-0.288108649170809	0.640490935706673	0.695627587757609	0.0135295351011246	0.803951628963616	0.594540772333317	-0.978221029381371	0.133808669152995	-0.158678472817066	-0.207124526205854	-0.579445440353322	0.788252759143758	-11.3817572700724	-36.4799017209926	89.0358722279366
16865	1662095493341	5.79001530206816	-1.58710273047783	7.61768012935175	0.0519833862615886	0.0275425854700504	-0.113782174030661	0.00769904030563983	0.00423515203342391	-0.00924946495124432	0.33544921875	-0.529296875	0.3681640625	0	0	0	0.151222750779037	-0.288160337222896	0.640459530499587	0.695634163544788	0.0135504196876705	0.803898261846213	0.594612454231262	-0.978203857287258	0.133886538878139	-0.158718645078523	-0.20720424637207	-0.579501492066992	0.788190599396817	-11.3854379085236	-36.485009769759	89.0343201629886
16866	1662095493342	5.78300652850695	-1.58623977984359	7.65182329751356	0.0451426194651778	0.00233764079280402	-0.0911814352580098	0.00787175076497456	0.00240964350373835	-0.00999520294984715	0.337158203125	-0.521728515625	0.3701171875	0	0	0	0.151256396723585	-0.288120299066789	0.640437650658086	0.695663576260403	0.0136526177704319	0.803898216337701	0.594610178013358	-0.978218369376757	0.133922236139499	-0.158599043128496	-0.207129012554718	-0.579493306636461	0.788216391431723	-11.3767197031437	-36.4848475613981	89.0270382871732
16867	1662095493343	5.78997714725892	-1.58481050977077	7.61818633907432	0.051190483248984	0.0277102991063611	-0.11377843442323	0.00789192761519829	-0.000151559160453519	-0.0087119957914758	0.340087890625	-0.53125	0.365966796875	0	0	0	0.15126842534095	-0.288108489209698	0.640435685786878	0.695667660820069	0.0136712616319928	0.803897355893886	0.594610912944094	-0.97822422585433	0.133919991731121	-0.158564812510322	-0.207100122059565	-0.579495018961816	0.78822272388035	-11.3742392677481	-36.4848999341632	89.0257088348975
16868	1662095493344	5.78714749311727	-1.60110002125754	7.63518035946981	0.064662972248409	0.0132176495153109	-0.0994891041373744	0.00894242089287601	-0.000123117844744089	-0.0074246060382973	0.334228515625	-0.52197265625	0.372314453125	0	0	0	0.151310213595273	-0.288075195537075	0.640422693691118	0.695684320926843	0.0137429102433784	0.80388661479686	0.59462378271348	-0.978241492269719	0.133927985334332	-0.158451499034252	-0.207013804418828	-0.579508071811543	0.788235801956058	-11.366138996368	-36.4858170677013	89.0205906593692
16869	1662095493345	5.80703951120673	-1.58229848657317	7.65729872573418	0.0420707082978981	0.019081581091347	-0.0732076008455085	0.00632117549211647	0.0052930665735284	-0.00776466721223746	0.342041015625	-0.529541015625	0.369873046875	0	0	0	0.15129476191893	-0.288059770853495	0.640424721292395	0.69569220190346	0.0137554895467799	0.803913100119231	0.594587683999608	-0.978240837918034	0.133932142746905	-0.158452024817122	-0.207016061059888	-0.579470369040481	0.788262926863453	-11.3657947894112	-36.483244606106	89.0197266414621
16870	1662095493346	5.79002479817672	-1.58196811682111	7.61874087037163	0.0502196159185945	0.027805352272136	-0.113773630852464	-0.000246617704324556	-0.00147355325073815	-0.00886522930292802	0.34765625	-0.53515625	0.36279296875	0	0	0	0.151310970149234	-0.288059031475241	0.640392745355404	0.695718417460837	0.0138382521634286	0.803893071678591	0.594612842179028	-0.978239037729661	0.134004244017332	-0.158402170588319	-0.207019051873998	-0.579481485375076	0.788253969396087	-11.3624375305475	-36.4850374158153	89.0138052298132
16871	1662095493347	5.78013530617706	-1.59893158130918	7.66959714195819	0.0551013890363762	-0.0127223560886914	-0.0768736534845331	0.006320574018323	0.00529258119526821	-0.00776511289008769	0.33935546875	-0.531494140625	0.360107421875	0	0	0	0.151294621232335	-0.288108306515308	0.640369840380423	0.69572265223593	0.0138401424960662	0.803861133306489	0.594655975177998	-0.978218081738981	0.134072810234631	-0.158473550205382	-0.20711792538213	-0.579509930816544	0.788207082606092	-11.3680830136952	-36.4881112347481	89.0136313599506
16872	1662095493348	5.78688773257947	-1.59776451384607	7.63607591582578	0.0619185748203159	0.0124728691680908	-0.0994702368446454	0.00318932018330141	0.00264382965540442	-0.0103446187986809	0.339111328125	-0.531494140625	0.367431640625	0	0	0	0.151311801387051	-0.288081523669015	0.640340494273714	0.6957570164036	0.013946174227668	0.803862514971202	0.594651630157175	-0.978223052141943	0.134137580308602	-0.158388035555267	-0.207087335398654	-0.579493025474102	0.788227548963089	-11.3618208911543	-36.4878015867785	89.0060778369203
16873	1662095493349	5.80669977195776	-1.57909062038082	7.65821850878501	0.0383753589635379	0.017902694413001	-0.0731901011282243	0.00526931097470109	0.00526226182864685	-0.00905345158895762	0.33544921875	-0.53076171875	0.36328125	0	0	0	0.1512747961038	-0.288119455352164	0.640327902928352	0.695760944752366	0.013934712357902	0.80385986966159	0.594655474824838	-0.978200717109336	0.134192225590265	-0.158479663168218	-0.207193583004597	-0.579484043385823	0.788206231022652	-11.3685220702878	-36.4880755770101	89.0068912754822
16874	1662095493350	5.78246616416589	-1.57886750909938	7.65375615921483	0.0396915992885618	0.00142610653590282	-0.0911574748113395	0.00404475717039315	0.00705708302137951	-0.00959661140866853	0.338623046875	-0.524169921875	0.3603515625	0	0	0	0.151279367083012	-0.288075599053032	0.640305786360478	0.695798463837403	0.0140418983670534	0.803887776478039	0.594615226780685	-0.978207353665247	0.134246106096506	-0.158393043512526	-0.207155010379872	-0.579432848419143	0.788254004650401	-11.361799365323	-36.4852073482689	88.9992885500639
16875	1662095493352	5.80200148463075	-1.56037132079148	7.67606388282069	0.0165736545889496	0.00693411402305849	-0.0648869026319811	0.00146479080536946	0.00735281108408215	-0.00736905447088636	0.33984375	-0.531494140625	0.367431640625	0	0	0	0.151233628465017	-0.288100476855489	0.640298249448623	0.6958050420987	0.0140325339773374	0.803904539871932	0.594592783982006	-0.978186461781361	0.134293082748668	-0.158482219550085	-0.20725427372635	-0.579398704433447	0.78825300971389	-11.3680435716237	-36.4836080351708	88.9999766272552
16876	1662095493353	5.78457628935722	-1.56029788211055	7.63776896909336	0.0247191209231069	0.0156555209775477	-0.105447229863785	0.00131226438913568	0.00661786980368088	-0.0053398637231013	0.337646484375	-0.529296875	0.36669921875	0	0	0	0.151223635902387	-0.288070491782075	0.640286734615847	0.695830224396635	0.0140965784788175	0.803935590124919	0.594549285934891	-0.978187858778815	0.134328618838876	-0.158443476036587	-0.207243333820191	-0.579347382052718	0.788293607417792	-11.3647667185773	-36.4805083822286	88.9954522446303
16877	1662095493354	5.80513449108065	-1.57667364365339	7.65990299247813	0.0353870980010708	0.0175825630541139	-0.0731782020914249	-0.000941358700074347	0.00582337825049998	-0.0058865902089248	0.341064453125	-0.530029296875	0.362060546875	0	0	0	0.151164419493931	-0.288102555222918	0.64028185414125	0.695834307296307	0.0140721298629366	0.803958449871562	0.59451895347519	-0.978161871931525	0.134376931073011	-0.158562898229108	-0.20736761430015	-0.579304454734739	0.788292471906177	-11.373125380392	-36.4783469770077	88.9972226492112
16878	1662095493355	5.80859759048898	-1.59381121650038	7.64332490222116	0.0556633850043039	0.0282894141311467	-0.0814717665958149	-0.00612301860864695	0.00897479387375531	-0.00271603160382593	0.335205078125	-0.531494140625	0.36474609375	0	0	0	0.151116981371257	-0.288090151880471	0.640270749837951	0.695859963809295	0.0141148625828699	0.804006933390847	0.594452371274363	-0.978148189850702	0.134434049686374	-0.158598880754931	-0.207429239371073	-0.579223909506822	0.788335444661453	-11.3750350603965	-36.4736027292296	88.9942387891666
16879	1662095493356	5.78921102280539	-1.64604569966157	7.62174382786274	0.109323920888228	0.0184732764758963	-0.101708179613491	0.000435677484657317	0.00476248159343486	-0.00737298534744476	0.32861328125	-0.5244140625	0.376953125	0	0	0	0.151063614612507	-0.288139657607374	0.640259326683327	0.695861564284968	0.0140870646178364	0.80400887684504	0.594450402106712	-0.97811854961056	0.134495557870434	-0.158729479999322	-0.207570849394098	-0.579206932682525	0.788310644108218	-11.3845062140189	-36.47346242259	88.9962215664922
16880	1662095493356	5.78093793352125	-1.6113148054248	7.65601354809934	0.0686409799649854	-0.00293316332097818	-0.0851284699034718	0.0014642268962053	0.00735129604513113	-0.00736964509491918	0.3427734375	-0.529296875	0.365966796875	0	0	0	0.151054032230829	-0.288105542548013	0.640241847984164	0.695893850949802	0.0141711448858762	0.804041722445978	0.594403976449289	-0.978119738085691	0.134546110873261	-0.158679305569625	-0.207559525485587	-0.579149594332055	0.788355751399845	-11.3803673049732	-36.4701545868684	88.9902728772009
16881	1662095493357	5.78763433345617	-1.61057736443595	7.62246374081919	0.07483133174341	0.0228992269729606	-0.107714410398266	-0.00164351613000447	0.00214250015289337	-0.00866510405655314	0.350341796875	-0.521240234375	0.368408203125	0	0	0	0.151016165957724	-0.288095126850418	0.640241569207265	0.695906637821116	0.0141838618881214	0.804082672664578	0.594348276335121	-0.978110758616795	0.134569701356897	-0.158714647574805	-0.207600968061369	-0.579087256807906	0.788390631008942	-11.3823453970942	-36.4661861308403	88.9894184076984
16882	1662095493357	5.8083811959922	-1.62689941207174	7.64447220951924	0.0869094730722637	0.0249002312946889	-0.0754456650442137	-0.000789632637332415	0.00655607622657716	-0.00791691729185907	0.3486328125	-0.5302734375	0.364501953125	0	0	0	0.151001989256645	-0.288069679270581	0.6402189228428	0.695941082247259	0.0142711814378984	0.804111110848022	0.594307710526397	-0.978107489305548	0.134636260149081	-0.158678343883048	-0.207610386890359	-0.579032295182082	0.788428518250962	-11.3792772089491	-36.4632960737948	88.9832342588954
16883	1662095493358	5.76314652684734	-1.6104175045916	7.6181779016449	0.0755982752735287	0.00478456604311431	-0.125675493993878	-0.000637409715076058	0.00728969752078669	-0.00994679571509039	0.34619140625	-0.52490234375	0.358154296875	0	0	0	0.151024337980487	-0.288117846084769	0.640145986395776	0.695983385007436	0.0144024457377051	0.80403632709068	0.594405715210833	-0.978087554951944	0.134809530877869	-0.158654105627988	-0.207695219985681	-0.579095825492654	0.788359512210059	-11.3785542684558	-36.4702784713698	88.9737887634314
16884	1662095493359	5.80661493402105	-1.59123126051014	7.64536865270392	0.0525526163396895	0.0270210398215059	-0.0814508653597858	0.00194259181968098	0.00699310566729955	-0.0121745343625348	0.33544921875	-0.52685546875	0.366455078125	0	0	0	0.151025423927781	-0.288079144603141	0.640111807782104	0.696030603716591	0.0145345599652977	0.804060266156509	0.594370116135509	-0.978089365910277	0.134896389730721	-0.158569090086463	-0.207677487609626	-0.579042358058493	0.788403455544312	-11.3719985878201	-36.4677421229639	88.9644081529602
16885	1662095493360	5.7823342357188	-1.5910010285286	7.64093600502296	0.0526799155078217	0.0097707907897068	-0.0994126433001465	0.00419538685658781	0.00778716285777308	-0.0116278057521176	0.3330078125	-0.525634765625	0.35400390625	0	0	0	0.151017160589341	-0.288100940682209	0.640075392211607	0.696056863676177	0.014602680526367	0.80404136798833	0.594394010976641	-0.978074112088111	0.134994618985381	-0.158579582885199	-0.207744537797019	-0.579045707529593	0.788383330371118	-11.3730142312706	-36.4694445637065	88.9595311573732
16886	1662095493360	5.78188422011103	-1.59022984357846	7.64143706218635	0.0526495096667411	0.00976063612519415	-0.0994124682322646	0.0035630133363288	0.0074098974955129	-0.00479403674749057	0.329345703125	-0.526123046875	0.37109375	0	0	0	0.151011994019299	-0.288061613745541	0.640069235489335	0.69607992222785	0.0146637609328276	0.804077169935448	0.594344074508954	-0.978080204703973	0.135013502884828	-0.158525919663013	-0.207711548262345	-0.578991587872716	0.788431768697261	-11.3685855649284	-36.4658867723265	88.9552265354755
16887	1662095493361	5.80237940773748	-1.60621724463846	7.66371064947719	0.0631803151445549	0.0124008311083085	-0.0671316611286929	0.00509298196090759	0.00708279090552005	-0.008310075893411	0.337646484375	-0.534423828125	0.36767578125	0	0	0	0.150952414262999	-0.288044040017807	0.640099476421381	0.696072309407196	0.0146065825905893	0.804149155096423	0.594248082960924	-0.978072928115446	0.134972057826493	-0.158606087190121	-0.20774983762377	-0.578901269616669	0.788487999276784	-11.3733949024782	-36.4590481827978	88.9593926586721
16888	1662095493362	5.788959626712	-1.62297991171991	7.6085311724427	0.0916641693878983	0.031839964446366	-0.115963803236388	0.0026646902797104	0.00811175258405373	-0.00811307561512808	0.342041015625	-0.526123046875	0.361572265625	0	0	0	0.150945845064853	-0.288002657330088	0.64008166579506	0.69610723480042	0.0146998609676588	0.804185347862864	0.594196802726349	-0.978076565829318	0.135021625941357	-0.158541451689077	-0.207726130910532	-0.578839430939908	0.788539642456931	-11.3681555343974	-36.4553951450092	88.9527958842829
16889	1662095493363	5.78451309824731	-1.60509094761688	7.62598947409436	0.0694800371380984	0.0207411251457455	-0.107669771892565	0.0061427759293996	0.00711259932088408	-0.00702191299992383	0.34326171875	-0.531005859375	0.3671875	0	0	0	0.150905387363412	-0.288033915579004	0.640076703519873	0.696107636182838	0.0146765541747187	0.804192822917344	0.5941872620023	-0.978056301334344	0.135058755351662	-0.158634813401861	-0.207823170454451	-0.578820383341061	0.788528055081851	-11.3748383277797	-36.4547155137196	88.9544655854669
16890	1662095493363	5.77714315737062	-1.60449728875153	7.66030858853053	0.0625671901250877	-0.00445933925708225	-0.0850880873692326	0.00509238225217975	0.00708106225400769	-0.00831091684383689	0.339111328125	-0.52197265625	0.3583984375	0	0	0	0.150910549140531	-0.287988616493079	0.64006093661824	0.696139756330499	0.0147691083715663	0.804222688385801	0.594144545479822	-0.978064769430571	0.135096007146969	-0.158550861403121	-0.207776755765977	-0.578770193028685	0.788577125857011	-11.3682863625762	-36.451672685057	88.9479127117092
16891	1662095493364	5.78375202577132	-1.60325727087549	7.62695239493996	0.0680873476771188	0.0198967326587137	-0.107658133437958	0.00542003838579163	0.00598893191996317	-0.0110857667100922	0.3349609375	-0.534912109375	0.37109375	0	0	0	0.150908631634547	-0.288020365883102	0.640022993083473	0.696161922299134	0.0148296743220733	0.80418975576467	0.594187611350709	-0.978048792957873	0.135194306445323	-0.158565627102524	-0.207847634947212	-0.578792999463477	0.788541707469505	-11.3698148756315	-36.4547403993684	88.9435559803607
16892	1662095493365	5.77635379573296	-1.60253220387038	7.66131514092196	0.061166581232466	-0.00531408342917716	-0.0850796089786279	0.00611862895029294	0.00966848116847373	-0.00830866719704333	0.33984375	-0.5263671875	0.365966796875	0	0	0	0.1509091599262	-0.287963252982049	0.640010328193009	0.696197077118715	0.0149278894765472	0.80423405443325	0.594125192030797	-0.978059224821798	0.135226410513292	-0.158473879995013	-0.207791508144002	-0.578723944199258	0.788607180764729	-11.3624885407517	-36.4502941189278	88.9366194425038
16893	1662095493368	5.77882104535672	-1.58406417366737	7.64503398133307	0.0460451751734494	0.00961484734184211	-0.0993787702101691	0.00872228127167941	0.00681390050100257	-0.00925016771965263	0.337646484375	-0.535888671875	0.368408203125	0	0	0	0.1508651434329	-0.287947318904551	0.640026915023965	0.69619795897256	0.0149037791611757	0.804288436719068	0.594052176097952	-0.978053290989685	0.135210513083755	-0.158524058539627	-0.207821166753924	-0.578652078291978	0.788652100065303	-11.3653621573599	-36.4450933392968	88.9384083034223
16894	1662095493368	5.79945999933165	-1.59967899230622	7.66728715872712	0.0580723736018744	0.0115927323326015	-0.0670988903067453	0.00421707684310715	0.00522231209093648	-0.0103455408357878	0.3466796875	-0.52880859375	0.367919921875	0	0	0	0.150875753949551	-0.287910028712232	0.640001561474521	0.696234388368781	0.0150116333541938	0.804304906113366	0.594027161724116	-0.978059476719746	0.13526901636066	-0.158435959338516	-0.207784289258682	-0.578615512421495	0.788688644474152	-11.3586974986817	-36.4433116953896	88.9307495489385
16895	1662095493369	5.77716101870923	-1.54743188823076	7.64599453189883	0.010402294568235	0.0130673937433336	-0.105417501286295	0.00872155296397513	0.00681260472020719	-0.00925089788727343	0.337890625	-0.519775390625	0.3671875	0	0	0	0.150847512048882	-0.287928809710973	0.63998882542946	0.69624444843209	0.0150226077276864	0.804310644343479	0.594019114720089	-0.978044022711863	0.135318662868166	-0.158488955820802	-0.207856226499609	-0.578595927116109	0.78868405729417	-11.3624625068723	-36.4427385577914	88.9299756788048
16896	1662095493370	5.78179899558484	-1.5981288871679	7.62950906691292	0.0644379329110826	0.0199876120537483	-0.107633403247668	0.0016122201735974	0.00807431444201389	-0.0094057536795711	0.340576171875	-0.527587890625	0.3701171875	0	0	0	0.150838407350422	-0.287890848515763	0.639965161480458	0.696283869050658	0.0151269028643312	0.804344843224726	0.5939701591726	-0.978044831548243	0.135384733918559	-0.158427526975491	-0.207844856302729	-0.578532926461054	0.788733268417725	-11.3574827718688	-36.4392518525765	88.9225945314622
16897	1662095493370	5.78133934897826	-1.59729366664969	7.63003227340352	0.0642612932403591	0.0199826518860084	-0.107632221819578	0.00629260051719169	0.00784037871872261	-0.00905494702013286	0.3359375	-0.531982421875	0.36962890625	0	0	0	0.150847093359858	-0.287840386120295	0.639959774755396	0.696307800644244	0.0151987976262843	0.80437819532578	0.593923156170187	-0.978057737717083	0.13539328223981	-0.158340521712141	-0.207778868613863	-0.57848455295606	0.788786133086004	-11.3506664235758	-36.4359043586608	88.9175199558789
16898	1662095493370	5.77774911777708	-1.61389854119032	7.64755625241909	0.0776592961415964	0.00549340746395723	-0.0933196493180386	0.00335875662511875	0.0117854819305531	-0.0053406134015463	0.33447265625	-0.524658203125	0.37060546875	0	0	0	0.150826674446055	-0.28778636668432	0.639955646463122	0.696338345911058	0.0152715554212104	0.804439591353328	0.593838129003441	-0.978063033904963	0.135416169671022	-0.158288226663412	-0.20774860120741	-0.578393814675537	0.788860642852364	-11.3459709622128	-36.4298491990204	88.9124222757637
16899	1662095493371	5.80098441351235	-1.61254955048362	7.65312439506663	0.0751115167352482	0.0229153817085236	-0.0753426372663863	0.00371138905241138	0.00813591358225846	-0.00682863999166221	0.334716796875	-0.53076171875	0.363525390625	0	0	0	0.150761401525276	-0.287745562793564	0.639993716459559	0.696334354886381	0.0152210679697945	0.804537374705534	0.593706941000176	-0.978061072023282	0.135358085404833	-0.158350017708262	-0.207761542356924	-0.578271390799739	0.7889469818055	-11.349075256431	-36.4205076489688	88.9161486419721
16900	1662095493371	5.7796352698344	-1.59501888052115	7.63179894446775	0.0629713094671355	0.0209632297937045	-0.107625834564514	0.0064687718903503	0.00601398303849777	-0.00979944440196534	0.337158203125	-0.53369140625	0.35791015625	0	0	0	0.150776227387973	-0.2876976866843	0.639974932616388	0.696368189935327	0.0153242533983057	0.804560427207102	0.593673046575395	-0.978072314513124	0.135397229754601	-0.158247078196471	-0.207701022724311	-0.57823015240223	0.788993140662306	-11.3412424435498	-36.418094299481	88.908834113149
16901	1662095493372	5.77607946911811	-1.61129029434746	7.64936727334193	0.0732339505061304	0.00631284225835233	-0.093285795306544	0.0104422204526313	0.0130779574927721	-0.00647328452359727	0.338623046875	-0.529052734375	0.369140625	0	0	0	0.15068074097468	-0.287733857132994	0.640003131390213	0.696347997462055	0.0152104385401839	0.804617896233433	0.593598082561172	-0.978041699418642	0.135382612220087	-0.158448674676567	-0.207853498305201	-0.578153603611835	0.789009083517383	-11.3550918227295	-36.4127569810436	88.9170137187956
16902	1662095493372	5.79931962120069	-1.60923970461516	7.65508255152801	0.0717616283761455	0.0228098086733948	-0.0753171254174507	0.00902544055775342	0.00827047682466076	-0.013314159160933	0.340576171875	-0.52587890625	0.35888671875	0	0	0	0.15070117585725	-0.287668449968548	0.639977768051466	0.696393907847993	0.0153506385851142	0.804649290323809	0.593551916412053	-0.97805718499298	0.135435223990213	-0.158308063554356	-0.207770307740636	-0.578097586644428	0.789072036975871	-11.3443948249323	-36.409470207207	88.9070764904886
16903	1662095493373	5.78020143794115	-1.66007976169184	7.633739986137	0.125674998455611	0.0126931743330073	-0.0954540060244167	0.0146267018154913	0.00478204937435533	-0.00835492726196005	0.337158203125	-0.532958984375	0.367431640625	0	0	0	0.150715336830525	-0.28767517135106	0.639972566325525	0.696392847021652	0.0153562202777195	0.804630514262463	0.593577224981305	-0.978058755654278	0.135440003189566	-0.158294270344873	-0.207762501397118	-0.578122600365818	0.7890557660644	-11.3436598730422	-36.411272019786	88.9066536792165
16904	1662095493374	5.77075716873647	-1.5896808686737	7.66820701981099	0.0511382991610166	-0.00491645370195686	-0.0850215119810009	0.0135521151925482	0.00730366635643149	-0.0109327133664777	0.3369140625	-0.52783203125	0.36328125	0	0	0	0.150751042261536	-0.287600899058111	0.639961144358543	0.696426291741869	0.0154709131445396	0.804659262672276	0.593535274303208	-0.978083803825737	0.135447713936729	-0.158132822282703	-0.207636036227465	-0.578080779636396	0.789119692236054	-11.331495459113	-36.4082854154327	88.898529019746
16905	1662095493375	5.75872189859764	-1.64008521983153	7.61304125918036	0.111276815548186	0.0108982472377955	-0.127716888834392	0.014955379279374	0.00368580960999403	-0.0111304732350222	0.333740234375	-0.52880859375	0.36962890625	0	0	0	0.15073082812568	-0.287605492307986	0.639975292764128	0.696415768703076	0.0154294108915001	0.804675742864459	0.593514011734409	-0.978079798980766	0.135423684208031	-0.158178167207955	-0.207657988301162	-0.578063469353543	0.789126596493655	-11.3345640835482	-36.4067717082848	88.9015055921483
16906	1662095493375	5.78149325890948	-1.60278500442726	7.6184828060842	0.0759967398815175	0.0311807791278242	-0.115826213519677	0.0210138920257598	0.00238991115160239	-0.0122641960587932	0.344482421875	-0.53271484375	0.36669921875	0	0	0	0.150809474724267	-0.287523828940877	0.639966602586987	0.696440448062744	0.0155455907288916	0.80467461967518	0.593512502867035	-0.978119890128315	0.135398499813319	-0.15795165964204	-0.207460394158166	-0.578070932238342	0.789173100249135	-11.3181027632429	-36.4066642913719	88.8932346927056
16907	1662095493376	5.77046876690548	-1.58374695570198	7.66965177281102	0.046922430095029	-0.00462632526975956	-0.0850001204480648	0.0163331219292263	0.00262044248993868	-0.0126173809939968	0.342529296875	-0.524169921875	0.3701171875	0	0	0	0.15081306980249	-0.287514881499394	0.639969628689676	0.69644058271179	0.0155481345423765	0.804679638459326	0.593505631785598	-0.978123646030617	0.135388584663096	-0.157936899484246	-0.207442494653398	-0.578066268339447	0.789181221786278	-11.3169589537395	-36.4061751380271	88.8930605337614
16908	1662095493377	5.77853744911338	-1.61574352248717	7.63631377412693	0.0874630291065788	0.0168244680629597	-0.101483686956405	0.0213166700348694	0.00384514034321583	-0.0163296552149431	0.340087890625	-0.525146484375	0.365234375	0	0	0	0.150893560628272	-0.287424212899372	0.639948576814399	0.696479916604437	0.0157062817448025	0.804681737031312	0.593498622409541	-0.978163588611971	0.135393904788293	-0.157684762928853	-0.20724214491146	-0.578062101018955	0.789236910400196	-11.2985805154245	-36.4056761426402	88.8818071049251
16909	1662095493377	5.74936684171499	-1.56230513095097	7.64891321705559	0.0342448249370466	-0.00710512379158015	-0.117293298836529	0.0232365566990446	0.00573354995516447	-0.0130097659670778	0.34228515625	-0.528076171875	0.36669921875	0	0	0	0.150976112376784	-0.287356480812185	0.6399326339331	0.696504623426345	0.0158249539253634	0.80466414775301	0.593519317422931	-0.978200005110201	0.135384875038076	-0.157466458693044	-0.207061152405911	-0.578088699882507	0.789264932853658	-11.2829496016532	-36.4071494236965	88.8733359071345
16910	1662095493378	5.79727647110075	-1.5585054320175	7.65918418381651	0.0313432464294517	0.0258618251559127	-0.0813562899152291	0.016711956751544	-0.00359034951832333	-0.0128158777563428	0.3349609375	-0.5263671875	0.371337890625	0	0	0	0.151059690485241	-0.287308929362	0.639911342597934	0.696525679809348	0.0159341054467422	0.804627769955337	0.593565713380005	-0.978230961727616	0.135388887050026	-0.157270578242781	-0.206906475976649	-0.57813839267087	0.789269098038728	-11.2692156251883	-36.4104524602545	88.8655155684742
16911	1662095493379	5.77893999229542	-1.60887260346079	7.63745975737771	0.0857258186232242	0.0165651892116878	-0.101467750597212	0.0156360639946166	-0.00107203233135284	-0.0153960050032092	0.33447265625	-0.531494140625	0.363037109375	0	0	0	0.151098507366444	-0.287280317987267	0.639903137034556	0.696536600030538	0.0159879882209372	0.804616656350583	0.593579329623139	-0.978247165325117	0.135386432569933	-0.15717187219525	-0.206825694163032	-0.578154434558099	0.789278519937535	-11.2621926775645	-36.4114218590649	88.861664484752
16912	1662095493380	5.79517394104977	-1.57165386635735	7.67631845385686	0.0435456308996849	0.0116492787558045	-0.0670232222939138	0.0191392361160733	-0.00462291728490688	-0.0130131306684978	0.338623046875	-0.5302734375	0.367431640625	0	0	0	0.151193966749731	-0.287228200573889	0.63988412461931	0.696554845129762	0.0160965357105304	0.804574432636086	0.593633627658037	-0.978283116664701	0.135377382957322	-0.156955751192579	-0.206647151412546	-0.578215311568232	0.789280690427134	-11.2470713575132	-36.4152876896137	88.8538778918312
16913	1662095493382	5.77865547369107	-1.56999038436982	7.63772843384298	0.0490685774441737	0.0206701331968887	-0.107544956325107	0.0199834504537751	-0.000212238787165144	-0.0122730518391222	0.33544921875	-0.529052734375	0.359375	0	0	0	0.151184594526066	-0.287243523802814	0.639908498887123	0.696528168463674	0.0160165421707422	0.80457499807564	0.593635024950918	-0.978282180781108	0.135320662860035	-0.157010486813084	-0.206657797198784	-0.57822780171374	0.789268752822663	-11.251059374093	-36.4153871745287	88.8595729674707
16914	1662095493384	5.77721470241373	-1.61962572231689	7.6548514535236	0.0961364956368822	0.00243533154881721	-0.087107719499075	0.0201870737747407	-0.00459338754041821	-0.0117256922053971	0.33544921875	-0.533203125	0.363525390625	0	0	0	0.151280811647032	-0.28718951835126	0.639895940513088	0.69654108413751	0.016110731728085	0.804535097414957	0.593686551431554	-0.978320151145753	0.135294602684573	-0.156796212794108	-0.20647064242971	-0.578289415009413	0.789272593153173	-11.2360425496803	-36.4190558627253	88.8528112918864
16915	1662095493385	5.82711358624965	-1.56399402375869	7.6480222981859	0.0425193699277875	0.0536688430753354	-0.0715946884259608	0.0198032193318611	0.00160878751329273	-0.0115340985087051	0.33447265625	-0.52587890625	0.364990234375	0	0	0	0.151244820871045	-0.287239361365017	0.639923338627472	0.696503175959861	0.0159833399249736	0.804530343936212	0.59369643634666	-0.978304206963274	0.135246249679111	-0.156937346051523	-0.206556073459007	-0.578307338388176	0.789237106884605	-11.2463912941356	-36.4197596890262	88.8618732972697
16916	1662095493386	5.80332209662999	-1.56266865809539	7.64343005594391	0.0437515370370709	0.0372415710495004	-0.089560178456848	0.0165027922396666	0.000775746101727833	-0.0133705935099727	0.34130859375	-0.525634765625	0.364501953125	0	0	0	0.151312121767302	-0.287178400934677	0.639904193838453	0.696531284689237	0.0161023774891226	0.804519434082323	0.593708003671045	-0.97833372676699	0.135254529028474	-0.156746073148575	-0.206406958481081	-0.578320579403108	0.789266415685758	-11.2326265849523	-36.4205833144305	88.853383691812
16917	1662095493387	5.77941396781738	-1.56141590242584	7.63891216328471	0.0435387409001501	0.0205445767229311	-0.107518306669956	0.0162966905806811	0.00515246876208924	-0.0139214084490732	0.336669921875	-0.526123046875	0.372314453125	0	0	0	0.15132893595436	-0.287162660646599	0.639897665135541	0.696540119180059	0.016137168968899	0.804516752110156	0.593710693310971	-0.978340831636048	0.135261062594009	-0.156696081953654	-0.206370562172409	-0.57832278229382	0.789274318946575	-11.2290256140048	-36.4207748254642	88.8509030978908
16918	1662095493387	5.79725996358902	-1.59336211867685	7.67826552055466	0.06879663820399	0.00807281204977879	-0.0608675896633937	0.0117687215652912	0.00610998275378669	-0.0163057288434695	0.336669921875	-0.530517578125	0.36572265625	0	0	0	0.151366575395183	-0.287096401240146	0.639865595579474	0.69658871354754	0.0162953519773639	0.804532706008069	0.593684753440131	-0.978359902264077	0.135320358893719	-0.156525723479245	-0.206267697775875	-0.578286715593754	0.789327632496184	-11.216388818013	-36.418927842721	88.8396652570828
16919	1662095493388	5.77900193227421	-1.5579210220853	7.63993736877282	0.0416844553851057	0.0213070827488866	-0.107511809309992	0.00888558029737487	0.00495819795943929	-0.0100121968058334	0.343994140625	-0.518798828125	0.361572265625	0	0	0	0.151324008445827	-0.287074299192549	0.63989374567001	0.696581212396228	0.0162486819910229	0.804593454975972	0.593603699907088	-0.978358389678345	0.135274077440584	-0.156575174656124	-0.206278553610286	-0.578213019727529	0.789378782421989	-11.219133949997	-36.4131569144161	88.843074891931
16920	1662095493388	5.82229980634724	-1.53798412524103	7.66726528728185	0.0183143412736549	0.0435928965018801	-0.0633647563197073	0.00520097049583144	0.0103292746966666	-0.0116576953890028	0.33740234375	-0.5263671875	0.364501953125	0	0	0	0.151318036094234	-0.287017705714151	0.639872189693357	0.696625630748825	0.0163688349272284	0.804640824381656	0.593536186749834	-0.978364646593409	0.135332865619226	-0.156485250996515	-0.20623937436697	-0.578133340347793	0.789447377118338	-11.2119043278853	-36.4083503742355	88.8345908068315
16921	1662095493389	5.77633444327725	-1.60787486486833	7.6579923209903	0.0876729623735498	0.00187387576934524	-0.0870276167940354	-0.00185120429383774	0.00648546075366973	-0.00922961068646908	0.3369140625	-0.52490234375	0.35986328125	0	0	0	0.151308141299237	-0.287074242606114	0.63981616302973	0.696655943156024	0.0164473135160791	0.804590124876657	0.593602743279603	-0.978336805131125	0.135482247804967	-0.15653004904981	-0.206365165674651	-0.578168912585828	0.789388451217393	-11.2158486377551	-36.4130888060818	88.8289311648139
16922	1662095493390	5.82547045030345	-1.55387660031345	7.65133559180559	0.0374467349705698	0.053128829200838	-0.0715709071863291	0.00264795956123214	0.00807889937488538	-0.00813789884761571	0.341552734375	-0.5263671875	0.37060546875	0	0	0	0.151295636286201	-0.287036900417304	0.639800993980369	0.696687976314586	0.0165290118011182	0.804628458507977	0.593548511520293	-0.978338180452997	0.135528637084971	-0.156481287053148	-0.206352117597077	-0.578104689730992	0.789438896479161	-11.2117449038222	-36.4092278032993	88.8231718316658
16923	1662095493391	5.7981562702729	-1.57152147118232	7.66379496851722	0.0507642592570009	0.0217091900266562	-0.0751825047989936	-0.00203072269531422	0.00830999665445413	-0.00848934383407574	0.339111328125	-0.529296875	0.36181640625	0	0	0	0.151239800649977	-0.287078228878622	0.639778856798584	0.696703400018089	0.0165382097948198	0.804636901369417	0.59353680978639	-0.978307517795622	0.135619074185703	-0.15659459550566	-0.206496702737237	-0.578071728829248	0.789425226406538	-11.2198468300396	-36.4083947294186	88.8225294912534
16924	1662095493392	5.78208263102211	-1.60633049541443	7.62542224017455	0.0926691253684164	0.0267063855347618	-0.109567207035619	-0.000774463104864488	0.00396776449479618	-0.0066485631346433	0.33642578125	-0.526123046875	0.369140625	0	0	0	0.151226197894101	-0.287067673763248	0.639760789769247	0.696727292148428	0.016596565107973	0.804653299674294	0.593512949605893	-0.978301911040375	0.135673537888646	-0.156582444646674	-0.206518582411771	-0.578036122089311	0.789445575501303	-11.2187164661186	-36.4066960948865	88.8184000192581
16925	1662095493393	5.77646843896013	-1.55409317278798	7.64263246411671	0.0364268561405456	0.0197532463409167	-0.107487364702752	0.00384768175544917	0.00883924133323621	-0.00888195499752236	0.33740234375	-0.530029296875	0.367431640625	0	0	0	0.15115758785725	-0.287093657954596	0.639767198867117	0.69672558905867	0.0165503256319457	0.804691587331152	0.593462329048734	-0.978277126633276	0.135698629773802	-0.156715491843191	-0.206639662764962	-0.577976929605313	0.789457230390854	-11.2278453133497	-36.4030924803822	88.8217471790603
16926	1662095493393	5.75730215708251	-1.60600611685242	7.62137590205258	0.0917442009659514	0.0102608875565878	-0.127511468742473	-0.000982362687253375	0.00834398974439051	-0.00720057835516393	0.337646484375	-0.533447265625	0.365234375	0	0	0	0.151129497217875	-0.287068548141315	0.639750430677918	0.696757425641182	0.0166220702309114	0.804732675568644	0.593404607037534	-0.978270776959293	0.13575852303618	-0.156703255775035	-0.206663963304442	-0.577905653454928	0.78950304747742	-11.2263559463292	-36.3989835261164	88.8167013810366
16927	1662095493394	5.80052832452156	-1.58666517313778	7.64863738114292	0.0655375985110678	0.0327828089620975	-0.0833544435610545	0.00597360198364339	0.00635872140457073	-0.00501009136663421	0.339599609375	-0.529296875	0.367919921875	0	0	0	0.151032096045904	-0.287119246214502	0.639787339989602	0.696723764490797	0.0164693960844924	0.804781644840425	0.593342450125181	-0.97823853112401	0.135722931106021	-0.156935216558716	-0.206828758196129	-0.577845818622867	0.789503688834395	-11.2425419400777	-36.394559115328	88.8276382819415
16928	1662095493395	5.77213686792358	-1.56951012876082	7.66102107466777	0.0463785785858972	0.00564844049443163	-0.0931201390884837	0.00507582319524416	0.00704782256461235	-0.00833370372448519	0.3310546875	-0.529052734375	0.36279296875	0	0	0	0.151029930156732	-0.287079039045429	0.639774780630948	0.69675233448208	0.0165477108187518	0.804814089461762	0.593296262141011	-0.978244198327733	0.135756380530951	-0.156870945631328	-0.206795700402089	-0.577792771284802	0.789551171075212	-11.2373962598685	-36.391271556949	88.8221125457277
16929	1662095493396	5.79570490767728	-1.56785498052843	7.66639971509332	0.0422239927215349	0.0226622076837488	-0.075143898592799	0.00510406779666406	0.00449629629053192	-0.007041228103186	0.333984375	-0.5302734375	0.374755859375	0	0	0	0.150943198211061	-0.287116721687854	0.639813472150401	0.696720072838356	0.0164054179641361	0.804865145376298	0.593230949984753	-0.978218410302057	0.13570974353733	-0.157071981126962	-0.206928983005132	-0.577732605335221	0.789560278082072	-11.2513037398715	-36.3866230196514	88.8323123737015
16930	1662095493396	5.77563924325157	-1.58514344939179	7.64491473373567	0.0637472657278288	0.016964769365211	-0.101299297203134	0.00267478320846036	0.00552406191828607	-0.00684715353257181	0.34033203125	-0.528076171875	0.366943359375	0	0	0	0.150934454943878	-0.287091077851653	0.639802031859217	0.69674303969081	0.0164641460935887	0.804891354246314	0.593193762402256	-0.978219095665473	0.135744300679226	-0.157037848012934	-0.20692107859963	-0.577687971739627	0.789595006657542	-11.2484389436306	-36.3839763491943	88.8281715957737
16931	1662095493397	5.77828319818311	-1.56727291750715	7.62830012447765	0.0488855697420508	0.0324058337349103	-0.115655654236134	0.000425491264753059	0.00472617375224424	-0.00739379881701455	0.340087890625	-0.5302734375	0.37060546875	0	0	0	0.150859974193978	-0.287082386206735	0.639832662710807	0.69673462340007	0.0163957345164909	0.804968655836369	0.59309075444712	-0.978205621335144	0.135710863829181	-0.157150640555684	-0.206990198507053	-0.577588109780427	0.789649943432078	-11.2555488069455	-36.3766456596366	88.8331514435046
16932	1662095493397	5.77818964344624	-1.56681848935755	7.62846433821427	0.0486152251735298	0.0324773758880465	-0.115654534464376	0.001683094057518	0.000385902725795699	-0.00555150789761009	0.344970703125	-0.5283203125	0.369873046875	0	0	0	0.150861866807778	-0.287078419468928	0.639821053916703	0.696746508554879	0.0164300000802829	0.804967798270113	0.593090970126446	-0.978204543395349	0.135739432216383	-0.157132675857921	-0.206992575659269	-0.577582591747484	0.789653356436989	-11.2542475689928	-36.3766610080029	88.8307122692765
16933	1662095493398	5.80330133738089	-1.59974967743171	7.6336240052846	0.0798567478125273	0.044754220980008	-0.0915073531806261	0.00666399020876367	0.00160541922111843	-0.00926662786777159	0.338134765625	-0.534912109375	0.360595703125	0	0	0	0.150870179112357	-0.287098477270852	0.63979450408305	0.696760824062668	0.0164749137877641	0.804938294413867	0.593129766072974	-0.97819668916882	0.135802363199459	-0.157127195127392	-0.207026120368529	-0.577608916426623	0.789625306806727	-11.2542546079883	-36.3794218893384	88.8274737847949
16934	1662095493399	5.75263539318802	-1.6179379658853	7.64076927033956	0.0958882578324038	-0.00260712422540416	-0.113064127597056	0.00183423700581857	0.00111023043717229	-0.00758548117208316	0.33740234375	-0.534912109375	0.364013671875	0	0	0	0.150873291079968	-0.287090004309571	0.639776479834008	0.696780191534917	0.0165307705534718	0.804938728743855	0.593127622517393	-0.978195583889244	0.13584661177981	-0.157095823393009	-0.20702689024494	-0.577597906017821	0.78963315892846	-11.2519559031373	-36.3792693424266	88.8235001864944
16935	1662095493400	5.8033980398664	-1.59825513214301	7.63386354202047	0.0749690784289232	0.0444752981492981	-0.0914671510660749	0.00531229991806721	0.000118670050765303	-0.00648958984053415	0.3388671875	-0.527587890625	0.36962890625	0	0	0	0.150761338002824	-0.287245528821194	0.639795898286755	0.696722494018441	0.016302429415355	0.804909347313408	0.593173813820756	-0.978131428355056	0.135864454998086	-0.15747939145225	-0.207347871123037	-0.577634653111788	0.789522050271662	-11.2802720134001	-36.3825566295655	88.8397044782337
16936	1662095493401	5.7359244073412	-1.61708001801456	7.60220407087871	0.0993812657723043	0.00584733409435585	-0.153527334790368	0.00546336778919491	0.000843017416370432	-0.00852360206001392	0.3427734375	-0.537109375	0.37060546875	0	0	0	0.150777913423609	-0.287227261801169	0.639779869492495	0.696741156738993	0.0163644373407361	0.804906878231533	0.593175456813655	-0.978136987082561	0.135895478831576	-0.157418084520763	-0.207316761723626	-0.577630795758592	0.78953304180365	-11.2758401683144	-36.382673558668	88.8352888194351
16937	1662095493402	5.84206236583568	-1.52575137031781	7.67764161132343	-0.00474267219858341	0.0599276825757713	-0.045385961106394	0.0115510717176598	-0.00300218501028441	-0.00836247791505833	0.341552734375	-0.53466796875	0.364990234375	0	0	0	0.150770828869346	-0.287262642740147	0.639785323859262	0.696723094652601	0.0163098269204928	0.804884768006821	0.593206962009407	-0.978128075003344	0.1358857930727	-0.157481808889968	-0.207363107702591	-0.577663882782721	0.789496662495994	-11.280794176999	-36.3849157656452	88.8391426793055
16938	1662095493402	5.75723699428123	-1.63127560149052	7.62434773642396	0.109001812428441	0.00800470673977833	-0.121166803076154	0.00648230015773127	0.00342879191009594	-0.00852766810249648	0.34130859375	-0.521240234375	0.373291015625	0	0	0	0.150782286992704	-0.287232284258672	0.639772928426925	0.696744513333856	0.016376429863163	0.804897473884665	0.593187886827623	-0.978135636759309	0.135910603962572	-0.157413416937658	-0.207322185610698	-0.577640341618046	0.78952463361759	-11.2756313997526	-36.3835581880154	88.8344218927023
16939	1662095493403	5.79681632165384	-1.59420875699841	7.668210083148	0.0643757650532872	0.0191504237022956	-0.0688936538880203	0.00684318593692967	-0.00022349130976245	-0.010008712100866	0.33837890625	-0.535400390625	0.36083984375	0	0	0	0.150800424316841	-0.28725166454808	0.639746613407948	0.69675676090963	0.0164215036948371	0.804860210522916	0.593237200227201	-0.978130902121194	0.135967005317844	-0.15739412879926	-0.207340957198478	-0.577678989562461	0.789491426480436	-11.2747472334194	-36.3870678633275	88.8311605934139
16940	1662095493403	5.66721173021874	-1.68419276226659	7.58799371960251	0.167663706455914	-0.0512248952720696	-0.19495854819675	0.00684294785349332	-0.000224098231009418	-0.0100090309195378	0.337890625	-0.524169921875	0.365966796875	0	0	0	0.150827025108812	-0.287231777028006	0.639726753236575	0.696777436456972	0.0164951749174483	0.804849705414542	0.593249408679494	-0.978138963197949	0.136001779380432	-0.157313968481497	-0.207297076386726	-0.577685440096496	0.789498229524319	-11.2690574045918	-36.3879367734099	88.8259030140949
16941	1662095493404	5.9854366221565	-1.39506655133167	7.69061053859484	-0.132917713433025	0.183934706850669	0.0293476568317743	0.0143412025740377	-0.00768410101177338	-0.0100383183440402	0.333984375	-0.53564453125	0.364501953125	0	0	0	0.150829994870585	-0.287328079456235	0.639727935734259	0.696736001398316	0.0163814859943499	0.804767582351456	0.593363956870326	-0.978118353353692	0.135996961777045	-0.157446223263933	-0.207403311808852	-0.577800973332173	0.789385774806662	-11.2798541251048	-36.3960899652435	88.8338739929237
16942	1662095493404	5.64137606322155	-1.69935891392387	7.59992721158052	0.179153425529083	-0.08250421865214	-0.198482501301996	0.0160470909017364	-0.00140882223015522	-0.00727241218691605	0.343994140625	-0.52734375	0.37353515625	0	0	0	0.150887767435904	-0.287285904100606	0.639730022026622	0.696738968237835	0.0164246164458288	0.804753813624101	0.593381438395298	-0.978145528366284	0.135956761112052	-0.157312060710434	-0.207271699254023	-0.577829610322442	0.789399381886612	-11.2702992052997	-36.3973343222402	88.8307845782584
16943	1662095493405	5.84766404973227	-1.53549347571462	7.66113066930546	0.00830849859681415	0.0704859359488491	-0.053548011165585	-0.000386061347135451	-0.00224289153054315	-0.00683907010618319	0.34033203125	-0.52685546875	0.3642578125	0	0	0	0.150819502041414	-0.287355216108913	0.63973765985156	0.696718152588713	0.0163254126852982	0.804756139821313	0.593381021200169	-0.97811122223151	0.135978408743259	-0.157506537326024	-0.207441360016361	-0.577821276672599	0.789360915157959	-11.2844105852511	-36.3973046255326	88.8378479893982
16944	1662095493405	5.7269560047584	-1.59060011105981	7.65323015072659	0.0624616534402203	-0.0300508406140003	-0.122735825634846	0.0152085104079757	-0.00582321589273957	-0.00800935543290329	0.335693359375	-0.53076171875	0.37451171875	0	0	0	0.150888941730847	-0.287330744865697	0.639733026781221	0.696717464086848	0.0163653950005245	0.804716280184189	0.593433974636606	-0.978136408262272	0.135948363417367	-0.157376012517543	-0.207319417031447	-0.577883855883397	0.789347140636539	-11.2754906379561	-36.4010740380697	88.8349448750008
16945	1662095493406	5.88485253279441	-1.58420415359205	7.61520828613409	0.0660349980729269	0.11977987297447	-0.0600527690653614	-0.00140503192079235	-0.00483117883571358	-0.00683477310628744	0.339599609375	-0.528564453125	0.3671875	0	0	0	0.150844234665922	-0.287378390592974	0.639740047219519	0.696701047416905	0.0162926652075204	0.804716375167715	0.593435847078157	-0.978113868721801	0.135957377703241	-0.157508257758538	-0.207431455846281	-0.577881602912736	0.789319354976489	-11.2851096001312	-36.401207328416	88.8401212400319
16946	1662095493406	5.77431460665538	-1.55289024343267	7.6627666442598	0.0238794198948781	0.00733644949860401	-0.0930399492621454	0.0063589085310139	0.000151643476085571	-0.00520240036487138	0.344482421875	-0.5234375	0.3759765625	0	0	0	0.150859299434382	-0.287363397553795	0.639737397339285	0.696706402989139	0.0163166803837951	0.804715400239675	0.593436509290044	-0.978121163591873	0.135955068439451	-0.157464944350498	-0.207395166951726	-0.577883503816057	0.789327499041014	-11.281972480692	-36.4012544682341	88.8384106550274
16947	1662095493407	5.83177881175491	-1.61942068695195	7.63904356369861	0.095541854093843	0.0577894068422098	-0.0671916769378313	0.00189244298826753	-0.00399541938548055	-0.00499916066282811	0.340087890625	-0.527099609375	0.364501953125	0	0	0	0.150895737545676	-0.287367527993338	0.639713980284751	0.696718310132428	0.0163718545664794	0.804675816457697	0.593488662727599	-0.978125956790627	0.135992999637576	-0.157402403736396	-0.207368211234208	-0.577929696812436	0.789300760491089	-11.277978714389	-36.4049671213707	88.8344265516565
16948	1662095493408	5.77873028232095	-1.56907279637823	7.64589409840094	0.0440367476138075	0.0179811644467979	-0.101191745723833	0.00131905217703044	0.0040335062469963	-0.0040736672073816	0.335205078125	-0.528076171875	0.3662109375	0	0	0	0.150879635496335	-0.287355470409881	0.639710888810546	0.696729608926756	0.0163936247254736	0.804698857507677	0.593456820496824	-0.97812321204096	0.136010628659428	-0.15740422789221	-0.207379437589738	-0.577893465629701	0.789324338436018	-11.2777778119005	-36.4027003435057	88.8329104903313
16949	1662095493409	5.76001862078385	-1.62125373065306	7.62438443790062	0.0974998374643382	0.0084037688385795	-0.121044602753765	0.00149996708574466	0.00220688922691991	-0.00481375107002331	0.334716796875	-0.527587890625	0.36865234375	0	0	0	0.150820672611199	-0.287415836709569	0.639725090801759	0.696704434979658	0.0162878900144386	0.804702116235405	0.593455313199855	-0.978095115481995	0.136009865823573	-0.157579381484111	-0.207520239275929	-0.57788910746346	0.789290523043287	-11.2904764146032	-36.402593044013	88.8404405534919
16950	1662095493409	5.84493631333754	-1.51398435318961	7.67778362360002	-0.0170308236562211	0.0604742494184237	-0.0454030264142116	0.00186194571610915	-0.00144623339733438	-0.00629382764798732	0.33642578125	-0.52685546875	0.362548828125	0	0	0	0.150826677086645	-0.287419891125776	0.639711087776901	0.696714320105121	0.0163190607210821	0.804690576954169	0.593470103390513	-0.978092925382595	0.13604207530859	-0.157565170841304	-0.20752811273102	-0.577897593961851	0.789282239328495	-11.2895998234735	-36.4036459152414	88.8382054161585
16951	1662095493410	5.78230269292029	-1.67158779174694	7.64649209168054	0.140604342087989	0.00720229819841692	-0.0824124415409137	-0.00455838009882016	0.00350106694255955	-0.00368048402811065	0.34033203125	-0.529052734375	0.365234375	0	0	0	0.150725210881717	-0.287476641749763	0.639742491966467	0.696684028254901	0.0161734488416273	0.804736797795452	0.593411413630114	-0.978056707600656	0.136022909554394	-0.157806352197001	-0.20771012558355	-0.577837740503578	0.789278182505881	-11.306492358402	-36.3994680436314	88.8486352009323
16952	1662095493410	5.78132227118491	-1.55071631131763	7.62938107601794	0.025607965214246	0.0330724831208128	-0.115568494968167	-0.000929683628652055	0.00323426065440167	-0.00461948295856363	0.3388671875	-0.527587890625	0.36474609375	0	0	0	0.150703448089903	-0.28747482685717	0.639734256676158	0.69669704713904	0.0161966095168867	0.804755039867089	0.59338604268105	-0.978048830452783	0.136057103137633	-0.157825694789343	-0.207745409311737	-0.577804283900972	0.789293389314508	-11.3076302613439	-36.3976620644219	88.8470129994946
16953	1662095493411	5.80647559797075	-1.58383700704091	7.6345282978923	0.0557282338715301	0.0451821736797301	-0.0913410694607109	0.00549084169315073	-0.00171294120876352	-0.00723287200747116	0.335693359375	-0.53173828125	0.3701171875	0	0	0	0.15068922979869	-0.287554675891847	0.63972299182858	0.696677513718725	0.0161336041972515	0.804698461561369	0.593464483163376	-0.978024032101987	0.136094499497137	-0.157947079230978	-0.207867023470726	-0.577874271072342	0.789210128790825	-11.3172657146657	-36.4032458257198	88.8514162218798
16954	1662095493412	5.81176648859727	-1.63519230152175	7.61790096755599	0.109450342953122	0.0522287475358883	-0.0932125050673829	-0.00369084292563564	0.00536504960669671	-0.00165058348044985	0.344482421875	-0.527099609375	0.357177734375	0	0	0	0.150646434989519	-0.287557124393257	0.639722660558992	0.69668606229991	0.0161316355560108	0.80473281140637	0.593417957750091	-0.978010633989096	0.136121138384546	-0.15800707417436	-0.207930204969203	-0.577820160543829	0.78923310367126	-11.3211324230991	-36.3999338802595	88.8516053438166
16955	1662095493414	5.76270164901907	-1.60210284237217	7.60797703636454	0.0760454361425368	0.0221477662654419	-0.135368264973048	0.00444190506306402	-0.00175120298467586	-0.0085231327717793	0.34228515625	-0.527099609375	0.361572265625	0	0	0	0.150621908230356	-0.28766986701088	0.639699921352696	0.696665701033389	0.0160601164705941	0.804655219701257	0.593525104832536	-0.977972756939463	0.136194102764802	-0.158178548028226	-0.20811381343673	-0.577911017181376	0.789118176749978	-11.3347084728048	-36.4075614352388	88.8565851421318
16956	1662095493414	5.77976812303304	-1.60041054542837	7.64679972606727	0.0671341866625216	0.0134947077234404	-0.094874320464335	0.00893819655153186	-0.000153357490737289	-0.00743206629942283	0.3388671875	-0.533203125	0.363037109375	0	0	0	0.150648639514956	-0.287647711362747	0.639693294663228	0.696675154087593	0.0161025658213562	0.804649376503832	0.59353187636888	-0.977984322009386	0.136194952350394	-0.15810629607361	-0.20805617817746	-0.577918952662281	0.789127563120134	-11.3295337278421	-36.4080435105327	88.8535554038814
16957	1662095493415	5.80760860210055	-1.61588467359183	7.63522637255854	0.0829191653384494	0.0394879156919432	-0.0850130372811026	0.00353476574873289	0.0073806036305463	-0.00482385619421228	0.3408203125	-0.53076171875	0.364990234375	0	0	0	0.150580894263168	-0.287760303302523	0.639682913748523	0.69665283462019	0.0159995554028809	0.804611422632553	0.593586112367978	-0.97793623785149	0.13626232828221	-0.158345484899275	-0.208290011579493	-0.57795591221159	0.78903880425229	-11.3474724003265	-36.4119047563059	88.8608337171491
16958	1662095493416	5.79795936521268	-1.54625953551091	7.66908064058807	0.0079955977303551	0.0218853210160777	-0.0750538586223044	0.00669004362004958	-0.000953272456839596	-0.00797777361361309	0.33251953125	-0.5283203125	0.35205078125	0	0	0	0.150602643449274	-0.287748901141052	0.639670296330034	0.696664428309107	0.0160449637703268	0.804599592275228	0.593600922546576	-0.977942572921093	0.136281511558274	-0.15828984072222	-0.208256772293442	-0.577967858723934	0.789038827356416	-11.3435878681451	-36.4129591767979	88.8575847101251
16959	1662095493420	5.77654128795871	-1.61525763974513	7.66453018501983	0.0727996027615273	-0.00296825754500191	-0.0804111229348763	0.00509631339759813	0.00448758417807381	-0.00704878398186581	0.3349609375	-0.533203125	0.369873046875	0	0	0	0.150509903199803	-0.287890082803577	0.639680227329805	0.69661702249186	0.0158570139732779	0.80456365362891	0.5936546827636	-0.977884887608709	0.13631195160415	-0.158619665982407	-0.208541846386652	-0.578010708472747	0.788932138524271	-11.3681066859371	-36.4167867914049	88.870912994352
16960	1662095493420	5.82575134832226	-1.56094127139762	7.65770487182332	0.0222039402532181	0.048287577676142	-0.0651986813288641	0.00389714536902123	0.00372648737389231	-0.0063042459805909	0.338623046875	-0.533203125	0.365966796875	0	0	0	0.150503550750402	-0.287874084969008	0.63967292103379	0.696631715119888	0.0158941305987115	0.804580744277318	0.593630526969991	-0.977885032104753	0.136334470615241	-0.158599420262338	-0.208538343232123	-0.577981607025881	0.788954384829555	-11.3663813054342	-36.4150669262684	88.8682948525088
16961	1662095493421	5.7353871554781	-1.61558865550865	7.62136658564134	0.0794323395464322	-0.00969596272769879	-0.138824760785168	-0.00063057535197468	0.00467605583053947	-0.00869092744914512	0.337646484375	-0.528564453125	0.370849609375	0	0	0	0.150375401883063	-0.287925004524421	0.639702734572849	0.696610968660513	0.0157592062992623	0.804654206636058	0.593534544200852	-0.977841559706228	0.136335299777052	-0.158866516755395	-0.208752321012506	-0.577879134229292	0.788972860556239	-11.3847642207405	-36.4082334381029	88.8780017792783
16962	1662095493421	5.83658019408976	-1.5769945119817	7.60751538328363	0.0461452492464795	0.0852293851133491	-0.0958217708753253	-0.00059894580541778	0.00212714826145004	-0.00739572632375975	0.332275390625	-0.53076171875	0.359130859375	0	0	0	0.150359149747976	-0.287928399847927	0.639684572002506	0.696629751726158	0.0158017698059658	0.80466127037546	0.593523836108332	-0.977831947933178	0.136391548858073	-0.158877396130798	-0.208794122695554	-0.577856024765553	0.788978725296156	-11.3854410795034	-36.4074711132927	88.8749820636183
16963	1662095493422	5.77982057896948	-1.63012874655165	7.64882264264904	0.0864499417161827	0.00955540000393564	-0.0884615080759587	0.00697983087248416	0.00893937725319467	-0.00502417720087565	0.340576171875	-0.5263671875	0.361083984375	0	0	0	0.150253737146023	-0.28794297897025	0.639741715145947	0.696593994545972	0.0156387575277203	0.804751456311936	0.593405866862477	-0.977809491012891	0.136308704751552	-0.159086568553306	-0.208911532826938	-0.57774997236934	0.789025310670784	-11.3993830549242	-36.3990732047174	88.8867096442506
16964	1662095493422	5.78107253855517	-1.57750007993476	7.63220383629869	0.0388601894718458	0.0278875361607686	-0.109205836768858	0.001948972207638	0.00436943538073678	-0.0109208209961146	0.333251953125	-0.532470703125	0.362548828125	0	0	0	0.150243403089229	-0.287928111674832	0.639717147961511	0.69662492988661	0.015718746222712	0.804767228005734	0.593382363864274	-0.977804425378063	0.136377780864316	-0.159058500551215	-0.208929238567182	-0.577711701123053	0.789048644671066	-11.3970962510114	-36.3974001988444	88.8810387849802
16965	1662095493423	5.75696175815487	-1.57742416641398	7.6275998068872	0.0371928149359519	0.0110256067849562	-0.127149199457179	0.0129196020249955	0.00437560772969706	-0.00282633119520851	0.337890625	-0.527587890625	0.373291015625	0	0	0	0.150190416921866	-0.28799615417086	0.639758290218195	0.696570444351985	0.015535090559771	0.804764908056677	0.5933903468391	-0.97778195792394	0.136304337523855	-0.159259443458182	-0.209048089490736	-0.577732265268879	0.78900210769526	-11.4117723998979	-36.3979684441691	88.8941061202622
16966	1662095493423	5.75118926866302	-1.6111403917709	7.66171461847655	0.0633557340395576	-0.0178572945664164	-0.0982913755146857	0.00429284179975671	-0.00247663344723436	-0.00648829101256655	0.33984375	-0.531494140625	0.367919921875	0	0	0	0.150203039753042	-0.288001874881225	0.639747484731783	0.696575281425635	0.0155561516885135	0.804747054313298	0.593414007855152	-0.977782082560238	0.136324405256607	-0.159241500732681	-0.209045940330847	-0.577752399480524	0.788987933827691	-11.4107200459392	-36.3996527106091	88.892582656346
16967	1662095493424	5.87643079506257	-1.57135610447434	7.65277154413984	0.0280307941109653	0.0941405790956396	-0.0373682888359834	0.00494511353615719	0.00376355616605949	-0.0050148900777371	0.3486328125	-0.52392578125	0.366943359375	0	0	0	0.150164795266541	-0.28797757989368	0.639768493504558	0.696574276341041	0.0155303763949751	0.804804362125294	0.59333695832396	-0.977780739429648	0.136293617962933	-0.159276097713953	-0.209054138943579	-0.57767983209272	0.789038895482273	-11.4124163005013	-36.3941682138015	88.894495807951
16968	1662095493425	5.76093562129463	-1.59187002120973	7.61146169772302	0.0555958111649203	0.0226058544845522	-0.13523023635407	0.0145995824399122	0.00475107479513511	-0.00838244099188435	0.333984375	-0.529052734375	0.36376953125	0	0	0	0.150192765828168	-0.287923358968209	0.639771703292047	0.6965877117206	0.0155846140545142	0.804826202379652	0.593305910781208	-0.977802224899539	0.136268601519356	-0.159165565438853	-0.208949584317085	-0.57765530569978	0.789084544906698	-11.4040615900853	-36.3919583142921	88.890666049766
16969	1662095493426	5.78590521191955	-1.62441709607794	7.61692782245754	0.0867637985187095	0.0342587145195896	-0.110918562801695	0.00269725343257705	0.0029628950177134	-0.0055610004535694	0.334228515625	-0.534423828125	0.364501953125	0	0	0	0.150201307835231	-0.287974140902479	0.639740952975548	0.696593119677479	0.0156048145148328	0.804770107264802	0.593381466020768	-0.97778647760992	0.136342160421047	-0.159199307457372	-0.209021754770031	-0.577716097875695	0.789020922592131	-11.4073114460546	-36.3973362886718	88.8891511086289
16970	1662095493429	5.81998866220867	-1.5354079054207	7.67745890938964	-0.0117467153309072	0.0388659716942094	-0.0571006573667638	0.0151459800379818	-0.000730436848770829	-0.0106009586171564	0.3359375	-0.5283203125	0.36865234375	0	0	0	0.15025209105216	-0.287935940241526	0.639732769281064	0.696605474683958	0.0156697564504179	0.804756744611119	0.593397877259178	-0.977808653052555	0.136332586084868	-0.159071254433223	-0.208913132062902	-0.577736971271811	0.789034406903364	-11.3981864799942	-36.3985044794812	88.8845107814017
16971	1662095493428	5.78417368915339	-1.67362667680561	7.63468324764483	0.13042125006962	0.0171143881227206	-0.0900962961935718	0.0106048898050928	0.00866895911920949	-0.00596706601094664	0.3427734375	-0.532958984375	0.371337890625	0	0	0	0.150149286383937	-0.287932097786476	0.639798332555798	0.696569014901965	0.015506401446199	0.804861790469286	0.593259681553336	-0.977792986507963	0.136226570914429	-0.159258271096776	-0.208998629301791	-0.577615633115545	0.789100597725348	-11.41030363413	-36.3886679304226	88.8962807410259
16972	1662095493428	5.75340966253418	-1.58697910057463	7.64667686245922	0.0435814108936277	-0.00247405698704826	-0.112688043230802	0.00956959354766837	0.000175369950399791	-0.0142795492522129	0.33349609375	-0.529052734375	0.3603515625	0	0	0	0.150182151725114	-0.287906048198311	0.639770600531909	0.696598167819215	0.015607372211745	0.80484935668406	0.593273902154729	-0.977802755936447	0.136277799996511	-0.159154427243481	-0.208945400561327	-0.577620874166928	0.789110857428094	-11.402914181687	-36.3896800726103	88.8890784514443
16973	1662095493430	5.83108047236288	-1.54793835407681	7.6278197439197	0.00965202028732026	0.0759224404117997	-0.087699495703518	0.0184739366296411	-0.00244112823802038	-0.00746932739209901	0.3466796875	-0.52587890625	0.367431640625	0	0	0	0.150182297108455	-0.287940567208055	0.639799458790014	0.696557362981066	0.0154937645758187	0.804826896074936	0.593307349199091	-0.977801199331005	0.136203860334467	-0.159227268446198	-0.20896113955977	-0.577669607807415	0.789071014782263	-11.4085571354619	-36.392060696497	88.8971321872246
16974	1662095493431	5.77448957405765	-1.6002154376501	7.66923009682438	0.0522046673794526	-0.000363096443204241	-0.0802784142085286	0.00832270561144895	0.0104137962465787	-0.00781207396407484	0.342041015625	-0.529052734375	0.3642578125	0	0	0	0.15016820474952	-0.287888172601791	0.63980034123785	0.696581247027393	0.0155518468558625	0.804882538999564	0.593230341834423	-0.977809139192488	0.136210067268472	-0.159173191481363	-0.208919667267149	-0.577590612794506	0.789139820716614	-11.4038157600693	-36.3865797363738	88.8930753461313
16975	1662095493434	5.82347894031554	-1.54537813665971	7.66258832795445	0.00118104202641192	0.0490466984274597	-0.0651772536982094	0.00905361852530323	0.00310512314597294	-0.0107673680520969	0.3388671875	-0.52001953125	0.363525390625	0	0	0	0.150231409019481	-0.28793418697333	0.639735052807362	0.696608562914346	0.0156659323631383	0.804776314336375	0.593371437167609	-0.977803348791903	0.136339171907166	-0.15909821273354	-0.208938243638	-0.577708156500172	0.789048855432057	-11.3998643060818	-36.3966224198004	88.8848100513289
16976	1662095493435	5.80063348764495	-1.57963337625951	7.65818962551075	0.0359029602856205	0.0289058224878147	-0.0767573030841913	0.00520891632693481	0.00774507830637463	-0.0103877322895274	0.336181640625	-0.533935546875	0.3603515625	0	0	0	0.150219132826671	-0.287899609443353	0.639719860919027	0.69663945234311	0.0157446288562105	0.804812127783848	0.593320778023335	-0.977804246470719	0.136385423357086	-0.159053047375829	-0.208928126986315	-0.577647345071146	0.789096054030336	-11.3960489327669	-36.3930165258214	88.879259275365
16977	1662095493437	5.80021588114082	-1.5786967049731	7.65869905545016	0.0334116012711733	0.0282608344708495	-0.0767465409305288	0.00505896967988555	0.00702478949568516	-0.00835194566228877	0.339111328125	-0.52783203125	0.365966796875	0	0	0	0.150169900261878	-0.287962306047559	0.639719541247892	0.69662444681241	0.0156732376827177	0.804802001517118	0.593336403715954	-0.977775084630487	0.136415819201849	-0.159206181247248	-0.209069924896874	-0.57765427603847	0.789053422702219	-11.4073335153486	-36.3941287374061	88.8843257502015
16978	1662095493437	5.78007119223202	-1.59610497746732	7.63737057882618	0.0547972602346441	0.0226018895940296	-0.102759978065366	0.00247911812131363	0.00733164395331184	-0.00612274317509412	0.333984375	-0.52734375	0.369873046875	0	0	0	0.150142891915309	-0.287941825461836	0.639714896487609	0.696642999224754	0.0157087127231061	0.804840971519336	0.593282602903872	-0.977770645032189	0.13644392643831	-0.159209361067225	-0.209088024664063	-0.577593339211861	0.789093234314027	-11.4069949306793	-36.3902993493504	88.8818552857634
16979	1662095493438	5.77534096315515	-1.57809516145128	7.65477837761388	0.0330722141149838	0.0125946383250489	-0.0946974967997356	0.00727175994607627	0.0103700290488336	-0.00910503179393168	0.336669921875	-0.53125	0.3642578125	0	0	0	0.150086388975522	-0.287895193518965	0.639742086483049	0.69664947870165	0.0156928406619853	0.804933682106502	0.59315723224321	-0.977770282101185	0.136408277253207	-0.159242134300507	-0.209090913699582	-0.577472552860549	0.789180866785931	-11.4080477910918	-36.3813765558041	88.8831133941099
16980	1662095493439	5.79598579356207	-1.59367859694405	7.67718215778247	0.0442454943622268	0.0146687916815017	-0.0622916872695978	-0.000449617353408722	0.00283596247789339	-0.00943629822608474	0.349365234375	-0.521484375	0.359375	0	0	0	0.150068009150418	-0.287897072844634	0.639718679072611	0.696674156060576	0.0157505741861717	0.804942660594141	0.593143517682215	-0.977759222842249	0.136479208550449	-0.159249263044964	-0.209138283343167	-0.577443277551198	0.789189736154243	-11.4084202463189	-36.380400534724	88.8790179465524
16981	1662095493440	5.78188903644937	-1.57647639657399	7.62167612370691	0.0379174333135404	0.0357326880288553	-0.117185778647638	0.00419311525538665	0.00515525257557253	-0.0103821729547766	0.335205078125	-0.52490234375	0.369873046875	0	0	0	0.150094265923909	-0.287994632052826	0.639648056310884	0.69669302228688	0.0158189119329295	0.804823989326326	0.593302712137839	-0.977729360878308	0.136644150788941	-0.159291157732199	-0.209272690291288	-0.577569668750036	0.789061606491039	-11.4131471737706	-36.3917306450803	88.8739895758763
16982	1662095493441	5.77887150157684	-1.59289651192523	7.63894811600891	0.050651664938996	0.0213167047315673	-0.102734561220565	0.00422685093949883	0.00260886732041896	-0.00908431431472758	0.33740234375	-0.527099609375	0.37255859375	0	0	0	0.150092608119724	-0.287983540412891	0.639631740367171	0.69671294386852	0.0158734343322424	0.804831024293667	0.593291712749222	-0.977727826998159	0.136686891405366	-0.159263900590799	-0.209275728157754	-0.577549752014788	0.789075378878151	-11.4110515062608	-36.3909477488427	88.8701194797238
16983	1662095493442	5.75622482457377	-1.6274145038511	7.63437359147731	0.0858329018759409	0.00245227700394943	-0.114291157137282	0.00542471685882326	0.00336804711162576	-0.00983012761818683	0.333740234375	-0.5361328125	0.3642578125	0	0	0	0.150073495966627	-0.287900050882516	0.639655710547905	0.696729559064099	0.0159082653305985	0.804921748075932	0.593167688405696	-0.977746416575568	0.136637035543618	-0.159192541883995	-0.209186213617932	-0.57743510457214	0.789183013020399	-11.4045579197079	-36.3821206953998	88.8677684297857
16984	1662095493443	5.77874556108353	-1.59090322466338	7.63945876185456	0.0499593179265486	0.0227577222307036	-0.102734244756986	0.00680627085526234	0.00230011728833481	-0.0113142789375881	0.33740234375	-0.533447265625	0.36572265625	0	0	0	0.150084942355112	-0.287879318563996	0.639635624125367	0.696754100361917	0.0159835325857643	0.804924785829994	0.593161542787982	-0.97775018955762	0.136681556856031	-0.159131137227921	-0.209162839687454	-0.577420333181947	0.789200016042784	-11.4000349155684	-36.3816833259053	88.8624171649267
16985	1662095493445	5.77585489948487	-1.60702536079992	7.65670315135469	0.059037624631123	0.00902731569137721	-0.0882559430086545	0.00890283263001531	0.00238161179019287	-0.00873261749249376	0.344970703125	-0.520751953125	0.36865234375	0	0	0	0.149963040812479	-0.287959023255306	0.639687363247252	0.696699910017149	0.0157593564552567	0.804973835313421	0.593100975504945	-0.977706678340449	0.136622327384106	-0.159449022538977	-0.209383126857446	-0.577365970698786	0.78918137463225	-11.4224726716692	-36.3773730230814	88.8784364905231
16986	1662095493445	5.78150693842651	-1.57110455624355	7.62307508113773	0.0318022276153885	0.0380818241937299	-0.117172733961125	0.0112982901138652	0.00389989450898634	-0.0102244540418609	0.341064453125	-0.531005859375	0.36669921875	0	0	0	0.149982290088045	-0.28791990283343	0.639679292195812	0.696719344749518	0.0158250653765054	0.804988101839234	0.59307986241576	-0.977719647394774	0.13663143159162	-0.159361673558802	-0.20931760175405	-0.577343925055501	0.789214884424667	-11.4159075866721	-36.375870555037	88.8737812680034
16987	1662095493447	5.78270741086677	-1.60415555919285	7.62364739331608	0.0654229812044065	0.0332161739444004	-0.110747557575806	0.0102495112508369	0.00385752075262177	-0.0115160480915591	0.3427734375	-0.525390625	0.3642578125	0	0	0	0.150052861257641	-0.287908628967365	0.639624818900037	0.696758818560355	0.0159774248264529	0.804925439162706	0.593160820759968	-0.977731493391977	0.136728459750979	-0.159205700663068	-0.209250683930563	-0.577408317988968	0.789185520389054	-11.405440621724	-36.3816319409917	88.8628526760417
16988	1662095493448	5.7587935656615	-1.60368808512806	7.6189772038623	0.0664110865298325	0.0168334935029216	-0.128698592980577	0.0113322934690224	0.00135302730615685	-0.00892646287411256	0.33642578125	-0.532958984375	0.363037109375	0	0	0	0.150078975404054	-0.287879277584669	0.639619006726669	0.696770657327781	0.0160260955426378	0.804926257472634	0.593158397304427	-0.9777447655525	0.136727654751318	-0.159124862485068	-0.209184936590438	-0.577407367858519	0.789203645357997	-11.3995461163811	-36.3814594700185	88.8593907506095
16989	1662095493454	5.8065751749359	-1.60011485215836	7.62929985320355	0.0607405394971904	0.0489978174697717	-0.0927692288606181	0.016306853058747	0.00256190395093511	-0.0126486410929208	0.345458984375	-0.52978515625	0.370849609375	0	0	0	0.150090074716673	-0.287924599542084	0.63960610323449	0.696761384661395	0.0160069153674427	0.804876418939006	0.59322654095745	-0.977734917571164	0.136754004353469	-0.159162725709884	-0.209232429662631	-0.57747059884397	0.789144788900148	-11.4030156845174	-36.386309220889	88.8606849577698
16990	1662095493455	5.79798695918597	-1.56387629815777	7.66342593770597	0.0193135050044204	0.0276155629572912	-0.0767065151392998	0.0135071149149284	0.00724097417695853	-0.0109815217844535	0.34326171875	-0.5361328125	0.3701171875	0	0	0	0.150107572336197	-0.287866930610179	0.63960056130669	0.696786530412705	0.0160875044744838	0.804908099706281	0.593181374646075	-0.977752124145347	0.136757677407001	-0.159053831766182	-0.20914582455561	-0.577425569833435	0.789200693976815	-11.3946321859693	-36.3830947225255	88.8549954929967
16991	1662095493456	5.81051813341631	-1.6141817157861	7.6133569048182	0.0791839529006081	0.0591782741853778	-0.100780509920153	0.00564221004483283	-0.00101114654103107	-0.00927162500097224	0.341552734375	-0.531005859375	0.36083984375	0	0	0	0.150114444744736	-0.287918548040886	0.639558986883725	0.696801883944978	0.0161344239805811	0.804850347967306	0.593258457790296	-0.977733279850779	0.136859911550484	-0.159081733969152	-0.209230289000071	-0.577481845591097	0.789137126346015	-11.3974728050423	-36.3885808304885	88.8515745821059
16992	1662095493457	5.77842730631498	-1.57945287794086	7.64207498437303	0.0393474431270906	0.0213287546631092	-0.102682199829898	0.0116647297283335	0.000239152047304518	-0.01170306804587	0.3408203125	-0.520751953125	0.374267578125	0	0	0	0.150148995187948	-0.287890828100527	0.639542879691085	0.696820676627837	0.0162075522640549	0.804840367191474	0.593270004794361	-0.977746441443955	0.136880368560968	-0.158983209636412	-0.209163121733468	-0.577490907323836	0.789148300679285	-11.3904414958946	-36.3894026791738	88.8463565158852
16993	1662095493458	5.77725758592833	-1.54344994512462	7.6420480741345	0.00515268848134589	0.0245022221967992	-0.109120253435755	0.0115152119358291	-0.000478737454841539	-0.00966622276369155	0.32958984375	-0.52685546875	0.359619140625	0	0	0	0.15020806023512	-0.287885807020564	0.639516202140077	0.696834505429269	0.0162815786329014	0.804788375581008	0.593338504335345	-0.977759450148131	0.136913131681469	-0.158874957180785	-0.209096551485777	-0.577555594642503	0.789118601513043	-11.3833054470585	-36.394278257318	88.8410139502643
16994	1662095493458	5.78179736369277	-1.55933567380002	7.62527095597507	0.024951941933143	0.0353038520214649	-0.117142171132324	0.00720836016572576	-0.00390959988975646	-0.0114936091367801	0.335205078125	-0.52734375	0.36669921875	0	0	0	0.150240275423829	-0.287886935917013	0.639491116841652	0.696850115340094	0.0163444472178602	0.804754491973953	0.593382732048117	-0.97776334214633	0.136957942242377	-0.158812369831738	-0.20907344594659	-0.577592182863029	0.789097943537771	-11.3792282269258	-36.3974264068712	88.8364909746028
16995	1662095493460	5.77369759050559	-1.60997747451896	7.6761738011083	0.0618416128542659	-0.00713364818316287	-0.073725397556041	0.00825637816542933	-0.00386796123189358	-0.0102029027422337	0.344970703125	-0.527587890625	0.3662109375	0	0	0	0.150175114444568	-0.287933309132899	0.639540258348236	0.696799901295351	0.0161653348872999	0.804782342480035	0.593349865745606	-0.977744013085781	0.136871385906865	-0.159005875975847	-0.209177739788186	-0.57757389566382	0.789083688986678	-11.392931386781	-36.3950869557139	88.8492777748962
16996	1662095493460	5.78790526455914	-1.60846019916985	7.60881306552447	0.0754368009007331	0.0433778935270897	-0.118696684647567	0.0112568897123694	0.0064346675311314	-0.0115314569688449	0.34130859375	-0.5322265625	0.36865234375	0	0	0	0.150187552792881	-0.287885729758797	0.639529184758156	0.696827042694168	0.0162484568876274	0.804808754590343	0.593311769800257	-0.977756167536208	0.136892241657308	-0.158913155588025	-0.209114477006441	-0.577532148636575	0.789131011174661	-11.385796487062	-36.3923753422711	88.8434003233768
16997	1662095493462	5.80755318868109	-1.58869195113472	7.63094245739614	0.0519934364042775	0.0481735989882946	-0.0927143835849655	0.0139442353441357	-0.0015079163156945	-0.00986076219512226	0.339599609375	-0.52783203125	0.3623046875	0	0	0	0.150235839710406	-0.28792440847554	0.639496310963669	0.696830822893461	0.0162880065357376	0.804728350651403	0.593419735516915	-0.977754611773182	0.136947321460735	-0.158875266486024	-0.20911867443958	-0.577631121739993	0.78905745494104	-11.3841861270371	-36.4000604292931	88.8404700524088
16998	1662095493462	5.80061383747463	-1.58728469235833	7.66494743505648	0.044240868440058	0.0230316662526286	-0.0702274616995915	0.00694997962812894	0.00300130656159609	-0.0133591175093717	0.34033203125	-0.5263671875	0.367431640625	0	0	0	0.150246934970077	-0.287901550075801	0.639469849168451	0.69686215853677	0.0163820189368581	0.804732027877372	0.593412160950485	-0.977757329765466	0.137008341073151	-0.158805914771108	-0.209098621577135	-0.577611528438236	0.789077111992096	-11.3790703363734	-36.3995212407425	88.8337845566235
16999	1662095493463	5.80448362836965	-1.60300803946806	7.64873610813081	0.0629675008850178	0.033116433890605	-0.078224506782135	0.0122300560756993	0.0115611139555578	-0.0128445831566644	0.340087890625	-0.531494140625	0.36474609375	0	0	0	0.150238397246347	-0.287894688807993	0.639453958309721	0.69688141555865	0.0164305667163581	0.804741486058423	0.593397992155232	-0.977752832547418	0.137054118389758	-0.158794102780638	-0.209115840918092	-0.577587490557827	0.789090144297996	-11.3780630220311	-36.3985126581163	88.8303432030281
17000	1662095493463	5.80386322203346	-1.60146454139078	7.64953017766186	0.0623266885509334	0.0331874359650868	-0.0782206245784795	0.0087873713813086	0.0099991229936628	-0.0126430995545799	0.342041015625	-0.534423828125	0.362548828125	0	0	0	0.150232381246698	-0.287842493622092	0.639437768593329	0.696919127723402	0.0165320779236008	0.804786297361254	0.593334396423376	-0.977759350324591	0.137099143442662	-0.158715083467583	-0.209077361883973	-0.577514363844616	0.789153860980725	-11.3716543363004	-36.3939858606688	88.8231843756121
17001	1662095493464	5.78230265263103	-1.58360615979422	7.62824929631317	0.0471488518297576	0.0303095042197807	-0.110632024646124	0.0113659762296723	0.00968680037253378	-0.0148743603770046	0.343505859375	-0.52783203125	0.366943359375	0	0	0	0.150175231397172	-0.287919483685759	0.639414535653043	0.696920958491374	0.01650284501946	0.804766031948745	0.593362696778064	-0.977719532293797	0.13719290294082	-0.158879273518824	-0.209265793376419	-0.577520338346749	0.789099541577864	-11.383874416595	-36.3960002710567	88.8252351266893
17002	1662095493465	5.77752621639712	-1.56475548686652	7.64577888392649	0.0260705498506212	0.0196417543142654	-0.102633916506296	0.00893467846017398	0.0107108856239402	-0.0146831313835043	0.335693359375	-0.53125	0.364013671875	0	0	0	0.150169855840582	-0.287863781605689	0.63939187708796	0.696965913908582	0.0166249415072132	0.804811762749766	0.593297259271856	-0.977725613091571	0.137254083821507	-0.158788985698098	-0.209227715240103	-0.577442068967904	0.789166915272981	-11.3766279612022	-36.3913425290449	88.8166133049018
17003	1662095493467	5.78544975283787	-1.59763347725714	7.61296041698079	0.0646397936687795	0.0407914745352974	-0.118607449091684	0.0122641723440261	0.00901248842507974	-0.011546194630612	0.343994140625	-0.529052734375	0.369140625	0	0	0	0.15013711540854	-0.287876629853596	0.639390198548858	0.696969200582487	0.016614439967576	0.804828617486248	0.593274689212121	-0.977712484685252	0.137278041152911	-0.158849100431233	-0.209289889089645	-0.577412881647435	0.789171785121877	-11.3807541798789	-36.3897360913005	88.817385366704
17004	1662095493467	5.80054648882258	-1.56043005000939	7.65211091553173	0.0215007311863559	0.0358500573436133	-0.0846693139488739	0.0140183086797823	0.00428577222978347	-0.0145032454841601	0.343017578125	-0.521240234375	0.368896484375	0	0	0	0.150169416036169	-0.287827636401991	0.639370681297609	0.697000380277967	0.0167207672405494	0.804837399850917	0.593259787735612	-0.977729032161148	0.137308556768775	-0.158720823798583	-0.209204100371173	-0.577393384131903	0.789208796421198	-11.3712839396015	-36.3886754878292	88.8098321526628
17005	1662095493468	5.77245047690595	-1.54240024909544	7.66422837762429	0.00295262624287742	0.00776783382725671	-0.0946366130508043	0.0118107398763479	0.000939993361394975	-0.013746228348949	0.34521484375	-0.523193359375	0.360595703125	0	0	0	0.150263063564257	-0.287799004357703	0.639313656801257	0.697044326457367	0.0168995626362392	0.804768794428993	0.593347783594082	-0.977751034771119	0.137398119911378	-0.158507635932233	-0.209086868996383	-0.577467699666504	0.789185489637998	-11.3567342729722	-36.3949387487824	88.7970068762566
17006	1662095493469	5.80476221977599	-1.57430429127679	7.63604612782753	0.0415086853345189	0.0457508947946671	-0.0926522489536303	0.00900693539537803	0.00562026720920181	-0.0120826347767124	0.342041015625	-0.52587890625	0.357177734375	0	0	0	0.150270632807486	-0.287763053554783	0.639296050465729	0.697073684615468	0.0169859697354952	0.804788234603941	0.593318948184885	-0.977757579229108	0.137438593549116	-0.158432159813836	-0.209049259965638	-0.577430974616286	0.78922232384893	-11.3509509668476	-36.3928862819143	88.7908870187189
17007	1662095493470	5.77655304265731	-1.55664087399453	7.64817021990806	0.0206383773825035	0.0158722083942626	-0.102613957704548	0.00937934604676226	0.00196327163013487	-0.0135554457832805	0.33935546875	-0.524169921875	0.365478515625	0	0	0	0.150334566055974	-0.287885403870373	0.639214656709496	0.697084023009361	0.017053233772307	0.804614394401804	0.593552747057349	-0.977730903460609	0.137608281793047	-0.158449491006021	-0.209168514925188	-0.577632787420679	0.789043024974308	-11.3546730407601	-36.4095293433179	88.7858382004497
17008	1662095493470	5.80474883568712	-1.57141990541029	7.63665039853063	0.0387621696717727	0.0430982932366947	-0.0926287847326019	0.00923057103224906	0.00124870631208276	-0.0115171064644521	0.34130859375	-0.528076171875	0.364990234375	0	0	0	0.150356247370694	-0.287865530350215	0.639195285093374	0.697105316883462	0.0171256479011789	0.804608101749197	0.593559192316586	-0.977737625312529	0.137644772782005	-0.15837630054401	-0.209131174701863	-0.577632858419034	0.789052870625585	-11.3494263451502	-36.4099882020354	88.7806744553674
17009	1662095493471	5.80209665084907	-1.58735151918433	7.65381071348372	0.0506206935880834	0.0280412295028244	-0.0781365290747189	0.0082206018555683	-0.00133818167648379	-0.011506186461316	0.34423828125	-0.530029296875	0.367431640625	0	0	0	0.150378984572911	-0.287904902909342	0.639167605138666	0.697109532585005	0.0171510788441281	0.804549967017247	0.593637255457429	-0.977729354829525	0.137701867080245	-0.158377727308031	-0.209167753726823	-0.577700221892948	0.788993855759165	-11.3503528171217	-36.4155459831241	88.7787761412209
17010	1662095493472	5.80227084421473	-1.58601311203965	7.65395612115185	0.0499449599498597	0.0280759401807976	-0.0781331386913475	0.0102777220471393	0.00129176776325313	-0.0102265224017873	0.343505859375	-0.52734375	0.358642578125	0	0	0	0.150402272525338	-0.28788276832137	0.63915416740125	0.697125970263949	0.0172109239944781	0.804545493042848	0.593641586918991	-0.977738383348526	0.137722213425657	-0.158304281862965	-0.209120629834236	-0.577701602519483	0.789005336245676	-11.3450649922202	-36.4158543773796	88.7745094171241
17011	1662095493473	5.80931932311203	-1.58473154659721	7.62045549237234	0.0548741578030946	0.0515833297286879	-0.100569423213031	0.00661176057609755	0.00409972418049197	-0.0105909811851592	0.345458984375	-0.527099609375	0.371337890625	0	0	0	0.150406192620074	-0.287981748498441	0.63909814607618	0.697135603333601	0.0172401444275406	0.804447666636963	0.593773297700783	-0.977704619979851	0.137863073807046	-0.158390179463651	-0.20927602225332	-0.57780422681287	0.788888979506628	-11.3526919152261	-36.4252325932956	88.7722801994315
17012	1662095493473	5.80367319636899	-1.61814617970962	7.65473313555752	0.0807216524614152	0.0226092844905027	-0.0715923651547463	0.0068372042730742	-0.000270169352655613	-0.0100236984992686	0.33935546875	-0.5283203125	0.3623046875	0	0	0	0.150422158073129	-0.287977032957707	0.639078850203237	0.697151795574254	0.0172949034235673	0.804433682319443	0.593790650874154	-0.977706189411423	0.137902795167061	-0.15834590702543	-0.209264171568293	-0.577814217404775	0.788884805698996	-11.3496595283108	-36.4264682774775	88.768360450628
17013	1662095493474	5.78127984448718	-1.56597871302928	7.63266229768349	0.0341657863802638	0.0237575431660267	-0.110559362043729	0.0117688597747465	0.00347259111427939	-0.0150539944374753	0.34130859375	-0.5302734375	0.368408203125	0	0	0	0.150453210880283	-0.287984342235164	0.639036469136908	0.697180924205638	0.0173948194808281	0.8043917343629	0.593844557055021	-0.977704410253007	0.137992444897694	-0.158278777234905	-0.209264202450035	-0.577851211679791	0.788857699926386	-11.3453524293213	-36.4303069524263	88.7611826584105
17014	1662095493475	5.80940866140639	-1.58054121366637	7.62125760899745	0.0522697268419626	0.0509599877662026	-0.100551766503456	0.011472403488987	0.00204645055314842	-0.0109758920613341	0.34423828125	-0.53857421875	0.361328125	0	0	0	0.150479336415628	-0.287956241284677	0.639022123742176	0.697200041440871	0.0174638569464797	0.804389574098844	0.593845456984925	-0.977715430519871	0.138013389359902	-0.158192418531156	-0.209206956442412	-0.577849216871039	0.788874344834226	-11.3390896363158	-36.4303710383095	88.756264177813
17015	1662095493476	5.77827042920624	-1.58018102627396	7.65046197107767	0.0432229888287013	0.00848596217114215	-0.0960516694969051	0.0077665274377107	0.00739413742571821	-0.0126449302706723	0.3359375	-0.532470703125	0.373291015625	0	0	0	0.1504045469062	-0.288053638728686	0.638989879518378	0.697205498657457	0.0174340701765063	0.804365361138018	0.593879128273074	-0.977663669208699	0.13814081228606	-0.158400965559974	-0.209451195046639	-0.577852474064319	0.788807146970209	-11.3545921706943	-36.4327688789089	88.75834749527
17016	1662095493476	5.78092211388007	-1.56144322501654	7.63386234135941	0.0292621177592616	0.0230016924854095	-0.110541511727554	0.0105718404808702	0.0027109474805606	-0.0143080555897004	0.33154296875	-0.516845703125	0.371337890625	0	0	0	0.150429692686719	-0.288024466668027	0.6389630594499	0.697236705012868	0.0175362305180436	0.804362132377324	0.593880493547837	-0.977671860405834	0.138194232433205	-0.158303782307284	-0.209404426862979	-0.57784419536723	0.788825628317555	-11.3475476598824	-36.4328661060733	88.7510689334322
17017	1662095493477	5.80185753065578	-1.57614508328453	7.65630751318471	0.0406970566372972	0.0273863089384109	-0.0780881189062477	0.00900067711149457	0.00560908424569978	-0.0120900096932837	0.336669921875	-0.531494140625	0.363525390625	0	0	0	0.150383956492503	-0.287883714738087	0.639015761847024	0.697256400852175	0.0175636457993345	0.804529476322388	0.593652962659718	-0.977701844450678	0.138087043481457	-0.158212110093675	-0.209262088549212	-0.577636815093165	0.789015264836522	-11.338491574063	-36.416664320698	88.7493771396785
17018	1662095493478	5.80437698300719	-1.5575927471488	7.63976514954377	0.0267402467113573	0.0419163695890233	-0.0925831088886468	0.00866488928329325	0.00672502425603414	-0.00931542865958402	0.348388671875	-0.5263671875	0.364013671875	0	0	0	0.150382153324536	-0.287849432292485	0.639007401595735	0.697278605003937	0.0176244900695213	0.804557544220952	0.593613119284724	-0.977707214066508	0.138109497334684	-0.158159319384816	-0.209231883115592	-0.577592351735297	0.78905582458074	-11.3342386513362	-36.4138275424106	88.7450898610304
17019	1662095493479	5.77739150302382	-1.57466552991075	7.65226276714745	0.0393108357776391	0.00977967040805207	-0.0960362704263424	0.00885230967963671	0.00489570697430205	-0.0100510862925684	0.3369140625	-0.5224609375	0.357421875	0	0	0	0.150371669099627	-0.287923083803571	0.638975268879903	0.69727990413111	0.0176218071457959	0.804498279085749	0.593693515933083	-0.977680177821168	0.138197933784097	-0.158249173752589	-0.209358405153668	-0.577653745807881	0.788977317890469	-11.3416102894426	-36.4195517489048	88.7451884291009
17020	1662095493479	5.82496066980587	-1.57143674547943	7.6626574946817	0.0352851037699175	0.0427063762656644	-0.0601066179822016	0.00646096928389362	0.00338033830264219	-0.00855536202347392	0.337890625	-0.52490234375	0.361572265625	0	0	0	0.150371620211353	-0.287908749982359	0.638963623123829	0.697296504969786	0.0176680800161315	0.804507591998409	0.59367952075633	-0.977680812829899	0.138227728318965	-0.15821922559552	-0.209351539695344	-0.577633646475602	0.788993855037217	-11.3392880242968	-36.4185552680606	88.7419090526839
17021	1662095493480	5.78121761210446	-1.58978812880112	7.63629847016371	0.0565016883845	0.0197424312418129	-0.103960598382546	0.00623256566810794	0.00774776970419879	-0.00912557594337314	0.335693359375	-0.5234375	0.37109375	0	0	0	0.150330126051596	-0.287971188110364	0.638962728894824	0.697280488112852	0.0175984518031704	0.804490996963687	0.593704076370126	-0.977653976995123	0.138254968569182	-0.158361185053519	-0.209482686062004	-0.577650239738812	0.788946896039233	-11.3498560573687	-36.4203036787923	88.7468396432313
