// Start Time : 13/05/2022 05:59:12																																
// Update Rate : 100Hz																																
// Filter Profile : 46.1 human																																
// Firmware Version : 4.4.0																																
PacketCounter	Time_Of_Arrival	Acc_X	Acc_Y	Acc_Z	FreeAcc_X	FreeAcc_Y	FreeAcc_Z	Gyr_X	Gyr_Y	Gyr_Z	Mag_X	Mag_Y	Mag_Z	VelInc_X	VelInc_Y	VelInc_Z	OriInc_q0	OriInc_q1	OriInc_q2	OriInc_q3	Mat[1][1]	Mat[2][1]	Mat[3][1]	Mat[1][2]	Mat[2][2]	Mat[3][2]	Mat[1][3]	Mat[2][3]	Mat[3][3]	Euler_X	Euler_Y	Euler_Z
6273	1652421584757	5.22664821718971	3.58020180695621	7.83556305427066	4.33680868994202E-16	-3.46944695195361E-16	0.263608783181478	0.0288267539579029	-0.0166910241577105	-0.00508416765959122	0.080322265625	-0.00634765625	0.793212890625	0	0	0	-0.324265393815175	-0.0774147399631572	-0.880309831831193	-0.33751075892727	-0.561876883964455	0.644433921147472	0.518651413321981	-0.544022236582461	-0.76018689128955	0.355184031757265	0.623164643870471	-0.0825882048843746	0.777717824820652	24.5461983452013	-31.2418343709944	131.084918121238
6274	1652421584758	5.23208929836479	3.55258048073876	7.81724946984757	1.73472347597681E-15	3.46944695195361E-16	0.242409591724657	0.0278848846844671	-0.0202966249265424	-0.00591096981836597	0.076416015625	-0.006103515625	0.790771484375	0	0	0	-0.324316570154597	-0.0777624374299101	-0.881961589511382	-0.333039817851671	-0.567806484096969	0.637895948234341	0.520273539442138	-0.537017360257821	-0.766074966100571	0.353187628741057	0.623865491431575	-0.0788536970612053	0.777543531296235	24.4292198893779	-31.3506017703778	131.673046370033
6275	1652421584758	5.2458611648823	3.554517548855	7.7828932965443	-0.0314701240089183	0.0225630718857865	0.223526159044916	0.0300057942193248	-0.0211995449746125	-0.00459881753631781	0.0830078125	-0.0078125	0.790771484375	0	0	0	-0.324364987393256	-0.0776705509301912	-0.881140379269853	-0.335180954846414	-0.564882164923239	0.641070161901398	0.519554797178651	-0.540295732808203	-0.763242026052894	0.354319249795887	0.623689554875565	-0.0805646149769784	0.777509280943147	24.4992590182319	-31.3023929098978	131.385050392544
6276	1652421584759	5.25425009393587	3.54586994590316	7.8394075688632	0.00678842226894318	0.0306937000410899	0.268763922130955	0.0226541110822415	-0.0142309058790492	-0.000918743398476718	0.076904296875	-0.0068359375	0.79541015625	0	0	0	-0.324465290952979	-0.0777479978922589	-0.88110695382653	-0.335153785162985	-0.564788430515444	0.641065714931024	0.519662176703168	-0.540159607902531	-0.763254378229338	0.35450014401172	0.623892319832906	-0.080482937655881	0.777355047581087	24.5145870446769	-31.3095937072872	131.380531265286
6277	1652421584761	5.19629800553174	3.56205600297394	7.79663918265124	0.00663474187739925	-0.0145578007400754	0.211138349271588	0.0260390828835144	-0.0106675404810718	-0.00386080327550639	0.09033203125	-0.004150390625	0.7900390625	0	0	0	-0.324555203151277	-0.0778486635378872	-0.881072760186863	-0.33513325252726	-0.564699246315866	0.641085937288376	0.519734145714303	-0.540021182049999	-0.76325057727173	0.354719155433835	0.624092848979713	-0.0803578079930965	0.777207011385596	24.532070481972	-31.3144202079981	131.375146844554
6278	1652421584762	5.188448483648	3.51468621507581	7.84815520401426	0.0714987786504359	0.0135588242337187	0.230283326627724	0.0282991804179813	-0.0133824319897235	-0.00390152345122349	0.081787109375	-0.001953125	0.794921875	0	0	0	-0.324660054936349	-0.0779572375582477	-0.881033479618663	-0.335109721780857	-0.564594646193366	0.641104970525956	0.519824299409619	-0.539866566412569	-0.763248286960486	0.354959353900959	0.624321212165414	-0.0802276088313524	0.777037035682027	24.5514596291904	-31.3204665880384	131.369038651907
6279	1652421584764	5.17431239449208	3.58825508657589	7.8203497015396	0.0257419963973209	-0.0485735865430024	0.227428647351417	0.0313021264916018	-0.0235871125730065	-0.00124243985383265	0.081787109375	-0.010498046875	0.796142578125	0	0	0	-0.32481514668437	-0.0780572673715951	-0.880981187511619	-0.335073619888986	-0.564441579477805	0.641095476609403	0.520002205021827	-0.539678745605061	-0.763265464529941	0.355207942194487	0.624621929569199	-0.0801400057827281	0.776804366989782	24.573111729452	-31.3323994062036	131.361754160222
6280	1652421584765	5.26291046074842	3.50469464903841	7.85282516693461	0.0448831448313591	0.0697306992438605	0.269033532549958	0.0255451759018137	-0.0265619896012613	-0.00112969521156402	0.074951171875	-0.00537109375	0.78955078125	0	0	0	-0.324974500912223	-0.0781271237404046	-0.880926171265768	-0.33504746987843	-0.564269533369827	0.641082815755068	0.520204495419014	-0.539525523574086	-0.763278690928228	0.355412224588575	0.624909675971421	-0.0801153126340093	0.776575452585805	24.5919617774992	-31.3459696448284	131.353652424557
6281	1652421584766	5.2736744710576	3.57700232165905	7.76023365605868	-0.0544023926335355	0.0295215753164497	0.228427217908994	0.0360232580010002	-0.0179243274942773	-0.0032063402265084	0.07958984375	-0.009765625	0.79052734375	0	0	0	-0.325110631272554	-0.0782597365969515	-0.880878392025994	-0.335010073763515	-0.564142655821051	0.641092414915147	0.520330259951731	-0.539320125442112	-0.76328732820948	0.355705294995644	0.625201460471963	-0.0799560512600415	0.776356982122674	24.6159414103026	-31.3544072888837	131.346836879778
6282	1652421584767	5.21098159683848	3.5838028337007	7.80748360205631	0.0104536405959117	-0.0185212283039405	0.234915273926033	0.0313476651174756	-0.0191071627243052	-0.00362233603581416	0.0830078125	-0.00927734375	0.7958984375	0	0	0	-0.32524587266677	-0.0783716854983711	-0.880828983441979	-0.334982541565894	-0.564003638318571	0.641104797601161	0.520465689989446	-0.539144528632028	-0.763289151516397	0.355967482255793	0.625478275569635	-0.0798392739831341	0.776146002450752	24.637832206945	-31.3634942461872	131.339285141938
6283	1652421584768	5.23671439225165	3.56471240733345	7.77799398514238	-0.00869138610349734	0.0154768104726375	0.218624938606149	0.0249020441641231	-0.0253756921507061	-0.00281025022642038	0.0888671875	-0.007080078125	0.797607421875	0	0	0	-0.325397638561609	-0.0784423678485984	-0.880773624244514	-0.334964169098752	-0.563830764477022	0.64110513294055	0.52065254973594	-0.539005287896091	-0.763291600692575	0.356173036503633	0.625754080010118	-0.0798131620063079	0.775926343489668	24.6565162607011	-31.376033428113	131.330559787542
6284	1652421584769	5.27406194998915	3.61443880195012	7.77003821569127	-0.0581625110351543	0.00250453937276334	0.249618594583099	0.0287715391314719	-0.0172507298706593	0.00149215850358511	0.08935546875	-0.014892578125	0.794189453125	0	0	0	-0.325522376319142	-0.0785377531787317	-0.88073675966091	-0.334917548096807	-0.563730836984725	0.641079984219731	0.520791702377574	-0.538816800037703	-0.76332411460492	0.356388484746275	0.626006389288186	-0.0797041397635369	0.775734007682352	24.6750431379803	-31.3853723225477	131.326638305813
6285	1652421584770	5.24281555169166	3.60842150787772	7.81178108736798	-0.00851583932698595	-0.015505742918601	0.263593254269882	0.0225635706821325	-0.00794044436412357	-0.00195425721661253	0.08154296875	-0.00634765625	0.792724609375	0	0	0	-0.325596240249281	-0.0786262143944038	-0.880711302334099	-0.334891935833803	-0.563668959298041	0.641087025482456	0.52085000727841	-0.538685426315049	-0.763330619446986	0.35657310174837	0.626175147861712	-0.0795851190407884	0.775610013491075	24.6897772863023	-31.3892855916127	131.323207384634
6286	1652421584771	5.24440441118418	3.54033933416148	7.75671121451908	-0.00491967541927687	0.0424474919811573	0.197433644933708	0.0203613576448959	-0.0160080088440547	0.00148696521565353	0.0810546875	0.001220703125	0.7998046875	0	0	0	-0.325701408540229	-0.0786866505691042	-0.880679719365439	-0.334858530420742	-0.563576714158744	0.641062939043464	0.520979457793673	-0.538549527348784	-0.763356351253354	0.356723264721504	0.626375042486875	-0.0795323153574833	0.775454006994253	24.7033096851885	-31.3979745471602	131.319624834061
6287	1652421584772	5.29271656290282	3.54860704730029	7.79142751780582	-0.0123490227957372	0.0645518483958414	0.252474505882713	0.0197140380603482	-0.0148192041113281	-0.000193972470849759	0.080322265625	0.001953125	0.787841796875	0	0	0	-0.325802375916905	-0.0787473242836037	-0.880647011792326	-0.33483206445369	-0.563480600921159	0.64104984472419	0.521099519251958	-0.538425583329401	-0.763372695063705	0.356875355898343	0.626568035892291	-0.0794809726303556	0.775303341530145	24.7168122504248	-31.4060340109463	131.315359412774
6288	1652421584773	5.27369241472292	3.54161682925747	7.80111415980015	0.0105163700901596	0.057537781202986	0.247573167384617	0.0229577870164092	-0.00944507415483927	-0.00179367716002818	0.075927734375	0.0048828125	0.794677734375	0	0	0	-0.325881691052521	-0.0788355215950482	-0.880619576618516	-0.334806280179766	-0.563411756377875	0.641056035587054	0.521166338142256	-0.538291823217447	-0.76337943057405	0.357062680819035	0.626744849067334	-0.0793662662209103	0.775172167943171	24.7319181413582	-31.4105197170957	131.31161364402
6289	1652421584774	5.20250742888727	3.53826155640497	7.8282295724185	0.0715319816603967	0.0132667311051042	0.230283480292849	0.0227431063420016	-0.00527580028423606	-0.00568822277875703	0.0810546875	-0.005126953125	0.80078125	0	0	0	-0.325945679792003	-0.0789289213647892	-0.880592486850276	-0.334793236640119	-0.563345805049925	0.641085899526142	0.521200895395825	-0.538179735808158	-0.763367428144449	0.357257248510916	0.62690037158875	-0.0792403879147977	0.77505927839424	24.7469532177202	-31.4128397093321	131.306964315111
6290	1652421584775	5.20711467351451	3.51046503308691	7.81063096742579	0.0752719988982818	0.0402677790249679	0.209092710619005	0.0306067675907957	-0.0116304565530058	-0.0063399915732671	0.087158203125	0.0009765625	0.80029296875	0	0	0	-0.326045616389446	-0.0790545443693347	-0.880550828413307	-0.334775855802687	-0.563238764809609	0.641125089614233	0.521268369731837	-0.538023539025087	-0.763351010772271	0.357527489583491	0.627130580717179	-0.0790813114464744	0.774889270095566	24.7682087632933	-31.4173697467215	131.299829070176
6291	1652421584776	5.22880228235628	3.54206579546927	7.76011592491866	0.0179033362635262	0.0349625959817227	0.192534174267438	0.0326949890122512	-0.0293857010380476	-0.00870473015265588	0.079833984375	-0.006103515625	0.7880859375	0	0	0	-0.326224569439635	-0.0791508828255259	-0.880478447748025	-0.334769131033751	-0.563014318401664	0.641155935034153	0.521472860506843	-0.537872084352057	-0.763329533309694	0.357801124162542	0.627461949563066	-0.0790385383701225	0.77462533608373	24.7923176561883	-31.4311000194737	131.287139525152
6292	1652421584777	5.26973350956789	3.63212500934299	7.78902186297352	-0.0314239762283986	-0.00896604257041526	0.268493913325507	0.029765536982342	-0.0215383380743734	-0.00613216406694286	0.089599609375	-0.01171875	0.793701171875	0	0	0	-0.326366780375028	-0.0792558706601262	-0.880421256595491	-0.33475609414671	-0.562846164198555	0.64118572878962	0.521617730376851	-0.53771979545696	-0.763313728795088	0.358063643793479	0.627743273178374	-0.078949430836847	0.774406463267088	24.8144860057136	-31.4408283394474	131.277333997583
6293	1652421584779	5.24721504068176	3.56633903371987	7.79792513497708	0.0255633357687547	0.0267922720230343	0.240088568497871	0.0272499586633476	-0.0191384147318216	-0.00761009296830012	0.084716796875	-0.0009765625	0.806884765625	0	0	0	-0.326493269860265	-0.0793428565249922	-0.88036927892297	-0.33474884403543	-0.562690712305792	0.641215014221336	0.521749430111747	-0.537595379553742	-0.763295845070796	0.358288516115335	0.627989148128588	-0.0788844625689504	0.774213711708814	24.8336274615427	-31.4496731332362	131.268190183969
6294	1652421584779	5.19327117732386	3.62261058909015	7.79189193715744	0.0255555968752521	-0.0493662187097022	0.227425257529799	0.0304380054237406	-0.0266761139058474	-0.008670037303612	0.07568359375	0.001708984375	0.791015625	0	0	0	-0.326658192614685	-0.079446338377434	-0.880299125762101	-0.334747895734397	-0.562476542998202	0.64126015453984	0.521924853572172	-0.537452965322931	-0.763264251239623	0.358569369641645	0.628302831954767	-0.0788232007670237	0.773965409032252	24.8577528316793	-31.4614556563049	131.255377428127
6295	1652421584780	5.2781951217902	3.58959118557422	7.80334163397582	0.00640732843754307	0.0296319535383406	0.268767348193201	0.0215944820499742	-0.0284122164264951	-0.00645205983184308	0.077392578125	-0.004638671875	0.794677734375	0	0	0	-0.326812857107122	-0.0794919046569141	-0.880237051241134	-0.334749349731719	-0.562272458567342	0.641275513981097	0.522125844509651	-0.537359608069845	-0.763247819896415	0.358744222306635	0.628565298081002	-0.0788573432956616	0.773748787046992	24.8745286417724	-31.474957271783	131.244389826318
6296	1652421584780	5.24430648426133	3.65418570993017	7.78622228205728	-0.0164657195044915	-0.0395124067565682	0.261003506154186	0.0273904840006224	-0.0209593600850587	-0.00896684701930014	0.08642578125	0.000732421875	0.791259765625	0	0	0	-0.326947375355826	-0.0795920345567186	-0.88017689490722	-0.334752379311253	-0.562092516586785	0.641327433165063	0.522255805393341	-0.537237805974866	-0.763211905161155	0.359002963290825	0.628830297161681	-0.0787826839489022	0.773541043566118	24.8961708152645	-31.4836884629407	131.232999854895
6297	1652421584782	5.27016135037186	3.63439501436873	7.75688284732631	-0.0357406937565984	-0.00569557467194979	0.244715316020931	0.0100605605389719	-0.0304121424275685	-0.00197435902114756	0.087646484375	-0.003662109375	0.789794921875	0	0	0	-0.327094006093751	-0.079577413734673	-0.880123103871636	-0.334754041696587	-0.561898485490682	0.641308122529258	0.522488262051193	-0.537190942317042	-0.763214333582201	0.359067921857698	0.629043705552966	-0.078916240360747	0.773353892801684	24.9054244552978	-31.4993076833024	131.224049797417
6298	1652421584781	5.31994760612072	3.57239062571109	7.73765370427793	-0.0396165573084375	0.0744171897688333	0.233605194035047	0.0113146342458847	-0.0259581424876639	-0.00624392374074923	0.084228515625	-0.0029296875	0.80078125	0	0	0	-0.327224686978251	-0.0795939681534442	-0.880065688606585	-0.334773338548623	-0.56170163205799	0.641335280062574	0.522666562055054	-0.537154834805104	-0.763183224061195	0.359188042614257	0.6292503158433	-0.0789963610466913	0.773177608931149	24.9177357553646	-31.5112897798335	131.212896393623
6299	1652421584782	5.29654376522259	3.57530371215535	7.80094328623652	0.0138534334505913	0.0521685252566101	0.271358201874907	0.0124807280522911	-0.006774811890639	-0.00971526183237647	0.085693359375	0.002685546875	0.796630859375	0	0	0	-0.327275545196311	-0.0796392348844129	-0.880034924946266	-0.334793728522955	-0.56160775371631	0.641388295537986	0.522702386939832	-0.537132399474733	-0.763141503217446	0.359310216249877	0.629353252474504	-0.0789689838727472	0.773096619566966	24.9274757360724	-31.5136974649857	131.2058025127
6300	1652421584783	5.2020597181949	3.63271720283502	7.78131686417065	0.0252046472791873	-0.050095334699345	0.227422533221254	0.00975480234734952	-0.0115188356871778	-0.00507542699969064	0.0830078125	0.00830078125	0.800048828125	0	0	0	-0.327340556975078	-0.0796711549653458	-0.880003685280456	-0.334804690407033	-0.561507958081394	0.64141792329715	0.522773240214564	-0.537099522332334	-0.763116652695877	0.359412127631522	0.629470345704737	-0.0789684877113038	0.773001333651467	24.9363864654386	-31.5184594878978	131.199444398515
6301	1652421584784	5.25889937941306	3.60005104541742	7.74668649759633	-0.00921920411765227	0.0137190806937668	0.218627025319709	0.00679197569839649	-0.0205285192988783	-0.00616421474706254	0.080078125	-0.006103515625	0.781005859375	0	0	0	-0.327441610289252	-0.0796645951015318	-0.879959341460444	-0.33482398587167	-0.561349780672378	0.641433994831766	0.52292337298426	-0.537091981619418	-0.763092901544633	0.359473819481085	0.62961784204325	-0.0790674009080573	0.772871088276981	24.9438378970765	-31.5285506590746	131.190732726344
6302	1652421584784	5.28376704538285	3.55950027320457	7.7554235079669	0.0060307362716814	0.0598157753402063	0.223806827107282	0.00855684190975313	-0.0154438424158363	-0.00740427899614918	0.086669921875	-0.004150390625	0.791748046875	0	0	0	-0.327520982472011	-0.0796885750625256	-0.879918231481136	-0.334848686651422	-0.561212726176774	0.641478289136746	0.523016137937852	-0.537079567551654	-0.763052176104644	0.359578801739611	0.629750596741092	-0.0791010815865335	0.772759474090146	24.9534011022635	-31.5347863986255	131.181838622991
6303	1652421584786	5.26057557880748	3.58197807703253	7.78173843180446	0.0250416792125601	0.025410787200629	0.240093468445329	0.00655091939630828	-0.0124131839909799	-0.00584944463078542	0.078369140625	0.001708984375	0.790771484375	0	0	0	-0.327585702725004	-0.0796871662555418	-0.879888816853628	-0.334863006138704	-0.561108748979831	0.641493181270838	0.523109424691725	-0.537075675846895	-0.763033445307824	0.359624359235123	0.629846560863746	-0.0791609734950952	0.772675125808654	24.9585702132877	-31.5410576340377	131.175918462452
6304	1652421584786	5.2175953469446	3.59609663722196	7.81901027350531	0.067031519685333	-0.0156209437942846	0.251476592093903	0.0153798742494795	-0.0191107124081079	-0.00990963381260716	0.08740234375	-0.00146484375	0.78857421875	0	0	0	-0.327691588142087	-0.0797390271987555	-0.879834784058934	-0.334889031415306	-0.560935119397269	0.641553654197313	0.523221464212665	-0.537034420358652	-0.762982048358228	0.359794976664667	0.630036366551025	-0.0791662975587211	0.772519821204625	24.9733760567829	-31.5485900878397	131.16445500719
6305	1652421584788	5.22345463740247	3.58694685953595	7.76410797273029	0.0361757880243117	-0.00104000356530749	0.208825923928186	0.0029055465074018	-0.0247185577973874	-0.00623329278443557	0.084716796875	-0.005615234375	0.794921875	0	0	0	-0.32779852264005	-0.0797020719938201	-0.879788125867498	-0.334915753373064	-0.560759133395106	0.641562248869029	0.523399536816841	-0.537057363065329	-0.762958035724889	0.359811651423539	0.630173454765658	-0.0793279052347413	0.772391416549785	24.9780377743101	-31.5605632188193	131.155166001604
6306	1652421584788	5.29622711725174	3.57303290444355	7.77146560562871	0.0095741657473794	0.0551232019339884	0.247587628146071	0.00679478541347337	-0.0205311647786669	-0.00616606669856296	0.08154296875	0.001220703125	0.791748046875	0	0	0	-0.327897747325976	-0.0797076773589729	-0.879741440478725	-0.33493992203529	-0.560596631851089	0.641592994671502	0.523535906644109	-0.53704912326913	-0.762923869594064	0.359896385643812	0.630325039605023	-0.0794077980558265	0.772259506937177	24.9869488836772	-31.5697334045877	131.145577329075
6307	1652421584789	5.24607941148553	3.59737687111382	7.75027255543253	0.0129751090173253	0.00552343555809496	0.213727501672469	0.0124147031358951	-0.0157384580775414	-0.00495634418023065	0.088623046875	-0.01416015625	0.789306640625	0	0	0	-0.327978606785616	-0.0797185392417055	-0.879709477789865	-0.334942118400803	-0.560487621624296	0.641595463007362	0.523649584984375	-0.537011561265446	-0.762917463644701	0.35996600774682	0.630453970622113	-0.0794493896408537	0.772149975984269	24.994304628041	-31.5773783911474	131.139947299294
6308	1652421584789	5.23058846387094	3.60930677658461	7.83490905017154	0.0703495106212439	-0.0203792216521181	0.275255260632555	0.000932193155537866	-0.0172086856609103	-0.00706130831537858	0.0791015625	0.000244140625	0.78759765625	0	0	0	-0.328052980228822	-0.0797053542443016	-0.87966908063081	-0.334978517594673	-0.560341269826127	0.64163564720723	0.523756964213941	-0.537045331207081	-0.762872898509731	0.360010073398006	0.630555289850398	-0.0795527306402552	0.772056597335557	24.9996445900042	-31.584600331852	131.13075598865
6309	1652421584789	5.26073218296889	3.57816364993878	7.75265662144559	0.0200971376398641	0.028134595053313	0.216322886461066	0.008225846198091	-0.0331574949680956	-0.00598593975957159	0.08935546875	0.001953125	0.798583984375	0	0	0	-0.328195610129717	-0.0796675037671214	-0.879610692563295	-0.335001134122586	-0.560123763256328	0.641634209202839	0.523991327615464	-0.537048109177391	-0.762854657960193	0.360044579541792	0.630746144074268	-0.0797390268882455	0.771881460670197	25.0067273714823	-31.6003647154908	131.119798831068
6310	1652421584790	5.30217578671825	3.57642454443458	7.76584721072329	0.00873033262443435	0.054231422655626	0.247593242609829	0.00398675466461054	-0.0229306397409215	-0.00677276022858517	0.080322265625	-0.001708984375	0.794189453125	0	0	0	-0.328300292521011	-0.0796574908093994	-0.879560177850925	-0.335033573880916	-0.559942844606399	0.64166753472589	0.524143859692063	-0.537061224589028	-0.762814377061062	0.360110354185876	0.6308955950211	-0.0798561270519813	0.771747204177139	25.0145559743132	-31.6106261732948	131.109154902565
6311	1652421584791	5.27944415642087	3.61855408272236	7.75490235823728	-0.00696694557944721	0.00762672283522239	0.242404285696253	0.00229838066778957	-0.010621974663003	-0.00846948345056196	0.08642578125	0.002685546875	0.79296875	0	0	0	-0.328336384304994	-0.07963377879643	-0.879536762912116	-0.335065311099495	-0.559852912078644	0.641697852174308	0.524202807462857	-0.537111184180054	-0.7627793971448	0.360109937547015	0.630932874928673	-0.0799465934627288	0.771707360032249	25.0156641191581	-31.6145921343993	131.103254791107
6312	1652421584791	5.2489734833837	3.54114234230293	7.74413805023888	0.0462516587588196	0.0476174305464436	0.190246153848658	-0.0010856355568051	-0.0226133382407676	-0.00733528964787088	0.08544921875	-0.000732421875	0.792724609375	0	0	0	-0.328430948012589	-0.0796029762876064	-0.879487827791674	-0.335108399357567	-0.559670946135124	0.641735678384987	0.524350790158627	-0.537159354517938	-0.762731453692329	0.360139635977852	0.63105329402998	-0.0801002411740955	0.771592957107414	25.0207301957637	-31.6245490421198	131.092355252047
6313	1652421584792	5.32535656260783	3.58689337696849	7.75155316980357	-0.014992591505287	0.0601860809311129	0.252497967840561	0.00722254489162927	-0.0175560609037759	-0.00839009691393414	0.08740234375	-0.000244140625	0.79296875	0	0	0	-0.328508382588572	-0.0795889714067797	-0.879451106783328	-0.335132196270412	-0.559537307184021	0.641756050394941	0.524468467737327	-0.537173473320024	-0.762704013306762	0.360176689483176	0.631159774883156	-0.0801982535174195	0.771495676398902	25.0257584214031	-31.6324676527536	131.084676571432
6314	1652421584793	5.25416999294966	3.562503717131	7.81675678951555	0.0803499629190926	0.0281743692863596	0.256680631194534	0.00366268135606406	-0.00403388585887475	-0.0098781440835561	0.085693359375	0.000732421875	0.794189453125	0	0	0	-0.328528253530878	-0.0796144391187018	-0.879426496848185	-0.335171246316112	-0.559458844549711	0.641828135263052	0.524463960668278	-0.537205764705022	-0.762643553453438	0.360256542957386	0.631201843804972	-0.0801963537866143	0.771461455431531	25.0316017069439	-31.6321643563553	131.077508976015
6315	1652421584794	5.23136362192529	3.51481130426958	7.78992686805549	0.102587113152944	0.0514543829919804	0.206836202367853	0.00333680233937311	-0.0217464814060815	-0.00845514054622993	0.08837890625	-0.000732421875	0.79052734375	0	0	0	-0.328615739879982	-0.0795683762148652	-0.879386062159302	-0.335202509969149	-0.55930194562703	0.641839672177162	0.524617164070461	-0.537249988893575	-0.762616301633825	0.360248283710278	0.63130324175603	-0.0803629995822771	0.771361138019324	25.0339547203999	-31.6424745023567	131.069038867112
6316	1652421584795	5.33169833131469	3.51962715622841	7.80689645341099	0.0569869175164437	0.110654039343062	0.274280574674089	0.0111166585295857	-0.025755807182318	-0.0143719547925714	0.072998046875	0.00341796875	0.794921875	0	0	0	-0.32874188948587	-0.0795976333644312	-0.879315225209244	-0.335257694281962	-0.559062097044004	0.641928542683005	0.52476405911384	-0.537260237119698	-0.762532990375047	0.360409317581792	0.631506935242081	-0.0804436739499217	0.771185973720083	25.0487643373047	-31.6523611877822	131.052938029268
6317	1652421584796	5.32464897503292	3.62152187767701	7.76330346900628	-0.0200852776735975	0.0318335130738139	0.273678244403873	0.010483874884266	-0.00770024000325393	-0.0123932684333794	0.085205078125	-0.001708984375	0.793212890625	0	0	0	-0.328761934593709	-0.0796102535118027	-0.879295500788186	-0.335286773063958	-0.558996740341121	0.641977943973927	0.524773249831784	-0.537286660141783	-0.76248997468829	0.360460931771447	0.631542309842888	-0.080457180853307	0.771155595795977	25.0527773646327	-31.6529797986618	131.047436890544
6318	1652421584796	5.25763449485595	3.58725183716025	7.77505135896205	0.0446380990266842	0.0147695744999602	0.235213361413455	0.00832967603851871	-0.011285019953067	-0.0113155804393055	0.08349609375	-0.001220703125	0.79833984375	0	0	0	-0.328820767753831	-0.0796466990302123	-0.879254752654742	-0.335327281862691	-0.558865033464722	0.642055189993479	0.524819023448	-0.537297235096789	-0.762424034744341	0.360584625852942	0.631649867828547	-0.0804656712306381	0.771066612054744	25.0628562725279	-31.6560608006862	131.037336582401
6319	1652421584797	5.28233715641506	3.56700093230732	7.74660578007128	0.0246293570965679	0.0478929011991206	0.218941713361945	0.0099145955857276	-0.0172953951033183	-0.0106548553231078	0.079345703125	0.000244140625	0.79541015625	0	0	0	-0.328885334540151	-0.0796235330585717	-0.879221785367308	-0.335355903247888	-0.558741709762412	0.642078456588623	0.524921858333742	-0.537330407359674	-0.762393022280128	0.360600766645413	0.631730745728323	-0.0805737870733718	0.770989059415367	25.0660519694418	-31.6629829442935	131.030046526155
6320	1652421584798	5.29873070585269	3.6071708547566	7.75047059080541	-0.00199520798785371	0.0278929646368175	0.245008243073874	0.00845076995462771	-0.00914982816042682	-0.00845228698828339	0.079833984375	-0.007080078125	0.791015625	0	0	0	-0.328936006877729	-0.0796593434270032	-0.879189334030942	-0.335382777301313	-0.558638992137986	0.642135573916738	0.524961313978161	-0.537324268567217	-0.762345563388874	0.360710233275971	0.63182680132435	-0.0805676528882545	0.770910984768227	25.0749536730304	-31.6656389662585	131.02230624128
6321	1652421584799	5.23943546419398	3.58200955308732	7.78357757196611	0.0655487775565221	0.00610454289735937	0.230331221175858	0.00405689196255029	-0.00553919421088742	-0.0097150758540055	0.083251953125	-0.0009765625	0.791748046875	0	0	0	-0.328929117128587	-0.0796328786098504	-0.879182685887099	-0.335413245692032	-0.55860718103869	0.642166181370353	0.524957724770507	-0.537391891548169	-0.762313118517291	0.360678061759687	0.631797413883825	-0.0806306693551685	0.770928481098635	25.0724929182464	-31.6653973496689	131.01933826225
6322	1652421584800	5.25201426927099	3.58217377745765	7.75044926902646	0.0387940437207935	0.0170902791024509	0.211447981642582	0.010295725993177	-0.0148430060244258	-0.00627671168588744	0.0859375	0.001220703125	0.792236328125	0	0	0	-0.329008314381753	-0.0796636060505745	-0.879143950624509	-0.335429803415003	-0.5584807520973	0.642202142551479	0.525048243154021	-0.537362187574392	-0.762281113703983	0.360789943118539	0.631934434021519	-0.0806468337413526	0.770814477877392	25.0825676055593	-31.6714910155102	131.011327570471
6323	1652421584801	5.26849436412586	3.60227816227646	7.79151489596367	0.0457417941522491	0.0083328400302507	0.259004809496522	0.00683228655021941	-0.0160573306865751	-0.00855805895530247	0.083984375	0.005126953125	0.796630859375	0	0	0	-0.329065779180406	-0.0796326210103241	-0.879117372927649	-0.335450448293348	-0.558377419424368	0.642209374663982	0.525149289793561	-0.537391892740221	-0.762263284821636	0.360783367452013	0.632000483460311	-0.0807576851242559	0.770748717286838	25.0840435379232	-31.6782939121761	131.005758397667
6324	1652421584801	5.29351506189089	3.60158772323923	7.72579148345973	-0.00774887289956916	0.0303024152285234	0.221235669227511	0.00669479046243091	-0.0142381158269697	-0.00720907116401444	0.08837890625	0.00439453125	0.791259765625	0	0	0	-0.329135873920052	-0.0796501153322614	-0.879079504260016	-0.335476766433097	-0.558249831364955	0.642252919688953	0.525231675484272	-0.537390078418086	-0.762222396622302	0.360872445200736	0.632114728035033	-0.0807973095985861	0.770650871252882	25.0922685423298	-31.6838408419654	130.997351813922
6325	1652421584802	5.31393718942837	3.59148582162304	7.75084282524268	0.00318130117094298	0.0486550151112167	0.247625042603897	0.0107175946334625	-0.0118660033560726	-0.00849851740798785	0.085205078125	-0.002685546875	0.800048828125	0	0	0	-0.329189987800201	-0.0796523242988063	-0.879054996668072	-0.33548736488696	-0.558164359866614	0.642265184174138	0.525307510485481	-0.537382193517411	-0.762207470470002	0.360915710450703	0.632196904029993	-0.0808406157663372	0.770578918331802	25.09696147074	-31.6889470146694	130.992466388437
6326	1652421584803	5.27081484670771	3.62548231422282	7.75119449800853	0.0107956752153177	-0.00443556126069801	0.237511186492236	0.0103210696250017	-0.0103638689379359	-0.00866426952433057	0.08642578125	0.0048828125	0.79833984375	0	0	0	-0.329248730845643	-0.0796950124220103	-0.879019545682259	-0.335512468531564	-0.558053313392779	0.642322998708047	0.52535479891407	-0.537365071929348	-0.762160176909823	0.361041056118487	0.63230948030352	-0.0808271616691375	0.770487956463178	25.1072029678264	-31.6921312127828	130.984268707079
6327	1652421584804	5.30320486156073	3.61448444292103	7.74400048122002	-0.00538044162514285	0.0246985152902782	0.245015353672395	0.00681710233675261	-0.0121019482313636	-0.00434532332383911	0.0849609375	-0.001220703125	0.79736328125	0	0	0	-0.329286919338472	-0.0796537762019902	-0.879006097877644	-0.335520015175339	-0.557992888338638	0.642306171756704	0.525439547699592	-0.537390385439786	-0.762163190707007	0.36099701434803	0.632341292499851	-0.0809323943459081	0.770450801378684	25.1055790330215	-31.6978381025937	130.9819401733
6328	1652421584805	5.29599695935808	3.6057764609728	7.72213585170772	-0.00925551925577512	0.0286865525266895	0.221239142368327	0.0088315881185216	-0.00669712507360196	-0.00407693127006835	0.08154296875	0	0.79052734375	0	0	0	-0.329328849129831	-0.0796885952698759	-0.878984978499762	-0.335525922227342	-0.557929729288626	0.642331997808228	0.525475043905619	-0.537356984332223	-0.762144166594811	0.361086888040647	0.632425401581325	-0.0809065752407751	0.77038447382947	25.1129547464448	-31.7002284822904	130.977588685197
6329	1652421584806	5.27971171861358	3.59753870796941	7.84490968586179	0.0815490114896051	0.0140635363657252	0.304298381958301	-0.00424171969812528	-0.00216789588147574	-0.00682343878741044	0.090576171875	-0.001953125	0.795166015625	0	0	0	-0.329302128545491	-0.079630580088701	-0.878988917256202	-0.335555602234437	-0.557925091888986	0.642344350015643	0.525464868324845	-0.537454271933558	-0.762122817047643	0.36098714286763	0.632346817356611	-0.0810095533770275	0.770438157700291	25.1053383290169	-31.699543233698	130.976807434128
6330	1652421584807	5.30021809315799	3.57648164422252	7.7055211435544	-0.00638972119437441	0.0549897930513013	0.200080691196218	0.00712249816727738	-0.00282456064544813	-0.00760298102616085	0.08837890625	0.00390625	0.798828125	0	0	0	-0.329322504181742	-0.0796701752608714	-0.878969037445833	-0.335578280919541	-0.557867811229104	0.64240020038617	0.525457408110551	-0.537451473884136	-0.762079761097975	0.361082194167233	0.632399729928958	-0.0809717251184771	0.770398702826737	25.1122618648414	-31.6990408477669	130.971428871809
6331	1652421584809	5.2642695482263	3.59965310287743	7.76482345993673	0.0388380275465728	0.00882009879505114	0.235244438189616	0.00682411708401333	-0.00366441844230329	-0.00251851101585547	0.086669921875	0.003662109375	0.7900390625	0	0	0	-0.329342297310439	-0.079634874896956	-0.878967967128383	-0.335570038389346	-0.557852801075311	0.64236489423374	0.52551650306009	-0.537456363655368	-0.762102072071038	0.3610278229048	0.6324088151653	-0.0810418065019979	0.770383875804858	25.1093701161581	-31.7030204958704	130.972224645024
6332	1652421584810	5.2488902669017	3.56135964004681	7.7594607901658	0.0654592016535556	0.0288476065208565	0.209200988021962	0.00562713719773011	-0.00759490823691863	-0.00484189458190243	0.084228515625	-0.004638671875	0.79736328125	0	0	0	-0.329382538140168	-0.0796552776547705	-0.878945343539633	-0.335584957022925	-0.557779760376525	0.642395785734872	0.525556270426282	-0.537447555614119	-0.762075546723326	0.361096920577774	0.632480722139983	-0.081046379045706	0.770324360620164	25.1152847047861	-31.7056986571056	130.967146498116
6333	1652421584809	5.27686575404035	3.58051100721509	7.76861562725037	0.0455591554549657	0.0310361194184856	0.237870881061928	0.0100461636263014	-0.00672459439909577	-0.00596756312237288	0.09130859375	-0.009765625	0.790771484375	0	0	0	-0.329401656411364	-0.0796457421624869	-0.878937689897394	-0.335588500677049	-0.557749813933561	0.642393641871302	0.525590671473919	-0.53745188429356	-0.762073827937435	0.361094105244171	0.632503452264398	-0.0810795267383326	0.770302209017674	25.1157462355649	-31.7080154822299	130.965718271394
6334	1652421584809	5.25350426800544	3.60299202477371	7.79514740333808	0.0646539647969822	-0.00298882708608325	0.254138970017397	0.00721643847558428	-0.0136051186261558	-0.00417986601621253	0.080322265625	-0.000732421875	0.788330078125	0	0	0	-0.329471138572935	-0.0796618645041537	-0.878905678169056	-0.335600305532292	-0.557642407548171	0.642414598653256	0.525679016835421	-0.53742945785715	-0.762052844540708	0.361171759630768	0.632617201102886	-0.0811106994458293	0.770205512382351	25.1232462968586	-31.7139655881263	130.959330395436
6335	1652421584811	5.31040816717149	3.59013851978911	7.72303701430135	-0.00518476740065292	0.0480176253225146	0.223870680007685	0.00641705045999875	-0.0190388374658259	-0.00633752970936169	0.08203125	0.005615234375	0.80078125	0	0	0	-0.329530760049913	-0.0796027991547012	-0.878882586580825	-0.33561625638914	-0.557542413256531	0.64239770884282	0.525805706600432	-0.537471425212622	-0.762050245628151	0.361114788146355	0.632669680402021	-0.0812687320657241	0.770145745095325	25.1214810507635	-31.7224988759519	130.954989685874
6336	1652421584811	5.32674495382676	3.61002027863819	7.76430487955739	0.00250631182210003	0.0400507133126745	0.271422815190409	0.00497049124270771	-0.00641120289512048	-0.00652299996757612	0.08837890625	-0.006591796875	0.791259765625	0	0	0	-0.329563712885521	-0.079624362344592	-0.878859459752347	-0.335639345241496	-0.557467978149939	0.642442228241997	0.525830235635872	-0.537477026280294	-0.762012381694154	0.361186345763092	0.632730511006314	-0.0812718494699189	0.770095440140654	25.1272838098293	-31.7241511390182	130.9492373921
6337	1652421584812	5.25988351357344	3.59475377210591	7.73928014861075	0.0318660260182548	0.0101168356502158	0.211481862886147	0.00029246108678262	-0.0076000452276595	-0.00691098204207335	0.0888671875	0.003662109375	0.794189453125	0	0	0	-0.329563348675106	-0.0795675016168676	-0.878853516734176	-0.335668747458668	-0.557428982379159	0.642452382880747	0.525859168727318	-0.537562253766479	-0.761991009331957	0.361104590143587	0.632692463151916	-0.0813918756886415	0.770114023793001	25.1217662294549	-31.7261000948695	130.946805077142
6338	1652421584813	5.31959564710076	3.60138454873456	7.74236363273114	-0.002426866568198	0.0431927455190112	0.247650187329686	-0.00143981072069418	-0.0082085106644214	-0.00805010282762939	0.083251953125	0	0.789794921875	0	0	0	-0.329592641909873	-0.0795603442962043	-0.878827485152193	-0.335709835059104	-0.557335194086918	0.64250706830739	0.525891765106794	-0.53761705203601	-0.761938116520117	0.361134617495868	0.632728525350491	-0.081455348313164	0.770077684028678	25.1246368941804	-31.728295861791	130.939618879815
6339	1652421584814	5.33192837839936	3.6008343238826	7.70966287318928	-0.0297249342933928	0.0535340321661668	0.228757762940985	0.000414155051605796	-0.0054616054589626	-0.00404749408251478	0.085693359375	-0.009033203125	0.79736328125	0	0	0	-0.329601060295329	-0.0795240410037049	-0.878825866963893	-0.335714407658949	-0.557317955084793	0.642491427193871	0.525929142492111	-0.53764659425871	-0.761943526785285	0.361079218000721	0.63271860777293	-0.0815280808825091	0.770078135909273	25.1212450832263	-31.7308137522745	130.93943205642
6340	1652421584814	5.30760569280165	3.62236538079607	7.73730016743797	-0.0106460795628393	0.0194989971887105	0.245022582751444	-0.00690541227705623	0.0104845821347918	-0.00511619877304626	0.079345703125	0.001953125	0.796142578125	0	0	0	-0.329540237417074	-0.0795195715714484	-0.878837725154585	-0.335744132495724	-0.557358218835584	0.642539016263002	0.525828326049672	-0.537719422283165	-0.761905030463574	0.361052001038299	0.632621244344422	-0.0815128034978232	0.770159739320384	25.1172515744904	-31.7240225092279	130.939380330113
6341	1652421584815	5.27889342012358	3.60377690410034	7.72840983076936	0.00692336573584161	0.0156523474151257	0.21636788189733	-0.007441042227071	0.0138072488010114	-0.00393270394883819	0.084228515625	0.005126953125	0.791015625	0	0	0	-0.329416226715781	-0.0794511793741937	-0.87887954852427	-0.33577254035755	-0.55748350143635	0.642552252787712	0.525679320559316	-0.53786222191745	-0.761888622475775	0.360873879874937	0.632389417890821	-0.0815618132424883	0.770344919344774	25.1010948781189	-31.7139860447467	130.945170339483
6342	1652421584816	5.2582031496459	3.57508655256491	7.7775865272736	0.0640991726320966	0.0206952198781904	0.233021144640393	-0.0018327831454552	0.00173279673723258	-0.00638973030985996	0.080078125	-0.001220703125	0.788330078125	0	0	0	-0.329401207660834	-0.0794561061055486	-0.878873071298713	-0.335803061540682	-0.557462296502979	0.64260241070993	0.525640494756076	-0.537910661481149	-0.761846062124898	0.360891532028252	0.632366909509454	-0.081564204002572	0.770363143188256	25.1016508075371	-31.7113710591685	130.941877748428
6343	1652421584817	5.27780959019449	3.58396821002951	7.7663799593561	0.0405996442187256	0.027508924596654	0.237902411863585	-0.000518683583060815	-0.000636009927633145	-0.00302943793278554	0.08935546875	0.001220703125	0.79150390625	0	0	0	-0.329375913222478	-0.0794456040978579	-0.878884917057562	-0.335799354298229	-0.557500602883503	0.64259291210325	0.525611479230806	-0.537923038498276	-0.761854379284839	0.360855524299263	0.63232260946238	-0.0815613516267275	0.77039980755677	25.0984071945088	-31.7094168610725	130.94424575534
6344	1652421584818	5.26561985604154	3.58524085711035	7.7986356036661	0.0672762897432929	0.0165241560329009	0.256802324528415	0.00485397250431049	-0.000109862325734834	-0.00756101462568568	0.08642578125	0.00244140625	0.80224609375	0	0	0	-0.329379412433618	-0.0794791208597157	-0.878870910404025	-0.335824648973019	-0.557462015614066	0.642650602217086	0.525581872420956	-0.537935457699032	-0.76180974897903	0.360931225735098	0.632346063874549	-0.0815236765027381	0.770384544024503	25.1034601848029	-31.7074228823565	130.939736640746
6345	1652421584819	5.245925443906	3.57732785635204	7.80945850094797	0.089596703549905	0.00861806135321035	0.251931282962852	0.00750004354304053	-0.00880612772968914	-0.00505357002339112	0.0927734375	0.000732421875	0.80029296875	0	0	0	-0.329420383119429	-0.079454947927897	-0.878855050342237	-0.335831688384476	-0.557398576524562	0.642642909577599	0.525658556154116	-0.53794659202903	-0.761807976653214	0.360918371424741	0.632392513406622	-0.0816008423802939	0.770338244870448	25.1039991648147	-31.7125875166601	130.936848525265
6346	1652421584819	5.27062166013644	3.57693157927735	7.74373520229648	0.0361215556174554	0.0306273238784007	0.214130870626453	0.0161963197373062	-0.013681103423292	-0.00778483414263036	0.09228515625	0.002197265625	0.793701171875	0	0	0	-0.32950274079917	-0.0795160010552281	-0.878813704447931	-0.335844640059245	-0.557272643098622	0.64269122506907	0.525733003028243	-0.53788826392872	-0.761771166639322	0.361082961664925	0.632553094041617	-0.0815639558640028	0.77021029876404	25.117694230304	-31.7176017741635	130.928308424654
6347	1652421584821	5.31093524341153	3.57599992299869	7.7572894392211	0.0244891606229545	0.055320108411807	0.245428153929325	0.0111209490552585	-0.0133693163881811	-0.00833827130217662	0.085693359375	-0.002685546875	0.797607421875	0	0	0	-0.32959179707226	-0.0794871998258794	-0.87877658880155	-0.33586119058449	-0.557133015923694	0.642690560815038	0.525881779116771	-0.537897244675624	-0.761758091446019	0.361097167375888	0.63266844139576	-0.0816912061103947	0.770102064733038	25.1216555196852	-31.72762317706	130.921231488578
6348	1652421584821	5.30801736461053	3.53758525326448	7.71898571287691	0.0243983364012623	0.0863586301667763	0.200516159823495	0.014326340794071	-0.0124701092445103	-0.00757590590550891	0.09423828125	-0.002197265625	0.791748046875	0	0	0	-0.329666587230473	-0.0795415472271759	-0.878738014670554	-0.335875847749392	-0.557014712324881	0.642738132089009	0.525948955519794	-0.53784937041935	-0.761721114326669	0.361246451509833	0.632813293944698	-0.0816617263329023	0.76998616705704	25.1340755339058	-31.7321484649769	130.913110418699
6349	1652421584821	5.29216273455789	3.57040937570154	7.76642665885058	0.0465439652115602	0.0468446028152722	0.240562432800957	0.0182271710468296	-0.00379623511741763	-0.00990884919857234	0.084716796875	-0.001220703125	0.787353515625	0	0	0	-0.329701503630891	-0.0795467301924383	-0.878719928576159	-0.335887664766556	-0.556952790322398	0.642755722693298	0.525993032555671	-0.537849016479827	-0.761703588746722	0.361283930395537	0.632868094332285	-0.0816867421028718	0.769938472438441	25.1377260713317	-31.73511780147	130.909181849973
6350	1652421584821	5.24068130341602	3.59535543990511	7.74582481257513	0.0503088926481857	-0.00225535225203774	0.206623337531665	0.0174125708160159	-0.00527099061899669	-0.00785283153880933	0.088623046875	0.00146484375	0.79150390625	0	0	0	-0.329750001244188	-0.0796265685171206	-0.878691414742801	-0.335895733707562	-0.556877985513033	0.642811117050319	0.526004540900044	-0.537783672779956	-0.761667331326494	0.361457601498818	0.632989439518739	-0.0815888729331253	0.769849092531293	25.1508758043239	-31.7358930994649	130.90292941711
6351	1652421584822	5.27274022788196	3.58521165164508	7.73846205668966	0.0343886826201592	0.0270519352574047	0.214147247246581	0.0183481320842406	-0.0100973220861588	-0.00887038163664531	0.086181640625	0	0.789306640625	0	0	0	-0.329803973860664	-0.0796643360718022	-0.878669928714236	-0.335889995024073	-0.556814500136885	0.642820105190159	0.526060761510136	-0.537725646744352	-0.761663009601934	0.361553023272511	0.633094575297151	-0.0815583972834014	0.769765864767907	25.1590780722899	-31.7396806816178	130.899300204489
6352	1652421584824	5.28888238233403	3.62621144752328	7.74196289410342	0.00771286070601834	0.00700473768090563	0.240151374605839	0.02195215358132	-0.0107000226128007	-0.00794330406199141	0.0830078125	0.0068359375	0.79345703125	0	0	0	-0.329883901032197	-0.0797550156387315	-0.878630487453984	-0.335893161342443	-0.55670479200632	0.642871735537117	0.526113776862663	-0.537632152793963	-0.761629843287691	0.361761869322482	0.633270434205901	-0.0814611162522464	0.769631498640491	25.1756626119266	-31.7432524674787	130.891435764513
6353	1652421584825	5.25730539178859	3.64019919666275	7.74720347620825	0.0223033044257578	-0.0232384456519259	0.232631649917584	0.0198216720008685	-0.0013675823015804	-0.00742587476918882	0.0830078125	0.0078125	0.78955078125	0	0	0	-0.329892708882173	-0.0798395799247631	-0.878626445564515	-0.335874993499793	-0.556717578735792	0.642894293980245	0.526072679669073	-0.537540312790666	-0.761627260437903	0.361903755552175	0.633337153222097	-0.0813070902535405	0.769592884207639	25.1854203975624	-31.7404836278074	130.891092084037
6354	1652421584826	5.30116557365066	3.62906147411004	7.70766802026259	-0.0196875902019535	0.0178137326686135	0.221249290566538	0.0151265195152456	-0.00703725643774442	-0.00542131915765136	0.087890625	0.005126953125	0.783935546875	0	0	0	-0.329945891067533	-0.07990269948128	-0.878600060256583	-0.335876765645354	-0.556645014534536	0.642929827827693	0.526106039010483	-0.537475558311485	-0.76160471383044	0.362047350617307	0.633455880082903	-0.0812372843016419	0.769502535166512	25.1967655847051	-31.7427311391306	130.885829090037
6355	1652421584827	5.2852207864431	3.66164200076219	7.75526090408079	0.00331400527812109	-0.020090113033449	0.261280961714398	0.0143296136715801	-0.00403300285156152	-0.00575423540310007	0.0859375	0.000244140625	0.791015625	0	0	0	-0.329982273404222	-0.0799918456936903	-0.878591816684782	-0.335841366594457	-0.556644551445897	0.642926734979856	0.526110308579616	-0.537343170596641	-0.761623762212968	0.362203757360016	0.633568591676343	-0.0810830332480633	0.769426007722996	25.208495680098	-31.7430187957778	130.885941896235
6356	1652421584828	5.30538530335695	3.58159748731261	7.72767499813854	0.0184734986034334	0.0570514723172575	0.221669539160176	0.0116432483456623	0.00414638943013782	-0.0016662043804323	0.083984375	-0.003173828125	0.791259765625	0	0	0	-0.329982119964681	-0.0800530193470381	-0.878591520375592	-0.335827716130076	-0.556663091164944	0.642942897465391	0.526070939639794	-0.537278637330554	-0.76162251834456	0.362302091380541	0.633607030266325	-0.080966475465457	0.769406629194076	25.2150457517709	-31.740366398707	130.886173456566
6357	1652421584829	5.30523773553818	3.5826229494751	7.72730095503954	0.017193592179205	0.0562718988774739	0.221676215940047	0.0112456400304658	-0.00279274930432791	-0.00365259908696558	0.090576171875	0.00048828125	0.790771484375	0	0	0	-0.329968702551831	-0.0800462669690179	-0.878599084575889	-0.335822719694478	-0.55668751254653	0.642932593918477	0.526057689851614	-0.537281542494939	-0.761631392162657	0.362279127975421	0.633583110151317	-0.080964820444636	0.769426500961171	25.2130757465249	-31.7394737400026	130.887871690819
6358	1652421584830	5.28527307386292	3.57499407389895	7.73822104994626	0.0400423346257072	0.0492749549689806	0.216805525467972	0.013116183805798	0.00443670348892128	-0.00204380378041335	0.087890625	0.002685546875	0.787109375	0	0	0	-0.32996913739743	-0.0801145762509342	-0.878598208158088	-0.335808295994494	-0.55670631341294	0.642951809527729	0.52601430705941	-0.537210459053804	-0.761628886026815	0.362389793803239	0.633626864399998	-0.0808357012375774	0.769404046074658	25.220465337345	-31.7365510344465	130.887981848492
6359	1652421584831	5.28481861089446	3.55652464467959	7.77526064225003	0.0741908235738983	0.060311397638834	0.238367875418412	0.0159412209191742	0.00287540382387903	-0.00565997369495936	0.087646484375	-0.00439453125	0.796875	0	0	0	-0.329990046537166	-0.0801522555071556	-0.878594477525244	-0.335788518543528	-0.556705280001482	0.642942769067185	0.526026450782365	-0.537144982967724	-0.761643373502916	0.362456395821209	0.633683279321046	-0.0807710796220916	0.769364370247029	25.2256635248524	-31.7373691496845	130.888327891254
6360	1652421584832	5.29230856830454	3.56773177103759	7.79578339349672	0.078007205331713	0.0563057688878439	0.262143800976453	0.0184714622563314	0.000481128106031508	-0.00418930884758417	0.089111328125	0.00439453125	0.79150390625	0	0	0	-0.330016387495349	-0.0802407395246998	-0.87858116799309	-0.335776322799786	-0.556686890063146	0.642975025715516	0.52600648545237	-0.537051989763929	-0.761631369535166	0.362619383418196	0.633778247277727	-0.0806273728092354	0.769301215410098	25.2374099404721	-31.7360241013575	130.885968818966
6361	1652421584833	5.26462501279053	3.57127365462039	7.74780769609862	0.0618110163213546	0.0400542848492948	0.211950814211514	0.0265130674874239	-0.00321421622609611	-0.00860272907530566	0.076171875	0.001708984375	0.79248046875	0	0	0	-0.330054008270639	-0.0802899687687089	-0.878563275170266	-0.335774394589134	-0.556639815125571	0.642998155689159	0.526028029668866	-0.536998051625012	-0.76161815370684	0.362727005467092	0.63386529228844	-0.0805677337680708	0.769235745079209	25.2458489460543	-31.7374755188396	130.882551207412
6362	1652421584834	5.2643999301371	3.66387122335191	7.7621027271606	0.0237257956257432	-0.0300947619546682	0.256405357973021	0.0306394549520242	-0.0116174778665738	-0.00646409572877804	0.083251953125	0.000732421875	0.781494140625	0	0	0	-0.33015307530493	-0.0804148810642945	-0.878521247032361	-0.335757073317627	-0.556532269167757	0.643037886069189	0.526093252622247	-0.53684100493456	-0.761601269241194	0.362994823807521	0.634092713091577	-0.0804100974372688	0.769064787540225	25.2670816634036	-31.7418696782576	130.875321119576
6363	1652421584835	5.24936058387087	3.62741739927122	7.75581158348257	0.0486348882339506	-0.00982522984778987	0.230424420819297	0.0268967190571782	-0.00919494757198708	-0.00604530934927922	0.08154296875	-0.0029296875	0.79248046875	0	0	0	-0.330151749934845	-0.0805204447254549	-0.878526103058105	-0.335720369119474	-0.556583311546489	0.643046146662801	0.526029153726358	-0.536710283736237	-0.761616583478999	0.363155959749451	0.634158567425933	-0.0801987096648134	0.76903255999235	25.2778255121786	-31.7375512463623	130.877557062828
6364	1652421584835	5.2895298152129	3.64723351275392	7.73163876346628	0.002836567393792	0.00417739746925855	0.240155505667282	0.0295488063660604	-0.00944523707131746	-0.00171371777872108	0.087890625	0.0146484375	0.794921875	0	0	0	-0.330240197387253	-0.0806365403795419	-0.878496464458405	-0.335683068264294	-0.556516579420596	0.643051631320593	0.52609304907585	-0.536533923274333	-0.761629252072576	0.363389916705488	0.634366334231139	-0.0800342541871481	0.768878320770494	25.2965158782443	-31.7418559647346	130.873915809055
6365	1652421584837	5.27467118250462	3.61025486349402	7.72549227329273	0.0288123907122296	0.0242968513485828	0.214171876018378	0.0221850455371024	-0.0108971722670617	0.000173116950332666	0.0859375	0.007080078125	0.79345703125	0	0	0	-0.330292155499516	-0.0807148901546195	-0.878488369853849	-0.335634298834814	-0.556513418922292	0.643020646201023	0.526134263395418	-0.53638266600072	-0.761669447905981	0.363528936593167	0.634497005645717	-0.0799005674937105	0.768784397045623	25.3076881948831	-31.7446327367935	130.875120927871
6366	1652421584837	5.30725884061536	3.6003415969695	7.71767188348072	0.0135060972557884	0.0543519969554734	0.221692439774944	0.0299492658424586	-0.0109495653773104	-0.00154868821355859	0.08349609375	0.00244140625	0.7939453125	0	0	0	-0.330387730794538	-0.0808305567420358	-0.878456406780845	-0.335596051560347	-0.556438475035083	0.643023851608803	0.52620960630039	-0.536202154725362	-0.761683422547755	0.363765876744667	0.634715269052597	-0.0797413950098511	0.768620736874417	25.3268345969138	-31.7497091021549	130.871161382923
6367	1652421584839	5.30787297261164	3.60246050226554	7.71626061035283	0.0125784469085636	0.0542177041631812	0.221694372005023	0.0241948612416379	-0.00549047275009411	0.000426531025383286	0.087646484375	0.003173828125	0.79248046875	0	0	0	-0.330412841026726	-0.0809106618683576	-0.878459037698691	-0.335545136108633	-0.556473632236973	0.642993158055485	0.526209934644742	-0.536057471426378	-0.761725852859727	0.363890247757589	0.634806650841773	-0.0795834390998227	0.768561638561343	25.3361125005934	-31.7497312255623	130.874305940552
6368	1652421584839	5.31567717188021	3.61374505375657	7.73652188316381	0.0163574210239719	0.050230358191654	0.245471371637796	0.0200495729377967	0.00687960300275814	0.00248771842387448	0.089111328125	0.008056640625	0.788330078125	0	0	0	-0.3304147974851	-0.0810064394511317	-0.878467398680023	-0.335498208380737	-0.556534027552393	0.642979929328537	0.52616222465793	-0.535917024183599	-0.761757817881532	0.364030177439403	0.634872285870559	-0.0793841128755367	0.768528036740662	25.3456024192335	-31.7465166452755	130.877966136172
6369	1652421584841	5.24399334155349	3.62973495249075	7.72752750634934	0.0430348381127352	-0.00644765243057836	0.206655400653132	0.0251461217681785	0.0025985666869021	-0.00117032355269386	0.08642578125	0.01513671875	0.79296875	0	0	0	-0.330453583502605	-0.081100195320801	-0.878465862616282	-0.335441374441268	-0.55655902692648	0.64294729304452	0.526175662600785	-0.53574789237844	-0.761803685263762	0.364183114559985	0.634993106544244	-0.0792081023966396	0.76844637493843	25.3572703160291	-31.7474220491639	130.880678800061
6370	1652421584841	5.3189636588583	3.69658073138554	7.69730025628734	-0.0523055843843079	-0.00548665826699771	0.247220616108054	0.022305976721957	-0.000309798680382237	0.00484166553710162	0.0859375	0.000244140625	0.790771484375	0	0	0	-0.330492235222981	-0.0811901011019757	-0.87846521586958	-0.335383235191597	-0.556585936019472	0.642910408185591	0.526192267970524	-0.535579616220904	-0.761852506070938	0.364328469491611	0.635111463062978	-0.0790377507275305	0.768366099880738	25.3684368015292	-31.7485408759682	130.883676162292
6371	1652421584843	5.26302886166661	3.73105845525035	7.73061850307651	-0.0180954194567022	-0.0695434720832036	0.255955478757849	0.00866335845208175	0.0115034106998114	0.00748533524383966	0.08251953125	-0.003173828125	0.78466796875	0	0	0	-0.330449902192527	-0.0812441468416929	-0.878505076323959	-0.335307443427595	-0.556743561046	0.642832823115807	0.526120298751892	-0.535444341605596	-0.761936613972032	0.364351414614222	0.635087367435669	-0.0788578329260769	0.76840450148983	25.368725154773	-31.7436918740859	130.895126572585
6372	1652421584843	5.26264878209648	3.71110744122096	7.76841474095777	0.0161901587824662	-0.0574750448516995	0.277530309535068	0.00152421402073293	0.00987415776287559	0.0174912794516996	0.087158203125	0.005615234375	0.78564453125	0	0	0	-0.330414199439286	-0.0812395644835423	-0.878550856395202	-0.335223780031604	-0.556902948220437	0.642707689384857	0.526104487976451	-0.535336866738354	-0.762050300927694	0.364271571724686	0.635038223553628	-0.0787792159239289	0.76845317994284	25.3624594532439	-31.7426266404585	130.908763264374
6373	1652421584844	5.26314426752083	3.62029728470018	7.75329326428661	0.0531316835277625	0.0120014554326676	0.233099286427189	0.000329129232466128	0.0059358010456753	0.0151786180982134	0.089111328125	0.007080078125	0.795654296875	0	0	0	-0.330355952140549	-0.0811799193804787	-0.878610147479186	-0.335140230830759	-0.557091941128035	0.642551754396105	0.526094869821676	-0.535278676149581	-0.762181692736169	0.364082141991859	0.63492149750166	-0.0787801382349355	0.768549531149381	25.3481465120068	-31.7419786338396	130.92526609228
6374	1652421584845	5.25136283883656	3.64010823000312	7.74850673758077	0.045475287424463	-0.0110196962471505	0.230437984933944	-0.000485050053053669	0.00446601690323085	0.0172387203700573	0.08251953125	0.004638671875	0.79541015625	0	0	0	-0.330340111950345	-0.0811573152627784	-0.87864752190189	-0.335063326658766	-0.55721595512999	0.642424156516848	0.526119361430645	-0.535186090078866	-0.762292114615398	0.363987061557525	0.634890721569208	-0.0787523657981219	0.768577801231944	25.341541862021	-31.7436287227548	130.93721064687
6375	1652421584846	5.2631366805363	3.72854865673451	7.73175591944799	-0.0199589354484987	-0.0702525830177095	0.255947034428052	0.0072797197024162	0.00440960494688525	0.0155174041856459	0.083251953125	0.013427734375	0.7900390625	0	0	0	-0.330310995965672	-0.0811587903472084	-0.878691290320712	-0.334976884289148	-0.5573702658722	0.642297823109198	0.526110153058024	-0.535067259625376	-0.762407475482625	0.363920140972166	0.63485542795076	-0.0786660521279393	0.768615793387087	25.3363714538817	-31.7430083176979	130.950641498196
6376	1652421584847	5.26411667864781	3.5980131105011	7.79124253899209	0.0866925431206666	0.0240089058116701	0.25468521498617	-0.0128079946444573	-0.00296467191115545	0.0196314936560678	0.082763671875	0.001953125	0.795166015625	0	0	0	-0.330308015835292	-0.0810659545387714	-0.878725427093394	-0.334912749039512	-0.557460130411499	0.642146166068526	0.526200061198292	-0.535039227686544	-0.76252352309103	0.363718162275999	0.63480014795066	-0.078779300176737	0.768649851379341	25.3230895210261	-31.7490659681316	130.961911831139
6377	1652421584848	5.32871812420291	3.6310966398536	7.6666830695419	-0.0474936070511663	0.0487034639628849	0.204972089171553	-0.00708732332438847	-0.00048906438188076	0.0260656146581445	0.08154296875	0	0.78369140625	0	0	0	-0.330261640531616	-0.0810273162717592	-0.878795115944062	-0.334784956358594	-0.557692563578681	0.641935197878527	0.526211180281925	-0.534894340279386	-0.762707214027542	0.363546077419943	0.634718086449504	-0.0787204382292356	0.768723645622325	25.310482102187	-31.7498151549935	130.983056803045
6378	1652421584849	5.32078349891213	3.67042089052882	7.73653164123136	-0.020806263354735	0.00668678652147106	0.26878924445484	-0.00316587679523355	0.0126514318843512	0.0213129950065542	0.087646484375	-0.00146484375	0.786376953125	0	0	0	-0.330206444514532	-0.0810010232420679	-0.878854081509831	-0.334690964395995	-0.557891324705501	0.641783159981368	0.526185941832991	-0.534794920434159	-0.762841585170834	0.363410386494211	0.634627184176792	-0.0786580669631544	0.768805076469619	25.2998715753464	-31.7481146356122	130.999884832879
6379	1652421584850	5.28941456042405	3.59037163703876	7.72826531824676	0.0310973458483308	0.0458101238790379	0.216853673219484	-0.0178979792908189	0.00976342910423284	0.025089443005312	0.0830078125	-0.005126953125	0.79638671875	0	0	0	-0.330097547076027	-0.0808262046346937	-0.878944466183759	-0.334603286630134	-0.558152499981405	0.641556478079664	0.526185397173397	-0.534834350522154	-0.763015530441326	0.362986938892968	0.63436425203983	-0.0788199577477679	0.769005468117482	25.2683072097118	-31.7480779378139	131.023185865644
6380	1652421584851	5.2930660526605	3.66751802186585	7.69157365241213	-0.0375570153324974	-0.0093037087270301	0.218566022086673	-0.00704379249530689	0.0168997860836834	0.0230754819873829	0.0859375	0.002197265625	0.786865234375	0	0	0	-0.330017361609666	-0.0807861521249521	-0.87901511150023	-0.334506460946985	-0.558387937241837	0.64139413369147	0.526133516142979	-0.534750802575975	-0.763158050419134	0.3628103764018	0.634227475506349	-0.0787613823306426	0.769124277322078	25.254132640911	-31.744582390694	131.042332563819
6381	1652421584852	5.28443195362963	3.59634621332658	7.78433863593226	0.0597177188107979	0.0297423530331757	0.259571729193697	-0.0202970926061977	0.0227455354232497	0.0282781260641388	0.0849609375	0.00048828125	0.784912109375	0	0	0	-0.329834613967767	-0.0805997553251135	-0.879132695524655	-0.334422652536905	-0.558741233797829	0.641172954305659	0.526028018570335	-0.534834597571438	-0.763330337823425	0.362324093318363	0.633845554448935	-0.078892572687984	0.769425613740532	25.2158419108697	-31.7374747711342	131.070068360831
6382	1652421584853	5.29230856082769	3.55278670565729	7.71649658137709	0.0329228140503701	0.07183869853255	0.195753954209293	-0.0126614133500844	0.0120958503455745	0.0218925358319821	0.089599609375	0.00146484375	0.794189453125	0	0	0	-0.329764987040053	-0.0805279823237276	-0.879195891799842	-0.33434246100013	-0.558940344189701	0.641015654425817	0.526008196151105	-0.534794418236435	-0.763460725670492	0.362108617105197	0.633703891309065	-0.0789091321693909	0.769540594770687	25.1994087320938	-31.7361393489992	131.087143236255
6383	1652421584854	5.27586180233004	3.56244775740129	7.80326570064971	0.0896154860482058	0.0446674005522289	0.257401065068034	-0.00824044243250371	0.0129596682934431	0.0207604178908661	0.088134765625	-0.001953125	0.79638671875	0	0	0	-0.329701275306368	-0.0804124192969301	-0.879260215164229	-0.33426394647572	-0.559129366295664	0.640834133385108	0.526028483291891	-0.534785824614435	-0.763602913818584	0.361821381069758	0.6335443737713	-0.0790076166981785	0.769661823768339	25.1784219735494	-31.7375060793223	131.104778273334
6384	1652421584855	5.28393646031673	3.60980265871031	7.75023227993752	0.0247331518300333	0.0165963010377272	0.237977924861704	-0.00599547879565063	0.00576708870197192	0.0231154013184989	0.087158203125	0.001953125	0.7880859375	0	0	0	-0.329671252602684	-0.0803567183161222	-0.879312242116496	-0.334170082282814	-0.55929444262895	0.640662288565344	0.526062314231488	-0.534697088636076	-0.763746307857122	0.36164983152038	0.633473558918189	-0.0790152469136881	0.769719326057682	25.1663143907622	-31.7397852906434	131.120769813648
6385	1652421584856	5.28787920493293	3.64758102540904	7.7880966368596	0.0240149567898131	-0.0158546743546886	0.282862858118657	-0.0201497115087783	0.0085109616782931	0.0209151682221882	0.089599609375	0.003173828125	0.78857421875	0	0	0	-0.329603155283035	-0.0801612182423041	-0.879372502941256	-0.334125635335284	-0.559443639678521	0.640484573411243	0.526120067328236	-0.534799011555261	-0.763868477803405	0.361240869584027	0.633255739226077	-0.079274585085806	0.769871878234754	25.1370055999798	-31.7436762820829	131.136216576711
6386	1652421584857	5.25711107039418	3.60677037334354	7.70472818371371	0.00869222744728365	0.000215800452573432	0.187751114886112	-0.0114791906947791	-0.00085666088678704	0.0205852604090779	0.0869140625	0.00341796875	0.793701171875	0	0	0	-0.329592207192187	-0.0800737216096614	-0.879411497530859	-0.334054777059531	-0.559552765763779	0.640326572789361	0.52619633456148	-0.534759874215677	-0.763991210062571	0.361039205455533	0.63319237144405	-0.079368199721047	0.769914352131521	25.1234890513619	-31.7488148743949	131.14875757953
6387	1652421584858	5.285179713322	3.67294809619786	7.80546298501096	0.0203673269710177	-0.0436783661449162	0.303962333309267	-0.0248766829013461	-0.00162461845285373	0.0253199912439371	0.08251953125	-0.00341796875	0.800048828125	0	0	0	-0.329592554133052	-0.0798872099247223	-0.879456172157549	-0.333981471349066	-0.559650250111129	0.640104591851696	0.526362716233706	-0.534783673605086	-0.764148820971914	0.360670212039592	0.633086107884228	-0.0796410126606209	0.76997356390099	25.0992822981183	-31.7600260202256	131.163547035815
6388	1652421584859	5.31810302975941	3.49749741016821	7.73157553670656	0.0469207176851652	0.114665939243662	0.201133964680803	-0.0250860307971226	0.00700569459098852	0.0190164966009541	0.075927734375	-0.003173828125	0.792236328125	0	0	0	-0.329524211587355	-0.0797554587869103	-0.879510698171253	-0.333936809252493	-0.559800002807992	0.639964701854571	0.526373571939514	-0.534839283148393	-0.764250548439907	0.360372086059138	0.632906705650592	-0.0797889690965614	0.770105721542844	25.0773118807817	-31.7607575476271	131.177348910771
6389	1652421584861	5.31826215238713	3.62439552844076	7.6735737148996	-0.0631690787753843	0.02012860448319	0.202276084252885	-0.0173215749056533	0.00694015981007673	0.0173008698761176	0.084716796875	-0.003173828125	0.796875	0	0	0	-0.329328692271249	-0.0795835971540908	-0.879607662303499	-0.333915294540245	-0.560086377038021	0.639847227229855	0.526211721707802	-0.535010579321861	-0.764334054272234	0.359940458261442	0.632508442844923	-0.0799310908597889	0.770418127021849	25.0420491094348	-31.7498516355964	131.197083556417
6390	1652421584860	5.32207472198185	3.53178588922835	7.7710130358738	0.0434167370922946	0.0832494433929449	0.246031126418938	-0.0343214467330034	0.00678117412637913	0.0211041896408613	0.083984375	-0.00341796875	0.7900390625	0	0	0	-0.329245030006427	-0.0794067539096319	-0.879669540128988	-0.333876890213829	-0.560247864794419	0.639691219095571	0.526229488156371	-0.535114102800812	-0.764441579229356	0.359558018863453	0.632277808385663	-0.0801512080841663	0.770584555299204	25.0139561501639	-31.7510487248019	131.212194529386
6391	1652421584860	5.32568996114111	3.49851040633017	7.75665266828262	0.0454121050518707	0.109063494742152	0.224954363059114	-0.0181941523372258	0.0207184536973173	0.0135254145188486	0.076904296875	0.00634765625	0.79296875	0	0	0	-0.329072581954598	-0.0792381535731895	-0.879753278848005	-0.333866319325911	-0.560489033251007	0.639590185819059	0.526095464539749	-0.535289770676481	-0.764509191676161	0.359152554288262	0.631915267274397	-0.0803124526247612	0.770865101648092	24.9812088003929	-31.7420187018144	131.228902422209
6392	1652421584865	5.24507817560985	3.53201017720898	7.85650161223686	0.132969314603798	0.0228906634341448	0.271575284253732	-0.0200783687759742	0.0134928293122809	0.0119189755291923	0.08154296875	0.0029296875	0.796142578125	0	0	0	-0.328978944301234	-0.079149325298455	-0.879805361196565	-0.333842425286281	-0.560644178570839	0.639509634081149	0.526028072399206	-0.535355788165786	-0.764569238767547	0.358926258732632	0.631721683268842	-0.0803822558019454	0.77101647702249	24.9630827090841	-31.7374783975728	131.240339871173
6393	1652421584863	5.28479619854475	3.47728283549075	7.78183185739154	0.0897257859778829	0.0963983336589719	0.215280043567958	-0.0139287934080341	0.0025589303939325	0.00590771413057694	0.07861328125	-0.00341796875	0.793701171875	0	0	0	-0.328861435892682	-0.0791403745309244	-0.879861238500929	-0.333813058590162	-0.560837995794569	0.639470776728495	0.525868679599181	-0.535365907907197	-0.764611286067572	0.35882157943579	0.631541041519737	-0.0802913876349643	0.771173914203416	24.9522142589555	-31.7267407636477	131.251882785061
6394	1652421584864	5.28120214632875	3.52628160386254	7.76077714834039	0.0514727336320456	0.0573135300046638	0.214749281576404	-0.00739553207764777	-0.00591486141284851	0.00427023632106278	0.085205078125	-0.00146484375	0.7978515625	0	0	0	-0.328870407264845	-0.0790886003520462	-0.879863945295473	-0.33380935620335	-0.56083113787312	0.63943343466681	0.52592139852087	-0.535393833835674	-0.764632614010919	0.358734453714119	0.631523457587032	-0.0803856219795262	0.771178497039618	24.9467626668595	-31.7302920817147	131.253194126509
6395	1652421584866	5.30507872775231	3.57372328939297	7.78687737288759	0.0263616051412292	0.0325529801987771	0.264468132532274	-0.0161816887204805	0.00131481905371111	0.00174235790313214	0.084228515625	-0.00390625	0.7978515625	0	0	0	-0.328754432383574	-0.0789423744399648	-0.879906085262371	-0.33384712942331	-0.56093323472794	0.639413552453934	0.525836681029281	-0.535602930453845	-0.764628391387192	0.358431198382463	0.631255421415851	-0.0805836957633202	0.77137724941187	24.9225943888561	-31.7245853022519	131.259247590668
6396	1652421584866	5.30145927009559	3.53263501098679	7.75025180213798	0.0262335878298601	0.0636386517634866	0.219592803691583	-0.0117884552231352	-0.00230041682502786	0.00300575945364951	0.0849609375	-0.00341796875	0.791015625	0	0	0	-0.328738810476168	-0.0788788834806446	-0.879914665043119	-0.333854906313531	-0.560943392034196	0.639388756777975	0.525855996104528	-0.535666555469514	-0.764638046542461	0.358315502219978	0.631192405122714	-0.0806887568725916	0.771417832455123	24.9143747071387	-31.7258863824963	131.260863422192
6397	1652421584868	5.2620796802237	3.51460504027429	7.77294779431593	0.0703832839663806	0.0482352028631634	0.209955408113927	-0.00536352759839455	-0.00447467064760965	0.000323065962148131	0.08056640625	-0.001708984375	0.78662109375	0	0	0	-0.328704859257069	-0.0787427226547104	-0.879926967316783	-0.333888052074947	-0.560943768364776	0.639360433306703	0.525890031332208	-0.535827971035763	-0.764636704621042	0.358076940617477	0.631055048461244	-0.0809255600421731	0.771505398259428	24.8973150970536	-31.7281790694462	131.26214075232
6398	1652421584868	5.2939159110341	3.59213716834575	7.78244113815459	0.0167685888058371	0.0080872588838642	0.261787243792554	-0.00454526972501754	-0.00300270853240501	-0.00173346319341806	0.076416015625	0.0048828125	0.7890625	0	0	0	-0.32870219302091	-0.0787168307701981	-0.879923745911153	-0.333905271354654	-0.560924276129639	0.639371144103374	0.525897800467337	-0.535873564496094	-0.764621860630142	0.358040407106168	0.631033659421343	-0.0809811727158994	0.771517057713481	24.894752137329	-31.7287024232352	131.260677879559
6399	1652421584870	5.30231371990904	3.53115191630835	7.75034314028202	0.0228147424010045	0.0631617599890107	0.219604174915263	-0.00709693214858342	-0.00508092561357128	-0.000815143405319509	0.078857421875	-0.002197265625	0.802001953125	0	0	0	-0.328620009776562	-0.0787151688814206	-0.879961946779318	-0.33388588407235	-0.561058211183356	0.63934850423563	0.525782439603488	-0.535878985966125	-0.76464827721039	0.357975871476138	0.630909974610998	-0.0809104584763077	0.771625622724844	24.8877307742791	-31.7209316503609	131.268465237255
6400	1652421584870	5.2829026228832	3.52218998783508	7.76147779219415	0.0455074936536471	0.0561678109793353	0.214784610984973	-0.00361922841313553	-0.00783005538641336	-0.00274682194067993	0.08251953125	-0.00732421875	0.791748046875	0	0	0	-0.32863872705186	-0.0786875650280048	-0.879949112839683	-0.333907791170484	-0.561004348154764	0.639363291632678	0.525821930565924	-0.535924166810222	-0.764627708211224	0.357952168961747	0.630919494690264	-0.0809879568101167	0.771609708383393	24.886733585452	-31.7235917105291	131.265081187464
6401	1652421584872	5.29095741602777	3.53188506968829	7.78231396296141	0.0463462526843268	0.0512871407213813	0.238584934713616	0.000828489940805543	-0.00248897409817021	-0.00626426918716098	0.081298828125	-0.003173828125	0.80029296875	0	0	0	-0.328535606813053	-0.078598457378745	-0.8799740204889	-0.333964610128472	-0.561063988475435	0.63940514513051	0.525707391251701	-0.536115577572527	-0.76457984335884	0.357767732772883	0.630703803952469	-0.0811093305976845	0.771773275107322	24.8708284063387	-31.7158767007838	131.266241388538
6402	1652421584872	5.29528015115856	3.50185484705744	7.76596788687641	0.0499619971412153	0.0783520292767398	0.217497142172924	-0.00227019551102015	-0.00968245135255509	-0.00598356800399771	0.089111328125	0.00048828125	0.7998046875	0	0	0	-0.328562272377144	-0.0785782674150915	-0.879952640507223	-0.333999460365996	-0.560982387291182	0.639443122356814	0.525748280472371	-0.536171705951369	-0.764539632730532	0.357769551137968	0.630728676124913	-0.0811889355443982	0.77174457812082	24.8717524596371	-31.7186307970274	131.260422903059
6403	1652421584874	5.29947117913105	3.54201997427146	7.80263918115968	0.0487486787668966	0.0462887744257356	0.262378858221876	0.00201485112348548	-0.00699786586551049	-0.00576424366939388	0.0849609375	-0.00244140625	0.78759765625	0	0	0	-0.328563480628418	-0.078508626890669	-0.879938239699896	-0.334052584206333	-0.560909820364821	0.639481421248556	0.525779122157044	-0.536301150406332	-0.764490532977626	0.357680445454363	0.630683160938319	-0.0813494736646379	0.771764869402163	24.8657323394072	-31.7207081949336	131.255047266452
6404	1652421584874	5.28002391711777	3.53380260584286	7.81346873455221	0.0714079669209999	0.0392828937436982	0.257569079496452	-0.0013168592957041	-0.0100320246764732	-0.0093872892335215	0.07958984375	-0.01318359375	0.791748046875	0	0	0	-0.328591828459917	-0.0784973109621038	-0.879910260098676	-0.334101057487354	-0.5608077873104	0.639545046662329	0.525810573288225	-0.536370746909432	-0.764429311115101	0.357706933351746	0.630714711697636	-0.0814245761289005	0.771731164882174	24.8683057862559	-31.7228266911677	131.247054302218
6405	1652421584876	5.30439529256343	3.5325774682294	7.74826887079207	0.0152753222843144	0.0594894803261912	0.219640935474967	0.0024475833704706	-0.00798417524337705	-0.0121960719818851	0.086181640625	-0.008056640625	0.79296875	0	0	0	-0.328535690657532	-0.0783704247969116	-0.879914646719313	-0.334174491800552	-0.560783417988044	0.639585023066132	0.525787938601812	-0.536595096515022	-0.764370971093989	0.357495064224482	0.630545526116617	-0.0816579256308136	0.771844752962661	24.852140430253	-31.7213020512029	131.244044787976
6406	1652421584876	5.29253182463436	3.53422476358991	7.78018093472729	0.0416666738518511	0.048431331877845	0.238619588989335	0.00083889111450581	-0.0064508465941859	-0.0104730540393166	0.090087890625	-0.003173828125	0.781982421875	0	0	0	-0.328550536189544	-0.0783748986207198	-0.879890219546463	-0.334223161947571	-0.560698846374662	0.6396596126184	0.525787393971177	-0.536659152755845	-0.764304506567919	0.357541011638312	0.630566219708526	-0.0816957846210444	0.77182384087151	24.8555407530826	-31.7212653659746	131.236449193222
6407	1652421584877	5.29287345467645	3.53502282288455	7.77958594796014	0.0410411012639156	0.0459012738925704	0.238634035193797	0.00536909570494296	-0.0118867026946278	-0.0105589034842863	0.080322265625	-0.003173828125	0.798583984375	0	0	0	-0.328626267394202	-0.0782577348266159	-0.879854824754618	-0.334269338519676	-0.560537571408346	0.639652075109735	0.525968491306698	-0.536781885946551	-0.764279472530851	0.357410261167231	0.630605136324862	-0.0819884789209689	0.771761006636723	24.8493276510603	-31.7334645200667	131.22861378169
6408	1652421584877	5.27357522299947	3.52737573337918	7.79006461545815	0.0636709255432354	0.0388506154063599	0.233830362383562	0.00510902247180741	-0.0122057129177035	-0.0120731202716745	0.083740234375	-0.00244140625	0.794677734375	0	0	0	-0.328673349935624	-0.0782726082048039	-0.879816430114645	-0.334320620284233	-0.560407103789722	0.639733789998118	0.526008132975775	-0.536829308610632	-0.764206243315167	0.357495609895775	0.630680720680954	-0.0820335029897232	0.771694455693824	24.8564292472432	-31.7361350929534	131.218375188045
6409	1652421584878	5.26225361902772	3.56896451926891	7.74690534713748	0.0196131859947333	0.0033302912658479	0.20943653585141	0.00644685834319465	-0.0100962235503021	-0.011102603536462	0.080078125	-0.00244140625	0.795166015625	0	0	0	-0.328638123056393	-0.078234702333883	-0.879806924673648	-0.33438913068609	-0.560361786705945	0.639817556892212	0.525954524547706	-0.536973933960681	-0.76412648125946	0.357448898284535	0.630597860959354	-0.0821231668320075	0.7717526308494	24.8519266192646	-31.7325236282785	131.212360450024
6410	1652421584879	5.28268938874954	3.57860387473273	7.73473425510917	-0.00355427951396186	0.0102851996226174	0.214236805043674	0.00468914323542076	-0.0151816836399401	-0.00985011728297792	0.077880859375	0.00146484375	0.796142578125	0	0	0	-0.328697668975575	-0.078238815855153	-0.879767806492241	-0.33443255936502	-0.560225411293171	0.639879831134296	0.526024039611254	-0.537012165554304	-0.764067101860291	0.357518388200512	0.630686469323763	-0.0821904225707588	0.771673060207214	24.8584275444692	-31.7372067099767	131.202684764247
6411	1652421584880	5.27907937393783	3.59018405118732	7.78725377360258	0.0244262282467171	-0.00408756313033994	0.257010167975649	0.0076597050813851	-0.010127457698623	-0.0129939746934613	0.0849609375	-0.003662109375	0.791015625	0	0	0	-0.328630762228827	-0.0782718985104786	-0.879766988735115	-0.334492716740461	-0.560232889128971	0.639996407658359	0.525874232229154	-0.537106192983975	-0.763976264702302	0.357571257835107	0.630599752137969	-0.0821271280145295	0.771750664040931	24.8594614411272	-31.7271148004538	131.197890888174
6412	1652421584880	5.29196841359067	3.59015946139323	7.75387551784525	-0.00250950917448445	0.00692085406758264	0.23801936333415	0.00211686518830113	-0.0217401394933127	-0.0065402047645112	0.081298828125	0.001220703125	0.796142578125	0	0	0	-0.328714949171817	-0.0782486834258092	-0.879724075976806	-0.334528288609279	-0.560074612622234	0.640028203159953	0.526004113535148	-0.537142155179647	-0.763935935324549	0.357603400219811	0.630709706144609	-0.0822543973271248	0.771647251466195	24.8643549710024	-31.7358643084875	131.188456864722
6413	1652421584881	5.3287390448388	3.52858465634517	7.76789957076571	0.0189921810285134	0.0757053217538078	0.246166504791379	0.00268450046078343	-0.0121463557775476	-0.00829384833216121	0.083740234375	-0.00537109375	0.791015625	0	0	0	-0.328716215786745	-0.0782152879843604	-0.879710706950021	-0.33457000804295	-0.560017118393966	0.640070903565255	0.526013370091368	-0.537228369633697	-0.763890556887328	0.357570826493281	0.630687328211404	-0.0823435213451962	0.771656036408732	24.8621150749126	-31.736487911779	131.183647591966
6414	1652421584882	5.27762259842896	3.55254355441962	7.74757572366708	0.0226055885235072	0.0266374379996503	0.212160514436592	0.00378379686257098	-0.00587717629644088	-0.0112280334952266	0.08203125	-0.001953125	0.795166015625	0	0	0	-0.328731166094857	-0.0782335693991443	-0.879685518747606	-0.334617269671994	-0.559934206550351	0.640151557899319	0.526003485971247	-0.537280307913945	-0.763821582912658	0.35764012667023	0.630716699527392	-0.0823563743487778	0.77163065811397	24.8670698669872	-31.7358220303985	131.175865948098
6415	1652421584883	5.30961255684797	3.54134430850923	7.740689794728	0.00533773342976272	0.0558460500581595	0.219672087768142	0.0035009144249932	-0.0106745767747537	-0.0103515782029282	0.080810546875	-0.005126953125	0.79541015625	0	0	0	-0.328707543335821	-0.0781703907913923	-0.879677729067695	-0.334675714595417	-0.559887034028353	0.640203939416088	0.525989947701527	-0.53742315094153	-0.763763112127136	0.357550367621052	0.630636873294776	-0.082491360214227	0.771681481915301	24.8601438230524	-31.7349099810865	131.171150670434
6416	1652421584883	5.345481801632	3.56981632636464	7.77089655174358	-0.0104104290519014	0.0547266118547983	0.272028503911709	2.22565892173579E-05	-0.00792692343191901	-0.00841692648628525	0.0859375	-0.002685546875	0.790771484375	0	0	0	-0.328725677177117	-0.0781635480975192	-0.879655575165696	-0.334717728830071	-0.55980694234257	0.64026136310219	0.526005298664936	-0.537483901986497	-0.763709003511292	0.357574625863133	0.630656199850942	-0.0825466224282736	0.771659777826506	24.8622413389984	-31.7359441490513	131.164542388171
6417	1652421584884	5.29014022497892	3.53390646101534	7.75121548572305	0.0260165463085338	0.0478302048565192	0.214897358898124	0.00245715413948064	0.000453213336419813	-0.0103811232175975	0.092041015625	0.002197265625	0.79150390625	0	0	0	-0.328658491281061	-0.0781084918744076	-0.87966404401981	-0.334774296003556	-0.559819533688361	0.640319860304109	0.525920684325186	-0.537635783921381	-0.763650468464859	0.357471293757475	0.630515545841803	-0.082634366419356	0.771765319211924	24.8529363450368	-31.7302439702606	131.162587119984
6418	1652421584884	5.3096146402919	3.54332633977659	7.73978128105512	0.0027834683804167	0.0547917787025055	0.219678934908609	0.00285417799993551	-0.00104976865248076	-0.0102147071816933	0.078125	-0.001708984375	0.79052734375	0	0	0	-0.328649856756317	-0.0781279817529713	-0.879649276803948	-0.33481702456648	-0.559773663429003	0.640396607066655	0.525876060863003	-0.537689607019558	-0.763587157055313	0.357525579621006	0.630510374406659	-0.0826246890323932	0.771770580242519	24.8561055580512	-31.7272379813975	131.156858105548
6419	1652421584885	5.28551542391419	3.56570663824248	7.76693579475629	0.0215365111497185	0.0203465191722789	0.235961846422581	0.00550664194923485	-0.00130591105963101	-0.00588376050351856	0.087158203125	-0.00927734375	0.79296875	0	0	0	-0.32865655592709	-0.0781440921845833	-0.879644996678214	-0.334817933990664	-0.559763638648735	0.640406977272917	0.52587410309588	-0.53767670445918	-0.763580903869742	0.35755833751625	0.630530277091152	-0.0826020986757311	0.771756738205583	24.8584997317569	-31.7271061017484	131.155889933004
6420	1652421584885	5.25766991847399	3.52849124220094	7.79430299089434	0.074603999933814	0.0293319803121457	0.229129023956107	0.00671892280443588	-0.00133664111446182	-0.00777493636074187	0.07763671875	-0.00146484375	0.786865234375	0	0	0	-0.328656717303041	-0.0781761988158514	-0.879632291333713	-0.334843659269959	-0.559728972036585	0.640464856232494	0.525840513648349	-0.537692324736303	-0.763536411570816	0.3576298535151	0.630547731565612	-0.0825646179465111	0.771746488220587	24.8631610051118	-31.7248434693485	131.15156592445
6421	1652421584886	5.30146136078798	3.51654718269862	7.75510412112	0.0303445796240295	0.0692665088236365	0.217642532208044	0.0100412798255683	-0.00673973625758982	-0.00597185729795073	0.076904296875	0.006591796875	0.791259765625	0	0	0	-0.328617434181022	-0.0781210609179215	-0.87964361112351	-0.334865344881986	-0.5597515654987	0.640468207612913	0.525812380948621	-0.537780437235526	-0.763524601276254	0.357522565123803	0.630452524975927	-0.0826477966012426	0.77181536358668	24.8546533259033	-31.7229484536568	131.152563301803
6422	1652421584886	5.28563475714742	3.56887969220472	7.76539708707539	0.0184761212251635	0.019097739663242	0.235970390424992	0.0157970533542826	-0.00376239176848577	-0.00613420613264875	0.08154296875	-0.008544921875	0.7939453125	0	0	0	-0.328643349112583	-0.0781855239031217	-0.879626394093516	-0.334870093842519	-0.559711138667934	0.640511451128192	0.525802740792307	-0.537730841417617	-0.763498088203794	0.357653759238532	0.630530715698566	-0.0825575573936704	0.771761145872118	24.8642068952033	-31.7222991026554	131.148596082107
6423	1652421584888	5.31744101884462	3.53866274571244	7.79563866537081	0.0350947148628729	0.0617382624968502	0.265221730641217	0.0159337378626165	-0.00558524053444361	-0.00748164095053662	0.079833984375	0.005615234375	0.797607421875	0	0	0	-0.328576941953951	-0.0782536781376783	-0.879641160096921	-0.334880552641471	-0.559784417357466	0.640574144157138	0.525648334840998	-0.537724727120629	-0.763462754640936	0.357738368251324	0.630470874764892	-0.0823977433758105	0.771827110148229	24.8675091503121	-31.7118990966224	131.149534038887
6424	1652421584888	5.29410201929798	3.4920776909898	7.76887066688924	0.0577978250014595	0.0858263186036018	0.215610943146052	0.0240937441142053	-0.00714738819202153	-0.00903590571097153	0.084228515625	0.004150390625	0.790283203125	0	0	0	-0.328629415492381	-0.0783540173583446	-0.879610667570442	-0.334885695026267	-0.55970855707982	0.640636929375598	0.525652599966775	-0.537639189671788	-0.763424438461164	0.357948639457283	0.630611158211373	-0.0822645213956847	0.771726710473889	24.8832017288136	-31.712186358314	131.142904188579
6425	1652421584890	5.30985425144269	3.53320031641227	7.77255513641202	0.0308172194362147	0.0670966186886338	0.241427117992922	0.0198195377332187	-0.00139452028870045	-0.00743571387322635	0.090087890625	0.001953125	0.800537109375	0	0	0	-0.3286315731286	-0.078524468911679	-0.879602477245892	-0.334865165324867	-0.559733220389942	0.640707697421282	0.525540073121948	-0.537485218431151	-0.763398457668176	0.358235166891621	0.630720510178575	-0.0819538973750978	0.771670393850321	24.9023026844737	-31.7046078289236	131.14101932144
6426	1652421584890	5.28230367605491	3.51710042763077	7.76181281309357	0.0496279563554458	0.0641196059304776	0.212874506857537	0.0242316433056538	-0.00897178773536941	-0.0103835156457233	0.083984375	-0.00732421875	0.792236328125	0	0	0	-0.328691584818391	-0.0786257369016087	-0.879566719561136	-0.334876427069324	-0.559639241325717	0.640779556970845	0.525552546313519	-0.537405084692031	-0.763351544179926	0.358455290022723	0.630872169710733	-0.0818289641042231	0.771559671132507	24.918888772954	-31.7054478508315	131.133068907627
6427	1652421584891	5.30606829801565	3.54842280772686	7.82359740708165	0.0599004291945023	0.0502532350903013	0.284254129749181	0.0255686619340538	-0.00686076759503832	-0.00941586929353714	0.0810546875	-0.0068359375	0.79541015625	0	0	0	-0.328755871428501	-0.0786337078737168	-0.879532126760877	-0.334902306625091	-0.55952004403696	0.640817262317535	0.525633481274488	-0.537412089694824	-0.763314370006449	0.358523943958421	0.630971921856053	-0.0818804546733667	0.771472633974635	24.9255520490658	-31.7108986968125	131.12535186389
6428	1652421584892	5.25104410864741	3.53420192759417	7.76550207975617	0.0636755327179625	0.0323298838261116	0.205394762419857	0.0269181977631879	-0.00871700672213079	-0.012654798559023	0.07763671875	0.002685546875	0.79345703125	0	0	0	-0.328818524232929	-0.0787502336885594	-0.879491846388762	-0.334919200630484	-0.559415014340632	0.640906483556046	0.525636491376021	-0.537328341058164	-0.763255059486069	0.358775651437771	0.631136352641766	-0.0817348977165814	0.771353557630551	24.9443055573223	-31.7111014287321	131.116071116094
6429	1652421584893	5.33080863628129	3.55224591976461	7.75568583687795	0.00334616983182073	0.0723838813262661	0.246208327339735	0.0355958767369061	-0.0180823571483273	-0.0129955854867714	0.0771484375	0.00341796875	0.79833984375	0	0	0	-0.328821420888165	-0.0788485859795234	-0.879472627371106	-0.334943683862049	-0.559378403612015	0.641001811488647	0.52555920621824	-0.537293395181408	-0.763191258259898	0.358963662241887	0.631198549639421	-0.081582969938255	0.771318747308235	24.9567750644188	-31.7058963731443	131.109991845132
6430	1652421584894	5.2798295054495	3.53924632021125	7.80884634491343	0.0753455990197885	0.0472957246948916	0.25573011093236	0.0314755503952046	-0.00967798443470953	-0.0151394726433167	0.0888671875	0.00341796875	0.798828125	0	0	0	-0.328893738634795	-0.0789875076183358	-0.879425221030915	-0.334964420411777	-0.55925549149006	0.641109312288316	0.525558888170883	-0.537195325544161	-0.763119621396891	0.359262613769605	0.631390907007469	-0.0814081883858609	0.771179764654142	24.9789778849635	-31.705874953669	131.098994753607
6431	1652421584893	5.28471019634241	3.53195482894423	7.75342504210297	0.0441903486275767	0.0629396595909052	0.212907426168208	0.0330643371180838	-0.0241351111237902	-0.0162780442565869	0.0849609375	-0.0009765625	0.791015625	0	0	0	-0.32900250066812	-0.0791278095555512	-0.879355527058642	-0.335007464604122	-0.559054706427283	0.641247825643409	0.525603521039486	-0.53711483677874	-0.763017576828916	0.359599540547921	0.631637148475018	-0.0812736338410508	0.770992288618128	25.0048789614084	-31.7088808834062	131.08267205253
6432	1652421584893	5.30948198740722	3.58413350409405	7.77655889206022	0.0206758374248369	0.0387993619044754	0.262507204133094	0.0322823301820318	-0.0251026618412846	-0.0208209415227752	0.092041015625	-0.009033203125	0.79345703125	0	0	0	-0.329141452965553	-0.0792543957516912	-0.879272957422743	-0.335057772688267	-0.558804385801804	0.641386291341416	0.525700754886248	-0.537042663454942	-0.762910059430424	0.35993529814272	0.631919960151513	-0.0811903103773523	0.770769289387518	25.0317226885735	-31.7154297156535	131.063834922485
6433	1652421584895	5.31058555312164	3.60734522850353	7.73672638825205	-0.0147688275376091	0.0239182566298832	0.240740013423222	0.0340055180822856	-0.0205226335649561	-0.0154851894230053	0.08642578125	-0.0068359375	0.7880859375	0	0	0	-0.329282074084733	-0.0792252253891865	-0.879210090614397	-0.335091473944523	-0.558574039552287	0.641406503413715	0.525920849288971	-0.537056717269788	-0.76287413550344	0.359990466283871	0.632111639485969	-0.0813679959103804	0.770593358696978	25.0401045988881	-31.7302550829657	131.05124090059
6434	1652421584896	5.26794358378553	3.64330831568184	7.73573735299908	-0.00750960345674949	-0.0291931384748902	0.230501749841954	0.0293267144245929	-0.0217130785567656	-0.0158624829630159	0.0830078125	-0.00146484375	0.791015625	0	0	0	-0.329403329481625	-0.0793348630516002	-0.879142449038767	-0.335123828351735	-0.558370932394594	0.641509502443115	0.526010893548774	-0.536976830310452	-0.762795998350921	0.360275101290058	0.632358905659225	-0.0812885181007024	0.770398852062008	25.0630240534998	-31.7363210696096	131.036365125481
6435	1652421584897	5.30086142899725	3.63430689469366	7.72718853280016	-0.0249509968351716	-0.000987214430582006	0.237991040361651	0.0245233776563441	-0.0250515717895801	-0.0190969470759525	0.088134765625	0.006591796875	0.791259765625	0	0	0	-0.329485127186852	-0.0793047961638907	-0.879092024086794	-0.335182806025385	-0.558184075015225	0.641572564477068	0.526132286511401	-0.537053561074721	-0.762726471700705	0.360307926507251	0.632458702949338	-0.0814430713892298	0.770300600536135	25.0678316070332	-31.7444995443811	131.024079462505
6436	1652421584897	5.30992609367156	3.64683373066884	7.7460102581918	-0.021686593132686	-0.00510089397337439	0.261779812230342	0.0246491255259654	-0.0229049031363905	-0.0162407827529877	0.088623046875	-0.001220703125	0.797119140625	0	0	0	-0.329603173680041	-0.0793914127888945	-0.879023768627141	-0.335225246161394	-0.557971564472155	0.641677241675822	0.526230035968876	-0.537006595203175	-0.762642075822833	0.360556487797591	0.632686059549908	-0.0814087323322829	0.770117502950856	25.0882291378167	-31.7510856362197	131.008647311326
6437	1652421584899	5.2954698172927	3.61030173042553	7.73950582139577	0.0054106696724873	0.0141362120349705	0.235994124058243	0.0183597246839415	-0.0225590062004031	-0.014890427365136	0.091064453125	0.0048828125	0.791259765625	0	0	0	-0.329754631915279	-0.079421614592209	-0.878948452778811	-0.335266621099863	-0.5577163510134	0.641743446340151	0.526419814303911	-0.536984865196267	-0.762576999823696	0.360726452994564	0.632929479770413	-0.0814964319424951	0.769908179731971	25.1045834883715	-31.7638737208611	130.992741593067
6438	1652421584899	5.28883159137772	3.60277995358009	7.71667242455677	0.00130772878586738	0.0181410858393991	0.212204891898834	0.0186226121448772	-0.022236871378224	-0.0133784484311469	0.077392578125	0.005615234375	0.789306640625	0	0	0	-0.329861244573485	-0.0794780986564642	-0.878888270326122	-0.335306127957039	-0.557522719765778	0.641826734738133	0.526523370345852	-0.536959756581511	-0.762506064776822	0.360913730676028	0.633121344417398	-0.0815042560480728	0.769749582324769	25.1205474492758	-31.7708525199134	130.979209836447
6439	1652421584901	5.35738954669173	3.62088279139245	7.7390040240211	-0.029777863907845	0.0477562302338835	0.272025330811056	0.0140805759086893	-0.0252542982241892	-0.0150955108867196	0.078369140625	-0.002197265625	0.79443359375	0	0	0	-0.329962473888769	-0.0795642065706166	-0.878833010040363	-0.335330945964412	-0.557355845007632	0.641906214069248	0.526603146947598	-0.536893404337097	-0.762445387422802	0.361140559307613	0.633324509564529	-0.0814459546999008	0.769588605715983	25.1389951437815	-31.7762291453625	130.967206050126
6440	1652421584902	5.29890701107078	3.63593312102701	7.69681115127948	-0.0298954492085184	0.00276053252452179	0.214197763075253	0.0132807247991893	-0.01380093362763	-0.0136327932901726	0.08203125	0.006103515625	0.80078125	0	0	0	-0.330022851681103	-0.0796124196188345	-0.878788454017345	-0.335376852356437	-0.557214568543522	0.641998446694714	0.526640217837976	-0.536902775687353	-0.762368459091846	0.361289000719839	0.633440868638954	-0.081439100090176	0.769493560021414	25.1507737928033	-31.7787276821922	130.955940447981
6441	1652421584903	5.26404299100918	3.66012763668309	7.75523871688913	0.0128475045876187	-0.0415811420180647	0.249544797531536	0.00751721409629625	-0.0212569273699476	-0.0110531677705598	0.087158203125	0.001220703125	0.79345703125	0	0	0	-0.329987327011631	-0.0796141587382681	-0.878771993831835	-0.335454516435445	-0.557157262829561	0.642119395364382	0.526553384352577	-0.537032741627099	-0.762263706262919	0.361316864448368	0.633381100836418	-0.0814660924016794	0.769539899480234	25.1511463343032	-31.7728753078428	130.947680631868
6442	1652421584903	5.30113775433447	3.63842927626089	7.69409500765267	-0.0331351290708883	0.00354718767806451	0.214187333066235	0.00497250581859947	-0.0233383768073403	-0.0101228136674627	0.0830078125	0.00048828125	0.787109375	0	0	0	-0.330075871250522	-0.0796043874763157	-0.878721332209193	-0.335502430741166	-0.556976076369956	0.642177260903818	0.526674487638806	-0.537075310697381	-0.762202520922579	0.361382661092886	0.633504349622668	-0.0815823674413466	0.769426121425459	25.1584199647215	-31.7810374887411	130.935900540327
6443	1652421584905	5.31041458618489	3.62940450624834	7.7512433928816	0.00344644693342378	0.0108602158785168	0.259786226516011	0.00603307515961422	-0.017570198994081	-0.00647176543502826	0.08544921875	-0.00634765625	0.797119140625	0	0	0	-0.330113513161079	-0.0795654131761892	-0.878703867810702	-0.335520381123213	-0.556902284558769	0.642177349383985	0.526752406156236	-0.537114877105166	-0.762190837754073	0.361348496103204	0.63353567716864	-0.0816907508957078	0.769388826909105	25.1574042195269	-31.7862894615037	130.932139088982
6444	1652421584906	5.29964329614868	3.65066720455294	7.74505208836295	-0.00461124258272745	-0.0122081694648961	0.257032166916211	1.81594727131724E-05	-0.020878006986276	-0.00780387593269374	0.082763671875	0.007568359375	0.7939453125	0	0	0	-0.33018355838612	-0.0795339130889607	-0.878663225117306	-0.335565360647806	-0.556749413009575	0.642219464921077	0.526862648125656	-0.537176303176735	-0.762140490804131	0.36136337886152	0.63361795304337	-0.0818292805377373	0.769306348880474	25.160675862801	-31.7937206544249	130.92249362862
6445	1652421584907	5.3367157110073	3.62827866764395	7.68420289588429	-0.0521217727883496	0.0326579384133921	0.221660217208376	-0.00145386823786291	-0.0211677947267746	-0.00742285731111381	0.072998046875	0.005859375	0.794189453125	0	0	0	-0.330191220579566	-0.0794500743455639	-0.878642212083841	-0.335632696087665	-0.556648902338203	0.642269543122857	0.526907803607452	-0.537334675029661	-0.762076758006819	0.361262317321617	0.633571974235321	-0.0820295610287694	0.769322887077322	25.1540354124079	-31.7967646685366	130.915162564765
6446	1652421584907	5.31833116966862	3.59994008607716	7.73231131054331	0.00451565212404659	0.0375793848543946	0.238751367223976	-0.00868157988369092	-0.0159907970477536	-0.00505762732846945	0.088134765625	-0.004638671875	0.78564453125	0	0	0	-0.330225673642269	-0.0793838343633362	-0.878617917263056	-0.335678070141041	-0.556542475387792	0.642294694074285	0.526989562565758	-0.537436373358529	-0.762036880136321	0.361195152103864	0.633579211843681	-0.0822029152531842	0.769298422618569	25.1506377905453	-31.802276445476	130.908630054345
6447	1652421584908	5.33891880674651	3.60828706154523	7.72042920502791	-0.021114942442643	0.0450821911956599	0.243471863169214	-0.00667486099236274	-0.0105803737153348	-0.00481400733312725	0.09326171875	-0.00341796875	0.792724609375	0	0	0	-0.330128646054285	-0.0793292099584418	-0.878646563359175	-0.335711438885905	-0.556625813711039	0.642321093467202	0.526869354202369	-0.537565714762656	-0.762009412497049	0.361060600976646	0.633396247085691	-0.082251250160713	0.769443907003468	25.1382593931214	-31.7941727170563	130.911710441539
6448	1652421584909	5.31966021336233	3.59924885111764	7.73171883053788	0.0013130873509546	0.0380486269662715	0.238750530481429	-0.00934847917433322	-0.00636197987317638	-0.00493750766025894	0.08740234375	0.0078125	0.786376953125	0	0	0	-0.330118616517422	-0.0792760485909584	-0.878639039065611	-0.335753549762749	-0.556582505700672	0.64235335162045	0.526875778537917	-0.537671353685189	-0.761969723883034	0.360987056986741	0.633344637440231	-0.082366932367228	0.769474014296854	25.1329090874008	-31.7946057893373	130.908080040592
6449	1652421584910	5.31988157581612	3.59870656040594	7.73181894997474	0.00199694944335505	0.0368091296124532	0.238755033437279	-0.0096231202132002	-0.00270886650090832	-0.0022479737735568	0.084228515625	0.000244140625	0.794189453125	0	0	0	-0.330164615580693	-0.0791903569133447	-0.878628462460702	-0.335756219516978	-0.55651817534824	0.642301649327625	0.527006747374337	-0.537718234335656	-0.761993296855208	0.360867449364272	0.633361366812036	-0.0825518432183271	0.76944042798078	25.1265705311685	-31.8034350004811	130.907084868159
6450	1652421584910	5.30036451405549	3.58951788776797	7.74335709582146	0.0244363741600088	0.029767807536679	0.234033420657512	-0.00761283417129894	-0.00574869006199187	-0.00380672272416688	0.079345703125	-0.000244140625	0.792724609375	0	0	0	-0.330155908049604	-0.0791437164935005	-0.878622909386283	-0.335790309004178	-0.556483889517641	0.642325647652603	0.527013702929043	-0.537806585311275	-0.761962281036951	0.360801273657388	0.633316474997409	-0.0826513438767374	0.769466697039076	25.1217792587689	-31.8039039299808	130.904278438069
6451	1652421584911	5.30091780479687	3.58917439888178	7.74313756670498	0.0218188991761377	0.0300063784247446	0.234038736402532	-0.00601036850610502	-0.0117595652064828	-0.00313424727572912	0.084716796875	0.004150390625	0.786865234375	0	0	0	-0.330076867678977	-0.0790692021495829	-0.87864284006391	-0.335833414506493	-0.556530358248291	0.64235307937151	0.526931192633315	-0.53795742106987	-0.761927957944678	0.360648859721071	0.633147513194109	-0.0827545063678834	0.769594645389327	25.108814423318	-31.7983414052196	130.905435201
6452	1652421584912	5.32550572712882	3.56719298809485	7.71539755411151	0.00238343580954295	0.0640761075839546	0.217722649613258	-0.00641085304937954	-0.0102570644771503	-0.00330252938260229	0.07666015625	0.004150390625	0.788330078125	0	0	0	-0.330089209314348	-0.0790194055691494	-0.878630573696489	-0.335865095542103	-0.556471502981445	0.642369589371188	0.526973222299448	-0.538035776951947	-0.761901142279985	0.360588618944316	0.633132663104098	-0.0828731563508071	0.769594094875453	25.1051527390259	-31.8011748407824	130.901707541581
6453	1652421584914	5.29827013107624	3.61894751888724	7.75832682815083	0.0158652919243115	0.00438090999442617	0.255073646714102	-0.00427454832059935	-0.011146458679134	-0.00200356053488205	0.08984375	0.002197265625	0.7978515625	0	0	0	-0.330032738884618	-0.0790506441547884	-0.878654668971921	-0.335850204134038	-0.556566063294885	0.642371301077087	0.526871263916495	-0.538014098673095	-0.761911272083676	0.360599560594315	0.633067963821747	-0.0827666903069442	0.769658773846061	25.1039707484945	-31.7943014529987	130.906449992646
6454	1652421584914	5.29902254030438	3.61860638847489	7.75797206845427	0.015368232261462	0.00436712988371099	0.255074423722686	-0.00788279653317256	-0.0105471404515508	-0.00292065807622085	0.090576171875	0.004150390625	0.792724609375	0	0	0	-0.330043278024848	-0.0789939954237242	-0.878643435405606	-0.335882563906264	-0.556508675788736	0.642384894074736	0.526915307840319	-0.538099145299033	-0.761885703901503	0.360526675877059	0.6330461307048	-0.0828964538149959	0.76966276663522	25.0994072731234	-31.7972705523968	130.902926071785
6455	1652421584916	5.33142944228804	3.62577802850029	7.71374008527137	-0.0333859041970717	0.0216797161471965	0.240700503067416	-0.00855319455611586	-0.0138426440766755	-0.0022031133284188	0.084228515625	0.00537109375	0.79541015625	0	0	0	-0.330134960302829	-0.0789086289525367	-0.878603941889973	-0.335915837015883	-0.556342916855537	0.642374951264442	0.527102438670776	-0.538172962917256	-0.761867957437499	0.360453987930324	0.633129071240244	-0.0831362581429959	0.769568672525361	25.0976603238239	-31.8098865239808	130.89491805752
6456	1652421584916	5.3443040172362	3.60439094445183	7.71852299425217	-0.0262603081514489	0.044695561662517	0.243461468924126	-0.012435909704988	-0.00959063491695479	-0.000428857005371486	0.09326171875	-0.00537109375	0.79052734375	0	0	0	-0.330135228414662	-0.0788294998261459	-0.878600034648495	-0.335944370443116	-0.556304221854354	0.642370260884414	0.527148992864741	-0.538272681160741	-0.761854579849476	0.360333345498867	0.633078299630503	-0.0832949403845657	0.769593281833517	25.0895902168748	-31.8130253785957	130.893152921077
6457	1652421584918	5.34907932168665	3.55348750000368	7.74013923026769	0.011433671854264	0.0825924269896919	0.24428663590497	-0.012566974091885	-0.0032898794464061	-0.00148172883598433	0.07958984375	-0.0009765625	0.799072265625	0	0	0	-0.330130400961193	-0.0787046003190372	-0.878600549368818	-0.335977051148785	-0.556266678925137	0.642344805950905	0.527219624241637	-0.538413680907648	-0.761850013979974	0.360132287375334	0.632991382349772	-0.0835326670626969	0.769639008499645	25.0760049559649	-31.8177878089548	130.892362944271
6458	1652421584918	5.3335943110333	3.51385666868806	7.73584238311932	0.0378212040955361	0.10265923546745	0.218549100752376	-0.00494326648593677	-0.00151682507222008	-0.0018798178942498	0.097412109375	0.00244140625	0.798583984375	0	0	0	-0.330107394994498	-0.0786739602538686	-0.878604501135441	-0.335996497500288	-0.55627092287497	0.642357782285603	0.527199336020968	-0.538474357992382	-0.761833523291023	0.360076448236591	0.632936036380075	-0.0835832658317915	0.769679031495838	25.0714510076149	-31.8164198190047	130.892006479501
6459	1652421584920	5.3174466312427	3.56476526647702	7.74681277475013	0.0256850280033714	0.0517564129729772	0.236818088613743	-0.00252657397125573	-0.00158388872218865	-0.00567091394861185	0.078857421875	-0.00048828125	0.791748046875	0	0	0	-0.330099763885336	-0.0786104308889091	-0.878589726483248	-0.336057492932975	-0.556199014652898	0.642411890947964	0.527209273882589	-0.53861475224655	-0.761771523198127	0.35999763208498	0.63287977117422	-0.083732364191312	0.769709092076611	25.0657784286665	-31.8170899045521	130.885952807017
6460	1652421584921	5.2977515261496	3.55622620852006	7.75818296276135	0.0481114065506043	0.0447230413322976	0.232112491590822	-0.00198839261112385	-0.00491298409348361	-0.0068494303620582	0.093505859375	0.00244140625	0.791259765625	0	0	0	-0.330094772753097	-0.0785951114902807	-0.878578524485973	-0.336095262928478	-0.556154830476238	0.642459831314631	0.527197467449459	-0.538684489447077	-0.761725565373735	0.359990533049419	0.632859246094334	-0.0837826247096537	0.769720498901824	25.0650189919968	-31.8162938263703	130.881584637919
6461	1652421584922	5.30211665087762	3.59631618292963	7.79467858158554	0.0469719142990783	0.0132876432453828	0.276939103679194	-0.00373475025589613	-0.0144765112897238	-0.00318510412963061	0.084228515625	0.003662109375	0.78759765625	0	0	0	-0.330119038535673	-0.0785366117042803	-0.878567832436655	-0.336113053637986	-0.556098871140862	0.642449095468114	0.527269575500105	-0.538743372485448	-0.761720031592319	0.35991411763642	0.632858297029331	-0.0839151547886246	0.769706842036588	25.0607416227639	-31.8211559984617	130.879205529711
6462	1652421584923	5.34683663171067	3.51296165105481	7.70237905691161	0.00893094936443512	0.112630778863768	0.19947719682485	-0.00359217333289729	-0.0118280079717085	-0.00692898039289194	0.084228515625	0.008544921875	0.80126953125	0	0	0	-0.330141570015961	-0.0785027539807634	-0.87854575770094	-0.336156530489165	-0.556010661513767	0.642491832469018	0.527310524732465	-0.538823742669874	-0.761672209253845	0.359895012448903	0.632867378380536	-0.0840219665383419	0.769687722729665	25.0601206966423	-31.8239172772978	130.872822044219
6463	1652421584924	5.36267654964017	3.55251599589522	7.70646085487163	-0.0181913370954821	0.0940524762830557	0.225192479519224	0.0047056879894968	-0.00228299871440208	-0.0104425224683798	0.079833984375	0.005859375	0.792724609375	0	0	0	-0.3301163740678	-0.0786132715466308	-0.878534022471675	-0.336186115818013	-0.556004150207051	0.642604937570618	0.52717955116108	-0.538798824944293	-0.761597698135866	0.3600899504746	0.632894312813114	-0.0838322157885212	0.769686266218128	25.0720689265288	-31.8150857890774	130.867499573607
6464	1652421584925	5.32308985939466	3.53565626744755	7.72925111191071	0.0271477834479818	0.0800334959545451	0.215788657810501	-0.002790882999976	-0.0019079483323874	-0.00718418099330792	0.0859375	-0.000732421875	0.798095703125	0	0	0	-0.33009637966877	-0.0786009979555961	-0.878527659353234	-0.336225244443785	-0.555977930256577	0.642658163760324	0.52714232008047	-0.538874544306346	-0.761548936238202	0.360079773401797	0.632852879085053	-0.0838671703747648	0.769716526499912	25.0705828114681	-31.8125754684416	130.863814507958
6465	1652421584926	5.34298596366498	3.52551620075399	7.75489163409616	0.036808862267516	0.0998693803884072	0.242350119428599	0.00806187025166308	-0.00718136244786282	-0.0152462412193635	0.083984375	0.002197265625	0.797119140625	0	0	0	-0.330049991131408	-0.0786657184404181	-0.878514504787614	-0.336290013194244	-0.555952060759947	0.642798548159934	0.526998418043404	-0.538944069465511	-0.761441463536137	0.360202981103574	0.632816400012455	-0.0837670823857907	0.769757416192821	25.0769384863248	-31.8028734568844	130.856303359021
6466	1652421584927	5.29909483493815	3.55954563017591	7.7557429042137	0.0440118102157855	0.0468012085760337	0.232121823046862	0.00899509030592896	-0.00356223465224128	-0.0144504150583988	0.081787109375	0.010009765625	0.797607421875	0	0	0	-0.330053614588126	-0.0787148804731737	-0.878488783848935	-0.3363421408938	-0.555877151512575	0.64290585826597	0.526946534131842	-0.538985334977797	-0.761355863702138	0.360322157916	0.63284705980603	-0.0837215994452296	0.769737158178813	25.0847942851448	-31.7993756443262	130.847751364698
6467	1652421584928	5.30680165265611	3.57058250799885	7.77622923803514	0.0468696032876895	0.0444513282841743	0.255915896338133	0.00605170291635481	-0.00414341882929315	-0.013685477138961	0.091796875	0.001220703125	0.79638671875	0	0	0	-0.330011899966405	-0.0788274443265216	-0.878470745042078	-0.336403819845627	-0.555849231747669	0.643069817852961	0.526775892512258	-0.539013839166196	-0.76123740802844	0.360529734980988	0.6328473060327	-0.0835393199918587	0.769756759803026	25.0969064444186	-31.7878725801957	130.839099213085
6468	1652421584929	5.28675831599207	3.60261022500906	7.71203024935763	0.000982222951225777	0.0135204907671218	0.207484311070509	0.0128768622940634	-0.0122884176819127	-0.0138298400232675	0.0908203125	0.001953125	0.7919921875	0	0	0	-0.330060202414127	-0.0788789401748015	-0.878430288877969	-0.336450000982335	-0.555723319242665	0.643165341032425	0.52679211890893	-0.539026145191198	-0.761159019271774	0.360676811261203	0.63294739690612	-0.0835182104446474	0.769676751158492	25.1081720024653	-31.7889663507128	130.828467394277
6469	1652421584930	5.32680281812502	3.6019033619556	7.72556258378551	-0.0100226244473183	0.0381432276838695	0.238745260756067	0.00765850217344647	-0.0101552499304031	-0.0130166916699764	0.091064453125	0.004150390625	0.796142578125	0	0	0	-0.330167310389237	-0.0788586171436927	-0.878372803427603	-0.33649975312213	-0.555514926598165	0.643217538051859	0.526948161652681	-0.539071387958469	-0.761098469301859	0.360736966099811	0.633091782454302	-0.0836679076400932	0.769541731305044	25.1157065306893	-31.7994853634722	130.815536484118
6470	1652421584931	5.35063161920794	3.58163768097559	7.6975199191504	-0.02944106987778	0.0722516810123962	0.222406699616233	0.0105925919649669	-0.00112223420898002	-0.0119762342560686	0.08349609375	0.000244140625	0.790771484375	0	0	0	-0.330164097154685	-0.0789155426844084	-0.878354550766378	-0.336537203323572	-0.555468759458361	0.643308125886637	0.526886242403434	-0.539087810279159	-0.761030095803948	0.360856655874676	0.633118306538526	-0.0835933517024824	0.769528012145714	25.1234047304623	-31.7953111755959	130.809189609797
6471	1652421584934	5.35028570497982	3.58284561840195	7.69719820100586	-0.029852414698608	0.0719159679841413	0.222407895862565	0.0040400416497336	-0.00110675309353667	-0.0121254480827606	0.08740234375	0.00390625	0.7890625	0	0	0	-0.330158778345152	-0.0789293008031678	-0.87833820280609	-0.336581859356275	-0.555415666067819	0.643383813945868	0.526849794380628	-0.539147007830624	-0.760965634853991	0.360904151428806	0.633114477668712	-0.0835976705640236	0.76953069311272	25.1262267869366	-31.792854178152	130.803146213904
6472	1652421584932	5.32586558793879	3.60557680075666	7.72449512780013	-0.0113960699688104	0.0378306029559895	0.238744978900135	0.00751317267180086	0.00459733837338953	-0.0122638835398907	0.083740234375	-0.001953125	0.796875	0	0	0	-0.330125198726233	-0.0789828479701872	-0.87833010047211	-0.336623376337912	-0.555404111337659	0.643481344684522	0.526742852018159	-0.539184431156034	-0.760892824458766	0.361001743605354	0.633092743844193	-0.0835096924324416	0.769558125784966	25.1313973568869	-31.7856454640954	130.798260771143
6473	1652421584933	5.33745993093628	3.56638723706973	7.76697726293155	0.0291715698138438	0.072516651602946	0.263394341693017	-0.000761963017562016	1.86795785196695E-05	-0.0177485206399725	0.090087890625	0.002197265625	0.79541015625	0	0	0	-0.330069746421226	-0.078975435476823	-0.878321719545186	-0.336701351443474	-0.555372324867132	0.643599023868722	0.526632582781302	-0.539329416023358	-0.760790161054769	0.361001539960929	0.632997126204835	-0.0835381788015969	0.769633686177348	25.1292220719511	-31.7782130823349	130.791456520803
6474	1652421584935	5.32072596284216	3.54802611212701	7.72520937206072	0.0214290381217337	0.0806510308651791	0.215797560962221	0.00577909250952876	0.00845625784866695	-0.0157940776221662	0.086669921875	0.010986328125	0.792724609375	0	0	0	-0.330014654242092	-0.0790336268334985	-0.878314810406372	-0.336759717953074	-0.555366440699277	0.643726605718826	0.52648283318142	-0.539397585587004	-0.760693156387418	0.361104093701881	0.632944200706449	-0.0834384738299117	0.769688027630031	25.1339240545506	-31.7681205960965	130.785539155452
6475	1652421584936	5.29907524423563	3.65043417895036	7.71459192299866	-0.0272589578999824	-0.00809510284740002	0.233206715431296	0.0103321647461525	0.00302798399208947	-0.0158897748657013	0.084716796875	-0.001708984375	0.79052734375	0	0	0	-0.330049224956921	-0.0791527694920731	-0.878275617398616	-0.336800071363043	-0.555266442070371	0.643855201680654	0.526431056814923	-0.539357960784444	-0.760601102023169	0.361357100026537	0.633065690468974	-0.0832853100486941	0.769604696374142	25.1517448651553	-31.7646313452952	130.774775858944
6476	1652421584937	5.39456400563175	3.50631340731348	7.71730733050621	-0.00102175128362386	0.164217608443501	0.233477000147253	0.0010996327542016	0.00278356443233098	-0.0137599447856574	0.0908203125	0.0068359375	0.788818359375	0	0	0	-0.330012416351735	-0.0791781189318106	-0.878264452602317	-0.336859290848956	-0.555235246444856	0.64396260606467	0.52633257841	-0.539443556661183	-0.760513287302317	0.361414151650647	0.633020118386496	-0.083256842523736	0.769645261072219	25.1540630068132	-31.7579951697905	130.768457307459
6477	1652421584938	5.27704799878921	3.62442092790144	7.76420258105173	0.0293409288296885	-0.0036729096586743	0.250395115838284	0.00496159848249319	0.0288593289825978	-0.0191261124275453	0.0908203125	0.004150390625	0.79052734375	0	0	0	-0.329895158081385	-0.0792612227804855	-0.878285597248775	-0.336899470025056	-0.555335863542589	0.644083691725289	0.526078203993409	-0.53949211724972	-0.760432811320357	0.361510988619755	0.632890459786543	-0.0830550270660474	0.769773686475601	25.1562907398277	-31.7408558130867	130.768264180695
6478	1652421584939	5.30787964980928	3.54331110335084	7.70536129537323	0.0178932497155688	0.0846291304774189	0.191999053508683	0.00365699633841679	-0.00805818922647807	-0.0140985990995555	0.08740234375	0.006591796875	0.788818359375	0	0	0	-0.329910344606593	-0.0792800744628568	-0.878254877119105	-0.336960242656649	-0.555233918780662	0.644184586389834	0.526062272067887	-0.539563319643924	-0.760344929323872	0.361589563657892	0.632919204583253	-0.083077115436413	0.769747668629446	25.1618274747271	-31.7397824500206	130.758623804964
6479	1652421584940	5.3342599296433	3.61397104326544	7.80514159833953	0.0295804734426975	0.0410737771991946	0.308221113063928	0.00925063720577874	0.0186335308428105	-0.0183355152127313	0.09326171875	-0.009033203125	0.797607421875	0	0	0	-0.329889010107498	-0.0794011222722296	-0.878241919153728	-0.336986400665343	-0.555226813553824	0.644298281753696	0.52593051788245	-0.539524051242455	-0.760271255097055	0.361803008285003	0.63295891149568	-0.0828694322557119	0.769737405584411	25.1751357374031	-31.7309064053855	130.753260831326
6480	1652421584941	5.29324496714857	3.56649796625588	7.70090086024746	0.0109720354370481	0.0613982640035126	0.189229144353286	-0.000105978671080055	0.00728803599740408	-0.0142654675360949	0.0791015625	0.00439453125	0.790283203125	0	0	0	-0.329830968200446	-0.0794298762720695	-0.878237508227648	-0.33704792880754	-0.555220452205008	0.644413132288164	0.525796504731463	-0.539619400308731	-0.760179176883902	0.361854282609117	0.632883205863224	-0.0828210961450664	0.769804854342722	25.1763287944763	-31.7218790504425	130.747886055953
6481	1652421584942	5.34881397410977	3.47588566680959	7.77931175905111	0.0773551874546535	0.159963713691527	0.246025809297629	0.0198502765322923	-0.000378990595185295	-0.0207095388094333	0.084228515625	0.00244140625	0.798583984375	0	0	0	-0.329805403174145	-0.0794423163198511	-0.878217020534866	-0.337123388772924	-0.5551524335588	0.644536006407461	0.525717711284358	-0.539733985755635	-0.760073478239994	0.361905418992992	0.632845162843233	-0.0828350416217602	0.769834628829753	25.1785927396902	-31.7165717995675	130.739013166756
6482	1652421584943	5.2832104962417	3.5922199437508	7.80717733537172	0.0690211725860305	0.0296804799036496	0.275064101631893	0.016223206552684	0.0131390181898699	-0.0222247447836457	0.0810546875	0.002685546875	0.7890625	0	0	0	-0.329745737570929	-0.0795651069077359	-0.878202441353175	-0.337190768435152	-0.555140268471832	0.64471602180741	0.525509784443497	-0.539771002358605	-0.759943558889745	0.362122979545315	0.632824262598875	-0.0826258950137148	0.76987428463313	25.1907159482618	-31.7025680335479	130.730480764173
6483	1652421584944	5.32615601224529	3.51168070461259	7.71511423794178	0.0299043611142282	0.129443974490751	0.197566180881525	0.0248123002093382	-0.00283472336082335	-0.0230355237989629	0.087890625	-0.004150390625	0.797119140625	0	0	0	-0.329711705212251	-0.0797041534341135	-0.878180360385041	-0.337248712385058	-0.555106994881299	0.644889176245924	0.525332441978131	-0.539771606880882	-0.759821107839943	0.362378940456136	0.632852934447715	-0.0824004517083186	0.769874878742762	25.2062950901801	-31.6906257798629	130.721175109779
6484	1652421584945	5.34901132043731	3.54450108583769	7.77687064624662	0.0402925135593364	0.117269760759476	0.268966765009507	0.0332408679168333	0.000416360816072568	-0.025503260600068	0.088623046875	-0.00244140625	0.79833984375	0	0	0	-0.329734778391104	-0.0798858264288146	-0.878132640402194	-0.337307421376146	-0.554997358807889	0.645083583668772	0.525209578927613	-0.539719042572391	-0.75968391644072	0.362744679059569	0.632993907396437	-0.0821432722889838	0.769786461310309	25.2311106878247	-31.6823530747704	130.707041273782
6485	1652421584946	5.28825101983541	3.56134133373549	7.73531802154347	0.0391159484484729	0.0700424289815012	0.211157127563682	0.0317689300395759	0.00459415616036889	-0.0275254594544284	0.08349609375	0.001708984375	0.795166015625	0	0	0	-0.329729537503095	-0.0799230038346347	-0.878090032154712	-0.337414642519528	-0.554859582222829	0.645266818779391	0.525130056841002	-0.539854918418382	-0.759527344942937	0.362870334063583	0.632998823912802	-0.0821519620353611	0.769781491112089	25.2389060538423	-31.6769990282493	130.69196388411
6486	1652421584947	5.26702714911796	3.5767069638524	7.70806327933025	0.0274138079089866	0.0510836044008573	0.184576443094157	0.046632720856942	0.00121141332337921	-0.030300083049742	0.083984375	0.00048828125	0.79443359375	0	0	0	-0.329769706737153	-0.0801717702476098	-0.878030139142859	-0.337472224828398	-0.554728875975727	0.645498011372162	0.524983991635261	-0.539745126719551	-0.759369969449472	0.363362694398867	0.633206974330829	-0.0817897720555144	0.769648855547713	25.2726942283791	-31.6671655846235	130.67514493493
6487	1652421584948	5.28624814467176	3.55124202441426	7.77003241062547	0.0709621557095557	0.0815773585177325	0.233080431142934	0.0376831965288651	-0.00269856136945892	-0.0308615895238288	0.090576171875	-0.001708984375	0.794189453125	0	0	0	-0.329761255186141	-0.0803300727723607	-0.877985594339372	-0.337558720993828	-0.554623248918145	0.645722879805623	0.524819030004643	-0.539763897299192	-0.759202378578797	0.363684868440638	0.63328349649416	-0.0815702816951735	0.769609187972897	25.2934442710202	-31.6560612420183	130.659887505758
6488	1652421584949	5.29696575988686	3.57499061941597	7.69823562804828	0.00981436272964832	0.0807009677323743	0.192042697470173	0.0560184069864727	-0.00484230055145175	-0.0313773919678419	0.086669921875	0.005615234375	0.797119140625	0	0	0	-0.329842949958282	-0.0806114216468362	-0.877910173885481	-0.337607988133068	-0.55444894942312	0.645957193366706	0.524714843340082	-0.539600756901412	-0.759045290097636	0.364254403860844	0.633575082871021	-0.0811760550803245	0.769410854125788	25.3338056848054	-31.6490486316319	130.640712606806
6489	1652421584950	5.28838374460924	3.62196240150362	7.76500695473274	0.0355648295972648	0.0370439620765153	0.255992151316784	0.0506851742009293	-0.0138148834343039	-0.028613679187221	0.09033203125	0.002197265625	0.790283203125	0	0	0	-0.329987932949933	-0.0807759485213992	-0.877816513020336	-0.337670519466413	-0.554173168781426	0.646135692464838	0.524786400286572	-0.539515339326251	-0.758907732847502	0.364667316407633	0.633889026277024	-0.0810414705397743	0.769166420495797	25.3659655541508	-31.6538649395468	130.61880190784
6490	1652421584951	5.2958109964139	3.65662981482062	7.74597663761033	0.00454910203546294	0.0210156658316469	0.257875913628714	0.0499983863311749	-0.00865819041036549	-0.0261020480420678	0.0869140625	0.010009765625	0.7900390625	0	0	0	-0.330078530405884	-0.081015336721027	-0.877745925419092	-0.337708112711633	-0.554002788747678	0.646326686397643	0.524731097334661	-0.539360993256786	-0.758779491649451	0.365162158506675	0.634169243193683	-0.0807186316933263	0.768969357962141	25.4017426470534	-31.6501426229082	130.60172830974
6491	1652421584952	5.28790060625597	3.65166042279419	7.72279529525513	0.00156833549403295	0.0244665580067967	0.234077324768235	0.0419795870544841	-0.0134168981531771	-0.0234592854050236	0.08642578125	0.006103515625	0.797607421875	0	0	0	-0.330235585701547	-0.0812049647728452	-0.877665329230781	-0.337718494457769	-0.553781352875068	0.646441165458471	0.524823811205774	-0.539174089043934	-0.758703944394838	0.365594893924078	0.6345214849881	-0.0805117653539459	0.768700423265194	25.4358196360607	-31.6563830684622	130.585396784433
6492	1652421584953	5.27546207002203	3.69597568151742	7.67806151454714	-0.0406519673712288	-0.0105186983398913	0.209368313674691	0.0378219753378302	-0.00949946088711429	-0.0232060282164222	0.091064453125	0.0078125	0.800048828125	0	0	0	-0.330310888529045	-0.0813847704439844	-0.877602926619855	-0.337763732877286	-0.553620755343909	0.646609432634475	0.524785957205947	-0.539080329282136	-0.758584359785163	0.365981102887018	0.634741252664032	-0.0802870519913151	0.768542472117866	25.4638614375732	-31.6538351161995	130.569819103754
6493	1652421584954	5.29188250363016	3.64895597369484	7.66552543156266	-0.0287686844378869	0.0391752758750108	0.191152724325027	0.0338134144033578	-0.0118793900716131	-0.02188341950813	0.08935546875	0.00341796875	0.788818359375	0	0	0	-0.330434012731185	-0.0815213544719639	-0.877516449900375	-0.337835036888813	-0.553361702161402	0.646786461008172	0.524841023965886	-0.539036747882363	-0.758443513230781	0.366337032895333	0.635004103146934	-0.0801917146261014	0.768335263990847	25.4914889533443	-31.6575416822395	130.548823551661
6494	1652421584955	5.33496020905162	3.71022523186392	7.67735482989207	-0.0754697795290405	0.0219988681055498	0.245302900837844	0.0279272036402123	-0.0130498385909425	-0.0203461280457599	0.09033203125	-0.00146484375	0.792724609375	0	0	0	-0.330509634839591	-0.0816471372294173	-0.877456867698869	-0.337885441516102	-0.553193619379338	0.646930133330321	0.524841139838714	-0.53898947128475	-0.758334346787419	0.36663247036601	0.635190655883863	-0.080065105206393	0.768194252520882	25.5135244330022	-31.6575494818425	130.533939653267
6495	1652421584957	5.31093448987896	3.73464318739683	7.70336295254118	-0.0572739206592187	-0.0143760986504328	0.261631384093238	0.0162557955318397	-0.0042952844227764	-0.0192378901678523	0.0830078125	0.015869140625	0.79345703125	0	0	0	-0.330558095558321	-0.0816199409348947	-0.87741959745433	-0.337941386494346	-0.553053929510269	0.646993055072098	0.524910790269855	-0.539072526132012	-0.758267609072127	0.366648393698502	0.635241814290355	-0.0801886508211365	0.76813906140528	25.5160920141536	-31.6622378929041	130.524040287728
6496	1652421584957	5.30246598635252	3.74615184101484	7.64411166466468	-0.0954823795064488	-0.0222522217286188	0.215903265199277	0.00904051971799462	-0.00758856411012671	-0.0186547721827777	0.087890625	0.00927734375	0.807861328125	0	0	0	-0.330578756076252	-0.0816684793394722	-0.87737950395771	-0.338013537522357	-0.5529290689654	0.647128028386077	0.524875946839065	-0.53913657114335	-0.758154215868001	0.366788689325842	0.635296153261491	-0.0801716897584557	0.768095891026912	25.5258664707429	-31.6598924316724	130.511748051369
6497	1652421584959	5.31462531455163	3.70767245831563	7.6863590251619	-0.0533329192082045	0.0142122993974486	0.240627802882205	0.00432876388763343	-0.000337687109847191	-0.0172298798153955	0.0908203125	0.002685546875	0.793701171875	0	0	0	-0.330573562605628	-0.0817867874712193	-0.877333444769275	-0.338109549984378	-0.552806103831168	0.647342731811228	0.524740697047771	-0.539196532977507	-0.757985707208998	0.367048724956118	0.635352272674019	-0.0800315890011685	0.768064082202721	25.5425828550475	-31.6507887471978	130.496068296612
