// Start Time : 21/06/2022 12:18:32																																
// Update Rate : 100Hz																																
// Filter Profile : 46.1 human																																
// Firmware Version : 4.4.0																																
PacketCounter	Time_Of_Arrival	Acc_X	Acc_Y	Acc_Z	FreeAcc_X	FreeAcc_Y	FreeAcc_Z	Gyr_X	Gyr_Y	Gyr_Z	Mag_X	Mag_Y	Mag_Z	VelInc_X	VelInc_Y	VelInc_Z	OriInc_q0	OriInc_q1	OriInc_q2	OriInc_q3	Mat[1][1]	Mat[2][1]	Mat[3][1]	Mat[1][2]	Mat[2][2]	Mat[3][2]	Mat[1][3]	Mat[2][3]	Mat[3][3]	Euler_X	Euler_Y	Euler_Z
46098	1655813946771	9.65476480026784	1.10127920684658	-0.127517287013876	-6.93889390390723E-16	-1.38777878078145E-15	-0.0944797263999604	0.0191249763809357	-0.0070927932954153	0.0150933610105852	0.553466796875	0.440673828125	0.120361328125	0	0	0	-0.55887404952222	-0.440678455419475	-0.597381862911203	0.369590591823549	-0.102125182412307	0.0509940733189467	0.993463663957366	0.93414093835097	-0.338410586729249	0.113397451851153	0.341981219387882	0.939615814722117	-0.0130754086005186	96.577500472558	-83.4454684536435	153.465709809602
46099	1655813946772	9.63108632635011	1.14875973951119	-0.131908661670048	8.67361737988402E-17	-1.38777878078145E-15	-0.112436206658963	0.0253202949119418	0.00720329999975957	0.0144392058265301	0.5576171875	0.439453125	0.127197265625	0	0	0	-0.56257013050433	-0.436261925875797	-0.602051001998319	0.361559084090419	-0.105579753952078	0.0555018394315723	0.992860746215264	0.926209874864497	-0.357901121485676	0.118499176970934	0.361922896842563	0.932108541458025	-0.0136192394090356	96.5562995736073	-83.149492320338	152.26970623155
46100	1655813946772	9.61296436998693	1.19039459074529	-0.0941971911710012	0.0753852075163112	0.00848586119443842	-0.12613785837803	0.0209731278131755	0.00619225824540652	0.0130626182490092	0.557373046875	0.444091796875	0.1279296875	0	0	0	-0.560641541250646	-0.438534809320016	-0.599682271602079	0.36571772771487	-0.103863211718345	0.0530927873360562	0.993173494000136	0.930350538220872	-0.347875529299458	0.115890000201726	0.351653678046575	0.936036202316721	-0.0132634335224854	96.5290067215044	-83.3013970303697	152.924794379136
46101	1655813946773	9.60376957379452	1.21653702910639	-0.14600058270956	0.0835850874673123	-0.0505021669552075	-0.131564937733373	0.0280896211896968	0.00945726208356848	0.0149862536152784	0.5595703125	0.442138671875	0.126220703125	0	0	0	-0.560594672365776	-0.438559724488902	-0.599619778927334	0.365862135360386	-0.103757022449293	0.052952144680008	0.993192101592761	0.930464835570716	-0.347620531931514	0.115737442282138	0.351382512454472	0.936138897895734	-0.0132020372573471	96.5075363957142	-83.3105431371989	152.962616714643
46102	1655813946774	9.64355956852623	1.21318669459919	-0.107906077242194	0.0908780669676428	-0.0126641068259464	-0.0929503584265987	0.0231882046123106	0.0086448005835116	0.0150406729131576	0.564208984375	0.4453125	0.122314453125	0	0	0	-0.560557758929236	-0.43856971996141	-0.599568639195118	0.365990500602019	-0.103651904746632	0.0528144659029954	0.993210408138062	0.930560171520167	-0.347415108404107	0.11558767076518	0.351161002707806	0.936222929992608	-0.0131368007255941	96.4839732243839	-83.3195534354896	152.999481052819
46103	1655813946774	9.62757218970776	1.21758256794816	-0.0897209039346242	0.104040651063355	0.00070730155013464	-0.108570802115567	0.0128599332648141	0.013321174199085	0.0136738896585594	0.559326171875	0.441650390625	0.12939453125	0	0	0	-0.560524272125535	-0.43854556697616	-0.599552749212633	0.366096745349193	-0.103571426805735	0.052642249142572	0.993227946221126	0.930619489750196	-0.347301917460573	0.115450177242371	0.351027527191971	0.936274624099906	-0.013019347912604	96.4340781885096	-83.3281968654838	153.057135229622
46104	1655813946775	9.6779681616193	1.21459067758831	-0.110329505474738	0.0896788178212685	-0.0159801871892053	-0.0586024188118355	0.00682108061389107	0.00355605645242141	0.0117958962535408	0.55859375	0.439453125	0.12744140625	0	0	0	-0.560525534820693	-0.438527499451774	-0.599527506019053	0.36615778916353	-0.103479196497704	0.0525683900342507	0.993241471275437	0.930655054620897	-0.347244211318899	0.115337014934888	0.350960432528746	0.936300177333488	-0.0129904859228995	96.4261802126281	-83.3348701437501	153.069008744167
46105	1655813946776	9.7321553811573	1.19018278692556	-0.120353654856638	0.0586787823005866	-0.014888972007418	-0.00747428820815976	0.00988251446120424	0.0087600796664665	0.0101740592462059	0.564453125	0.442626953125	0.1162109375	0	0	0	-0.560503488552679	-0.438512570166199	-0.59951175985571	0.366235190719325	-0.103415248798112	0.0524510432862442	0.993254335190242	0.930700258123181	-0.347157021770027	0.115234681260502	0.350859396119684	0.936339089376252	-0.0129148697469785	96.3947111611899	-83.3412233923567	153.106392477447
46106	1655813946776	9.73437724164985	1.15205210199288	-0.139344670019564	0.0167059115771074	-0.0205125617059647	-0.00942049600714156	0.00659193050874156	0.0128130450199625	0.00814820116510863	0.560546875	0.44775390625	0.1259765625	0	0	0	-0.560467834494004	-0.438488584077592	-0.599521052375269	0.36630325672874	-0.103395461215042	0.0523044664116149	0.993264124688658	0.930730522261624	-0.347099371487096	0.115163888627763	0.350784939144676	0.936368660895194	-0.0127928637375386	96.3386565132756	-83.3460622901948	153.166606365473
46107	1655813946777	9.71278848690469	1.16307566347127	-0.162191017722745	0.0213808412001245	-0.0483466149377644	-0.0293077633156962	0.0117886712542621	0.0165796320048704	0.00592349139507723	0.56640625	0.435791015625	0.132080078125	0	0	0	-0.560409527921246	-0.438476953911509	-0.599530815810327	0.366390396704626	-0.103398476435425	0.0521286586090011	0.993273053103958	0.930777992374578	-0.346992076182222	0.115103553280953	0.350658072746063	0.936418230289424	-0.0126417561928593	96.26764149279	-83.3504786156476	153.244902842643
46108	1655813946778	9.67881780229798	1.1585194714758	-0.156465871086779	0.0224024240765525	-0.0449704192927461	-0.0636546715170798	0.0112676852194344	0.0228841492498873	0.00444450965505207	0.555908203125	0.44091796875	0.130615234375	0	0	0	-0.560327134115802	-0.438460494444192	-0.5995645158322	0.366480953038799	-0.103450427666691	0.0519046742089619	0.993279373495111	0.930820574890685	-0.346888211743057	0.115072263877441	0.350529694000029	0.936469152374474	-0.0124282048293469	96.1642494737044	-83.3536066815545	153.3554890406
46109	1655813946780	9.63415453726529	1.15390458191485	-0.0918265847256197	0.0452038379786263	0.0129260559593856	-0.109355416870452	0.0165623951661382	0.0189709802479541	0.0054993802746137	0.5556640625	0.445556640625	0.1171875	0	0	0	-0.560251965097684	-0.438459972169018	-0.599571273783947	0.366585428055757	-0.103465719082721	0.0517079379486888	0.993288041872945	0.930884306148783	-0.346735953485444	0.115015595144477	0.350355895541367	0.936536420922131	-0.0122588231805451	96.0838454327884	-83.3578991897644	153.445990467722
46110	1655813946781	9.60224571811162	1.11234622531438	-0.106308801140136	0.00431684094280883	0.0106836732855511	-0.145650298681629	0.0189122295932573	0.0165982779533657	0.000146417251015656	0.56201171875	0.447265625	0.1259765625	0	0	0	-0.560163936810279	-0.438491556088877	-0.59957931304948	0.366669014915465	-0.103540394796263	0.0515600004745329	0.993287950695315	0.93094862479271	-0.346557977479355	0.115031414152745	0.350162883015884	0.936610449758321	-0.0121169617280708	96.0131399837416	-83.3578540249935	153.528077103112
46111	1655813946782	9.61805917282431	1.15916456922302	-0.0716468150089025	0.0581922804511743	0.0263756069574704	-0.124974740488321	0.0188278917371583	0.0159600524794602	0.0052666447624303	0.560791015625	0.444580078125	0.1259765625	0	0	0	-0.56009311458272	-0.438503985537216	-0.599573074613236	0.36677252604828	-0.103547234266382	0.05139226378009	0.993295930475576	0.931019988285811	-0.346384337608282	0.114976832761906	0.349971072644684	0.936683898592919	-0.0119800846699902	95.9485052770773	-83.3618079613837	153.604008751292
46112	1655813946783	9.60784580332882	1.10562442374773	-0.062183605247811	0.0125794400493406	0.0519329086939226	-0.141383534062731	0.0204081139567638	0.0147230939682878	0.00609550838414267	0.5595703125	0.442626953125	0.12255859375	0	0	0	-0.560018761427332	-0.438526718534597	-0.599563905706679	0.366873857005958	-0.103565119789939	0.0512377343167429	0.993302048998683	0.931095024749406	-0.3461957803537	0.114937098241585	0.349766094482868	0.936762070243763	-0.0118533920386488	95.8880627756141	-83.3648412440503	153.676588842431
46113	1655813946784	9.62032504157098	1.12076168050172	-0.0892753417680541	0.0161035125429144	0.0207791877870851	-0.126922572966224	0.0226732960817212	0.0117103775644131	0.00586464203361522	0.56103515625	0.439697265625	0.125	0	0	0	-0.559954918749604	-0.43855678261868	-0.599536218659424	0.36698059880985	-0.103551458130577	0.0511077340930027	0.993310170608814	0.931180376220318	-0.345986377032632	0.114876167458791	0.349542847818716	0.936846533015794	-0.0117631252254456	95.8466130092584	-83.368869698887	153.731396324742
46114	1655813946785	9.59665022048691	1.16899067791251	-0.0926139576037113	0.0623946065486562	-0.00144584484438811	-0.14485840879151	0.0228834483226722	0.0140258165672407	0.00881323897434375	0.569091796875	0.444091796875	0.1162109375	0	0	0	-0.559881925327541	-0.438578719167557	-0.599517016151002	0.367097104497258	-0.10354389112251	0.0509426739387005	0.993319438339543	0.931266516842174	-0.34577684592615	0.114808742829143	0.349315526737439	0.936932877421504	-0.0116381264302579	95.7882828874898	-83.373469627188	153.803224028971
46115	1655813946786	9.61674819580102	1.14070512788541	-0.0980969814491007	0.0325427180832343	0.00296564738079888	-0.128080549944279	0.0230139907549786	0.0124513163608463	0.00918344579606207	0.556884765625	0.4462890625	0.12060546875	0	0	0	-0.559822492475823	-0.43859913899727	-0.599484543452459	0.367216359045464	-0.103501845135099	0.0507942636811149	0.993331420438679	0.931356389083692	-0.345565881840492	0.114714854403383	0.349088304826467	0.937018763998297	-0.0115408556219795	95.7448958432842	-83.3794215160752	153.860177257921
46116	1655813946787	9.60972714616231	1.13006475322838	-0.169422364700992	-0.0014687539239353	-0.0616941207254737	-0.135456472396985	0.0192211259484074	0.0112377765671212	0.00637497821521564	0.55859375	0.447509765625	0.12744140625	0	0	0	-0.559756099699204	-0.438623917048495	-0.599472928700559	0.367306923427458	-0.103517465703582	0.0506637118456051	0.993336459914934	0.931425940321805	-0.345389366790581	0.11468174660181	0.348898053863801	0.937090910002881	-0.0114356635148598	95.6945107171925	-83.3819263757964	153.92186308031
46117	1655813946788	9.6817489500148	1.11582108289632	-0.165204444719725	-0.0204647074565741	-0.0505505274619851	-0.0656038227543441	0.0175927759374804	0.0179438148413046	0.00774986479149398	0.561767578125	0.4462890625	0.12939453125	0	0	0	-0.559686997263063	-0.438622001494497	-0.599470327949552	0.367418740414359	-0.103507868573964	0.0504687962779252	0.993347382211043	0.931495327521954	-0.345228417994574	0.114602767042211	0.348715608982509	0.937160733284969	-0.011277590200765	95.6201489195039	-83.3873585194341	154.006870852165
46118	1655813946790	9.67808631061265	1.1366372816678	-0.174503130991171	-0.00409020265290851	-0.0682260409229605	-0.0667611087892634	0.0195986870150075	0.0180825272723397	0.0067784774143916	0.549560546875	0.4443359375	0.126953125	0	0	0	-0.559604041637962	-0.438637743254278	-0.599472086625125	0.36752341984229	-0.103539704899773	0.0502868451271783	0.993353291994557	0.931566970633015	-0.345046932120445	0.114566984161654	0.348514718103691	0.937237348723057	-0.0111195064494941	95.5435824203688	-83.3902995706239	154.095224189391
46119	1655813946791	9.67231219660568	1.19479286350184	-0.16389838289789	0.0544606183273854	-0.0803684958717805	-0.0659653191495639	0.0145654633174808	0.0188459046044762	0.00645817512744546	0.56298828125	0.440673828125	0.124267578125	0	0	0	-0.559534945068028	-0.438628694393132	-0.599481005340722	0.36762486033778	-0.103545214618693	0.0500879231179732	0.993362767818131	0.931624406572114	-0.344913661033209	0.114501229302684	0.348359517752459	0.937297053441649	-0.0109489725946087	95.4621971047264	-83.3950180114538	154.185554548529
46120	1655813946792	9.62591383116395	1.174404628952	-0.129993930183191	0.0517315114262152	-0.045593283986884	-0.114770759892711	0.00671258147567671	0.0228249954211583	0.00779441085027053	0.5615234375	0.447998046875	0.129150390625	0	0	0	-0.559465854644959	-0.43860123374054	-0.599519409160308	0.36770014045107	-0.103589128397297	0.0498780862631947	0.993368747741044	0.931651570068745	-0.344851128947079	0.114468558357163	0.348273806747407	0.937331251679281	-0.0107461695046777	95.3631396656644	-83.3979974132156	154.289220373189
46121	1655813946793	9.62602662182507	1.1736839789695	-0.128136496653446	0.0517314732364494	-0.0455933136888478	-0.114770759828627	0.00130171603447117	0.0167446676912694	0.00707106458548723	0.552978515625	0.4453125	0.12744140625	0	0	0	-0.559428771036086	-0.438554567885881	-0.599550394407855	0.367761696875665	-0.103581568896372	0.0496967450695063	0.993378624752145	0.931663426709134	-0.344842450595121	0.114398180056095	0.348244336519003	0.93734407652529	-0.0105813177530343	95.2845658905467	-83.402921410968	154.369068909611
46122	1655813946794	9.63153695651111	1.16715122062915	-0.0851689253221745	0.0597118226327568	-0.00396982141476696	-0.110501091867563	-0.00334495546666342	0.0127795193042807	0.00786523023074373	0.555419921875	0.447021484375	0.12548828125	0	0	0	-0.55940607123742	-0.438521606026256	-0.599584157033717	0.367780487716565	-0.10360472063536	0.0495925901577713	0.99338141560204	0.931654004961715	-0.344872627806238	0.114383939558037	0.348262655047689	0.93733849040326	-0.0104727029782646	95.2312710666396	-83.4043133997333	154.420906803826
46123	1655813946796	9.61213547228224	1.1408261515249	-0.128008161770436	0.0225283194773633	-0.0374462908681872	-0.132340838529924	-0.00479432517308592	0.0124417406090282	0.00740521608199031	0.555419921875	0.44189453125	0.117431640625	0	0	0	-0.55939381343989	-0.438463641329299	-0.599615862169052	0.367816550134295	-0.103579093864967	0.0494504210982307	0.993391175301714	0.931644972413516	-0.344921241359116	0.114310903399044	0.34829443964946	0.937328113902754	-0.0103436065651411	95.1704202484968	-83.409183534583	154.479396966921
46124	1655813946798	9.6138890607085	1.15570992307259	-0.0963697008645692	0.0471201433195066	-0.0135440135912844	-0.129226640037091	-0.00974013521160746	0.00552572369122613	0.0103721635963054	0.557373046875	0.43505859375	0.13427734375	0	0	0	-0.559409011798318	-0.438421138299592	-0.599639601375105	0.367805398918538	-0.10356149209041	0.0494121058730881	0.993394917013972	0.931614837037584	-0.345012188036931	0.114282043722563	0.348380270347568	0.937296662694985	-0.0103030739781594	95.1515621516844	-83.4110516165048	154.492875531949
46125	1655813946798	9.6140001989959	1.15483618542105	-0.0957545616652317	0.0471200442720271	-0.0135433054334631	-0.129226638564662	-0.0120829400560563	0.00464880636837595	0.00802230581179339	0.560302734375	0.44091796875	0.12060546875	0	0	0	-0.559434878728605	-0.438353958873282	-0.599664314642165	0.367805835933546	-0.103502967030272	0.049340918592001	0.993404554835757	0.931581056697914	-0.345129347586692	0.114203626194539	0.348487977723089	0.937257279079166	-0.0102431535959373	95.1252597431055	-83.4158658117384	154.512386788976
46126	1655813946799	9.65029163796364	1.12068762209411	-0.11912493876288	0.0034400920276856	-0.0220464666411957	-0.0968362805105087	-0.0186074894640637	-0.00102841990067112	0.0101563355548113	0.55126953125	0.438232421875	0.13525390625	0	0	0	-0.55948309119113	-0.438297542709432	-0.599692521110059	0.367753742130181	-0.103471711640931	0.0493617905816851	0.993406773945429	0.931518465644513	-0.345304898408244	0.114183515879327	0.348664527954004	0.937191517655726	-0.0102521305478184	95.1306261329697	-83.4169747772328	154.496248818284
46127	1655813946800	9.64666124048283	1.14127501803233	-0.129679733059461	0.0201295149994647	-0.0398296398998757	-0.0979868058662774	-0.015964909387743	0.00280036638089874	0.0103330592992156	0.566162109375	0.44091796875	0.122314453125	0	0	0	-0.55952673209947	-0.438215574767364	-0.599716311602284	0.367746232741477	-0.103385088741077	0.0492998283986411	0.993418869533826	0.931473485620056	-0.34545963667152	0.114082360676856	0.348810362536469	0.937137752067777	-0.0102061078052074	95.1122213413796	-83.4230226318943	154.505566759643
46128	1655813946801	9.70247302126179	1.13250029816144	-0.108908963912974	0.0135993720607785	-0.0147840682329453	-0.0437571649991373	-0.0178417349228904	0.00108835150480957	0.011673675463157	0.56298828125	0.44677734375	0.128662109375	0	0	0	-0.559570803642893	-0.438156020431382	-0.599745087074959	0.367703206403795	-0.10334973542163	0.0493022498627492	0.993422427946315	0.931415016032291	-0.345627307520206	0.114051883833193	0.348976933475332	0.937075798670953	-0.0102003650596368	95.1107181292508	-83.4248029102561	154.496859055305
46129	1655813946802	9.68098065207174	1.14329168965816	-0.132892370639142	0.0182849083963536	-0.0426244134107738	-0.0636355399597228	-0.0196282935016732	1.20533426131683E-05	0.00789355012575852	0.562744140625	0.4375	0.120849609375	0	0	0	-0.559624200765199	-0.438074944512538	-0.599773596577569	0.367672041032027	-0.103276048322511	0.049274716574588	0.993431457197415	0.931354646217764	-0.34581522646736	0.113975225869093	0.349159821301748	0.937007914294123	-0.0101778061835028	95.1028867767207	-83.429322411534	154.493416029199
46130	1655813946803	9.6490891118137	1.1013229293044	-0.148373812424412	-0.0231406499671291	-0.0442783230044277	-0.0999456529275502	-0.0206968388362445	0.00651946970885899	0.00783827541388363	0.5556640625	0.444580078125	0.12744140625	0	0	0	-0.559649883786392	-0.43801400877216	-0.599828174057778	0.367616508475521	-0.103300220548291	0.0492555001475675	0.993429896942853	0.931282456277037	-0.346003661631219	0.113993213694496	0.349345174670102	0.936939358679633	-0.0101285286055594	95.0775126309926	-83.4285412205541	154.507310343162
46131	1655813946804	9.64917352100322	1.10073777232509	-0.147222531933131	-0.0231371591097324	-0.0442789542453963	-0.0999456474889086	-0.0206528967301732	0.0126253166214312	0.00492420694385889	0.5576171875	0.446044921875	0.1337890625	0	0	0	-0.559660865558421	-0.437914981589802	-0.599899599801192	0.367601216836903	-0.103298121884853	0.0491201095413185	0.993436818752814	0.931215401008876	-0.346199628558463	0.113946014014797	0.349524498338729	0.936874074795878	-0.00997963107679573	95.0053127480275	-83.432007549575	154.568074245778
46132	1655813946805	9.66209182398363	1.05127047978321	-0.082521242812595	-0.0487202391601109	0.0331487939354488	-0.0934011202665132	-0.0144263849808704	0.0153501230664756	0.00496530261403899	0.56298828125	0.440673828125	0.12353515625	0	0	0	-0.559642686356817	-0.43786348591467	-0.599969933645051	0.367575448080979	-0.103376707150787	0.0490257606403029	0.993433304863644	0.931162629419082	-0.346327715341442	0.113988030773932	0.349641836730106	0.93683167558533	-0.00984873738004161	94.9381777373793	-83.4302476238937	154.62764405931
46133	1655813946805	9.69087187365318	1.06061106902687	-0.126561501237259	-0.0583751686944535	-0.0113666873077033	-0.0633092100745642	-0.0104589623316768	0.00951750583589104	0.00593978146680083	0.56396484375	0.443359375	0.12646484375	0	0	0	-0.559646369264882	-0.437797904418103	-0.600008589207536	0.367584859771094	-0.103354624471401	0.0489158691081231	0.993441019562697	0.931132161609339	-0.346428731508365	0.113929941640577	0.349729494348268	0.93680007031111	-0.00974212748849529	94.8874620150291	-83.4341121347365	154.67265524329
46134	1655813946806	9.66935461658674	1.0718211488159	-0.14984633234551	-0.0540553508922614	-0.0384666801524928	-0.0831821615002983	-0.00342070017852358	0.00888710836766048	0.0052942116776685	0.55810546875	0.4443359375	0.125732421875	0	0	0	-0.559639927817052	-0.437786873419724	-0.600024585122918	0.367581694188349	-0.103373698581095	0.0488899213714476	0.993440312263378	0.931122135588022	-0.34645270311801	0.113938988586983	0.349750549763207	0.936792559796734	-0.00970839069138624	94.8702335161231	-83.4337577342248	154.688495028261
46135	1655813946807	9.67816048876418	1.10892552402688	-0.187658098409495	-0.0338478028901935	-0.0873975216559193	-0.0698470323631444	0.00332557489848387	0.0136239959545084	-0.00158313730139018	0.559814453125	0.440673828125	0.11962890625	0	0	0	-0.559589568906664	-0.437776160309396	-0.600058262738684	0.367616143762279	-0.10343577043241	0.0487677364889241	0.993439856897639	0.931132154811674	-0.346420808620227	0.113954085625207	0.349705521361649	0.936810723269464	-0.00957690432876812	94.8039504540039	-83.4335295780269	154.757132701524
46136	1655813946808	9.64363433595939	1.15790051600239	-0.13157686425731	0.0341703160905856	-0.0541249548505762	-0.0991075976228082	0.00114550519167945	0.0205337477016107	0.00122207985264376	0.56005859375	0.444091796875	0.124267578125	0	0	0	-0.559539541038133	-0.437770375634185	-0.600095710332733	0.367638053895666	-0.103515526685286	0.0486636319291603	0.993436654579713	0.931135708320613	-0.346398719089824	0.113992193167781	0.349672458774407	0.936824304947514	-0.00945479953612083	94.7414033326935	-83.4319253132886	154.821337207193
46137	1655813946809	9.66313843396208	1.18335911889706	-0.08555248037125	0.0713483399033103	-0.0206358971499128	-0.0772682264697906	-0.00452378075796863	0.017610237171054	-0.000251606803544329	0.55712890625	0.4404296875	0.12939453125	0	0	0	-0.559494589617771	-0.437725190848804	-0.600155144221744	0.367663248569937	-0.103579079678887	0.0484997720975724	0.99343804354341	0.931119731979674	-0.346440785894758	0.113994853334361	0.349696180949943	0.936817246839055	-0.00927507703035763	94.6515671402381	-83.4326210943125	154.909170324539
46138	1655813946810	9.64742975759426	1.13611582545714	-0.117211897907462	0.017118133710384	-0.0354904980616001	-0.0979642116997752	-0.0124195396567279	0.0154898434994513	0.00399163985457113	0.56201171875	0.44873046875	0.12109375	0	0	0	-0.559484331143198	-0.437681517318884	-0.600209751371717	0.367641710039801	-0.103633712488519	0.048427623188069	0.99343586554352	0.931076180695516	-0.346548924872901	0.114021876896008	0.349795939623803	0.936780981863846	-0.00917565479462534	94.6008349743302	-83.4315300898451	154.953502114723
46139	1655813946810	9.65331499705043	1.07701686574092	-0.124281994719039	-0.0414291268431099	-0.0233461013942664	-0.0987983430596202	-0.00815237546121573	0.0241848538185754	0.00209222136868135	0.5595703125	0.44189453125	0.115478515625	0	0	0	-0.559431423889855	-0.437606814249952	-0.600291206113504	0.367678155387795	-0.103698512030396	0.0481940796808519	0.993440460866376	0.931049933118164	-0.346626100345272	0.114001616655605	0.349846595872168	0.936764472662763	-0.00892648382684536	94.477203406685	-83.4338321918969	155.073261694949
46140	1655813946812	9.60515048288434	1.04151453658139	-0.12038072667188	-0.0692803737325572	-0.0110978596018399	-0.150739518289033	-0.00230770974325532	0.0316405140161262	0.00102549443318505	0.563232421875	0.440673828125	0.12841796875	0	0	0	-0.559353121426276	-0.437587545062045	-0.600361975801897	0.367704669495094	-0.10383472316437	0.0480201146761162	0.993434657565293	0.931043722234749	-0.346620832876152	0.114068336989306	0.349822723036458	0.936775355569699	-0.00871754808549224	94.3702722331869	-83.4309250667439	155.18102456006
46141	1655813946813	9.60148541954892	1.06296523169934	-0.128438341861804	-0.0525869427653341	-0.0288705876027015	-0.15187402365096	0.000208864870937961	0.025469760315466	0.00154036770182348	0.56494140625	0.439697265625	0.125732421875	0	0	0	-0.559279833988724	-0.437537472207549	-0.600429413674808	0.367765614083073	-0.10390904078329	0.0477771855728579	0.993438599905517	0.931046353707478	-0.346618827024657	0.114052952614388	0.349793651302458	0.936788518978957	-0.0084659445844536	94.2451768785369	-83.4328998163494	155.30711547151
46142	1655813946813	9.6177784899329	1.05706139561116	-0.143009881208004	-0.0656865483543701	-0.0412955285261564	-0.136248298620583	0.00673890130534192	0.0311482359054601	-0.000583241829831109	0.5537109375	0.438720703125	0.116943359375	0	0	0	-0.559192970330038	-0.437529344766154	-0.600479566255896	0.367825481595688	-0.104015274044739	0.0475832965197918	0.993436788455968	0.931070039105572	-0.3465449751148	0.114084015105674	0.349699020652542	0.936825709571952	-0.00825741119606122	94.1398543109675	-83.4319923734423	155.417586742884
46143	1655813946814	9.63350365043633	1.10429442685866	-0.106816100706598	-0.0118157602943963	-0.0255757328294741	-0.115549944100941	0.00307735604534486	0.0283615224797613	-0.00302841609404095	0.555419921875	0.4365234375	0.127685546875	0	0	0	-0.559095859092171	-0.43749517051398	-0.600557096426456	0.367887170277458	-0.104141700582465	0.0473289748256276	0.993435692101782	0.931077978003129	-0.346514011444377	0.114113271578421	0.349640250940014	0.936850045639472	-0.00798040775413722	94.0004149472991	-83.4314432171049	155.559766817063
46144	1655813946815	9.64975411409563	1.09878374406723	-0.121523127353994	-0.0247715247430753	-0.0380611373884398	-0.0999233224432281	0.00734572946904663	0.025480455453142	-0.00422029081252897	0.55908203125	0.439697265625	0.11767578125	0	0	0	-0.559022687454278	-0.437501599056068	-0.600596242125962	0.367926812938325	-0.104246990464888	0.0471957168834553	0.993430988688631	0.931097561796014	-0.34644442228886	0.114164761123809	0.349556712704151	0.936882504144887	-0.00782802853043957	93.9225069719764	-83.4290878280232	155.642321294696
46145	1655813946815	9.66542781228583	1.14617197626232	-0.0858967403774981	0.0291016970355974	-0.0223368876184939	-0.0792276981807518	0.0104983875277452	0.023000854510674	-0.00255374532045967	0.5576171875	0.438232421875	0.134765625	0	0	0	-0.558929110329646	-0.437498354955021	-0.600641501532831	0.367998947925327	-0.104350047903926	0.046990251322647	0.993429908842634	0.931132013900128	-0.346343927475006	0.114188688544358	0.349434171472598	0.936929986808952	-0.00761312192447849	93.8143459307575	-83.4285471782071	155.757311715955
46146	1655813946816	9.68170890103772	1.14036183383831	-0.101244674623647	0.0161017893733493	-0.0348154616447917	-0.0636006753749374	0.00485886709736454	0.0178611701648679	0.00145804608059521	0.5595703125	0.439697265625	0.13037109375	0	0	0	-0.558893568007637	-0.437497342208816	-0.60065493189949	0.36803221052611	-0.104380543309918	0.0469081764611282	0.993430583966197	0.931149625862645	-0.346296735150975	0.114188202015938	0.349378128156563	0.936951543146639	-0.00753188960016915	93.7737809706516	-83.4288851892088	155.801050234869
46147	1655813946816	9.6780548096343	1.16168465769269	-0.110621266294329	0.0328038295262262	-0.0525871822480088	-0.0647310853450751	0.003232761814289	0.0129932209099319	0.00353772872507975	0.55126953125	0.442138671875	0.126953125	0	0	0	-0.558856801617003	-0.437473599241612	-0.600676847451652	0.368080494170159	-0.10439165019573	0.0467753312349374	0.993435680734931	0.931165054621247	-0.346267199556082	0.114151949452475	0.349333686353928	0.93696910029064	-0.00740814949399388	93.7131325072245	-83.4314375237659	155.864022159282
46148	1655813946816	9.69130056522246	1.1240993534025	-0.187889298751267	-0.0308284540560032	-0.112010031340091	-0.0552947015929082	0.0107820734021809	0.0176329794969456	0.00367999494872624	0.5517578125	0.4404296875	0.125244140625	0	0	0	-0.55880548767288	-0.437486654953123	-0.600683350233564	0.368132267584335	-0.104430121019781	0.04667803949964	0.993436213580049	0.931201734786187	-0.346168120602287	0.114153236528259	0.349224396276935	0.937010561790608	-0.00731629263079597	93.6671769534578	-83.4317044163132	155.916373970905
46149	1655813946817	9.64622954462347	1.11981547494632	-0.123511952231437	-0.00798612095235925	-0.054155065446259	-0.101045410619603	0.000465628233131966	0.0223234997315715	0.00227372400219798	0.5634765625	0.442626953125	0.132080078125	0	0	0	-0.558742914151895	-0.437440915421844	-0.60073986746391	0.368189371165697	-0.104485885691314	0.0464619556327449	0.993440479530648	0.93120609177555	-0.346164064951016	0.114129990697869	0.349196097245386	0.937022799517371	-0.00709639720010502	93.5579678743944	-83.4338415437074	156.02662096208
46150	1655813946818	9.6048218816365	1.09400769915886	-0.0477779493566724	-0.00186149227291909	0.0225007605118475	-0.145669796577629	0.00588168382355528	0.0284057744496403	0.00301070556942892	0.5556640625	0.440673828125	0.13037109375	0	0	0	-0.558673274135139	-0.437428787952308	-0.600779102341532	0.368245432323881	-0.104558948679444	0.046291225786742	0.993440762535045	0.931227866878384	-0.346102714086346	0.11413838640528	0.349116150013409	0.937053911852049	-0.00691954352460272	93.4692623440165	-83.4339833458531	156.119662859135
46151	1655813946819	9.60485211150511	1.09384355546714	-0.04539731816352	-0.00185300067064992	0.0225091700130235	-0.145669814523648	-0.000423235269186321	0.0217873813699542	0.000380549396370906	0.556396484375	0.43798828125	0.121826171875	0	0	0	-0.558609736693124	-0.43738659219238	-0.600839644262989	0.368293161657804	-0.104630618295475	0.0460865537254442	0.993442732763605	0.931227082665308	-0.346106232092872	0.114134116797453	0.349096769142549	0.937062701035628	-0.00670373791604889	93.3614410690539	-83.4349706328276	156.227991681711
46152	1655813946820	9.60332596547886	1.07831161464565	-0.0742187697484542	-0.0269459676417534	3.05307890566438E-06	-0.148764368225461	5.79977400449934E-05	0.0176921240899921	-0.00362495501704769	0.564453125	0.448486328125	0.13330078125	0	0	0	-0.558570473368626	-0.437389039816642	-0.600873958542665	0.368293823019466	-0.104717372412913	0.0460288713442244	0.993436266157881	0.931221540722296	-0.346100975547966	0.114195257430155	0.349085539674345	0.937067477681049	-0.00662029174194839	93.3179195926851	-83.4317307521901	156.271949582486
46153	1655813946821	9.63004736508003	1.12564675058661	-0.0975388378446982	0.00526644639450022	-0.0388306225246035	-0.116663916610431	0.00133219778150364	0.0250806111204237	-0.00132850014793899	0.558837890625	0.4423828125	0.118896484375	0	0	0	-0.558490083295812	-0.43735086104941	-0.600942940485832	0.368348521755984	-0.104816386760837	0.0457993500586599	0.993436432088439	0.931225125209261	-0.346087181719043	0.114207831731309	0.349046259463412	0.937083818120863	-0.00637389760084711	93.1943429012115	-83.4318138663619	156.397155688674
46154	1655813946822	9.64786163008044	1.13554590546499	-0.0818551720655975	0.0172361938861668	-0.0275196720431144	-0.0979385708986857	0.00171174302374013	0.0203481110257658	-0.000213694615352422	0.56005859375	0.440673828125	0.123046875	0	0	0	-0.55844100489629	-0.437366706024387	-0.600963748092405	0.368370169789206	-0.104894124119788	0.0457327697969653	0.993431294298625	0.931241241484791	-0.346027564941698	0.114257054304688	0.348979903265228	0.937109085468291	-0.00629198297640154	93.1520181989105	-83.4292408467599	156.443288647019
46155	1655813946823	9.69978223633837	1.14927369420281	-0.0702413351599709	0.0280722216144807	-0.0206970453748297	-0.0448665885375785	-0.00494848329912787	0.0162465239697982	0.00153084957715334	0.556884765625	0.445068359375	0.134033203125	0	0	0	-0.558404969824328	-0.437318139905756	-0.601016399799215	0.368396554486128	-0.104935736636482	0.0455765036840334	0.99343408109874	0.931225987186787	-0.346073646304237	0.114241814243669	0.349008097276487	0.93709968180852	-0.00612653163027788	93.0697033252458	-83.430636359586	156.523355537131
46156	1655813946824	9.65836511553181	1.18823670882841	-0.0866769967958641	0.0625270319719665	-0.0520959171109198	-0.0814586479294341	-0.0117351541944256	0.0137227467136124	0.00290301816779237	0.563232421875	0.439453125	0.11669921875	0	0	0	-0.558404644317366	-0.43728044146064	-0.601056741871795	0.36837597881953	-0.104966782867099	0.0455291275353386	0.993432973602347	0.931188589987738	-0.346169907489483	0.114255000001622	0.349098531035551	0.937066429712746	-0.00605986255843155	93.0360118265972	-83.4300817364218	156.551309725642
46157	1655813946824	9.67620914050778	1.19777893723037	-0.0715187844473459	0.0745335941638256	-0.0420020503821637	-0.0627390060629196	-0.00908995631470702	0.0175536497746494	0.00308733887201325	0.561767578125	0.4453125	0.127197265625	0	0	0	-0.558375639303609	-0.437212691262834	-0.601119298721056	0.368398285468461	-0.104998697392369	0.0453551939693913	0.993437557134773	0.931160470012753	-0.346255531725217	0.11422471639411	0.349163933749655	0.937043229061331	-0.005876583938008	92.9451319381646	-83.4323774266783	156.637606878291
46158	1655813946825	9.66434594463536	1.12863697999931	-0.092598166304955	0.00404585525637206	-0.0384116399220584	-0.0822975237297587	-0.014609784375741	0.0108341380639394	0.00746537162069666	0.5654296875	0.440185546875	0.127685546875	0	0	0	-0.558409149500188	-0.437185033585178	-0.601124041360955	0.368372576424299	-0.104961733386002	0.0453810218235771	0.993440283752805	0.931131469290465	-0.346341782695301	0.114199634221923	0.349252374969142	0.937010102623066	-0.00590306367279336	92.959027712331	-83.4337434490716	156.618382571394
46159	1655813946826	9.66294707645748	1.11232899769874	-0.122212425696451	-0.0211124243827184	-0.061818652893636	-0.0853809265860708	-0.0153722426093983	0.00871870928596618	0.00594433582419386	0.557373046875	0.447265625	0.13037109375	0	0	0	-0.558424775944612	-0.43710702521262	-0.601169853239766	0.368366700010549	-0.104935487869096	0.0452808752688293	0.993447626058145	0.931084695203863	-0.346486845666226	0.114140948556589	0.349384936342143	0.936961316231977	-0.00580156375803242	92.9097296776898	-83.4374233159625	156.659244262852
46160	1655813946827	9.67037824518979	1.06846641671777	-0.0991843753594257	-0.0546617024573541	-0.0251808443816705	-0.0831420932655238	-0.0112009680601141	0.0167815205693825	0.00917164330544194	0.5576171875	0.443359375	0.126708984375	0	0	0	-0.558426418010637	-0.437057724289169	-0.601202142690272	0.36837001090155	-0.104926941472402	0.0451994791636615	0.993452235407712	0.931058838591063	-0.346568161415131	0.114104989263381	0.349456400763682	0.936935172024548	-0.00571903738603607	92.8693112780847	-83.4397345114054	156.695025957131
46161	1655813946828	9.65930971901706	1.06760989043279	-0.0387912991966446	-0.0329935181346176	0.0293985171232386	-0.094580200438811	-0.0119633613634335	0.0146664074332828	0.00765020426501998	0.555908203125	0.439453125	0.125	0	0	0	-0.558421596334868	-0.436974212515503	-0.601253990814814	0.36839177090773	-0.10490564774857	0.0450376297369394	0.993461834686231	0.931025719503377	-0.346682081447845	0.114029136742367	0.349551018727843	0.936900819890061	-0.00556228331345204	92.7926454206536	-83.4445503344143	156.765398166823
46162	1655813946830	9.64525913079062	1.03555992063146	-0.0399680196618775	-0.0617609686297977	0.0380876938282322	-0.112185304032087	-0.00649807613984242	0.0152751174657541	0.00618816399556727	0.558837890625	0.451171875	0.123046875	0	0	0	-0.558415823463639	-0.436943988386049	-0.601277729008827	0.368397627186585	-0.10490991277744	0.0449742968701838	0.993464253419348	0.931011451458145	-0.346726278593173	0.11401124938675	0.349587739279895	0.936887506776541	-0.00549656176256347	92.7601323389835	-83.4457643344841	156.79545511748
46163	1655813946831	9.67213453183043	1.08196317012797	-0.0637425036247009	-0.0295419892821207	-0.000706833326405421	-0.0800607718531392	0.00432623032163361	0.0158524002854735	0.00838504576965402	0.555908203125	0.437255859375	0.12841796875	0	0	0	-0.558379014064433	-0.436905439804335	-0.601295821377434	0.368469603245435	-0.104886056273166	0.0447991919625027	0.993474683924542	0.931036122906827	-0.346687576307064	0.113927443037036	0.349529187682639	0.936910218128632	-0.00534697335637696	92.6870993861613	-83.4510021350443	156.871582936709
46164	1655813946832	9.63375240407094	1.1517218150242	-0.0187459012196195	0.0551901354329129	0.014871692130608	-0.110484902593445	-0.00705737597482816	0.0154776327603817	0.00761461066570859	0.560791015625	0.440185546875	0.1259765625	0	0	0	-0.558368853541758	-0.436879537516272	-0.60131548526678	0.368483622800808	-0.104888086244111	0.0447300360829703	0.993477585673711	0.931029669912286	-0.34671217885432	0.113905306185047	0.349545766827561	0.936904418233849	-0.00527901381193696	92.653510564001	-83.4524600241611	156.903939668988
46165	1655813946833	9.66721539267553	1.08630521499575	-0.102503974137365	-0.0381783951931672	-0.0408589191841918	-0.0842500592627679	-0.0065558945972169	0.00916422506407857	0.00909989059629142	0.553955078125	0.4404296875	0.1279296875	0	0	0	-0.558373641908015	-0.436819011943176	-0.601337258207986	0.368512589633339	-0.104834694608221	0.0446157445762711	0.993488360345659	0.931017145637217	-0.346775244173436	0.11381566042502	0.349595139176634	0.936886527475104	-0.00518394634526559	92.6078407065598	-83.4578762367292	156.946276100743
46166	1655813946834	9.66368150231064	1.10698356678824	-0.112272676494532	-0.0213686422353553	-0.0578803355987568	-0.085357254687203	-0.00378423558918169	0.0114159367396604	0.00965857748335099	0.559814453125	0.444580078125	0.121337890625	0	0	0	-0.558386008252855	-0.436780391787572	-0.601339376873853	0.368536170488468	-0.104772313658275	0.0445534966727376	0.993497734383388	0.931014741140783	-0.34680796078318	0.113735614984813	0.34962024264801	0.93687737952821	-0.00514408972532321	92.5896365509787	-83.4625920127768	156.962807134541
46167	1655813946834	9.65403781481026	1.12168017090029	-0.0210904842647128	0.0254630527643719	0.0201421343665818	-0.0937366581614523	-0.00377131826514495	0.0230040323576907	0.00895175322376094	0.55712890625	0.440673828125	0.13330078125	0	0	0	-0.55834376261042	-0.436703230515262	-0.601393871670093	0.368602688988061	-0.10476860084962	0.0443102532629602	0.993509004353652	0.931011846217108	-0.34684469225661	0.113647268584996	0.349629064122858	0.936875317696645	-0.00491493757685429	92.4763447041477	-83.4682660589888	157.074822459422
46168	1655813946835	9.62909900466029	1.15403996313191	-0.0546409919916969	0.0467993774745137	-0.024657616477447	-0.114669877046436	-0.00277136928460761	0.010375764219024	0.0119221378583782	0.56103515625	0.4423828125	0.134765625	0	0	0	-0.558353903807145	-0.436676077645724	-0.601384988996704	0.368633986936503	-0.10469980355724	0.0442576929501238	0.993518599599327	0.931021477660603	-0.346845973774488	0.113564424936218	0.349624025589978	0.936877327664172	-0.00489015736946508	92.4656700015019	-83.4731008091401	157.085715232733
46169	1655813946836	9.62778798533883	1.13725288243449	-0.0842099214192003	0.0216363589592454	-0.0480526093086978	-0.117742313770954	-0.0113828473500957	0.0122551656316592	0.0117070730238238	0.559326171875	0.44677734375	0.12890625	0	0	0	-0.558363977558681	-0.436588339451056	-0.601420942550023	0.368663993742893	-0.104633056564778	0.044105910341049	0.993532381025853	0.930994896745476	-0.346954963145818	0.113449353380107	0.349714777651434	0.936844129095909	-0.00475941915956329	92.4022598082078	-83.4800510927846	157.143146186313
46170	1655813946836	9.66711529692284	1.13420837260513	-0.0451246252159763	0.028622317730717	-0.0094919131122799	-0.0792052749446093	-0.0085639562143712	0.00903208667009309	0.0100598952692042	0.55908203125	0.45068359375	0.127685546875	0	0	0	-0.558372473059233	-0.436546022602678	-0.601439949080669	0.36867023086946	-0.104604884400751	0.0440445547262856	0.993538069405732	0.930976574253031	-0.347019662040882	0.11340181810325	0.349771977653436	0.936823052318844	-0.00470449704100318	92.3755646656117	-83.4829220226133	157.166163036931
46171	1655813946837	9.653076997713	1.10189044711428	-0.046927376555879	-6.57125168623991E-05	-0.00177098788171418	-0.0968108200770352	-0.014917126494511	0.00789004128141699	0.00962455575642923	0.561767578125	0.44189453125	0.1279296875	0	0	0	-0.558397430054656	-0.436461429359752	-0.601475576369791	0.36867446591841	-0.104542896576261	0.0439405071827333	0.993549200897454	0.930935254707136	-0.347161117722034	0.113308030983454	0.349900463444684	0.936775528165906	-0.00461253842080461	92.3311070257884	-83.4885437416317	157.202459252973
46172	1655813946838	9.65462124108251	1.11674292552591	-0.0151957902214136	0.0247081654752415	0.0227183194516804	-0.0937403901929858	-0.0124719804283189	0.00940307032514491	0.00686402592778689	0.5595703125	0.4404296875	0.130615234375	0	0	0	-0.558401189242695	-0.436445280824535	-0.601492564823286	0.368660173005768	-0.104555577383404	0.0439304216846925	0.993548312508571	0.930915833722435	-0.347210387370701	0.113316624670661	0.349948341563275	0.936757740802014	-0.00459274260332487	92.3209376497425	-83.4880949026105	157.209638866408
46173	1655813946839	9.62060337001997	1.11200518590807	-0.0105991563560416	0.0258786749281404	0.0259969447348338	-0.128094888347377	-0.0134683868982143	0.00822694171928448	0.0100896020665392	0.564208984375	0.44091796875	0.130859375	0	0	0	-0.558423312318436	-0.436363541224391	-0.601525066295291	0.368670393126245	-0.104491090982891	0.0438221827983025	0.993559876504681	0.930880113463806	-0.347338002244498	0.113218931961104	0.350062603348054	0.936715500294296	-0.00449947170116988	92.2758132520095	-83.4939397696167	157.24746699368
46174	1655813946839	9.65699288663596	1.07782129382062	-0.033220484282015	-0.0169884686738354	0.0175458069243573	-0.0957064844967554	-0.0143556467415142	0.00769093125238507	0.00819602428008805	0.56494140625	0.44287109375	0.123291015625	0	0	0	-0.558460402435648	-0.436290698859821	-0.601549811061163	0.368660046400613	-0.104423498198625	0.0437673960121936	0.993569397712245	0.930836921044548	-0.347480392552614	0.113137099184074	0.350197600568975	0.936665250683398	-0.00445519000035249	92.2550672088184	-83.4987560638808	157.259805086756
46175	1655813946840	9.64216260019727	1.09880221781166	0.0157873194822421	0.02135120557665	0.0543540765527678	-0.108280899664869	-0.0144942069502173	0.0114899957947304	0.00233515685403964	0.567138671875	0.435791015625	0.1298828125	0	0	0	-0.558457812263689	-0.436221204780307	-0.60160794816919	0.368651338152093	-0.104442125600651	0.0436551290982676	0.993572378895182	0.930789429640296	-0.347614502757377	0.113115848326546	0.350318255404868	0.936620727496544	-0.00432813515665625	92.1912310924524	-83.5002648230938	157.315856723963
46176	1655813946841	9.66980635314561	1.09278826667942	-0.0591505964604538	-0.0126482175393255	-0.0126626423699698	-0.0811654083952149	-0.01054049000482	0.00564410609449569	0.00332288870416641	0.5615234375	0.440673828125	0.126953125	0	0	0	-0.558505627214789	-0.43618668960819	-0.601593160347665	0.368643873678883	-0.104346317536887	0.0436781753061604	0.993581432504863	0.930772707343298	-0.347685732415353	0.113034502430128	0.350391228887536	0.936593213981782	-0.00437472764387253	92.2163886870161	-83.5048489410118	157.286371904102
46177	1655813946841	9.70611955653853	1.05932306712059	-0.0818974038342601	-0.0556627190730719	-0.0215106178306931	-0.0487707157303703	-0.00821898341339273	0.00873606871568481	0.000192998061470368	0.550048828125	0.4375	0.129150390625	0	0	0	-0.558495657375879	-0.436146984043412	-0.60163319735763	0.368640617457377	-0.104373391705857	0.0435995264181192	0.993582043114674	0.930745259845209	-0.34775980694096	0.113032641091234	0.35045606911493	0.936569377020465	-0.00428318199575828	92.1700890034904	-83.5051582272957	157.328415814123
46178	1655813946842	9.68616363443342	1.08689426851931	-0.0742079582767721	-0.0258770908981081	-0.0255676363721945	-0.0655191397290498	-0.00683013714495084	0.016766571943935	-0.00262134886928296	0.560791015625	0.43359375	0.124267578125	0	0	0	-0.558459938636088	-0.43611275051911	-0.601695640987888	0.368633315625986	-0.104463951098338	0.0434928815164999	0.993577199908651	0.930713118056771	-0.347830294890497	0.113080404285762	0.350514443066139	0.936548159580585	-0.00414366845353398	92.0985823159654	-83.5027054479775	157.395916456528
46179	1655813946843	9.68974674529021	1.06568445509665	-0.0615662564521487	-0.0425527097809246	-0.0077433490849807	-0.0644159917972775	-0.00305992902081179	0.020194611561203	-0.00528453051052739	0.562255859375	0.431640625	0.131103515625	0	0	0	-0.558394003412311	-0.436082870292018	-0.601766476932106	0.368652918653532	-0.104582325042808	0.0433261833860352	0.993572030162806	0.930698055661532	-0.347853511612214	0.113132946778979	0.350519138530958	0.936547263245294	-0.00394426561790689	91.9967505752505	-83.5000883136724	157.496836155809
46180	1655813946845	9.70746161406774	1.07606455770329	-0.0460886358078037	-0.0291848109832884	0.002662778358372	-0.0457026207566926	-0.00527046050734444	0.0177447625097345	-0.00727458858274496	0.560302734375	0.4453125	0.12939453125	0	0	0	-0.558397754876047	-0.43601867357083	-0.60180684307155	0.368657276178266	-0.104567520140423	0.0432227537075687	0.993578093203356	0.930664639916365	-0.347959058036711	0.113083252250486	0.350612266957425	0.936512833597138	-0.00384067270615196	91.9452021383628	-83.5031577762288	157.542353395822
46181	1655813946844	9.64058426769097	1.08444531231131	-0.00631538384821534	-0.0016385876877305	0.0325982345970248	-0.111354419285693	-0.00305931242581975	0.0201962265578813	-0.00528497901051682	0.561767578125	0.442138671875	0.12744140625	0	0	0	-0.558332526235732	-0.435988200322628	-0.601877083079487	0.368677441933177	-0.104683467913669	0.0430557798943108	0.993573133374319	0.930649793286101	-0.34798246597809	0.113133397493159	0.350617075742334	0.936511827575873	-0.00364184134667539	91.8437536000086	-83.5006467158611	157.642882745956
46182	1655813946844	9.65470004526286	1.11616446625356	-0.0011755726385461	0.0270038508787981	0.0256527220571109	-0.0937537998150279	-0.00379051811479721	0.0274522328588326	-0.00201987880660035	0.563232421875	0.43603515625	0.12841796875	0	0	0	-0.558252665184249	-0.435971406644564	-0.601940179301132	0.368715222015534	-0.104806093737437	0.0428753857047334	0.993568006739433	0.930653413109082	-0.347956035284792	0.113184902603244	0.350570830765933	0.936529924139939	-0.00343421119391341	91.7379125172123	-83.4980522199635	157.750898819141
46183	1655813946845	9.66047975223998	1.05765295586392	-0.00782914082108093	-0.0315106380307223	0.0378254045982657	-0.0946044251706954	-0.00241908462163678	0.0238932818792382	-0.0041331578160178	0.55908203125	0.43798828125	0.133056640625	0	0	0	-0.558177596999726	-0.435933143783047	-0.602017053225769	0.368748602688069	-0.104924476446418	0.0426703349559318	0.993564339515662	0.930642123641496	-0.347973524334053	0.113223955356565	0.350565388974001	0.936532791138296	-0.0031998712819169	91.6188299616303	-83.4961969375205	157.869572265359
46184	1655813946847	9.64407076232256	1.06392541978224	0.0115868846200192	-0.0175862087099642	0.0511742200583538	-0.110252413432219	0.00461966451470132	0.0232552340135527	-0.00474788712911787	0.56201171875	0.439208984375	0.130615234375	0	0	0	-0.558123032779554	-0.435889940815607	-0.602067130172103	0.368800502362791	-0.104969739475811	0.0424751113250225	0.99356792355244	0.930645751579405	-0.347972297905439	0.113197901736793	0.350542206961707	0.936542121214169	-0.00300272044656102	91.5194881763542	-83.4980101290508	157.969701576375
46185	1655813946847	9.64622832026249	1.02725091436905	-0.00635102975308348	-0.0593970542809587	0.045561279306127	-0.112202764513245	0.00743915208617917	0.0200312615003285	-0.00639317130034618	0.552490234375	0.44091796875	0.12841796875	0	0	0	-0.558036817599087	-0.435894280460219	-0.602115737097975	0.368846479724172	-0.105094369197939	0.0423135741251042	0.99356164127227	0.930666654185555	-0.347896901314308	0.113257780496386	0.35044935775366	0.936577443407998	-0.00281782706809841	91.4252115614242	-83.4948322076506	158.06907330037
46186	1655813946848	9.617023598434	1.01798177115707	0.0402796843981647	-0.0497121572608506	0.090208151559281	-0.142400744559497	0.0119539046680106	0.0139833343014903	-0.00682868584091318	0.561279296875	0.43994140625	0.13232421875	0	0	0	-0.557962599254411	-0.435929477525793	-0.602135298675929	0.368885226792563	-0.105202854574922	0.0422270563200621	0.993553841069437	0.930702321167574	-0.347778360156577	0.113328732367807	0.350322064338774	0.936625372238733	-0.0027135430852987	91.3716280179872	-83.4908885877083	158.130116202199
46187	1655813946848	9.61614522885121	1.06803021034265	-0.0806336284852504	-0.0464045534288497	-0.0410836888186231	-0.13727532839785	0.0169072346199986	0.00931443614092329	-0.00906126862791194	0.559326171875	0.43896484375	0.133056640625	0	0	0	-0.557885319011619	-0.435989633619174	-0.602138264366026	0.36892617255244	-0.105314900074224	0.0421753012349284	0.99354416901721	0.930753562114637	-0.347613037164852	0.113415091605751	0.350152221802561	0.936689073470365	-0.00264597958415369	91.3364708718028	-83.4860019011136	158.175453122097
46188	1655813946849	9.64795571068092	1.10993226799988	-0.0631435225781064	-0.00527444066885469	-0.0389382066679281	-0.100970627179626	0.0181834343173075	0.0167072186883245	-0.00675757862173839	0.55908203125	0.446044921875	0.1298828125	0	0	0	-0.557804786057187	-0.436002395961123	-0.602159996771348	0.368997384348707	-0.105389501991018	0.0420175188629235	0.993542943701323	0.930799373935136	-0.347485682119947	0.113429388623915	0.350007968983629	0.936743416753083	-0.00248853726428649	91.2568154920333	-83.4853830856596	158.263428435939
46189	1655813946849	9.63644921228767	1.11072463892714	-0.0031702472353335	0.0164259487069194	0.0156451158868622	-0.112462730825056	0.0156521946038481	0.013518340907428	-0.0120699099761589	0.560791015625	0.437255859375	0.12548828125	0	0	0	-0.55771067295195	-0.436058950978597	-0.602183121691168	0.369035072177711	-0.105543841556549	0.0419360784389913	0.993530000973621	0.930842845548988	-0.347331413548475	0.11354508378913	0.349845815181128	0.93680427757754	-0.00237720690614396	91.1993828606439	-83.4788502519698	158.33042966722
46190	1655813946850	9.66775246261479	1.08428371436633	-0.0671613328611641	-0.0347369286305876	-0.0338494962208911	-0.0842102482981577	0.0156603898947242	0.0112985753199049	-0.00657961084055388	0.552734375	0.4482421875	0.130615234375	0	0	0	-0.55764390000675	-0.43613103477579	-0.602159130379228	0.369089938892395	-0.105611795587339	0.0419098690223683	0.993523885727639	0.930913375563037	-0.347124675027614	0.113599063309549	0.349637577829746	0.936882075218382	-0.00235399741867975	91.1871120510824	-83.4757658511015	158.355365036703
46191	1655813946851	9.68408409699473	1.07900119183775	-0.082796863192796	-0.0478463375027638	-0.0471381586745444	-0.068557229607137	0.0116587162207964	0.0226238207722468	-0.00536921997924964	0.561767578125	0.43408203125	0.13037109375	0	0	0	-0.557544465533639	-0.4361403932601	-0.602203610003714	0.369156522925207	-0.105735261069159	0.041720543391711	0.993518721930159	0.930950106439624	-0.347010037897393	0.113648286034161	0.349502437597636	0.936932991124525	-0.00214854736053255	91.0830610590404	-83.4731624709167	158.467022571262
46192	1655813946852	9.65125070199979	1.09133221620075	-0.0469213149851433	-0.0215199470106796	-0.0203402684262527	-0.0998622975769017	0.00906127031874229	0.0133151085934898	-0.0077676586945307	0.559814453125	0.437744140625	0.13427734375	0	0	0	-0.557473276062363	-0.436168832410563	-0.602232695411185	0.369182985371322	-0.105854939577229	0.041636807080186	0.993509490675992	0.930973064600663	-0.346921345891848	0.113730966551056	0.349405043974969	0.936969559836794	-0.00203940778019479	91.0273098004282	-83.4685110161839	158.528382844014
46193	1655813946852	9.72301952581345	1.07841425816907	-0.0415695342620855	-0.0404815744894048	-0.00896481389707493	-0.0300448471119328	0.0114614649527364	0.0203078882323397	-0.00831955894744451	0.5517578125	0.440673828125	0.128173828125	0	0	0	-0.557374611767409	-0.436190155245185	-0.602276692136765	0.369234988500695	-0.105998130848044	0.0414793818823921	0.993500808824721	0.931005891863812	-0.346807343468145	0.113809910954347	0.349274141000432	0.937018744420421	-0.00185661875137716	90.9346021165176	-83.4641394028069	158.62850939592
46194	1655813946853	9.65242990495466	1.10846437955802	-0.0128098059393927	0.00381956680815905	0.00303505967915105	-0.0968118832833618	0.0123464711892322	0.0208466455541812	-0.00642552350890344	0.561279296875	0.451904296875	0.126220703125	0	0	0	-0.557285325964134	-0.436190065816556	-0.602326232416833	0.36928904897186	-0.106117327549016	0.0412996829417615	0.993495570691065	0.931029609101825	-0.346727649584815	0.113858701859337	0.349174712385589	0.937056173984409	-0.00165741610400516	90.8339831687318	-83.461503228342	158.73456618135
46195	1655813946853	9.61331276617141	1.11101960155262	-0.0495901928719886	-0.00344995665161433	-0.0349203421638078	-0.135323326274197	0.0123292484495889	0.00925100620107551	-0.00571562838639603	0.554931640625	0.440185546875	0.130859375	0	0	0	-0.557223937130279	-0.436227011673607	-0.602332901831975	0.369327163292951	-0.106197860686025	0.041236461871458	0.993489591590186	0.931068069837917	-0.346606881480593	0.113911891559198	0.349047652497489	0.937103635636221	-0.0015850436493095	90.7971990428919	-83.4584954430453	158.778887223506
46196	1655813946854	9.65654146543729	1.15303061579692	-0.0913137924486012	0.0151529880037035	-0.0861894471530011	-0.087516280612725	0.011372308097261	0.00481491566565318	-0.0101869733382479	0.559326171875	0.439697265625	0.1279296875	0	0	0	-0.557146478191783	-0.436343779277441	-0.602316374569736	0.369333038123511	-0.106361817577901	0.0413041267478801	0.993469241031206	0.931125472873396	-0.346394426472673	0.11408880346012	0.348844546363878	0.937179209341662	-0.00161618375125439	90.8115986106351	-83.4482684021505	158.777014499219
46197	1655813946855	9.67190142218059	1.20074366836587	-0.0571654278867023	0.0690563319967013	-0.0703750851891116	-0.0668672909092898	-0.000179690403392504	0.00927781873387143	-0.003660475841385	0.558837890625	0.443359375	0.12646484375	0	0	0	-0.557112291744508	-0.436338010068713	-0.60234655080771	0.369342209998415	-0.106424452601338	0.0412345250087537	0.993465424579944	0.931122550049722	-0.346390945765527	0.114123220601981	0.348833244799589	0.937183560802774	-0.0015299292870839	90.7680578930397	-83.4463522388011	158.820967730061
46198	1655813946856	9.65543372281404	1.20715296266385	-0.0391410336782463	0.0826871306916264	-0.0561667814543344	-0.0825199079449437	-0.0118821383697571	0.00816225384472296	-0.00777920929895683	0.556396484375	0.4443359375	0.135498046875	0	0	0	-0.557110097398709	-0.436344873493983	-0.60236474618551	0.369307735235518	-0.106480272143226	0.041268349544344	0.993458038857299	0.931100190342297	-0.346429896141466	0.11418740124879	0.348875890810534	0.937167674637415	-0.00153701849615834	90.7711827558721	-83.442645599515	158.815261508469
46199	1655813946856	9.62944549730008	1.10768666719008	-0.0632117535984275	-0.0165249145767895	-0.046428785188355	-0.119661155372546	-0.0217952562946658	0.0175006490755457	-0.00332869837305512	0.56298828125	0.440673828125	0.126220703125	0	0	0	-0.557091966584154	-0.43625825946581	-0.602463903023489	0.369275665822928	-0.106568046796867	0.0411214255622195	0.993454719532618	0.931022461255333	-0.346628427357791	0.114218693678076	0.349056482592664	0.937100721217947	-0.00134545636947619	90.6748930816657	-83.4409804242913	158.899888323906
46200	1655813946856	9.58969041678281	1.04524779224633	-0.00815791919930009	-0.052150017643254	0.0238182042737609	-0.166367623666719	-0.0213546044927693	0.0188813003960785	-0.00512784465896185	0.56201171875	0.442626953125	0.128173828125	0	0	0	-0.557071497728791	-0.436185663609926	-0.602558117000258	0.369238579940494	-0.106668435003458	0.0409977949244305	0.993449055455411	0.930948608735603	-0.346809875889392	0.114269846761205	0.349222755368486	0.937039001748017	-0.00117317344126122	90.5882175147287	-83.4381399500081	158.975838166665
46201	1655813946857	9.62476326346697	0.9969072629439	-0.0603397084280229	-0.120293061704044	-0.00844244186875495	-0.136996646055755	-0.0172081799317953	0.0175748528497115	-0.00667149950519798	0.56396484375	0.44189453125	0.135009765625	0	0	0	-0.557037371703741	-0.436122024231965	-0.602653621105649	0.369209370782285	-0.106787614103874	0.0408618037444126	0.993441854598826	0.930883260736742	-0.346964041012725	0.114334199276725	0.349360501994905	0.93698786931255	-0.000986106989595836	90.4941510775151	-83.4345305637719	159.060873535616
46202	1655813946857	9.6210837102346	1.01936458117679	-0.0688437110715407	-0.102835058976488	-0.0259495997880804	-0.138089376001488	-0.0104701081944998	0.0278028928804756	-0.0113067515483771	0.554931640625	0.437255859375	0.126953125	0	0	0	-0.556976180164972	-0.436066055494484	-0.602745286642628	0.369218159635214	-0.106910970648844	0.0406678008518676	0.993436547711425	0.930845822703831	-0.347048691682134	0.114382078825961	0.349422521755182	0.936964959630611	-0.000752140051363759	90.3767533330019	-83.4318717822252	159.173715314498
46203	1655813946857	9.60353002170906	1.07904722706745	0.00158222220305811	-0.0225940932149913	0.0165369841441144	-0.148767362854054	-0.0107857233344546	0.0248444892502366	-0.00913753186909125	0.5615234375	0.443359375	0.134033203125	0	0	0	-0.556903150554217	-0.436014950079036	-0.602851384767034	0.369215454842876	-0.10707765761591	0.0404721023166734	0.993426587208918	0.930800295234346	-0.347141822425488	0.11446993279794	0.349492754762017	0.936938932939164	-0.000500311579274881	90.2504199897991	-83.4268844031938	159.294930553089
46204	1655813946858	9.66807699102276	1.10947124981261	-0.0141745630144961	-0.00765899362881661	-0.00732910956275645	-0.0811547243637154	-0.0136950755984917	0.0125721766635935	-0.00936921269903344	0.559326171875	0.4453125	0.12158203125	0	0	0	-0.556893805217831	-0.43597689716831	-0.602909705042791	0.369179255119667	-0.107151934598585	0.0404221548780144	0.993420611980041	0.930749178126478	-0.347261645449562	0.114522124572282	0.34960610739612	0.936896685336585	-0.000413130309004639	90.206689497812	-83.4238943200309	159.331443774309
46205	1655813946859	9.67952617528011	1.11057880975566	-0.0714819268398541	-0.0292349561725918	-0.0618208480712257	-0.0696362387926559	-0.0082253794057885	0.0131830231726926	-0.0108132722279538	0.561767578125	0.439208984375	0.1279296875	0	0	0	-0.556847674129628	-0.435959669286232	-0.60298066856764	0.369153285107941	-0.107293039820878	0.0403416663960674	0.993408653857205	0.930710845029374	-0.347330037699708	0.114626209290142	0.349664877490868	0.936874802128815	-0.00028033085547513	90.1401227778864	-83.4179143794023	159.393981075645
46206	1655813946860	9.6643012755803	1.13259526987016	-0.0220746028641242	0.010126656244767	-0.0233565582485717	-0.0822541676473918	-0.00594898020188565	0.0173123156981475	-0.000750358324891651	0.552001953125	0.441162109375	0.12939453125	0	0	0	-0.556835430599608	-0.435988901959821	-0.602946017146161	0.369193825793985	-0.107260444449099	0.0403402422840204	0.993412231608333	0.930756029553769	-0.347219192726941	0.114595137991783	0.349554588735274	0.936915949834626	-0.000304038806363038	90.1520142987163	-83.4197029507984	159.388911945071
46207	1655813946860	9.68071735021174	1.12695026810883	-0.0380100722364558	-0.00296126052273153	-0.0366053182877232	-0.0665906388472201	-0.00483517750946399	0.0053116955029472	-0.00289622365021943	0.557373046875	0.444091796875	0.124267578125	0	0	0	-0.556824476596798	-0.435975190612868	-0.602972001842718	0.369184100993746	-0.107299203672282	0.0403079617949925	0.993409356261168	0.930738667493806	-0.347257465487026	0.114620179267799	0.349588921053213	0.936903154482608	-0.000255729134449545	90.1278324277994	-83.4182654834926	159.410835610882
46208	1655813946861	9.6678873307993	1.11117192410463	-0.00956010074764794	-0.00666262432122847	-0.00420086006501716	-0.0811521380169626	-0.00697008369457676	0.00453135652875559	0.00317953136801427	0.560302734375	0.43896484375	0.12841796875	0	0	0	-0.556824072657576	-0.436014538358309	-0.602946943553955	0.369179167489399	-0.107307388801731	0.0403758806501191	0.993405713981091	0.930757683296226	-0.347196129264051	0.114651571332902	0.349535776843512	0.936922961660023	-0.000323451101556183	90.1616404696118	-83.4164450533639	159.38050052206
46209	1655813946862	9.65024394958323	1.10096707879367	-0.0226017155628348	-0.0186054760730242	-0.0142297843311566	-0.0998454032207565	0.000139651829345949	0.00779617015952094	0.00515706462751618	0.56005859375	0.445556640625	0.128173828125	0	0	0	-0.556813889128045	-0.435989713289629	-0.602953752791988	0.369212722930545	-0.107280516200628	0.0402938620141982	0.993411946539656	0.93076664949228	-0.34718987026368	0.114597723272345	0.34952014968617	0.936928811954393	-0.000257474440542749	90.1287300788492	-83.4195604229497	159.4141491491
46210	1655813946864	9.63619890911201	1.06918872528423	-0.0246417386582964	-0.0465654321452417	-0.00556595595520709	-0.117435855609633	0.00403893270049983	0.00965048437096314	0.0028731463187705	0.55908203125	0.44482421875	0.12841796875	0	0	0	-0.55680787301295	-0.436017411727382	-0.602906121373913	0.369266865601577	-0.107213949039162	0.0402893478575727	0.993419316089958	0.930822362624569	-0.347061597278682	0.11453373709255	0.349392184184827	0.936976529131643	-0.000292381557302102	90.1462642648015	-83.4232460181766	159.404554438869
46211	1655813946865	9.60208708405072	1.06509226241853	-0.0203816657864413	-0.0453496278081079	-0.00226294278588072	-0.151794466094964	0.0037219967437565	0.0089137278362663	-0.000448796971810884	0.558837890625	0.441650390625	0.13037109375	0	0	0	-0.556775749796775	-0.436017285179642	-0.602918026300017	0.369296012739517	-0.107242438825867	0.0402172555177482	0.993419162123069	0.93083814800325	-0.347018763998539	0.114535233246395	0.349341382513667	0.936995490806411	-0.000220617074373153	90.110362647885	-83.4231689965675	159.443326683776
46212	1655813946865	9.61257003185277	1.1181864662523	-0.0276126300987813	0.000344741661395271	-0.0268418009747848	-0.135296938371811	0.00786874288568501	0.00760668280847239	-0.00198893219740938	0.560791015625	0.444091796875	0.130859375	0	0	0	-0.556741582537173	-0.436075881094179	-0.602883568675062	0.369334589259605	-0.107261542900886	0.0402316418773925	0.993416517079504	0.930894662709269	-0.346859574208749	0.114558119394143	0.349184891359747	0.937053814234581	-0.000246727596120488	90.1233996172798	-83.4218459593438	159.439944590539
46213	1655813946866	9.62413209409629	1.11868136569398	-0.0855187970943365	-0.0211905189132285	-0.0812837629858287	-0.12374398033678	0.0038467414603228	0.00955751453044456	-0.00556876156545702	0.56298828125	0.44677734375	0.12646484375	0	0	0	-0.556696155735837	-0.436089577809501	-0.6029061753302	0.369349988579373	-0.107339952250717	0.040172005100741	0.993410461318483	0.930905560991312	-0.346812932124696	0.114610761390551	0.349131738984391	0.9370736364434	-0.000169459370255254	90.0847154274295	-83.418817895891	159.481624907944
46214	1655813946866	9.64659044859578	1.1231360486899	-0.0290568937682263	-0.000278846159132859	-0.0286934395541526	-0.100933527093336	0.00825756880043754	0.0166914743465499	-0.00707215850831667	0.56201171875	0.44482421875	0.12548828125	0	0	0	-0.556622912798761	-0.436171594622114	-0.602881501469831	0.369403800978966	-0.107423529539431	0.040152770591559	0.993402204706187	0.930979643323006	-0.346590343734189	0.114682332328849	0.348908424976324	0.937156811128232	-0.000149454015549	90.0746678176204	-83.414691573808	159.50526054405
46215	1655813946867	9.68987520332552	1.16534832425757	-0.0696357209072183	0.0189123717967926	-0.080628156759889	-0.0530916518329913	0.00146665092649395	0.0163876242025889	-0.0112212836780625	0.55810546875	0.446533203125	0.12548828125	0	0	0	-0.556549077650192	-0.436181775302924	-0.60293826459637	0.369410384458567	-0.107578184041788	0.0400498172066791	0.993389624699182	0.930976441723985	-0.346562853495525	0.114791347809782	0.348869315465288	0.937171382789055	-2.83387938138091E-06	90.0014144735756	-83.4084095374504	159.580421887963
46216	1655813946867	9.69098940932879	1.18199888220061	-0.0372915492112266	0.0444202756240489	-0.055187446304613	-0.050066369292729	0.000901747989072464	0.0165884534982188	-0.00979581369984681	0.560791015625	0.438720703125	0.123779296875	0	0	0	-0.556477533887411	-0.436295982953878	-0.602906499937522	0.369435138921545	-0.107700864817207	0.0401081321560739	0.993373978646802	0.931047518400558	-0.346326986776657	0.114926657962217	0.34864171035289	0.937256078115876	-4.28609262107527E-05	90.021367975956	-83.4006047270985	159.574515049126
46217	1655813946868	9.67800283417343	1.16734226072941	-0.00815233338278676	0.0409292785821705	-0.0239486006592154	-0.064649388478065	0.00164639455063351	0.00932833170387106	-0.0130554009412172	0.556884765625	0.437255859375	0.120849609375	0	0	0	-0.556420765829147	-0.436325924319212	-0.60294580114012	0.369421141799694	-0.107847902691032	0.0400797573205842	0.993359171165329	0.931043462522641	-0.346295415516792	0.115054578726375	0.348607086530089	0.937268957261028	3.12382421817081E-05	89.9844437360751	-83.3932266804409	159.613310995392
46218	1655813946869	9.71436551673213	1.13537474887323	-0.030420279312216	-9.38666923912621E-05	-0.0307962740035202	-0.0321991361334248	-0.00061264338443565	0.0123532886170301	-0.0128446395185919	0.545166015625	0.434814453125	0.13232421875	0	0	0	-0.556429966844684	-0.436397218888829	-0.602879693938123	0.369430959693954	-0.107812916033657	0.0402041322517306	0.99335794298239	0.931093827897962	-0.3461564667314	0.115065130210477	0.3484833694549	0.937314956826103	-0.000113681313359759	90.056606700343	-83.3926150884943	159.549189903942
46219	1655813946869	9.67203309834461	1.11102578161892	0.0435423954423329	0.00599981885811423	0.0448731096802192	-0.0770595639093603	0.000642742616471257	0.0103731314318813	-0.0153241995661498	0.55908203125	0.436767578125	0.1337890625	0	0	0	-0.556367801244499	-0.436429205440146	-0.602926763681154	0.369409983641772	-0.107982267448296	0.0401759830419522	0.993340686926363	0.931084646676519	-0.346131625249337	0.115214056110852	0.348455464356619	0.937325337537008	-3.11632455107791E-05	90.0154974354728	-83.3840281298885	159.591732274912
46220	1655813946870	9.66704568312016	1.11850777296738	0.00287132182660444	-0.00218340785173385	0.00293078905016023	-0.0811496368192408	0.00623743419917048	0.00940563795744999	-0.0163917589103613	0.560546875	0.43505859375	0.128173828125	0	0	0	-0.556327303033539	-0.436396801130468	-0.603013285975044	0.369368028936052	-0.108134382198651	0.0400912531250456	0.993327562694894	0.93102656857646	-0.346250182325982	0.115327099347747	0.348563457624659	0.937285176806978	0.000115527725048692	89.9426045666164	-83.3775046710492	159.657537408846
46221	1655813946870	9.6528007754205	1.08873232508049	0.000829509647048893	-0.0308014286035176	0.0107121418477733	-0.0987366823174653	0.00334528452283178	0.00873110807108034	-0.0173335104375863	0.562255859375	0.44384765625	0.12841796875	0	0	0	-0.556260694783153	-0.43644488405344	-0.603054006797247	0.369345052097261	-0.108316543861271	0.0400842417602555	0.993307998502204	0.931024295992221	-0.346200191349701	0.11549540156049	0.348512964749	0.937303942737859	0.000179805245886455	89.9108010079932	-83.3677920589516	159.692213387215
46222	1655813946871	9.66187320411405	1.12765365743085	-0.0368982846823496	-0.00873588508805995	-0.0373521129970723	-0.0852372196080875	0.00687040042537462	0.0131068401336117	-0.0152404566899867	0.55908203125	0.4345703125	0.13427734375	0	0	0	-0.556242564837076	-0.436479219077617	-0.603030534068979	0.369370106204262	-0.108319867412248	0.0400937358086931	0.993307252904506	0.931059545462578	-0.346103231912092	0.115501842682369	0.348417750877896	0.937339343679176	0.000160200753729856	89.9205309546199	-83.3674221882632	159.688368715291
46223	1655813946872	9.62759190199465	1.12500759316073	-0.0319111366860695	-0.00749052523545878	-0.0340154220000249	-0.119598453382668	0.0129154623268938	0.0229022059434836	-0.0133230072799997	0.560302734375	0.443115234375	0.128662109375	0	0	0	-0.556124969920673	-0.436518684823054	-0.603081575283464	0.369417202069285	-0.108511897292064	0.0399404646125566	0.993292468225049	0.931095297255572	-0.345964737231306	0.115628491389585	0.348262423431863	0.937397012945426	0.000352911262165301	89.8251273294731	-83.3600921477857	159.792624445708
46224	1655813946873	9.61458609598424	1.11049402664631	-0.00227051370273093	-0.00971220778794145	-0.00294595432439523	-0.13418723891783	0.0154250966549485	0.0167179080030221	-0.0127881611592239	0.566162109375	0.445556640625	0.12939453125	0	0	0	-0.556078398212324	-0.436519851299319	-0.603094802805908	0.369464332908792	-0.108545843499755	0.039834481397926	0.99329301515247	0.931122557395703	-0.345893052259763	0.115623438399444	0.348178952505477	0.937427976161467	0.00045446892647244	89.7747946465662	-83.360363163374	159.847720622767
46225	1655813946873	9.60362584178276	1.17631359981036	-0.0334106020215618	0.0405418697051251	-0.0560975194773432	-0.137478399661793	0.0178756395422874	0.0160143636187627	-0.0100483834226723	0.556884765625	0.437744140625	0.132568359375	0	0	0	-0.555979987206704	-0.436577316502245	-0.603109562355985	0.369520441026073	-0.108681794979059	0.0397338787496604	0.993282178597622	0.931179124624962	-0.34570978075919	0.115715968431856	0.347985208454065	0.937499848729023	0.000573001082662783	89.7162856967406	-83.354995442754	159.917674019426
46226	1655813946874	9.58343848845165	1.2044945212043	-0.0261879997755131	0.0715588617914941	-0.0601826296693135	-0.154269094432047	0.00944263150385379	0.00859840690077749	-0.00663635874993297	0.559326171875	0.43408203125	0.130126953125	0	0	0	-0.555967560675172	-0.436595219906646	-0.603083894145032	0.36955987614246	-0.108651138844937	0.0397143403803762	0.993286313806774	0.931216777275377	-0.345620223800474	0.115680485048129	0.347894012234414	0.937533696497498	0.000569370863132301	89.717996652638	-83.3570432454839	159.921549169763
46227	1655813946874	9.65407121280017	1.17592561024393	-0.0521423390446166	0.0276166293252722	-0.0720689637449166	-0.0874287956508901	0.0061082108348286	0.00654048936975076	-0.0057803531124137	0.55712890625	0.4345703125	0.128173828125	0	0	0	-0.555929159005744	-0.436622546406439	-0.603089779513894	0.36957575675713	-0.108713060369121	0.0396876867406799	0.993280603871007	0.931237133366033	-0.345549023973903	0.115729311200303	0.347820171849468	0.937561069771914	0.000607044273445989	89.6994645911088	-83.3542157853305	159.944467195959
46228	1655813946875	9.71182619300103	1.13173671147257	-0.0497422106636066	-0.017745425995651	-0.0528678430390124	-0.0351743816681775	0.00234698568372212	0.0169312662817077	-0.00933401419384815	0.5546875	0.4443359375	0.134765625	0	0	0	-0.555954387876333	-0.436551429743909	-0.603101428273089	0.369602807084254	-0.108616967192983	0.0395894041071116	0.993295038505802	0.93122132749214	-0.345633228367977	0.115604976846619	0.347892503025828	0.937534186326223	0.000675135579201958	89.6653952054152	-83.3613658789797	159.973891240394
46229	1655813946876	9.69884183665771	1.11697502581478	-0.0202418317779359	-0.0211414785641138	-0.0216281825612383	-0.0497645997678084	0.00637315823099201	0.0172097325484361	-0.0112426377298398	0.561279296875	0.440673828125	0.1298828125	0	0	0	-0.555872242498436	-0.436574335456196	-0.603145800251267	0.369626897397903	-0.108764013479521	0.0394812880836971	0.993283251274821	0.931236931385503	-0.345557612681962	0.115705289167162	0.347804782881921	0.937566618544408	0.000817799281482956	89.5950429973768	-83.3555265843844	160.049125513693
46230	1655813946876	9.68220428918745	1.12406797674244	-0.00180763566317468	-0.00790082873704107	-0.00815932882009818	-0.06545787442918	0.00687733699875636	0.0131101392752163	-0.0152442760409872	0.559326171875	0.451416015625	0.125244140625	0	0	0	-0.555798163799793	-0.436609046414359	-0.603193424618008	0.369619580384376	-0.108939533826513	0.0394288115951139	0.993266100692991	0.931237213586804	-0.345507812771244	0.115851643687588	0.3477490905822	0.937587180015932	0.000921883411844404	89.5440814459683	-83.3470394437733	160.103138447826
46231	1655813946877	9.69490722888366	1.1413482935005	-0.0284991059248801	-0.00415269513212762	-0.0390976846678478	-0.0508653956756113	0.0137957569832912	0.0140672772188734	-0.016209556712211	0.558349609375	0.447509765625	0.1279296875	0	0	0	-0.555700884692384	-0.43667377922788	-0.603222172308904	0.369642459847174	-0.109121957260464	0.0393669556645608	0.99324852944535	0.931273066091037	-0.345360924825942	0.116001327478473	0.347595849827128	0.937643895306248	0.00102507457388529	89.4937047760648	-83.3383552959537	160.16252913472
46232	1655813946881	9.70511195975955	1.19595420802259	-0.0353144289878562	0.0405897735552366	-0.0622211461904797	-0.0343831950081128	0.010904740868174	0.0133902675669844	-0.0171531579114193	0.556396484375	0.447265625	0.13720703125	0	0	0	-0.555554575113706	-0.436901689274461	-0.603178195994234	0.369664837192414	-0.109414044427472	0.0394979254622213	0.993211196456325	0.931393003943112	-0.344929644105258	0.116321162404988	0.347182429117389	0.937797128648623	0.000952055958705567	89.5310606501187	-83.3199417095493	160.150669928214
46233	1655813946882	9.62130221242199	1.21077925231334	0.0205327098447206	0.081244139863143	-0.0189369847023557	-0.115837117785896	0.00681627838828476	0.0185946471585721	-0.0130445017555569	0.554931640625	0.4365234375	0.128662109375	0	0	0	-0.555463182940216	-0.436929550254908	-0.603228402330788	0.369687320763659	-0.109583874529023	0.0393847736780333	0.993196966389617	0.93140834114288	-0.344847705961262	0.116441237294711	0.347087707204787	0.937832020830802	0.00110644102393564	89.4555838244824	-83.3129363624186	160.231410354407
46234	1655813946883	9.62002169555979	1.19639678052915	-0.00876461218411169	0.0559397413841944	-0.0425383863597209	-0.11880679410509	0.00140735590498925	0.0124942001426619	-0.0138110119678911	0.55859375	0.445556640625	0.1318359375	0	0	0	-0.555400453974118	-0.436928593084699	-0.603305897634975	0.369656237806462	-0.109769203152234	0.0393091011746377	0.993179498682976	0.931372254639419	-0.344895340791597	0.116588709522555	0.347125979043935	0.937817678690848	0.00124748054074031	89.3869677189809	-83.3043471261968	160.297207336638
46235	1655813946883	9.60699282486093	1.18178991305653	0.020265103235414	0.0525190144856939	-0.0112912769878438	-0.133407260063553	0.00184238872685791	0.011652256870321	-0.0101153349663515	0.5556640625	0.446533203125	0.123291015625	0	0	0	-0.555345455973684	-0.436945871857167	-0.603342597805719	0.369658544158535	-0.109887970519947	0.0392503162172931	0.993168689907132	0.931373301552056	-0.344861731595146	0.116679729332997	0.347085590439925	0.937832500374155	0.00133945919272294	89.3422851769904	-83.2990377143136	160.344043078103
46236	1655813946884	9.62228232155612	1.16124676749508	-0.0265556519087134	0.0139869811589734	-0.0463854719710853	-0.120671629097247	0.00209179593231212	0.008490006886111	-0.00936816874937264	0.55712890625	0.446044921875	0.13232421875	0	0	0	-0.55527515416215	-0.437077122487788	-0.603310596757	0.369661217885657	-0.110040174322985	0.0393550732192806	0.993147692061393	0.931437193061342	-0.344628345978176	0.116859139695427	0.346865846426216	0.937913898692333	0.00126618433599029	89.3792168937959	-83.2887352494286	160.320777001401
46237	1655813946885	9.61855145665212	1.1837082159891	-0.0366282471909802	0.0308551245135743	-0.0639688540577561	-0.12176404574125	0.00209196570583533	0.00849031484626889	-0.00936830624648121	0.5556640625	0.4453125	0.1259765625	0	0	0	-0.555230789108876	-0.437099776925992	-0.603336166894501	0.369659337165768	-0.110141490543401	0.0393248130391516	0.99313765971305	0.931440203208576	-0.344591518914827	0.116943716969912	0.346825604457982	0.937928698873964	0.00132511167356686	89.3507983234802	-83.2838184925708	160.351451059315
46238	1655813946886	9.66545251884263	1.20451890456461	-0.0667190916788216	0.0329062051035841	-0.0969597423455578	-0.072779489759176	-0.00331121398065553	0.0139965721945694	-0.0108542944670846	0.559814453125	0.446044921875	0.12939453125	0	0	0	-0.555149969836029	-0.437180330374133	-0.603361082746973	0.369644793756683	-0.110342474879271	0.0393427284545826	0.993114639885681	0.931459860425838	-0.344472170365086	0.117138602772297	0.346708907663181	0.937971787188568	0.00136373945004031	89.3329868795461	-83.2725502179841	160.376252412928
46239	1655813946887	9.68766190624533	1.2095013862236	-0.0100428470810607	0.0534986898063861	-0.0453650755730971	-0.0500613135193859	0.00460949390226178	0.0139152162311198	-0.00954539762289201	0.551025390625	0.44091796875	0.13427734375	0	0	0	-0.555084038052111	-0.437201637521021	-0.60339637433693	0.369660999140764	-0.11046491282803	0.0392630875657186	0.99310418032989	0.931471514026935	-0.34441094772638	0.11722592564184	0.346638603721895	0.937997606095572	0.00147287769740184	89.2801486955089	-83.2674364368897	160.433010526236
46240	1655813946888	9.68503498566597	1.24742847857757	0.011246751487554	0.0950136052242121	-0.0393126990286541	-0.0481836016098587	0.00076651165417364	0.0159550935842924	-0.00469114576452893	0.559814453125	0.4404296875	0.127197265625	0	0	0	-0.555020425622396	-0.43720358697174	-0.603450507279742	0.369665843627459	-0.110598982394266	0.039163760127418	0.993093180414625	0.931463923571355	-0.344400375188487	0.117317264948889	0.346616249155188	0.938005640421587	0.00161070136195801	89.2134099597401	-83.2620626364467	160.500641530578
46241	1655813946888	9.70149905594709	1.24208570612653	-0.00423814454142383	0.0820348381154161	-0.0524363705057026	-0.032482900934756	-0.00413786294637831	0.0151352693392732	-0.00468322791168675	0.5625	0.441162109375	0.12548828125	0	0	0	-0.554977454375094	-0.437182755589674	-0.603499502963008	0.369675010345252	-0.110680823723157	0.0390557755852846	0.993088315132846	0.931450515590101	-0.344423249882515	0.117356559029744	0.346626156351333	0.938001743779722	0.00174252670071873	89.1493267157211	-83.2596871553596	160.563668366277
46242	1655813946889	9.71799595712146	1.23653268308593	-0.0196027827083743	0.0711037450048385	-0.064144521358394	-0.0167865741051276	-0.00452239883921774	0.0176554561693699	-0.000309755591045025	0.55712890625	0.44970703125	0.1318359375	0	0	0	-0.555010201839619	-0.437170930396054	-0.603443186158026	0.369731760266877	-0.110524202607803	0.0390444297565367	0.993106204362301	0.931492875513576	-0.34436000613321	0.117205840483253	0.346562293830935	0.938025436052202	0.001690506941187	89.1736572448895	-83.2684257047698	160.543423454537
46243	1655813946890	9.67563509860455	1.21091999416746	0.0552130337216309	0.0771980931873101	0.0115157577203012	-0.0617285550955007	-0.0113703906797257	0.0228224320754296	-0.00227083082641721	0.552734375	0.442138671875	0.13134765625	0	0	0	-0.554963513324329	-0.437107506384222	-0.603523702360919	0.369745408936817	-0.110607662897727	0.0388571986218493	0.993104255868217	0.931457671151848	-0.344450720865427	0.117219058807276	0.346630281078671	0.937999903523743	0.00190505348256975	89.0689063974431	-83.2674733544703	160.643289724369
46244	1655813946891	9.62749793070026	1.1755625267715	0.057858305005604	0.0484521380094288	0.0229580665685798	-0.113659773188569	-0.0147044544529856	0.0207614482588432	-0.00141815769991798	0.560791015625	0.442626953125	0.127685546875	0	0	0	-0.554885838769078	-0.437094641964811	-0.603617072895378	0.369724774945372	-0.110810593450262	0.0387308811973718	0.993086567838311	0.931419626915085	-0.344503729514495	0.117365493003563	0.34666769531724	0.937985660440648	0.00209995979838112	88.974945758561	-83.2588342395486	160.734291028287
46245	1655813946892	9.64506819227243	1.18547944390083	0.0741212874226072	0.0606252862546465	0.0333346151204575	-0.0950020095764934	-0.0148942907282273	0.0278283829364197	0.000408948542967356	0.5595703125	0.44091796875	0.131591796875	0	0	0	-0.554836018823739	-0.437004254867072	-0.603714471358197	0.369747360391649	-0.110887763398464	0.0384877375290941	0.993087407023359	0.931375066388828	-0.344628341422967	0.117353278596137	0.346762728155282	0.937949892237292	0.00236854688779936	88.8437534998581	-83.2592438618277	160.858760127268
46246	1655813946893	9.61661844208539	1.1911521914633	0.152412853192304	0.0966602515148819	0.102079566694067	-0.122400497400102	-0.0155205501850017	0.0241273855046845	-0.000742469011144459	0.552978515625	0.4462890625	0.129638671875	0	0	0	-0.554844525246303	-0.43692323847175	-0.603751721196821	0.369769516914846	-0.110836114329531	0.0383509690709593	0.993098463865315	0.931346898204782	-0.344737176087839	0.117257130390071	0.346854884591039	0.937915498642762	0.00249127297512608	88.7828633126367	-83.2646432336608	160.91360731049
46247	1655813946894	9.54622444421367	1.15185551361704	0.0994867721171432	0.048753959744151	0.0615873738567266	-0.197028275143175	-0.029472713525663	0.0144038770444552	-0.00398286397556292	0.549072265625	0.447998046875	0.122802734375	0	0	0	-0.554853096943833	-0.436825739975062	-0.603851207144081	0.369709390383465	-0.110906014948249	0.0382493059487735	0.993094580814303	0.931247152651005	-0.344996479115052	0.117286700344132	0.347100268694358	0.93782430123806	0.00264262741415494	88.7092672647853	-83.262746538199	160.971691811368
46248	1655813946895	9.61082766433722	1.18185349124497	0.0838418287804739	0.061496890793023	0.0399834510261016	-0.129380346415093	-0.028471730185772	0.0133621762129532	-0.00171204033275157	0.551025390625	0.44189453125	0.134765625	0	0	0	-0.554779806519009	-0.436921659071293	-0.603888836623891	0.36964456321467	-0.111164526329134	0.0383421764789653	0.993062095535257	0.931239077455179	-0.34492472144045	0.117561546262609	0.347039232229509	0.937846903306763	0.00263766022624073	88.7147034681661	-83.2468997169426	160.96998058736
46249	1655813946896	9.61437169902848	1.1607066872732	0.0964057138416401	0.0449239503940583	0.0579673029866903	-0.128303098757131	-0.029900603447944	0.0152536932531466	-0.00768095228006498	0.5625	0.44580078125	0.129150390625	0	0	0	-0.554778009456585	-0.436833096214112	-0.60399815416971	0.36957331618363	-0.111273848376849	0.0382475895542609	0.99305349934467	0.931133992775426	-0.345184820034055	0.117630470185879	0.347286075398223	0.937755064988372	0.00279641255076463	88.6381720339741	-83.2427125516871	161.030879662279
46250	1655813946897	9.58844938316456	1.17906720430741	0.0314304177933987	0.0411255437009878	-0.010730841318906	-0.152058895048652	-0.031349651590144	0.00330233631467263	-0.00744350530511299	0.56005859375	0.439697265625	0.133544921875	0	0	0	-0.554807813106067	-0.436780058449886	-0.604075221403032	0.369465286520745	-0.111367385145216	0.0382883285623343	0.993041443959828	0.931027627585349	-0.345437165193317	0.117731565758727	0.347541166192889	0.93766047629145	0.00282294211395723	88.6264373411008	-83.2368447754196	161.026928250518
46251	1655813946897	9.6581811183501	1.13526934162272	-0.0249526344464429	-0.0279020281887428	-0.0459915737910779	-0.0881293901678965	-0.0225407411438212	0.00598810581803084	-0.00972067459404496	0.549560546875	0.443115234375	0.126953125	0	0	0	-0.554815921376402	-0.43673655890995	-0.604146470445779	0.369388025992529	-0.111463559281193	0.0382878484041269	0.993030672042385	0.930945736917407	-0.345627328729677	0.117820985187252	0.34772965054432	0.937590417133073	0.00288094299749891	88.5992903639168	-83.2316059909617	161.042350172846
46252	1655813946898	9.63529641836322	1.20079005752251	0.00232641814985852	0.0440979084610852	-0.0438884772832604	-0.103054611765447	-0.0166892667690354	0.0134780069264504	-0.010739534134193	0.55810546875	0.432861328125	0.1259765625	0	0	0	-0.554800688141324	-0.436718623998139	-0.60420757252055	0.369332166484197	-0.111579894476007	0.0382770027062546	0.99301802511966	0.930890169766943	-0.345741188506524	0.117925919124544	0.347841082938741	0.937548879597177	0.0029460797821721	88.5689080474397	-83.2254604678752	161.065689135504
46253	1655813946899	9.62121138046064	1.17038772127425	0.000777588129984348	0.0155165444540038	-0.0360883720081695	-0.120630145869855	-0.0180088750387078	0.0115573277388863	-0.0108418480801722	0.561279296875	0.451171875	0.1357421875	0	0	0	-0.554781297345669	-0.436681800168811	-0.604286133366341	0.369276301078123	-0.111705451155033	0.0382286950051428	0.993005769902902	0.930822887494437	-0.345888037726773	0.118026342288667	0.347980810245004	0.937496683853189	0.0030534350335672	88.5180433305938	-83.2195105757399	161.107634872816
46254	1655813946900	9.66815932984498	1.19140248339433	-0.0288150033009801	0.019332496466283	-0.0695167367432255	-0.0716212809908594	-0.00832606479274036	0.0147807254941837	-0.0112171689830826	0.56103515625	0.4501953125	0.126953125	0	0	0	-0.554778130984385	-0.436664693628089	-0.604307901560623	0.369265664300861	-0.111728189099832	0.0382037277716349	0.993004172672413	0.930804362619806	-0.345933629014262	0.118038819228927	0.34802305999518	0.937480879539084	0.00309034144031933	88.5002977437687	-83.2187355051052	161.122669558177
46255	1655813946900	9.67165410720435	1.17084273058562	-0.0169231980153056	0.00277932705078235	-0.0515242391048873	-0.0705423371761427	-0.000661354988060634	0.00624701274858246	-0.00993418091784288	0.548095703125	0.4404296875	0.131103515625	0	0	0	-0.554745209041894	-0.436687464357066	-0.604331623987479	0.369249373414658	-0.111825306555895	0.0382024104173926	0.992993291342888	0.930798704385549	-0.345917917412557	0.118129447332754	0.348007000975358	0.937486730706766	0.00312362303692187	88.4853165205787	-83.2134575855621	161.138508917114
46256	1655813946901	9.63017077273821	1.21083360256833	-0.0349028626149331	0.0367879737185251	-0.082219805848717	-0.107049216888795	0.00794991411727936	0.00438340289134222	-0.00966561496028982	0.556396484375	0.44384765625	0.121826171875	0	0	0	-0.554666356500354	-0.436850126859172	-0.60428467005051	0.369252267659515	-0.111995991589856	0.0383451669473235	0.992968552392062	0.930879105859454	-0.345629458982862	0.118340049676842	0.347736952511677	0.93758728940563	0.00301439925949504	88.5408573337813	-83.2014732911694	161.099831282399
46257	1655813946902	9.64300052290439	1.22760054150754	-0.0627202295950171	0.0405822723042425	-0.113018580034663	-0.092400545163251	0.00411516162505751	-0.00296533082587919	-0.00959997891754308	0.56103515625	0.444580078125	0.12841796875	0	0	0	-0.554653068833356	-0.436904205571412	-0.604271448513442	0.36922988083201	-0.11205853666904	0.0384303669631583	0.992958202168989	0.930890666662375	-0.345568020509586	0.118428501307606	0.347685851136443	0.937606447341401	0.00294937677550694	88.5733846494941	-83.1964655649238	161.070644517209
46258	1655813946903	9.65942442943358	1.2229703027533	-0.080096331417557	0.0287145976669534	-0.123651223401806	-0.0766492672638872	-0.00253650632150424	-0.00486001023606547	-0.0133979055052769	0.5478515625	0.449951171875	0.13037109375	0	0	0	-0.554672344863093	-0.43707883032331	-0.604142697602474	0.369204938835996	-0.112052605966373	0.038766143977826	0.99294581905421	0.930976014843967	-0.345299618444632	0.118540428914523	0.347459167790105	0.93769150555131	0.00260137185457154	88.7428448658552	-83.1904790849884	160.916232923889
46259	1655813946903	9.66288637528397	1.20271053763308	-0.0689904733674679	0.0121617142297274	-0.105628934216465	-0.07557589039952	-0.00479931902555337	0.00977930066149124	-0.0139007163531729	0.5498046875	0.44384765625	0.130859375	0	0	0	-0.554628116648933	-0.437095290760299	-0.604191028106741	0.369172805841582	-0.112198183299022	0.0387488816000529	0.992930053850292	0.930952470041957	-0.345318292444446	0.118670870166321	0.347475274209805	0.937685342253998	0.00267071803525459	88.7107615795618	-83.1828651424531	160.947081756439
46260	1655813946904	9.58974252139893	1.15259399974532	0.0190765468836466	-0.00011977059757428	-0.0080642933677523	-0.153912446702025	-0.00296316332483917	0.019221517579241	-0.0185103212288916	0.56005859375	0.44140625	0.1259765625	0	0	0	-0.554437131507884	-0.437248756203855	-0.60428810165951	0.369119062900084	-0.112701169218146	0.0387453766776532	0.992873225665276	0.930962407902569	-0.345129285203891	0.119141812840418	0.347285821088499	0.937755070517221	0.0028259848069816	88.6412272639209	-83.1554894359781	161.027614544788
46261	1655813946905	9.54343578663416	1.14993208494547	0.082236114671714	0.0225993152044066	0.0498855424828477	-0.200025212845194	-0.0114487367261831	0.00788475540015566	-0.0177006155369704	0.557861328125	0.4482421875	0.129150390625	0	0	0	-0.554401838779947	-0.437260099240302	-0.604353096640014	0.369052220358313	-0.112878119612026	0.0387599016970121	0.992852557096617	0.930911310478689	-0.345208128521922	0.119312530881051	0.347365315101699	0.937725449170934	0.00288441353955043	88.6151283837681	-83.1455598009826	161.04863841087
46262	1655813946905	9.55224251479235	1.10535842825589	-0.0684406558532261	-0.0731267473131526	-0.0733091850396085	-0.197017013986823	-0.00715036940175464	-0.00437612334370151	-0.0236422557950273	0.55078125	0.4443359375	0.132080078125	0	0	0	-0.554407255789827	-0.437404469613336	-0.604291104334499	0.368974505775213	-0.112980817631062	0.0390644002047089	0.992828941703486	0.930936446469427	-0.345070288100428	0.119514973560489	0.347264549705687	0.937763546373463	0.00261984937974125	88.7442387172032	-83.1342319408071	160.926592442993
46263	1655813946905	9.56225115135931	1.16062588499725	-0.0763651466433069	-0.0274642345127227	-0.0982601440157889	-0.1804954299411	-0.00665175349817253	0.000910253256846375	-0.0228600958244192	0.550048828125	0.441650390625	0.1357421875	0	0	0	-0.554373301007351	-0.437458010656919	-0.604334929444	0.368890261590381	-0.113180436067988	0.039163542418367	0.992802299471907	0.930896623261573	-0.345100927631743	0.119736487955475	0.347306299527753	0.937748136064773	0.00260146408460865	88.7553546241262	-83.121474451049	160.912973177292
46264	1655813946906	9.59441167333207	1.2196746046934	-0.0283586842794616	0.0372697329029351	-0.0721636663874189	-0.141361253394802	-0.00326576157048266	0.0068765705848081	-0.0211277420381293	0.554443359375	0.45751953125	0.13427734375	0	0	0	-0.554288468091589	-0.437493455700309	-0.604447456004982	0.368791327567753	-0.113514501702987	0.0391651952303833	0.992764093521562	0.930825114210496	-0.345184865860433	0.120050052627774	0.347388924201879	0.937717172639747	0.00272754072016146	88.6984621277081	-83.1032207239981	160.964351343972
46265	1655813946907	9.657800801982	1.23597903237773	-0.0761035601396015	0.0268781548935672	-0.119300718834601	-0.0765897434160649	-0.00540015091146422	-0.00330007056012319	-0.0198445982557444	0.555908203125	0.44580078125	0.12841796875	0	0	0	-0.554271151044294	-0.437550083004763	-0.604471819242131	0.368710232736587	-0.113672510790732	0.0392928859822041	0.992740967927546	0.9307926666041	-0.345205378275715	0.120242499165434	0.347424196173151	0.937704279568303	0.00266683196511824	88.7294577957319	-83.0921952875265	160.931398657719
46266	1655813946908	9.69534692710103	1.22038235813038	-0.068619182385632	0.00717558009519755	-0.103024244848566	-0.0411405036150825	-0.00666671614515706	-0.00132362962892195	-0.0173676592459005	0.5537109375	0.440673828125	0.138427734375	0	0	0	-0.554155845256915	-0.437749859066171	-0.604477381993527	0.368637294251944	-0.114035688908401	0.039497473254633	0.992691196325266	0.930829099393003	-0.344963212348308	0.120654754773893	0.347207501903974	0.937784800331524	0.0025727201102852	88.7784677843903	-83.0685252114648	160.895928478377
46267	1655813946909	9.70246897505797	1.17874672113526	-0.0469934797168416	-0.0261832941342365	-0.0672513663837637	-0.0390315482687828	-0.00146160262210899	0.000234450102593536	-0.0140428795418964	0.545166015625	0.443603515625	0.130859375	0	0	0	-0.554132723055448	-0.43779667265535	-0.604492380392571	0.368591861953546	-0.114153929081544	0.0395729806749905	0.992674599088616	0.930816868777506	-0.344948225427045	0.120791881241967	0.347201436164205	0.937787129883552	0.00254199730211602	88.7944204483687	-83.0606498621095	160.880444566692
46268	1655813946909	9.72255818331409	1.15273896302705	-0.0531166670205314	-0.0569711492140259	-0.0632765428161777	-0.022257525889648	-0.0054905216485656	-5.36175229612256E-05	-0.0121435932395218	0.564453125	0.44140625	0.130615234375	0	0	0	-0.554108619463396	-0.43777916484986	-0.604588917526049	0.368490544606519	-0.114356712743921	0.0395838183651105	0.99265082661228	0.930725016294068	-0.3451282427179	0.120985288869603	0.347380895120632	0.937720436698536	0.00262608131945613	88.7565450766168	-83.0493853459275	160.907043820148
46269	1655813946909	9.69290799015024	1.14376716620127	-0.00841577870720969	-0.0473865722113457	-0.0186306357980628	-0.0526593527831167	0.00513674270980346	-0.00176463347551436	-0.0128233713001508	0.556640625	0.44384765625	0.128662109375	0	0	0	-0.554081742339805	-0.437845919865079	-0.604582261858851	0.368462565139016	-0.114457521793724	0.0396729982263136	0.992635647615264	0.930736722394558	-0.345052577097357	0.121110992996958	0.347316324538707	0.937744513313838	0.00256874652637729	88.7849470379696	-83.0422023170644	160.8827804074
46270	1655813946910	9.68911917125863	1.16639467862633	-0.0192588595812213	-0.0282675510616866	-0.0352685403077577	-0.0536999771088702	0.00461619823081176	0.00233013004618405	-0.00881829044160173	0.55419921875	0.44921875	0.130859375	0	0	0	-0.554143619255385	-0.437866550901857	-0.604503744451873	0.36847381967179	-0.114303786910048	0.0397943030870916	0.992648506642626	0.930769517983418	-0.344999855635586	0.121009107113234	0.347279064573348	0.937758771248362	0.00239546567970894	88.8659353600049	-83.0482870080928	160.804688272155
46271	1655813946911	9.61711158913415	1.18038231079773	-0.0232875447205918	-0.0091767632986418	-0.0465437622922178	-0.123495991895913	0.00511081208417681	0.00761569216923786	-0.00803514261614031	0.5576171875	0.4453125	0.12939453125	0	0	0	-0.55409965351575	-0.437902461438012	-0.604513491684101	0.368481270368185	-0.114390254723148	0.0397794055720631	0.992639143151582	0.930787003053924	-0.344925975308757	0.121085203485801	0.347203721999445	0.937786580438021	0.00243001648051178	88.8503054265006	-83.0438558261157	160.824794121703
46272	1655813946912	9.59580774339303	1.19290390043453	-0.0473351590533831	-0.00454167313362047	-0.0730906967076332	-0.143177363211423	0.00436428469707778	0.00549632829985041	-0.00956291980840894	0.550048828125	0.443603515625	0.1337890625	0	0	0	-0.554042918584139	-0.438022317963937	-0.604479210630452	0.368480362092546	-0.11451733423783	0.0398888900784081	0.9926200968182	0.93084376372051	-0.344717343435292	0.121242899493334	0.347009607506329	0.937858640512112	0.00234578666453722	88.8915894537021	-83.0348509887506	160.795656229104
46273	1655813946913	9.63077093087623	1.21354771834287	-0.0190766363071176	0.0196100710802931	-0.0523126840636864	-0.105901620545465	0.00152632183501454	0.00871358772115114	-0.00793321477576688	0.557373046875	0.444091796875	0.124267578125	0	0	0	-0.554002445235245	-0.438045518110545	-0.604499412256948	0.368480495165808	-0.114606830711462	0.0398640908034028	0.992610763904308	0.930849061826923	-0.344676497491251	0.121318325792526	0.346965846230162	0.937874707165932	0.00239482947326869	88.8691254838153	-83.0304427452764	160.820614972942
46274	1655813946914	9.61774155061612	1.19852761711673	0.00976944065110179	0.0164073822547072	-0.0199384473594674	-0.120584934218355	0.00316241375874854	0.0136076932841281	-0.0100000432107759	0.556396484375	0.440185546875	0.13720703125	0	0	0	-0.553957699601384	-0.438110960027683	-0.604491835884708	0.36848239320855	-0.114703185895285	0.0399006824505239	0.992598163752812	0.930879075897832	-0.344559025197844	0.12142167932585	0.346853463585229	0.937916314867533	0.00237930751193016	88.8774094150972	-83.0244956751954	160.819244275676
46275	1655813946914	9.6767305700457	1.30375879963251	0.0333471805830222	0.114821099749293	-0.0318530566497797	-0.0491933663086694	0.00247682115989733	0.00376931556831218	-0.00824105058278533	0.557861328125	0.442626953125	0.12890625	0	0	0	-0.553929900648654	-0.438147289602181	-0.604496444635125	0.368473426728616	-0.114777997924488	0.0399240163976873	0.99258857746154	0.930887521997566	-0.344508572818267	0.121500060263168	0.346806044615255	0.937933854900973	0.00237723556327013	88.8791101192165	-83.0199744761426	160.820442232784
46276	1655813946914	9.71255501218291	1.25597521394718	-0.0205791549055642	0.0483394114463326	-0.0644585882513975	-0.0195708794307183	-0.00480695930690938	-0.00407161314648704	-0.00770320191847174	0.555908203125	0.450439453125	0.12744140625	0	0	0	-0.55401695111347	-0.438078333791129	-0.604501486905782	0.3684162641231	-0.114669348417026	0.0399892867462864	0.992598507695402	0.930822004597036	-0.344713659584732	0.1214202975357	0.347017775181	0.93785571909608	0.00230518268344576	88.912361636257	-83.024657943619	160.774516776639
46277	1655813946915	9.69492452494668	1.24687756130684	-0.0342427738648145	0.0365067533315992	-0.0743782245729581	-0.0382015542166787	-0.00267820913155022	0.00610850476938815	-0.00898705276547963	0.553955078125	0.44384765625	0.13427734375	0	0	0	-0.553990374903039	-0.438096183333447	-0.604525087696735	0.368396277137422	-0.114757695012156	0.039992554209672	0.992588165879124	0.930811721184275	-0.344711834279911	0.121504283930025	0.347016154006504	0.937856250667002	0.0023327973269146	88.9000962128754	-83.0197804260599	160.786777794401
46278	1655813946916	9.68554967908243	1.21043331757777	0.00481241953769763	0.0157386796017727	-0.0244624245809878	-0.0518370749087929	0.000732176365081247	0.00269657900752884	-0.0120413545260104	0.561279296875	0.444091796875	0.13232421875	0	0	0	-0.553938314528695	-0.438203275378317	-0.604515099121892	0.368363581368288	-0.114921231237273	0.0401124737605458	0.992564406000799	0.93083786137553	-0.344572322738486	0.121699590107915	0.346891894458113	0.93790239569553	0.00226046628964516	88.9359020281551	-83.008587364642	160.758806535286
46279	1655813946916	9.64761639409856	1.22886262975222	-0.00233961503343004	0.033744593494744	-0.0388126032182079	-0.0872585447015801	-0.00569181143607316	0.00700948759393564	-0.010310508539239	0.56396484375	0.44921875	0.12890625	0	0	0	-0.553911576020708	-0.438214340769976	-0.604550150691745	0.368333100321407	-0.115025386315751	0.0401123296534179	0.992552346988655	0.930815654869674	-0.344597837502312	0.121797155296296	0.346916960024229	0.937893027694793	0.00230031498758132	88.9180151814781	-83.0029132902359	160.77501425952
46280	1655813946917	9.6124413017894	1.21009332656409	-0.029138191122668	0.0115174110317806	-0.0581869455014067	-0.124514978623031	0.00109849422051941	0.00956654965451163	-0.0116308103484312	0.561767578125	0.44482421875	0.12890625	0	0	0	-0.553916486601439	-0.438252627051148	-0.604506169619232	0.368352347143561	-0.114986148449896	0.040168177956029	0.992554634841001	0.93085324372406	-0.344502366473195	0.121779957886201	0.346829099576513	0.93792570973082	0.00222232150777263	88.9545446231322	-83.0039894314631	160.744130110964
46281	1655813946917	9.61323107955932	1.22671109801949	0.00265298558588776	0.0367919443155817	-0.0343229761679373	-0.121634423296886	-0.00161430031227762	0.0111998546161391	-0.00962940807913524	0.55078125	0.441162109375	0.132080078125	0	0	0	-0.553871595485872	-0.438266291775026	-0.604542026230502	0.368344745759758	-0.115096807970227	0.0401267426402935	0.992543484850988	0.930846258452147	-0.344489611529894	0.121869400070815	0.346811141575213	0.937932168161996	0.00229782641540488	88.9198259981357	-82.9987463441283	160.779671772753
46282	1655813946918	9.54119838001584	1.24068333647648	-0.000677141072501652	0.0569248970793008	-0.0452053593134036	-0.191435989460533	-0.0072140734703395	0.0121503394938567	-0.00857937193177633	0.556396484375	0.444091796875	0.132080078125	0	0	0	-0.553889224566702	-0.438236781426509	-0.604560693729227	0.368322708927195	-0.11509021799486	0.040122397231367	0.992544424679472	0.930816126932379	-0.344573810986933	0.121861505917765	0.346894190733284	0.93790142446973	0.00231050062766219	88.9137991205209	-82.9991881312108	160.780580809297
46283	1655813946919	9.54567841592123	1.23552390753668	0.0420969709780805	0.0654564598024631	-0.00361363935057411	-0.187513589986242	-0.0085304375829391	0.0102262990815171	-0.00868291619297133	0.553466796875	0.443603515625	0.126708984375	0	0	0	-0.553862447671086	-0.438228557646427	-0.604606894649056	0.368296922693837	-0.115187531588086	0.0400869656773912	0.992534567533758	0.930786400632289	-0.344626215994764	0.121940344624408	0.346941650662806	0.937883684916158	0.00238424064585052	88.8798660324781	-82.9945559420863	160.811347061873
46284	1655813946919	9.59998287237786	1.21331525845352	0.0336376625465293	0.035338968629116	-0.00104041409763681	-0.136340605371462	-0.0095932704742246	0.00513570600989411	-0.00804187413832092	0.5556640625	0.445068359375	0.127685546875	0	0	0	-0.553884321458356	-0.438247620109425	-0.604598265495622	0.368255508133588	-0.115200078343779	0.0401836884365435	0.992529200141347	0.930770254343649	-0.344653808395397	0.121985597459736	0.34698080001442	0.937869406443234	0.00230236382208399	88.9187242438561	-82.9920349132395	160.770385325091
46285	1655813946919	9.62662878669274	1.26154095202169	0.00929087887310084	0.0679787461309562	-0.039209729446335	-0.104062582526721	-0.0151124708290437	0.000604064806520332	-0.0092010275806548	0.55517578125	0.453125	0.124755859375	0	0	0	-0.553897864888847	-0.43823878958983	-0.604632788033741	0.368188959917271	-0.115268090133228	0.040240825014513	0.992518988936327	0.930717294446605	-0.344767306187758	0.122068924800818	0.347100252398394	0.937825239896105	0.00228783714083403	88.9262781882232	-82.987241267204	160.755579832344
46286	1655813946920	9.67635807236863	1.2453287199827	-0.041186027849439	0.028599730069872	-0.0763462241005278	-0.0567764002954796	-0.011608076734484	0.00499034895012057	-0.00709308606262536	0.55029296875	0.454833984375	0.12744140625	0	0	0	-0.553859685629971	-0.438398487517181	-0.604564250379482	0.368168822606713	-0.115382333388514	0.0404590804491932	0.992496841280126	0.930785913458488	-0.344516968406071	0.122252369251226	0.346878221353071	0.937907842642067	0.00209242955303657	89.019440864189	-82.9768552472759	160.676665257982
46287	1655813946921	9.69747484117653	1.23428294034598	-0.0158247932350292	0.0240479290067572	-0.0480143050988611	-0.037113755275513	-0.0108634379799469	0.00711039420062089	-0.0055646372950659	0.550048828125	0.44873046875	0.129638671875	0	0	0	-0.553853732880827	-0.43838145444636	-0.60460014785556	0.368139109827389	-0.115439276778943	0.0404444894755771	0.992490814389642	0.930752330407793	-0.344590592425983	0.122300543956162	0.346949380770765	0.937881424745458	0.00213548594293622	88.9996618545386	-82.974031614672	160.691940880201
46288	1655813946922	9.67621138638727	1.24652341540197	-0.039472830218312	0.0263878813653766	-0.0736650548885401	-0.056749553536573	-0.00621574601708684	0.0111067003454864	-0.00630529939666302	0.562255859375	0.4453125	0.1318359375	0	0	0	-0.553700398145149	-0.43858598479745	-0.604602214396137	0.368122758574421	-0.115803007426923	0.0405547987990423	0.992443938852593	0.93082613881388	-0.344255937117619	0.122680679245403	0.346630008469727	0.937999551201193	0.0021164060663077	89.0116690845566	-82.9521085797047	160.699487731246
46289	1655813946922	9.6798170001593	1.22560663066154	-0.0276057975915327	0.00980026699821372	-0.0555841333677635	-0.0557131850806733	-0.00551664350556853	0.0093288461576946	-0.0073581391811948	0.552490234375	0.453125	0.130859375	0	0	0	-0.553673344808506	-0.438587196956303	-0.604635898023011	0.36810668118968	-0.115886597024161	0.0405270531591818	0.99243531506713	0.930809108156752	-0.344277483859064	0.122749412544842	0.346647805131652	0.937992842227437	0.00217419582914813	88.9852560815429	-82.9480827407654	160.72460282587
46290	1655813946923	9.64928966493495	1.20053877737079	-0.0129477301578801	-0.00600755598904635	-0.0337046362211664	-0.0890522459771734	-0.00254850185490805	0.00453071263958503	-0.0086153893448556	0.55712890625	0.443115234375	0.13720703125	0	0	0	-0.553629960101835	-0.438675071736275	-0.604619462645313	0.368094219059887	-0.116001026344664	0.0406134670643769	0.992418413865843	0.930841182787717	-0.344141654663732	0.122886996674477	0.346523382058627	0.938038947921844	0.00211609742962948	89.0134719432081	-82.9401993833899	160.704186243618
46291	1655813946924	9.64092799274763	1.22895687490046	-0.0648814512153136	0.00264703782874923	-0.0923292371887298	-0.0939680331137946	0.00235275915928798	0.00536058024810527	-0.00861121411081972	0.558349609375	0.44580078125	0.13427734375	0	0	0	-0.553597655592025	-0.43871107541711	-0.604627083228776	0.368087378560634	-0.11608263493475	0.0406276495214517	0.99240829095739	0.930850041811221	-0.344088548101446	0.122968576170852	0.346472252174187	0.938057815467576	0.00212445605875322	89.0102328452882	-82.9354818684025	160.710513407609
46292	1655813946924	9.64820575122475	1.18663819548845	-0.0426094827338342	-0.0300623716659978	-0.0576272428599624	-0.0919067745126316	0.00844299390841442	0.00969928748479488	-0.00887464580219908	0.5625	0.44677734375	0.132080078125	0	0	0	-0.553585530732878	-0.43865412057621	-0.60467746607092	0.368090728884552	-0.116104550944874	0.0405128098424729	0.992410421896383	0.930817486746909	-0.344183555621502	0.122949121208368	0.346552362011945	0.938027927237995	0.00225124532941862	88.9510096329973	-82.9364746759361	160.764390540468
46293	1655813946925	9.64898417937766	1.20300974657575	-0.0111303728591438	-0.00480482555331261	-0.0337043570305479	-0.0890515763099273	0.00523911966087289	0.006044066201629	-0.00765877378602339	0.55615234375	0.4462890625	0.126708984375	0	0	0	-0.553548126637593	-0.438694190650719	-0.604679116354899	0.368096515644445	-0.116178853332861	0.0405161431766011	0.992401590174237	0.930837246429401	-0.34410472451946	0.123020157791793	0.34647437812628	0.938056704419024	0.0022637571706442	88.9457898842403	-82.9323608680812	160.774324062268
46294	1655813946926	9.6175965381666	1.16231718823616	-0.0274416026371332	-0.0441564339556736	-0.0351196410412084	-0.125235983705547	0.0199428945378286	0.00853608545871913	-0.00764514968729548	0.55224609375	0.447509765625	0.141357421875	0	0	0	-0.553520182319989	-0.438802949320966	-0.604583015896407	0.368166750700377	-0.116137302886345	0.0405978480389501	0.99240311447158	0.930947306003809	-0.343810430691896	0.123010167025753	0.346192490274611	0.938161074913076	0.00213475886333686	89.0057700168808	-82.9330707142251	160.732023445993
46295	1655813946926	9.66630317569096	1.21433917431399	0.00393956056085882	0.00881649318792586	-0.0216375436387986	-0.0704337088287978	0.0206868236315742	0.0106571880949817	-0.00611692123336288	0.55029296875	0.444580078125	0.1279296875	0	0	0	-0.553444176918101	-0.438877041312344	-0.604560116850046	0.368230295818564	-0.116211984553638	0.0405531844591266	0.992396198036011	0.93102258713032	-0.343586783700591	0.123065284785959	0.345964907034328	0.938244936728415	0.00217297128873795	88.9884300212105	-82.9298503860431	160.763121497923
46296	1655813946927	9.63210636664492	1.21068364637276	0.00775608065555237	0.00885000089982752	-0.018876733947109	-0.104811518717543	0.0228300581796883	0.00922208195246836	-0.00669306200922637	0.54833984375	0.44677734375	0.13623046875	0	0	0	-0.55333646121565	-0.438941284082247	-0.604595316598675	0.368257807744138	-0.116409895449646	0.0404705419050456	0.992376375917583	0.931058325357049	-0.343433472327421	0.12322274493152	0.345802155899483	0.938304633540218	0.00229861963514	88.9313179911415	-82.9206291791329	160.829710833351
46297	1655813946928	9.63202059228422	1.21136292767146	0.00820102461031579	0.00903817241113486	-0.018520786116917	-0.104811006477716	0.0236576846331046	0.00586150296969918	-0.00737274003561736	0.54931640625	0.44921875	0.131591796875	0	0	0	-0.553266403222194	-0.439036455768563	-0.60455544025807	0.368315078738473	-0.116480579678899	0.0404744723721394	0.9923679215109	0.931142010693831	-0.343181986560103	0.123291037880744	0.345552934409068	0.93839647334528	0.00228655514351128	88.9375144841659	-82.916699840627	160.83877064016
46298	1655813946929	9.66518973920604	1.20078175590254	-0.0252692413395764	-0.0191241858127567	-0.0449560343881147	-0.07328177455447	0.0234039650365923	0.0090296033176551	-0.00811910605097268	0.545654296875	0.4501953125	0.125732421875	0	0	0	-0.553110309019878	-0.439165262599923	-0.60459268434403	0.368334826237157	-0.116796883673558	0.0404285855506478	0.992332614315644	0.931198750879108	-0.342926655812769	0.123572630846242	0.345293171559092	0.93849178909751	0.00240571636295372	88.8847046173738	-82.9003135678111	160.906992045667
46299	1655813946930	9.69551793175953	1.2274035740795	-0.0386188765351683	-0.00325638527365821	-0.0653276240310044	-0.0399292797559187	0.0283064048107482	0.00986362004867817	-0.00811506404843791	0.552978515625	0.445068359375	0.130615234375	0	0	0	-0.55301738715077	-0.43926930852196	-0.604555629463212	0.368411095087966	-0.116890069050042	0.0403971275244066	0.992322923168287	0.931297133492952	-0.34263147921345	0.123649984228925	0.344996175203851	0.938600949040528	0.00242848819914904	88.8748543805601	-82.8958224275899	160.93488559675
46300	1655813946931	9.65842964292175	1.261272607655	-0.014758343934627	0.0386280891318055	-0.0546666875135569	-0.0724713072240508	0.029071514105559	0.0142252505549454	-0.0120848999961434	0.556396484375	0.443115234375	0.13330078125	0	0	0	-0.552855074783775	-0.439490902015889	-0.604508684805858	0.3684674521927	-0.117166005920894	0.0404660011640167	0.9922875741469	0.931433100839114	-0.342158967439762	0.123933932648765	0.344535202436236	0.938770335998294	0.00239802666217498	88.891508878781	-82.8794646206324	160.946458228128
46301	1655813946932	9.67125339358014	1.27808264014871	-0.0414109040246913	0.0424955743440704	-0.0853014349809951	-0.0577260642570554	0.0301121610443261	0.0170829234593966	-0.00723351189179481	0.5625	0.43994140625	0.133544921875	0	0	0	-0.552738668862568	-0.439585324798828	-0.604485839273046	0.368566922395251	-0.117276775320259	0.0403646437368925	0.992278616874553	0.931538585386401	-0.341846331875204	0.124003827843219	0.344212175709669	0.938888588129317	0.00248941233109223	88.8499253128229	-82.8753255642511	161.007420320728
46302	1655813946932	9.63702896387272	1.274637475591	-0.036989381168396	0.0462089958585064	-0.0829290766959534	-0.0921223877421333	0.0311326201524934	0.0182777563034243	-0.0104572037227263	0.561279296875	0.44677734375	0.128173828125	0	0	0	-0.552734996699013	-0.439528024254405	-0.604476055286479	0.368656802330376	-0.117152371039368	0.0401966228163795	0.992300132759243	0.931573461325151	-0.341814555981122	0.123829299740028	0.344160148934376	0.938907365416624	0.00259827863832107	88.7979536502612	-82.8852718501907	161.062185971236
46303	1655813946932	9.63691819947846	1.27551611856667	-0.0355305175798266	0.0463937049711854	-0.0825754952396396	-0.0921202574760151	0.0249577453926537	0.0194201532198711	-0.0079890174586676	0.558837890625	0.445068359375	0.133056640625	0	0	0	-0.552619987744768	-0.439603657593437	-0.604472143273633	0.368745442523192	-0.117275895526695	0.0400748398149249	0.992290467324069	0.931660231672437	-0.341550845697695	0.123904126336656	0.343883086307646	0.939008534049077	0.00271954675088854	88.7426283449942	-82.8808020372812	161.133973277048
46304	1655813946933	9.63600130487552	1.26065492476499	-0.0645924747671016	0.0232040922129528	-0.105450553507429	-0.094956886971616	0.0198019410653853	0.021753682877712	-0.00874408420625425	0.548583984375	0.444580078125	0.131591796875	0	0	0	-0.552574679630547	-0.439628197055808	-0.604438512472803	0.368839201311795	-0.117237734013751	0.0399735839242193	0.992299060924465	0.931736056654453	-0.341369383858272	0.123834019938922	0.343690608619629	0.939078833939131	0.00277654356931634	88.7155583108621	-82.8847760388887	161.172586597753
46305	1655813946934	9.62296089053872	1.24550829137791	-0.0348460836569305	0.0196996545968857	-0.0740980046606811	-0.109698003851788	0.0185281495632509	0.0237305090423408	-0.00627116524805519	0.552978515625	0.452880859375	0.1328125	0	0	0	-0.552462734662013	-0.439671383260973	-0.604457020597922	0.368925076134757	-0.117358430017469	0.0398054048094205	0.992291554258018	0.931802814186528	-0.341166725880693	0.123890195842592	0.343468360082705	0.939159621629788	0.00294800310230625	88.6368875604293	-82.8813045541901	161.264191043396
46306	1655813946935	9.58954839546827	1.25765919479322	0.0006876675196527	0.0444879852708496	-0.0469574580189917	-0.141236532727865	0.022776709085643	0.0169589339243035	-0.00999238224681505	0.558837890625	0.4521484375	0.123046875	0	0	0	-0.552302410707048	-0.43979694483388	-0.604486841091368	0.368966601997183	-0.117651387475671	0.0397309142877071	0.992259847759101	0.93187273712568	-0.340884587850876	0.124140644301669	0.343178310542704	0.939265219315398	0.00308138888393633	88.5781100644262	-82.8666603123418	161.340156700241
46307	1655813946935	9.64181474721633	1.28844306720988	0.0432299889234173	0.0806785054087744	-0.0157448590863203	-0.0854169850507382	0.0129075905032092	0.00914990965217105	-0.00708165796621907	0.55419921875	0.44921875	0.13818359375	0	0	0	-0.552242751788316	-0.439852453164625	-0.60447924555184	0.369002173759733	-0.11773067771572	0.0397023470304028	0.992251586627543	0.931918969435493	-0.340734430411306	0.124205806380266	0.343025541222351	0.939320909792048	0.00311552508465968	88.563118587138	-82.8628496625036	161.364336954925
46308	1655813946937	9.6189780922399	1.26935647303977	-0.0422200394056781	0.0351259667195957	-0.0896970004064128	-0.1107025941541	0.00643525937299653	0.00955292341223377	-0.00794034620556769	0.55908203125	0.440185546875	0.132080078125	0	0	0	-0.552166883430358	-0.439959834115248	-0.604456412199465	0.36902509800695	-0.117864419767533	0.0397433273702334	0.992234068394351	0.931981674381582	-0.340511642812488	0.12434620913419	0.342809184780347	0.93939996223051	0.00309415441617805	88.5745812916565	-82.8547756364906	161.366135929341
46309	1655813946937	9.63633798431556	1.28009458518807	-0.027280484814747	0.0473116080542532	-0.0790481415897499	-0.0920953571433323	0.0152843253214009	0.0161736900772605	-0.00762889314134762	0.548828125	0.44921875	0.13916015625	0	0	0	-0.552080359530982	-0.440011306180485	-0.604463879955649	0.369080946246819	-0.117973063475388	0.0396509986555298	0.992224850827599	0.932035401799748	-0.340338611101792	0.12441719971646	0.34262569385003	0.939466565716376	0.00319465410696906	88.5291423760288	-82.8505309692175	161.422393319628
46310	1655813946939	9.63992059430521	1.25943970491499	-0.0152284293111478	0.0308245764549884	-0.0623094486093822	-0.0910796475312328	0.00890026329285343	0.0110892985887492	-0.0106873068024991	0.552978515625	0.444580078125	0.134521484375	0	0	0	-0.552046274486725	-0.439950312180548	-0.604548754285911	0.369065627401035	-0.118070946992816	0.0395095310069983	0.992218851078645	0.931982192187174	-0.340468570966639	0.124460217057201	0.342736699117866	0.93942543564859	0.00337726727513238	88.4456423671989	-82.8477694457448	161.498453046054
46311	1655813946939	9.63164937641714	1.28759684090548	-0.0668388094188446	0.0394874664196111	-0.120962278092566	-0.0959568655569587	0.0087471426694467	0.0104392642697902	-0.00556333423943247	0.551513671875	0.449462890625	0.134765625	0	0	0	-0.551993715114053	-0.439986195722913	-0.604551360122853	0.369097194545654	-0.118140398906227	0.0394628075917698	0.992212443463219	0.932015651512188	-0.340358817103612	0.124509842808275	0.342621761542651	0.939467169429993	0.00343017209572899	88.421934514802	-82.8448213631069	161.528972740576
46312	1655813946941	9.58446878692065	1.26813307249185	-0.0347096549930082	0.0362396704881967	-0.087339273844364	-0.145088568614696	0.013587728686391	0.0189990303772281	-0.00885794422434519	0.5556640625	0.4453125	0.12548828125	0	0	0	-0.551888057040482	-0.439988503011051	-0.604634602564045	0.369116088915663	-0.118345770799373	0.0392880806508048	0.992194902855623	0.932009519536871	-0.340326860243398	0.124643025033578	0.342567561258437	0.939486069569766	0.00365937942835293	88.3183432239819	-82.8367572716061	161.635017649989
46313	1655813946941	9.60182379548394	1.27884270831954	-0.0191138595752375	0.0484248953292205	-0.0767173946428175	-0.126481016313944	0.0088514196532578	0.0204825360921412	-0.00591694659588922	0.554443359375	0.443115234375	0.1259765625	0	0	0	-0.551803980472654	-0.440006811412659	-0.604665770217576	0.369168903582336	-0.118453375524701	0.0391474210951892	0.992187621999186	0.932042618795155	-0.340216653076561	0.124696374120714	0.342440293447302	0.939531855974548	0.00381274608999793	88.248656218582	-82.8334126331222	161.71189839815
46314	1655813946943	9.66144589837351	1.26647172833654	0.0459986848000554	0.0527984814898828	-0.00842987741275433	-0.0686253578714062	0.0115717652604811	0.018852534195724	-0.00791188075821388	0.552001953125	0.4443359375	0.13330078125	0	0	0	-0.551786753617384	-0.440078464649413	-0.604591349050336	0.369231125635013	-0.118399508789379	0.0391910459735518	0.992192329255741	0.932126823409738	-0.339998641628233	0.124661576963505	0.342229661774816	0.939608953558051	0.00372464696840691	88.2886219791505	-82.8355748484234	161.685103777654
46315	1655813946944	9.63653368634573	1.30012056373024	0.0117192092168508	0.0745338173818048	-0.0537988465185241	-0.0892732193645749	0.0129492215272266	0.0130604225132178	-0.00450747945873281	0.559814453125	0.447265625	0.129638671875	0	0	0	-0.551721151929527	-0.44011920024558	-0.604589619738859	0.369283430162753	-0.118467037441575	0.0391162870556659	0.992187218788267	0.932176001527508	-0.339849675564844	0.12470004087673	0.342072306999565	0.939665958788254	0.00379772017749458	88.2556051994716	-82.8332274537561	161.727443532479
46316	1655813946946	9.63571743772824	1.28492057546823	-0.0180164586942073	0.050496697236014	-0.0769667952657142	-0.0920946785354992	0.0171124272103224	0.0117752932308786	-0.00602427283429983	0.553466796875	0.446533203125	0.134033203125	0	0	0	-0.551692918244513	-0.440143540033399	-0.604566870519397	0.369333842473315	-0.118454873525498	0.0390741374530013	0.992190331902283	0.932222158736986	-0.339732353941528	0.124674674433516	0.341950712380911	0.939710135875767	0.00381717625144096	88.2463175555764	-82.8346573115689	161.744076670926
46317	1655813946947	9.56448120560826	1.3138465469023	0.00881892490840508	0.0946486499771596	-0.0647904816825473	-0.159065502657389	0.00846628763219302	0.0113767498273356	-0.000816213433239106	0.545166015625	0.448974609375	0.12255859375	0	0	0	-0.551649049785881	-0.440163375854733	-0.604563389798911	0.36938142365494	-0.11848137945797	0.0390024448544619	0.992189987863772	0.932260387308774	-0.33962713282963	0.124675502408532	0.341837290207829	0.939751147879746	0.00387905685299983	88.2179184582875	-82.834499280228	161.779164219801
46318	1655813946949	9.58187257443751	1.32414349233669	0.0232653796406765	0.105890952458668	-0.0529077400674913	-0.140450435892374	-0.00343145099083364	0.0017384508882243	-0.00503237549570353	0.55859375	0.445556640625	0.1318359375	0	0	0	-0.551615743161128	-0.44026453185495	-0.604546770298124	0.369337807988088	-0.118619310974702	0.0391497359169351	0.992167706207737	0.932277651789683	-0.339513451162192	0.124855902757749	0.341742357686901	0.939786100481153	0.00377442777467579	88.2684603973869	-82.8242717527297	161.73477390785
46319	1655813946950	9.59481171010648	1.34038063818152	-0.00423745349467593	0.109803667554184	-0.0835439766215113	-0.125685064973309	-0.0124973206754944	0.00218473927572532	-0.00352564073020001	0.547119140625	0.444091796875	0.12255859375	0	0	0	-0.551632255004695	-0.440245926039557	-0.604568993194549	0.3692989470764	-0.118640285853396	0.0391743206320902	0.99216422792582	0.932241091119234	-0.339603624587671	0.124883650634246	0.341834800161489	0.939752494420701	0.0037707596880161	88.2705262528733	-82.8226764909539	161.727082454515
46320	1655813946951	9.63259093524844	1.32344348031107	0.00451875401477928	0.0930033990439411	-0.0672632344407654	-0.0902824610052093	-0.0164300068935656	0.0119306266125303	-0.00198978280093006	0.555908203125	0.447265625	0.12451171875	0	0	0	-0.551671659473918	-0.440223414901281	-0.604567246603656	0.369269778671395	-0.118596421386543	0.0392207369851166	0.992167638367957	0.932214390366344	-0.339686351065266	0.124857972488223	0.341922826421709	0.939720658861084	0.00372345021189441	88.2918609852446	-82.8242406356602	161.700557151439
46321	1655813946951	9.65737384443875	1.29061859494949	0.0418584446734785	0.0716682930490417	-0.0211804014086478	-0.0696522711175937	-0.028761932906394	0.0164388549757047	-0.0025681067244168	0.548095703125	0.444580078125	0.12841796875	0	0	0	-0.551677492435448	-0.440126865200284	-0.60466234643485	0.369220440486451	-0.118656421334254	0.0391087749018421	0.992164884180964	0.932123566486827	-0.339929217711924	0.124875072555083	0.342149544024285	0.939637499608991	0.00388057373821404	88.2200693614652	-82.822977445525	161.757946321174
