// Start Time : 21/06/2022 12:18:32																																
// Update Rate : 100Hz																																
// Filter Profile : 46.1 human																																
// Firmware Version : 4.4.0																																
PacketCounter	Time_Of_Arrival	Acc_X	Acc_Y	Acc_Z	FreeAcc_X	FreeAcc_Y	FreeAcc_Z	Gyr_X	Gyr_Y	Gyr_Z	Mag_X	Mag_Y	Mag_Z	VelInc_X	VelInc_Y	VelInc_Z	OriInc_q0	OriInc_q1	OriInc_q2	OriInc_q3	Mat[1][1]	Mat[2][1]	Mat[3][1]	Mat[1][2]	Mat[2][2]	Mat[3][2]	Mat[1][3]	Mat[2][3]	Mat[3][3]	Euler_X	Euler_Y	Euler_Z
46098	1655813946771	8.74466010116998	1.12604668830036	-4.22891156228711	2.68882138776405E-15	8.94466792300541E-16	-0.0341009926436673	0.0170787936732072	-0.0573159340316016	-0.0251623642094673	0.28369140625	-0.27685546875	-0.184814453125	0	0	0	0.572890841068557	-0.622813210171461	0.307724860904976	0.434977240136416	0.0348182304338648	-0.445901346171855	0.89440465132488	-0.981314589043091	0.154202988401549	0.115078736955274	-0.189233633798656	-0.881699170834451	-0.432200421088639	165.090208068237	-63.4320612470904	-85.5351158315633
46099	1655813946772	8.84319217259844	1.16431623838689	-4.30936664498153	1.12757025938492E-14	-8.45677694538693E-16	0.0932865320040008	0.00881632408376475	-0.0463442449628019	-0.0253911403485655	0.287353515625	-0.276611328125	-0.17724609375	0	0	0	0.583021926475054	-0.614404534535893	0.312501237848922	0.430041250967789	0.0497000885692476	-0.447645784213185	0.892828736697231	-0.985199477227317	0.124856819184416	0.117442602041049	-0.164048441831159	-0.88545131237088	-0.434814997617902	164.885198808707	-63.2308855952656	-83.6646547038452
46100	1655813946772	8.99224130891346	1.16087986331884	-4.27146943094611	-0.00632807345905374	-0.0797255250064985	0.209642695304522	-0.00167438518502501	-0.0197581272459296	-0.0281226542059775	0.28857421875	-0.27783203125	-0.17529296875	0	0	0	0.577871579869129	-0.618689184766275	0.309998286148733	0.432653663358635	0.0422495104761807	-0.446802005023366	0.893634683285974	-0.983289581571956	0.13993099952881	0.116451338089837	-0.177077885792011	-0.883621685835045	-0.433423740334402	164.961057290074	-63.3335941485668	-84.598184264065
46101	1655813946772	9.05127426300163	1.08061940391897	-4.34279238552779	0.0905314474374971	-0.0553268707527553	0.283940383854693	-0.00962811087557277	0.00921201752411805	-0.0310473411740822	0.289794921875	-0.2763671875	-0.17529296875	0	0	0	0.577932508158911	-0.618594464482043	0.30992795077156	0.432758096233757	0.0425711076854315	-0.44676404089159	0.893638401455897	-0.983259360673711	0.139877362687383	0.116770514493801	-0.177168649704061	-0.883649373436002	-0.43333019094935	164.918605378348	-63.3340688355576	-84.5568526841387
46102	1655813946774	9.01648221230101	1.06153198946774	-4.34363239137117	0.111924758810203	-0.0396100564829353	0.25095239368952	-0.0147848608721005	0.0416184096481768	-0.037051611653426	0.29638671875	-0.271240234375	-0.179443359375	0	0	0	0.577952026298118	-0.618414129543984	0.309928760587708	0.432989125774335	0.0430162554818483	-0.446435832324275	0.893781097014952	-0.983218964721055	0.139831237316933	0.11716523581367	-0.177285276256032	-0.883822534611642	-0.432929160643488	164.856587094977	-63.3522922473917	-84.4962647689193
46103	1655813946774	8.96702109276849	1.01810891566468	-4.35944035872471	0.16039552880621	-0.00485909097060021	0.208439185119973	-0.0184136345265355	0.0679251700429269	-0.043788554690648	0.293212890625	-0.276123046875	-0.1728515625	0	0	0	0.577942249635922	-0.618169018285067	0.309973285331722	0.433320185658256	0.0435672544262718	-0.445896623067719	0.89402354324624	-0.983167349263884	0.139798636932858	0.117636322847761	-0.177436911839629	-0.884099848800191	-0.432300358163506	164.777425949373	-63.3832811649746	-84.4195104053253
46104	1655813946775	8.90817348567151	0.981513369999341	-4.30527448477376	0.19009844354112	-0.024694969266101	0.128014630430737	-0.0135947560931269	0.0881168115566785	-0.0505652543558862	0.28955078125	-0.274658203125	-0.17431640625	0	0	0	0.577931081323539	-0.617854215174179	0.310078697181319	0.433708468427861	0.0442147406916717	-0.445186795658607	0.894345444264569	-0.983121823045072	0.139693733589082	0.118140348096988	-0.177528977234995	-0.88447406845377	-0.431496331936591	164.688102765106	-63.4244775689997	-84.3281392730025
46105	1655813946776	8.88782559080681	0.916459891538965	-4.27628844093503	0.254752214653298	-0.0419283356584316	0.0895001469405123	-0.00601685920247578	0.103144893103123	-0.0628558742641553	0.2958984375	-0.274169921875	-0.183349609375	0	0	0	0.577952191515808	-0.617458124840195	0.310221800360197	0.434141869637314	0.0450157973002152	-0.444362008020006	0.894715588230055	-0.983083097662523	0.139467397806706	0.118728547701398	-0.177542110733434	-0.884924432241224	-0.430566543218191	164.583827682603	-63.4719213458568	-84.2154235508261
46106	1655813946776	8.7685071287445	0.905230918539452	-4.26671752458446	0.266014791720203	0.0103805118147529	-0.0228888769145978	0.000860523350258165	0.110996222086986	-0.0738688776188185	0.291015625	-0.266357421875	-0.1787109375	0	0	0	0.578004971425284	-0.617007104292799	0.310393414212584	0.434589938532091	0.0459163233313401	-0.443478637765088	0.895108032082024	-0.983054056978739	0.139132362842223	0.119360406616191	-0.17747228603186	-0.885420173395638	-0.429575027480257	164.47167783927	-63.5223095509205	-84.0888451386472
46107	1655813946777	8.68463378781564	0.917070906720217	-4.25389772003755	0.256148823990914	0.0470641458725543	-0.102296543621918	0.013788391369748	0.106816064725304	-0.0826450355175277	0.299072265625	-0.27978515625	-0.1728515625	0	0	0	0.578123987580899	-0.616514610921735	0.310564997986027	0.435007783297633	0.046918233091921	-0.442647387848449	0.895467458612806	-0.983040153223392	0.138644074018998	0.120041150818981	-0.177287158457862	-0.885912586416041	-0.428635220992837	164.354866863661	-63.5685366440977	-83.949547896692
46108	1655813946777	8.61225333095651	0.98136789001379	-4.19205160802051	0.185845722304576	0.0418363573256754	-0.186110221966508	0.0208592382319896	0.103061726287058	-0.0846639523226729	0.289306640625	-0.271728515625	-0.16796875	0	0	0	0.578261330872026	-0.616025266319035	0.310759379484256	0.435379504038989	0.0478829586382454	-0.44185065167424	0.895809814573996	-0.983043709735517	0.138084882561348	0.120655003864124	-0.177009285127874	-0.88639752189583	-0.427746591050648	164.247768029527	-63.6126381094396	-83.8150441828632
46109	1655813946780	8.58286737403274	1.0131202464526	-4.19137554148605	0.160314621655229	0.0665199258128252	-0.209067222407118	0.0275428214817122	0.0936810692521384	-0.0788614058790196	0.2900390625	-0.267822265625	-0.184326171875	0	0	0	0.578418516574581	-0.615550402551996	0.310943341260404	0.435710867580272	0.0488238808877843	-0.441128715464264	0.896114772251805	-0.983054287419781	0.137492516418955	0.121243869595001	-0.176693227489459	-0.886849065129818	-0.426940556796525	164.146353728101	-63.6519797153819	-83.6842405047155
46110	1655813946781	8.57647714894662	1.04930343999274	-4.11775975525405	0.11738529990402	0.0163959307854928	-0.241956620147476	0.0386964809247112	0.0945780484931317	-0.0840476004470925	0.29443359375	-0.267333984375	-0.175048828125	0	0	0	0.578603373823127	-0.615059837256249	0.311173911838598	0.435993496494931	0.0497443863707615	-0.440411790198107	0.896416728469017	-0.98309099756017	0.136777864783119	0.121753464926141	-0.176231627526806	-0.887315767221495	-0.426160935210378	164.055449621908	-63.6909879264792	-83.555769782272
46111	1655813946782	8.5648048721913	1.15396493680567	-4.1045513258452	0.0178488597125236	0.0310123950908147	-0.245369418442252	0.038898143302254	0.0829821793347914	-0.0750774400485164	0.296142578125	-0.27001953125	-0.17041015625	0	0	0	0.578789845012944	-0.614601110355326	0.311369883361644	0.436252892477803	0.0506285417707134	-0.439777738320698	0.896678477290329	-0.983121787308671	0.136102222090498	0.122260935956803	-0.175807571159992	-0.887734040137901	-0.425464419080214	163.967530601859	-63.72484545851	-83.4328471176003
46112	1655813946783	8.56729317027192	1.15865015967859	-4.09803320185862	0.0169738534931512	0.0309002485829204	-0.245367463172563	0.0381003465795932	0.0795969385052901	-0.0711783626932371	0.294921875	-0.2705078125	-0.17822265625	0	0	0	0.578955981403673	-0.614183871544475	0.311584883268277	0.436466498199167	0.0513860649066679	-0.439178126440876	0.896929231093117	-0.98316357800848	0.135449664231208	0.122648959788559	-0.17535350356058	-0.888130599470334	-0.424823712936901	163.896278125085	-63.7573188230166	-83.326447304423
46113	1655813946784	8.52086586163518	1.26373139629096	-4.09184495818877	-0.0846323222139282	0.0656508612777804	-0.276761062936059	0.0365761883864067	0.0690003409609464	-0.0659327556416568	0.2978515625	-0.2744140625	-0.170166015625	0	0	0	0.579130703875125	-0.613785366227922	0.311753019113666	0.436675173449409	0.0521551585559392	-0.438654294953982	0.89714115330556	-0.98319350973333	0.134835365805231	0.123085119110413	-0.174958171727587	-0.888482883147782	-0.424249695932885	163.821275178928	-63.7847925176553	-83.219473141877
46114	1655813946785	8.48698178382781	1.34480984882364	-4.06473603147755	-0.167198658989411	0.0719298636554261	-0.308671363921764	0.0333773531179584	0.0599315636119082	-0.0550428009112824	0.306396484375	-0.2685546875	-0.18359375	0	0	0	0.579270935317497	-0.613464311036529	0.311925943118001	0.436816813539514	0.0527274901888435	-0.438215097409842	0.897322316773894	-0.983233083542294	0.134294779012676	0.123359700704277	-0.174563785494866	-0.888781435861494	-0.423786554838262	163.770291019944	-63.8082998635277	-83.1389660572771
46115	1655813946786	8.66619359058146	1.38670005003611	-4.07137499987797	-0.194431070971918	0.00765580309410423	-0.139834628100003	0.0198060521831716	0.0196371870771649	-0.0383995473890061	0.293212890625	-0.26513671875	-0.17724609375	0	0	0	0.579401333827604	-0.613279296216475	0.311959694851985	0.4368795577489	0.0531393072401633	-0.438092057428526	0.897358102010606	-0.983247311518194	0.133950486293299	0.12362035274999	-0.174358648819836	-0.888894041176917	-0.423634801617964	163.732291689488	-63.812945591068	-83.0839730681345
46116	1655813946787	8.44720301809602	1.37164182494139	-4.12093967377954	-0.180096557528271	0.147344693801812	-0.317181203922717	0.011545804242154	0.0392229143471615	-0.0363572328892187	0.29833984375	-0.26513671875	-0.17041015625	0	0	0	0.579477617985829	-0.613083128637993	0.31203085687961	0.437002874118576	0.0535316434688533	-0.437819139480744	0.89746797394217	-0.98325266456103	0.133684869216892	0.123865061159697	-0.174208383211476	-0.889068477029077	-0.42333046473416	163.690702759527	-63.8272142245465	-83.0291109197196
46117	1655813946788	8.57560464778348	1.3649863881483	-4.14908177904139	-0.158848348819034	0.117819240961868	-0.190839966589042	0.0020962156052108	0.0286940667831744	-0.0298636513096336	0.300537109375	-0.266357421875	-0.16845703125	0	0	0	0.579528962974764	-0.612930622185968	0.31205516125664	0.437131341581921	0.0538752574396293	-0.437603913126467	0.897552378333553	-0.983240278277177	0.133535514812975	0.124124217850726	-0.174172362357621	-0.889196874432225	-0.423075533079766	163.649077483857	-63.838180401607	-82.9813940979908
46118	1655813946789	8.58930622133725	1.34366802648568	-4.12504293155634	-0.138958652543557	0.0889463133090298	-0.191336996996503	-0.00380415351930948	0.02098333798435	-0.0160803193641203	0.286865234375	-0.265869140625	-0.1708984375	0	0	0	0.579552111549732	-0.612852300728732	0.312047764013856	0.437215736752122	0.0540765009309065	-0.437495303820555	0.897593221443896	-0.983224076001236	0.133491085944401	0.124300226648632	-0.174201459289486	-0.889256987101223	-0.422937185020505	163.622063945021	-63.8434884462682	-82.9537087583974
46119	1655813946790	8.61146153871539	1.26694511271268	-4.16535334588853	-0.0535372837531411	0.106176909501632	-0.163933652120001	-0.0100240747004397	0.0114313979288796	-0.0134992565891039	0.30078125	-0.27099609375	-0.1669921875	0	0	0	0.579553724871967	-0.612803829334576	0.312020662858521	0.437300872042623	0.0542291454044193	-0.43741166788662	0.897624772711489	-0.983199299740014	0.133521171872717	0.124463784501695	-0.174293823124786	-0.889293612626551	-0.422822106520182	163.597447163816	-63.8475895918096	-82.932682214943
46120	1655813946792	8.62214450834962	1.19634772760932	-4.13857121333285	0.0135173936374102	0.0679692587518262	-0.174451379450222	-0.0142547933661745	0.00218183110208393	-0.00533722761386207	0.30126953125	-0.26708984375	-0.168701171875	0	0	0	0.579559799695917	-0.612812183635365	0.311935267578579	0.437342034345161	0.0543152328574716	-0.437477803784224	0.897587336517049	-0.983167421811496	0.133613654834217	0.124616258691951	-0.174446771733314	-0.889247188602795	-0.422856667671032	163.579704991987	-63.8427235687675	-82.9226359697374
46121	1655813946792	8.60665501895678	1.17204876684928	-4.15612470905086	0.0406128164704122	0.0871384875047995	-0.183962682989343	-0.00594322462845002	-0.000387319440442352	-0.00734134530633563	0.288330078125	-0.267578125	-0.16796875	0	0	0	0.579569899947909	-0.612801028203155	0.311899884544196	0.437369515317248	0.0543867237089469	-0.437491058546156	0.897576547140338	-0.983153063868557	0.133634386191376	0.124707272575109	-0.174505407624162	-0.889237552355622	-0.422852738184946	163.568214534695	-63.8413213026152	-82.9136277669465
46122	1655813946794	8.59769822901448	1.16859496349065	-4.21034669280771	0.0538279117665465	0.13712645287969	-0.169485245179809	-0.00581681462169655	-0.0122919659488248	-0.0029431991685462	0.29541015625	-0.2666015625	-0.16845703125	0	0	0	0.579612463263937	-0.612839716160252	0.311800409607143	0.437329828955848	0.0544159737308793	-0.437699835335521	0.897472983409628	-0.983138314542942	0.133659793995859	0.124796289795206	-0.174579369573225	-0.889130987884374	-0.423046250548533	163.564234083343	-63.8278649566207	-82.9132028904088
46123	1655813946795	8.60453629806227	1.14878258383021	-4.1556063200712	0.0643028596198074	0.0815650285839989	-0.188965505866676	-0.000174940589988943	-0.0134793336462251	-0.00211064590003836	0.294189453125	-0.2666015625	-0.17919921875	0	0	0	0.579639560681416	-0.612863346451061	0.311756197054951	0.437292318555559	0.0544131843492824	-0.437822501320825	0.897413317655888	-0.983136862257718	0.133652106581779	0.124815962425896	-0.174588417253325	-0.889071747241711	-0.423167003460277	163.566220659605	-63.8201153252228	-82.9155277187758
46124	1655813946798	8.58959017995813	1.14768380753754	-4.17695038344696	0.0679868534366898	0.10397462558733	-0.193450449567091	0.00278652737977813	-0.0216593934510499	0.00388712980748668	0.296142578125	-0.273681640625	-0.1630859375	0	0	0	0.579697607252485	-0.612938157249719	0.31166708061669	0.437174027582761	0.0543408924943779	-0.4381320605065	0.897266607513755	-0.983143072099138	0.133628630011226	0.12479218334813	-0.174575963942304	-0.888922767622504	-0.423485000933875	163.580855951892	-63.8010690738925	-82.9297927934983
46125	1655813946798	8.60276120634521	1.14838322154618	-4.15939014521847	0.0643489617107411	0.0802551009662183	-0.188954800994528	0.000787292424755246	-0.0303344488125455	0.000631165095346216	0.299072265625	-0.271240234375	-0.177734375	0	0	0	0.579744658146384	-0.613005071541301	0.311582928102368	0.437077787734096	0.0542817223595982	-0.438400877464033	0.897138877352019	-0.983144785106812	0.133624420531774	0.124783195001683	-0.174584724804193	-0.888790855531443	-0.423758172769246	163.591989213626	-63.7844973198631	-82.9417004530005
46126	1655813946799	8.64843536995456	1.12358880409727	-4.13471039097438	0.0860830235934576	0.030321165974128	-0.161501658905046	0.0033237281242382	-0.036295881771404	0.00274702834013703	0.28955078125	-0.273193359375	-0.164306640625	0	0	0	0.579831571279516	-0.613115554921443	0.311449980021879	0.43690224902748	0.0541764525154852	-0.438861117709779	0.89692019229994	-0.98315390463427	0.133588517783798	0.124749780435543	-0.1745660671357	-0.88856908976109	-0.424230669478202	163.613436305398	-63.756147623848	-82.9625649250527
46127	1655813946800	8.6696645619869	1.06930756395459	-4.18214639948442	0.148047994020704	0.0520850584881266	-0.129081722003942	0.00753501281482927	-0.04378815941418	-0.000770405098360039	0.306396484375	-0.269775390625	-0.176513671875	0	0	0	0.579918564692904	-0.61319723613762	0.311344446979788	0.436747344871788	0.0541075698560684	-0.439251200991173	0.896733379166898	-0.983166643227164	0.133518187318745	0.124724677993365	-0.1745156798964	-0.888386895492572	-0.424632784164587	163.63124057724	-63.7319522263066	-82.9776025992394
46128	1655813946801	8.62690521089855	1.04900089943925	-4.15598278591672	0.159582445111273	0.0388357328010424	-0.181014999627246	0.0159942359154605	-0.0498799655219564	-0.000728168244645633	0.301513671875	-0.26220703125	-0.1689453125	0	0	0	0.580060231371537	-0.613316269258812	0.311212612841235	0.436485957909511	0.0539797269419672	-0.439840883241332	0.896451998998695	-0.983200624959445	0.133353675179462	0.124632774162688	-0.174363758156985	-0.888119808778982	-0.425253436312697	163.665256722075	-63.6955478532553	-83.0033292619496
46129	1655813946802	8.67736114107651	1.02129164762506	-4.16682695927458	0.19081129293034	0.0176994131357938	-0.134600999041382	0.0194738602041986	-0.04835815016729	-0.0169616734907649	0.2978515625	-0.272705078125	-0.178466796875	0	0	0	0.580229970236882	-0.613342286778458	0.311095073360904	0.436307547744538	0.0540621891598909	-0.440292896457965	0.896225108458749	-0.983225410751978	0.133106073938962	0.124701903482503	-0.174198367830597	-0.887932958285259	-0.425711158223443	163.673315695435	-63.6662272761096	-82.9998693403442
46130	1655813946803	8.75304044663974	0.989258316330607	-4.22562836314218	0.236047932704322	0.0257794542676332	-0.0457073327327571	0.0294498995185316	-0.0443418350741752	-0.0316517656009987	0.29296875	-0.26708984375	-0.173828125	0	0	0	0.580479427777686	-0.613351272048112	0.310966757266142	0.436054499895637	0.0541997859046875	-0.440878683202696	0.89592877501805	-0.983272498498118	0.132686619604541	0.12477762089088	-0.173889553755119	-0.887705045426338	-0.426312297992292	163.685740320634	-63.6279783307433	-82.9914619210009
46131	1655813946804	8.81884247749707	0.988759945549675	-4.21869426047534	0.240175839625245	-0.0145409645798997	0.0101997741321096	0.0452002089823707	-0.0452945192168599	-0.0481707417741312	0.29150390625	-0.266845703125	-0.16162109375	0	0	0	0.580796098833255	-0.613239870848829	0.310868843122453	0.43585928320628	0.0545948463540399	-0.441344507006982	0.895675403752019	-0.983324791545053	0.13207290791156	0.125016404238257	-0.173469758414709	-0.887565081067608	-0.426774495237232	163.672942093561	-63.5953154814256	-82.9482660696528
46132	1655813946804	8.84279099464647	1.00993628771281	-4.27353614143819	0.230001318534532	0.0194382376643472	0.0577104852283838	0.0574748258084303	-0.0480139276588808	-0.0531844452575379	0.298828125	-0.2685546875	-0.17529296875	0	0	0	0.581165137006997	-0.613159163406177	0.310799614479132	0.435530163706601	0.0548788799413207	-0.441968244468002	0.895350422693963	-0.983418672364183	0.131301366334523	0.125090631320479	-0.172846820572016	-0.887369157724427	-0.427434152282648	163.687635066146	-63.5534760163364	-82.9218527662645
46133	1655813946805	8.8932520632682	0.983923286266239	-4.28408739753381	0.261217543085936	-0.0017121975126449	0.104126809644946	0.0644581236167456	-0.0304497380565048	-0.0430439242216604	0.30126953125	-0.265380859375	-0.17431640625	0	0	0	0.581484745135427	-0.613000155632183	0.310815003746028	0.435316360611525	0.0552496852825531	-0.442294766023157	0.895166360083253	-0.983506191039871	0.130539049242287	0.125200354668684	-0.172229627133149	-0.887318937345215	-0.427787399260586	163.686852423018	-63.5298062256874	-82.8797234852057
46134	1655813946806	8.90617353557059	1.05069314740262	-4.36138728541653	0.206990369341786	0.0649186967321396	0.157193378914235	0.0753853430406341	-0.0214208611088585	-0.0335355887337986	0.29150390625	-0.26513671875	-0.172119140625	0	0	0	0.581777878915196	-0.612913088726279	0.310935194932408	0.434961319918557	0.0553137004407148	-0.442668987843205	0.894977408511203	-0.98364811903094	0.129707608314562	0.124949246785284	-0.171396535759765	-0.887254249664204	-0.428255909454105	163.734706454381	-63.5055281420433	-82.877522683
46135	1655813946807	8.61715224957615	0.968796376133099	-4.33166327505781	0.265754403464492	0.153537727043971	-0.124396155049473	0.0678000342582946	-0.0113827417681218	-0.0281695960419498	0.297119140625	-0.268310546875	-0.177001953125	0	0	0	0.582029346360409	-0.612750423421377	0.311048516716655	0.434773019885743	0.0555714776905854	-0.442806450964253	0.894893433796297	-0.983748462739777	0.128981320447289	0.124911092513036	-0.17073597431242	-0.887291533803923	-0.428442482855601	163.746117804061	-63.494744987987	-82.8468714706391
46136	1655813946808	9.06854097374917	0.923022368215656	-4.32717704729144	0.331381161187393	-0.0604343857868448	0.272023852462643	0.0902156780699927	-0.0219650429259234	-0.0435317941240814	0.2958984375	-0.263427734375	-0.17724609375	0	0	0	0.582383221160312	-0.612626494173447	0.311203846207538	0.434362439045235	0.0556818894847742	-0.443216258731834	0.894683673249469	-0.983917305447692	0.127963899633148	0.124627350253595	-0.169724079682171	-0.887234235355261	-0.428962875304619	163.799739561505	-63.4678274943489	-82.8393651074984
46137	1655813946808	8.68114657952132	0.918524061831305	-4.31967226063039	0.313719084677008	0.102382491972275	-0.0783841668609106	0.105980927145678	0.0127116520760576	-0.074299921587455	0.293701171875	-0.26806640625	-0.1708984375	0	0	0	0.582821101368056	-0.612217523330245	0.311403930036029	0.434208314390252	0.0564345929709951	-0.443198231337426	0.894645440638679	-0.984054933559201	0.126694312316485	0.124837650428263	-0.168674314742922	-0.887425421636112	-0.428981464144985	163.774506121709	-63.462924028429	-82.7433011703395
46138	1655813946809	8.70189518726835	0.943221301373571	-4.33576910985588	0.292080939020744	0.108782770494632	-0.0497782610352271	0.112988412759299	0.0176363822854304	-0.0950978213732332	0.30224609375	-0.261474609375	-0.17578125	0	0	0	0.583307159629739	-0.611837718359393	0.311657707360784	0.433908789217363	0.0570481596707835	-0.443316606398762	0.894547871256347	-0.98424068020347	0.125244461934612	0.124836325592035	-0.167379183027006	-0.887572087915002	-0.429185272165084	163.781969108217	-63.4504142210892	-82.6671968952618
46139	1655813946810	8.73267582297762	0.997968178726591	-4.29997200052453	0.237867868883251	0.0704148355650495	-0.0308784434804803	0.1228236915826	0.0265826885147323	-0.109569774234625	0.2958984375	-0.2685546875	-0.182373046875	0	0	0	0.583867219606726	-0.61126895052329	0.311872933835858	0.433802504759344	0.0581710865335404	-0.44321728541863	0.894524769135907	-0.98438232487719	0.123668686018651	0.125289642699616	-0.166155238138568	-0.887842606549472	-0.429101320010268	163.723172843106	-63.4474529951249	-82.5228199283479
46140	1655813946812	8.73704093428839	1.09985670643247	-4.30782849278223	0.139416071691332	0.0864636395073313	-0.0108487509435751	0.128546772666295	0.0319523987488537	-0.123116038968982	0.30224609375	-0.2705078125	-0.1689453125	0	0	0	0.584444579047472	-0.610776297660533	0.312161779017929	0.433511097849268	0.0590146758729077	-0.443278601299481	0.894439125743945	-0.984580983414053	0.121959115484771	0.125404390870454	-0.164674087612571	-0.888048453509238	-0.429246303523769	163.714266532713	-63.4364779104076	-82.4166771269354
46141	1655813946812	8.69433756252779	1.16158755002971	-4.2483820190472	0.0718486140452768	0.0611917696926492	-0.0668866489356841	0.132988659137894	0.0439595382375339	-0.127088569449879	0.30517578125	-0.268310546875	-0.173583984375	0	0	0	0.585052120562936	-0.610101931182135	0.312420311717528	0.43345495569778	0.0603383647883041	-0.443042592446085	0.894467742857911	-0.984723121944516	0.120215130102269	0.125971010960222	-0.163339079348818	-0.888403953037776	-0.429020700414716	163.636466016816	-63.4401446869613	-82.2445511801391
46142	1655813946813	8.72204682493987	1.20993007844238	-4.29880096390797	0.035216578926038	0.0991654520121771	-0.0143893300525324	0.132728112121	0.0451565711747418	-0.128936291061281	0.292724609375	-0.2685546875	-0.176025390625	0	0	0	0.585624161329608	-0.609558803034257	0.312753794344341	0.433206038085407	0.0612462595333234	-0.442971061327852	0.894441465116221	-0.984918389904213	0.118458811580421	0.12610818842346	-0.161816751053991	-0.888675502523295	-0.429035185379125	163.620124895787	-63.436777641935	-82.1280539337704
46143	1655813946814	8.71802634028955	1.24313968070084	-4.26469270910308	0.00245191126280421	0.0764388226870086	-0.0284586476458593	0.126937358354411	0.0504629327276104	-0.122410118649498	0.2958984375	-0.268798828125	-0.165771484375	0	0	0	0.586193102251519	-0.608892383373873	0.313022739459126	0.433179497348996	0.0625336601015778	-0.442666964419083	0.894502934576681	-0.985047096169923	0.116788822908489	0.126659343006552	-0.160535851701426	-0.889047990524495	-0.42874457531595	163.541852240883	-63.4446545264327	-81.9592765959627
46144	1655813946814	8.63182350665576	1.27618171957964	-4.2613056714297	-0.0347516680337886	0.115861734428892	-0.102841404949281	0.125154504292901	0.0545268805383976	-0.116596224916126	0.297607421875	-0.2685546875	-0.1806640625	0	0	0	0.586715030177697	-0.608355611241426	0.313374954754289	0.432972356354771	0.0633991760076377	-0.4424973764515	0.894525917072888	-0.985228146781637	0.115123222192663	0.126775953954997	-0.1590787329305	-0.889349602544195	-0.428662152730689	163.52452510973	-63.4476001302657	-81.8463901639426
46145	1655813946815	8.6335562976432	1.30522750770667	-4.26067710823529	-0.058219412721509	0.120394760471804	-0.0978844567425057	0.116029955919354	0.0523340270270364	-0.112978231479792	0.296875	-0.2666015625	-0.1591796875	0	0	0	0.587227666079545	-0.607729067634877	0.313636316924542	0.432968023355562	0.064595282115304	-0.442161651609178	0.894606351069948	-0.985339636374528	0.113591857793557	0.127289790762344	-0.157902661528416	-0.889713416606298	-0.428341902915172	163.449700524403	-63.457911523289	-81.6884702933124
46146	1655813946815	8.58678346818871	1.33350992137784	-4.28593036069759	-0.0836068184464898	0.166671316146653	-0.125297294092945	0.108015281621405	0.0440757532221539	-0.10907405147788	0.30224609375	-0.268798828125	-0.1630859375	0	0	0	0.58771656788416	-0.607257128949743	0.313899057309289	0.432776382205082	0.0654123223201105	-0.442093954499264	0.894580439918006	-0.985486348098862	0.112113235309607	0.127464819378449	-0.156645733422452	-0.889934580665127	-0.428343969651642	163.428266100282	-63.4545893870937	-81.5835670566428
46147	1655813946816	8.58797169271761	1.3626441553559	-4.28627637848514	-0.107077890965549	0.171202156216986	-0.120347920717469	0.0986704988648169	0.0380916897647471	-0.107336745978437	0.29541015625	-0.267822265625	-0.170166015625	0	0	0	0.588196005329819	-0.606704536792113	0.314077820042252	0.432770363249864	0.0665294559867504	-0.441875225376376	0.894606123768826	-0.985569514450019	0.110761164543102	0.128002721126588	-0.155648847322626	-0.890212474428231	-0.428129871300176	163.354331488521	-63.4578823787443	-81.4377658253496
46148	1655813946816	8.6959054920282	1.36223484071408	-4.30099539974292	-0.0948385025305812	0.135470831791847	-0.0175013940992965	0.0855745201073498	0.0370707608861504	-0.103115111976518	0.296142578125	-0.26416015625	-0.170166015625	0	0	0	0.588640285204786	-0.606290727017734	0.314239891003037	0.432628547218899	0.0673296904694147	-0.441875997891734	0.894545870969442	-0.98567258798321	0.109511811072854	0.128283718896921	-0.154648834718447	-0.890366646793739	-0.428171662067328	163.321355637424	-63.4501578125336	-81.3363454691466
46149	1655813946817	8.7103785902889	1.3696079393675	-4.27880311101437	-0.0984922392862662	0.111735152081752	-0.0130706484993954	0.0722652807071116	0.0427707476138211	-0.10804770205272	0.306884765625	-0.263916015625	-0.161376953125	0	0	0	0.589056751334749	-0.605766824877082	0.314350732006362	0.432715050434295	0.0684603423308051	-0.441613490148539	0.894589686306954	-0.985710661565301	0.108391521988031	0.128940954074394	-0.153908002405482	-0.890633933375517	-0.42788260482942	163.229999814225	-63.455774846425	-81.1879681921041
46150	1655813946818	8.73167868791624	1.3980272173786	-4.29206767729251	-0.118532255683814	0.117198675795195	0.015371841691552	0.0568647936841988	0.0541118723162342	-0.0996102298931639	0.3017578125	-0.263916015625	-0.16357421875	0	0	0	0.589419803945544	-0.605355158307769	0.31445370893119	0.432721956880388	0.0693279944991905	-0.441474588900376	0.894591424357491	-0.985758686008378	0.107406319312431	0.12939743247373	-0.153210450484807	-0.890822131475751	-0.427741145946053	163.168730118906	-63.4559976835701	-81.0753100667172
46151	1655813946818	8.76105693514366	1.4080665541299	-4.24813635717383	-0.125839106952889	0.0697324086641807	0.0242190649326019	0.0452350502610472	0.0609654197376748	-0.105484935485624	0.302490234375	-0.262451171875	-0.167724609375	0	0	0	0.589740959303361	-0.604841353249976	0.314541690004352	0.432938868164889	0.0704609252958885	-0.441044793261657	0.894714897798863	-0.985754086306279	0.106538252338314	0.130147923991013	-0.152722425782595	-0.89113920973408	-0.427254923362622	163.058518819761	-63.4718327755168	-80.9231808442463
46152	1655813946820	8.71996261149437	1.41028936598418	-4.30235026984572	-0.116490652054858	0.138259994861881	0.0109671960030084	0.0383459307265112	0.0722412022159557	-0.0994480496703793	0.30712890625	-0.256591796875	-0.15771484375	0	0	0	0.590046149173397	-0.604407207904639	0.314623428719647	0.433069933127732	0.0714080502672241	-0.440748396641484	0.894785863329879	-0.985764185585624	0.105715279892679	0.130741156541945	-0.152216493106846	-0.891383828917249	-0.426925062242871	162.973362447868	-63.4809378567879	-80.7971641951381
46153	1655813946820	8.67117902837088	1.45325474673163	-4.20340108418539	-0.169747241839214	0.0812939713762592	-0.069256455686105	0.0149836557756248	0.0703125643257739	-0.0871359913315938	0.30712890625	-0.262939453125	-0.172607421875	0	0	0	0.590231244579499	-0.603974366942379	0.314687077909168	0.433375224252238	0.0723740141470839	-0.440213918672696	0.894971344727342	-0.985724250505366	0.105198241838249	0.131457338630362	-0.152018762137685	-0.89170905329091	-0.426315916002624	162.862506652382	-63.5047493580078	-80.6637238112228
46154	1655813946822	8.67657294838535	1.38344479916939	-4.22350649519557	-0.0909405119584257	0.0921280607864644	-0.0649655785003595	0.002519483461765	0.0707923831864307	-0.0771539309413799	0.306884765625	-0.26025390625	-0.16455078125	0	0	0	0.590405949756347	-0.603654497766074	0.314676267269064	0.433590715579454	0.0731601882887946	-0.439920998354409	0.895051452183844	-0.98568382995867	0.104799322619829	0.132077588320024	-0.151904490412748	-0.891900564628863	-0.425955876361811	162.772726911818	-63.5150394342816	-80.5579515778068
46155	1655813946822	8.62957481093176	1.36466496072157	-4.24063073580522	-0.0657609962433907	0.131556574883765	-0.10221971235014	-0.00811099301935359	0.0670013319754177	-0.0776722892893443	0.305908203125	-0.258056640625	-0.154541015625	0	0	0	0.590517468559866	-0.603292544791408	0.314680680303629	0.433939274747516	0.0740283496855046	-0.4394049603265	0.895233536169925	-0.985614185078547	0.104530377538586	0.132808427231079	-0.151935781219542	-0.89218646089935	-0.42534555055049	162.659728038298	-63.5384425525638	-80.4369486932616
46156	1655813946823	8.59660156338169	1.34760887336588	-4.23820983193697	-0.0445591219503115	0.144810295925229	-0.135029142580453	-0.0139465610833139	0.0624844235984988	-0.0709854265486196	0.31005859375	-0.261474609375	-0.17041015625	0	0	0	0.590658303751677	-0.603010315788439	0.31460635275159	0.434193701094639	0.0748028037221384	-0.439145907158529	0.89529627095237	-0.985546293914922	0.104291222035066	0.133498477732873	-0.151996852289346	-0.892341982220015	-0.424997345476163	162.561660359209	-63.5465102565435	-80.3331884687481
46157	1655813946824	8.63343851376925	1.4027222268087	-4.23221710006417	-0.0895364182589348	0.133634137182613	-0.0972527030269514	-0.0189179186762015	0.0538045337143186	-0.0729028377574305	0.312255859375	-0.26025390625	-0.160888671875	0	0	0	0.590752637370666	-0.602707467785898	0.314549549148974	0.434526881613659	0.0756045788105766	-0.438741582905657	0.895427144491562	-0.985462521724401	0.10413980513956	0.134233078121893	-0.152143241517522	-0.892558527164988	-0.424489940570572	162.451897250993	-63.5633479704984	-80.2227320580024
46158	1655813946825	8.66926850510997	1.43369542525662	-4.2241460776796	-0.11160798267013	0.114839324821797	-0.0643819250681297	-0.0254394697141456	0.0479880509511723	-0.0672126954132632	0.31298828125	-0.260009765625	-0.162353515625	0	0	0	0.590877020520608	-0.602513932576629	0.314384563542064	0.434745504724547	0.0762786145150232	-0.438668723096663	0.895405675850009	-0.985377826115467	0.10405338565431	0.134920097590504	-0.152355219036383	-0.892604416474968	-0.424317384656529	162.360909434925	-63.5605852108308	-80.1356634639359
46159	1655813946826	8.67289754557707	1.53742901386632	-4.22988006700687	-0.20549298158455	0.132960721889177	-0.0446366821451001	-0.032722978633044	0.0460269230142429	-0.0578170726823762	0.3076171875	-0.253662109375	-0.162353515625	0	0	0	0.590908109389168	-0.602293782491322	0.314295760526184	0.435072385639082	0.0769207489751263	-0.438317747960843	0.895522612891289	-0.98528337327435	0.104091562346773	0.135578836834245	-0.152642958325055	-0.892772366547455	-0.423860388339171	162.262255120648	-63.575636868217	-80.0464694868349
46160	1655813946827	8.74139865053116	1.51883406551148	-4.21088418160471	-0.177733262341054	0.0849947857649757	0.00625529044958561	-0.041175161940536	0.0452525659022923	-0.0485542193215437	0.307861328125	-0.25732421875	-0.162841796875	0	0	0	0.590967985491042	-0.602151970492562	0.314100903930081	0.435327998992587	0.0775072531644608	-0.438231237943611	0.895514381680892	-0.985178909902192	0.104194924549931	0.136256864715004	-0.15302006793499	-0.892802777654978	-0.423660310886832	162.171264352032	-63.5745771201899	-79.9701712999279
46161	1655813946828	8.77023885513998	1.5035106618184	-4.16372376325209	-0.161534824700783	0.0329990754020079	0.010094452210538	-0.0552032457031837	0.0485328756392044	-0.031026009339904	0.30712890625	-0.260498046875	-0.16552734375	0	0	0	0.590865600793756	-0.602040266011965	0.314009950089905	0.435686941671897	0.0778905386895549	-0.437829697339955	0.895677520154355	-0.985069836576817	0.104551186086338	0.136771585332859	-0.153526808893999	-0.89295812086298	-0.423149280202249	162.087973586898	-63.5955881578573	-79.9125332645389
46162	1655813946830	8.80550754299767	1.48357839537745	-4.14959329937445	-0.135579089075998	0.00535411812027238	0.0330567522284575	-0.0575333646420865	0.0601324432613373	-0.0198395652460742	0.30908203125	-0.24658203125	-0.1689453125	0	0	0	0.590780169602498	-0.601971992560131	0.31387023208906	0.435997693555812	0.0782303951630893	-0.437572837187941	0.895773418576329	-0.984959626254573	0.104928537225606	0.137275404658477	-0.154060182789327	-0.893039760722327	-0.422782977244743	162.011659535984	-63.6079464159262	-79.8636052582017
46163	1655813946830	8.78675917485365	1.44091717800278	-4.12406721976384	-0.0942065060498434	-0.00716633839311104	-0.000328959734840595	-0.0604580178810502	0.070166972485196	-0.0144933396384156	0.3046875	-0.2626953125	-0.15966796875	0	0	0	0.590582530812872	-0.601869853749148	0.313863196078108	0.436411328444025	0.0784851465912306	-0.436960734194021	0.896049886187804	-0.984854551594558	0.105404336892597	0.137664221814218	-0.154601403512502	-0.893283405497301	-0.422070093106715	161.935519509893	-63.6436044076961	-79.817337869196
46164	1655813946832	8.74043613255752	1.39451687024335	-4.13762305908106	-0.0445010438769012	0.0251635258006499	-0.0424670320315243	-0.0612358478665022	0.0789165204537417	-0.0108961181751435	0.31103515625	-0.26025390625	-0.16259765625	0	0	0	0.59044388818111	-0.601769439142354	0.31378273469192	0.436795092043317	0.0788278750471135	-0.436504657908833	0.896242070949277	-0.984739691834276	0.105832820637666	0.138156264432742	-0.155157679286881	-0.893455705505185	-0.421500885952261	161.85229553012	-63.6684182537059	-79.7633497333893
46165	1655813946833	8.68366243531962	1.40333226595351	-4.08815214333229	-0.0613145431395151	0.0147655536626233	-0.112979197782156	-0.0581283554185125	0.0818831135424322	-0.0029097366011304	0.30224609375	-0.258544921875	-0.1591796875	0	0	0	0.590198009510653	-0.601671782182903	0.313842217892632	0.437218982161967	0.0789882575861665	-0.435775426313211	0.896582753004451	-0.984646526579095	0.106338743675793	0.138431532857143	-0.15566654380189	-0.893751559111923	-0.420685247810975	161.785588650117	-63.7124587067365	-79.7261650591625
46166	1655813946834	8.63172273948299	1.35923809963096	-4.06770643778057	-0.0211663470185688	0.0204682949068324	-0.174247216932912	-0.0547439584495603	0.0786016924673149	0.00237413376671573	0.310546875	-0.253173828125	-0.165283203125	0	0	0	0.590016903210506	-0.601598701200923	0.313833888497192	0.437569819651652	0.0791745862881885	-0.435258329335476	0.896817468401561	-0.984555281296648	0.106776688713233	0.138743060433002	-0.156148272347062	-0.893951299283987	-0.420081886721506	161.722838869804	-63.7428406128373	-79.6904760951395
46167	1655813946834	8.59468349309469	1.36481583998546	-4.0330492919056	-0.0323637837167433	0.0135506343879447	-0.221255876221146	-0.0487308945260674	0.0666758254967799	0.00518362459056242	0.307861328125	-0.2548828125	-0.1591796875	0	0	0	0.589790928238668	-0.601543004762443	0.313894483979366	0.437907441494284	0.0792325326973979	-0.434655753551492	0.897104554478986	-0.984482675065783	0.107233827789396	0.138905610660459	-0.156576078178234	-0.894189734945676	-0.419414651222516	161.675686049852	-63.7800459178899	-79.6690978848215
46168	1655813946835	8.50929245723601	1.3683842059502	-4.02557831337985	-0.0407481082802258	0.0485450743792789	-0.30049549035806	-0.0458580146555388	0.0561239955696659	0.0116261327698654	0.311279296875	-0.25634765625	-0.154296875	0	0	0	0.589646750462807	-0.601522246589499	0.313852920314289	0.438159834919597	0.0793346625362307	-0.434335788557285	0.897250485705405	-0.984406763573054	0.107626108157691	0.139140018235068	-0.157001067359074	-0.894298073139572	-0.419024606946849	161.630896413967	-63.7989768879707	-79.6486133042491
46169	1655813946836	8.48535516655189	1.37421169863878	-3.97316948826269	-0.055592880211376	0.0178974688474756	-0.34313757200057	-0.0432989830282815	0.0420735153536245	0.021081368372974	0.31005859375	-0.25341796875	-0.16259765625	0	0	0	0.589423529460367	-0.601558294975497	0.313891883000795	0.438382716870627	0.0791990070647771	-0.433935673854184	0.897456042509419	-0.984354779748287	0.108103577409398	0.139137644575407	-0.157394996320262	-0.894434708353833	-0.418584958670685	161.613192568625	-63.8256643866282	-79.6566085534097
46170	1655813946836	8.41834741287295	1.35022063332069	-3.97983800319932	-0.0348221708111921	0.0522719542071788	-0.403817400837026	-0.0374899763252998	0.0214883064076964	0.0221537002935184	0.309814453125	-0.24951171875	-0.162353515625	0	0	0	0.589318927375239	-0.601615934228149	0.313811841781569	0.438501536459964	0.0791607912809029	-0.433873364541273	0.897489539028404	-0.984301263663468	0.108450659589914	0.139246101507411	-0.157748507042954	-0.894422918968509	-0.418477060959822	161.595400579393	-63.8300156459233	-79.6600391731996
46171	1655813946837	8.41613767293237	1.29249879134803	-4.06117872997589	0.0343885612627865	0.121388060333921	-0.379809676197034	-0.0345270904045189	0.00090401740952621	0.0239946323034844	0.312255859375	-0.2578125	-0.162109375	0	0	0	0.589170924706001	-0.601736472135323	0.313762300208371	0.438570471590557	0.0789328741401747	-0.433837507495144	0.897526945818549	-0.984265027374036	0.108861680898056	0.139181501358612	-0.158088447611958	-0.894390379824409	-0.418418320833577	161.600955291056	-63.8348756515439	-79.6883362489404
46172	1655813946837	8.44384498169725	1.29505889919557	-4.02173790837597	0.0283015733241954	0.0719269163724098	-0.371072209616205	-0.0234064757849756	-0.022365467608037	0.0196291180899414	0.308349609375	-0.256591796875	-0.156982421875	0	0	0	0.589171324457822	-0.601875120818628	0.313574851902566	0.438513741666623	0.0788343023876919	-0.434201360981142	0.897359644116656	-0.984228887382548	0.109095925381799	0.139253640192279	-0.158362400868254	-0.89418524769044	-0.418753021247643	161.605783999898	-63.8131458082876	-79.7093837008744
46173	1655813946838	8.52914074368824	1.28327392858425	-4.11304151851484	0.0601728014020697	0.11293738369321	-0.257910135183328	-0.0151022660046131	-0.0358882449742236	0.0157402988155516	0.31396484375	-0.25537109375	-0.1591796875	0	0	0	0.589148635126914	-0.602021109145602	0.313457021635597	0.438428061896743	0.0786305594608794	-0.434503120574205	0.897231449142387	-0.984216538508686	0.10929716263087	0.13918310086653	-0.158540343272148	-0.894014076204687	-0.419051060257614	161.626672681591	-63.7965066435716	-79.7423904000923
46174	1655813946839	8.71693897069735	1.25508220906052	-4.09694482851817	0.100197379254373	0.00877536822838998	-0.100061792008262	-0.00715163704952637	-0.0423316596463947	0.00769144414788482	0.314208984375	-0.253662109375	-0.166748046875	0	0	0	0.589249951740306	-0.602130815360095	0.313261678554605	0.438280841832022	0.0786112038858767	-0.435017923403325	0.896983659238825	-0.984204292165823	0.109303230246397	0.139264909938126	-0.158625943357272	-0.893762949654752	-0.419554048864331	161.637159018964	-63.7643723621267	-79.756740709281
46175	1655813946840	8.81672998635359	1.29410530789939	-4.17438174505218	0.0814950732146454	0.0350603837162022	0.0273851641343672	0.000650184011457789	-0.0379338308120699	-0.00266858992887499	0.31787109375	-0.259521484375	-0.1591796875	0	0	0	0.589320556028	-0.60220178792356	0.313145035534171	0.438171742111263	0.0785863866839405	-0.435357173493335	0.896821225950779	-0.984202396507339	0.109282937926305	0.139294228837405	-0.158650000117158	-0.893600229949663	-0.419891422270967	161.64732036498	-63.7433272611133	-79.767716925423
46176	1655813946840	8.90334516863235	1.29167964089407	-4.17884207678086	0.0920364227895312	-0.0040516155656275	0.106598141331702	0.00775861588100529	-0.0256459544034784	-0.00256822130646837	0.311767578125	-0.2578125	-0.16552734375	0	0	0	0.589442008856745	-0.602249760930612	0.312998544054057	0.438047092301713	0.0786542737581219	-0.43576641359777	0.896616494383033	-0.984198822067968	0.10918005922993	0.139400119463985	-0.158638532077193	-0.893413312776727	-0.420293312692109	161.650689302228	-63.7168242326132	-79.7684790091129
46177	1655813946841	8.95654888753193	1.28955524716616	-4.18824583260241	0.0997603791028638	-0.0208816335054789	0.157956327865905	0.0131409372633856	-0.00884992048213642	-0.00860578487712347	0.2998046875	-0.26171875	-0.163330078125	0	0	0	0.589512569053321	-0.602219408646511	0.312992070349461	0.437998491636624	0.0787354954956085	-0.435851712035377	0.896567904213	-0.984211930864529	0.109021789653023	0.139431433058572	-0.158516866272886	-0.893391031126171	-0.4203865704448	161.650642339511	-63.710537754276	-79.7600990005192
46178	1655813946842	8.9297623724244	1.33500978528425	-4.23323636411506	0.0600048898107663	0.0339563895198182	0.159195290200499	0.0157473133762052	0.00712133807565018	-0.00698116066459055	0.31103515625	-0.264892578125	-0.166259765625	0	0	0	0.589593452095806	-0.602185951112343	0.312998245332051	0.437931204583244	0.078808357403961	-0.435946390218432	0.896515469837977	-0.984233184661259	0.108823319329615	0.139436449257868	-0.158348605976961	-0.89336903350497	-0.420496716942653	161.654511195734	-63.7037554879614	-79.7530024877444
46179	1655813946842	8.83626784910175	1.34087220339912	-4.19671128401916	0.0412058220323039	0.043981590498436	0.0608287666679192	0.0193389546415538	0.0230007140618027	-0.00724186271208017	0.3134765625	-0.265625	-0.160888671875	0	0	0	0.589623579911943	-0.602080259990583	0.313107280686211	0.437958017762871	0.0789263826219166	-0.43574574858701	0.896602625868654	-0.984257124572834	0.108615729586222	0.139429322647968	-0.158140882929865	-0.893492174489961	-0.420313210917007	161.647913478117	-63.7150298154498	-79.7333574740721
46180	1655813946844	8.78939290665345	1.33921955608494	-4.22068572679338	0.0425739231810357	0.0865325304976995	0.0286450489584418	0.0168967002428154	0.0305391544406218	-0.0027533177789314	0.31201171875	-0.250244140625	-0.15966796875	0	0	0	0.589638350434487	-0.602020291525804	0.313196775259634	0.437956578047471	0.0789586971163052	-0.435615327350303	0.896663153434546	-0.984281679143151	0.108468791327728	0.139370360590193	-0.157971833732581	-0.893573616377179	-0.420203631423832	161.650691019648	-63.7228621822803	-79.726233962407
46181	1655813946844	8.72999757777909	1.32010925830428	-4.1741834177368	0.0492358309738183	0.0717520690728877	-0.0468397262261018	0.0209315896433562	0.0342064548919365	-0.00356431342417895	0.310546875	-0.256103515625	-0.1640625	0	0	0	0.589643296946462	-0.601898284697075	0.31335196153217	0.438006604343778	0.07905800616532	-0.435310120760072	0.896802615085959	-0.984311035300742	0.108262661140097	0.139323300233826	-0.157739080276082	-0.893747332844533	-0.41992152551035	161.644974528621	-63.7409170100255	-79.7065300795145
46182	1655813946844	8.69134706796948	1.32364648126851	-4.14365637021293	0.0386614371061161	0.0633805495210519	-0.0938433339640045	0.0175257011600153	0.0375300004549367	-0.00878846184459437	0.31396484375	-0.260986328125	-0.16357421875	0	0	0	0.589710183613578	-0.601755676100588	0.313439296906345	0.43805001173156	0.0792918268711602	-0.435118725113669	0.896874852611495	-0.984327075861495	0.107995412994591	0.139417353647555	-0.157521471290087	-0.893872857753039	-0.419735988753672	161.625841417008	-63.7502734785987	-79.6722967526598
46183	1655813946845	8.61812247917555	1.30330045933557	-4.11675242844901	0.0489738244465752	0.072361713308111	-0.173670703866122	0.0212407392464563	0.0377083967848956	-0.00657055027288154	0.313232421875	-0.2607421875	-0.157470703125	0	0	0	0.58971959068446	-0.601616143002719	0.313598892774407	0.43811477410851	0.079427501858395	-0.434785035064378	0.897024662555385	-0.98435426733853	0.107773077627239	0.139397417878446	-0.157283019811293	-0.894062043161894	-0.41942235831703	161.615478006109	-63.7696872932253	-79.6472384513369
46184	1655813946847	8.55149186452276	1.30387493758459	-4.1263576682411	0.0450467948664017	0.11173876250626	-0.229346860836669	0.0204657646266236	0.032388844897716	-0.0142731690837709	0.308837890625	-0.2568359375	-0.159912109375	0	0	0	0.589792154651079	-0.601484153377559	0.31368778546247	0.438134683401544	0.0796335729746667	-0.434626272476999	0.897083327973516	-0.984376266759122	0.107490375127379	0.13946033377398	-0.157040948470974	-0.89417326202908	-0.419275944904561	161.60174831968	-63.7772933613804	-79.6172528285459
46185	1655813946847	8.5670728468999	1.33016623697671	-4.10654409770434	0.0180372860011561	0.0925414097171295	-0.220039440822894	0.0187716356331636	0.026332113502489	-0.0132142450088656	0.3037109375	-0.257080078125	-0.16259765625	0	0	0	0.589834055546597	-0.601353389690264	0.313792083825746	0.438183084741733	0.0798172576726525	-0.434400650798799	0.897176281431469	-0.984394183832006	0.107260630091501	0.139510745357102	-0.15683525182604	-0.894310478423436	-0.419060224749031	161.586710593753	-63.7893491295504	-79.5885396999676
46186	1655813946848	8.60848891463146	1.35120647092178	-4.13496038006704	0.00574654328858144	0.102507955339103	-0.168041356527342	0.0205311685764107	0.0175104608634091	-0.0186756409135361	0.31298828125	-0.2578125	-0.15869140625	0	0	0	0.589953286688256	-0.601237484243894	0.313834602803061	0.43815117157123	0.0800426592470349	-0.434390062024222	0.897161327028341	-0.984418057615234	0.106925923218337	0.139599193353525	-0.156570305427663	-0.894355701585503	-0.419062785868406	161.575929834536	-63.7874092432051	-79.5595347709887
46187	1655813946848	8.70455615364753	1.35479961755201	-4.08166215724556	0.00256311284601773	0.0144052962382156	-0.103695054237077	0.0210011041019215	0.010160387675591	-0.019383436808569	0.3115234375	-0.26025390625	-0.156005859375	0	0	0	0.590043992726328	-0.601120375520535	0.313884359451316	0.43815407070283	0.0802618060517754	-0.434315513315483	0.897177840443474	-0.984434352609662	0.106649391078819	0.139695786566787	-0.156355517623471	-0.894424922660379	-0.418995238436753	161.561272105333	-63.7895513723892	-79.5298240304673
46188	1655813946849	8.71695701354598	1.34847516696661	-4.14873950077514	0.0212390163899421	0.0677546629185694	-0.0653429827180041	0.0204977540514802	0.00777428672474718	-0.0183609254200334	0.310791015625	-0.25048828125	-0.15869140625	0	0	0	0.590181053182605	-0.60100568738255	0.313912309716104	0.438106779229448	0.0805024510850578	-0.43435011715594	0.897139527105968	-0.984458561036737	0.106290772545943	0.139798473786606	-0.15607913688503	-0.894450807701691	-0.419043023603802	161.550597382549	-63.7845815945246	-79.4999470485408
46189	1655813946849	8.70539224899399	1.38063183222858	-4.08312415853763	-0.0206735670274028	0.0179650211857444	-0.0987205539996783	0.0154875070972996	0.00907195990886601	-0.0158181957023103	0.312255859375	-0.25927734375	-0.1630859375	0	0	0	0.590250788813978	-0.600909607435626	0.313950466766071	0.438117283856053	0.0806854962178564	-0.434280488059769	0.897156791419787	-0.984468991119334	0.106078221443686	0.139886441300883	-0.155918748791027	-0.894509848255408	-0.418976700007921	161.537050746175	-63.786820910074	-79.4749553967518
46190	1655813946850	8.75288218249231	1.35854060489635	-4.05371577457684	0.00167474758053119	-0.0319579894896602	-0.0715289907881207	0.0138253716839867	0.0127527235081289	-0.0150715799634207	0.305419921875	-0.2529296875	-0.16064453125	0	0	0	0.590357846215852	-0.60081260589662	0.313948766727983	0.438107290371973	0.0809207689313817	-0.434302384979285	0.897125001076694	-0.984475359006562	0.105827570562719	0.140031399399181	-0.155756530086074	-0.89452890602266	-0.418996347985813	161.520025228446	-63.7826975934244	-79.4454740813832
46191	1655813946851	8.76720163022956	1.36125127646046	-4.03246676039934	-0.00183802130207748	-0.0556538007753292	-0.0672003786848485	0.0116085795164533	0.0197435904723161	-0.0203353442698329	0.3134765625	-0.26171875	-0.15966796875	0	0	0	0.590416097899528	-0.60068550172585	0.313996690955395	0.43816873168509	0.0811660121708515	-0.434141716329111	0.897180610920173	-0.984475843646075	0.105629818820314	0.140177225872596	-0.155625806811179	-0.894630265259789	-0.418828481285082	161.4951803949	-63.7899107760687	-79.410379799704
46192	1655813946851	8.68579545432828	1.36167274541635	-4.06344377843532	-0.00210872893150141	0.00770252498526305	-0.12719788515159	0.0158639960243981	0.0179944462662753	-0.0307264721093801	0.310546875	-0.259765625	-0.1552734375	0	0	0	0.590554633832062	-0.60053114012507	0.314005127555744	0.438187578633014	0.0815262592175701	-0.434106602078619	0.897164938620399	-0.984479188166627	0.10529200865636	0.140407695586418	-0.155416206120111	-0.894687124611093	-0.418784851600874	161.465033839055	-63.787877726991	-79.3636081556383
46193	1655813946852	8.66721222478371	1.41396873426513	-4.05334614693437	-0.0545680801181094	0.0133415660552699	-0.140751966008061	0.0162305322908953	0.0157918208197948	-0.0267134637694406	0.305908203125	-0.255615234375	-0.162353515625	0	0	0	0.590648417541014	-0.600386371235625	0.314041317021736	0.4382336172569	0.0818285128755439	-0.433987595513916	0.897194996319433	-0.98448144482014	0.105024996119099	0.140591731602653	-0.155242968553896	-0.894776238581598	-0.418658695818373	161.43719348186	-63.7917770142574	-79.3222190701561
46194	1655813946853	8.67532612491019	1.48442166051953	-4.09375469763257	-0.115741193547299	0.053156637828553	-0.106637864012564	0.0121344938171608	0.00669801190326249	-0.0140071940309884	0.31689453125	-0.24853515625	-0.163818359375	0	0	0	0.59074664526364	-0.600304343108064	0.314057050152182	0.438202311729481	0.0820057297906111	-0.434014502873308	0.897165799379995	-0.984496604439819	0.10477314071893	0.140673468821801	-0.155053204184809	-0.894792713582049	-0.418693806489298	161.428592174875	-63.7879893830291	-79.3002755598524
46195	1655813946853	8.65480614974178	1.46217432402177	-4.0771666518788	-0.0977781772409773	0.04530095923748	-0.135120602821804	-0.00345550064312135	0.00276138822203528	0.00650774073952778	0.306640625	-0.25732421875	-0.158203125	0	0	0	0.590718053046056	-0.600316979550334	0.314068628208733	0.438215246932515	0.0819608416772965	-0.433976831812432	0.89718812401948	-0.984495477669417	0.104826157161123	0.140641854450577	-0.155084089706246	-0.894804775481711	-0.418656588261918	161.430942215535	-63.7908854456611	-79.3050903660218
46196	1655813946854	8.66609577349074	1.40569351258808	-4.13981687483347	-0.0312990096948311	0.0895425304068981	-0.106695585453767	-0.0151016072094597	-0.00641822550433801	0.0196519967254585	0.31103515625	-0.2587890625	-0.15966796875	0	0	0	0.59068848775418	-0.600396632437966	0.313991358064209	0.438201347844599	0.0818666216362882	-0.434111885104384	0.897131388077008	-0.984477630365554	0.104993074991347	0.140642274987591	-0.155247066225693	-0.894719690973089	-0.418778011616341	161.435905529855	-63.783525960921	-79.3203488501787
46197	1655813946855	8.6635987019835	1.30798151574457	-4.13040889938308	0.0627380212065104	0.0716175199399971	-0.126616402497033	-0.0200684901592671	-0.00944431308558647	0.0105992256855455	0.310546875	-0.254150390625	-0.1611328125	0	0	0	0.590630636076036	-0.600473769381215	0.313925623595561	0.438220728473301	0.0817639102705077	-0.43417897779624	0.897108286784315	-0.984453839630168	0.105212309157111	0.14064497018823	-0.155451923805066	-0.894661380211329	-0.418826591972935	161.437579923456	-63.7805299339951	-79.3350505704478
46198	1655813946856	8.65429479265562	1.25459169388279	-4.17995958216616	0.123050859869854	0.112571565762729	-0.12170873438024	-0.0295567487055968	-0.0136579474653697	0.00321860734645689	0.30810546875	-0.25390625	-0.155517578125	0	0	0	0.590619390819133	-0.600552843799053	0.313767967159999	0.438240436036645	0.0817718891783045	-0.43438468803353	0.897007971504281	-0.984407931003648	0.105436795945436	0.140798108786578	-0.155738189013895	-0.894535088670519	-0.418989966013387	161.425503631887	-63.767523645379	-79.3389689533054
46199	1655813946856	8.68754777069002	1.25627361132376	-4.17463933639536	0.125208843806651	0.0922957897864096	-0.093884623590263	-0.0242587363852588	-0.0149438789594776	-0.0207981531974319	0.312255859375	-0.2548828125	-0.159423828125	0	0	0	0.590655368821053	-0.60055559977627	0.31360454638492	0.438305139539727	0.081970320128146	-0.434533809639733	0.896917629940492	-0.984351747493873	0.10555684753915	0.141100634808479	-0.155988793904718	-0.894448500595522	-0.419081586279539	161.392128460791	-63.7558156156535	-79.317276442415
46200	1655813946856	8.755152362209	1.28381938385991	-4.16543665106234	0.106234492228884	0.0554199045523492	-0.0332503298858775	-0.0304611902735679	-0.0110637513672941	-0.0369881859623572	0.312255859375	-0.25732421875	-0.160400390625	0	0	0	0.590776095879806	-0.600483483346299	0.313389086663745	0.438395336568916	0.0824137331767168	-0.434725947613311	0.896783879792443	-0.984279204113221	0.105541769794157	0.141617029975073	-0.156212755350261	-0.894356911585317	-0.419193618469381	161.333384538604	-63.7384908520255	-79.2654655593091
46201	1655813946857	8.76761985166964	1.26627028551614	-4.14323802546639	0.126236642800144	0.0272459513887923	-0.0339175554071165	-0.029909014508263	-0.00323526648109108	-0.0498834569516855	0.316650390625	-0.255126953125	-0.155029296875	0	0	0	0.590868790809252	-0.60038295948461	0.313179628255342	0.438557743579975	0.0829176448126933	-0.434800404380548	0.896701328497526	-0.98418980879206	0.105585184986916	0.142204743173803	-0.156509055484226	-0.894315591422732	-0.419171251983774	161.260384788185	-63.7278032137351	-79.203174698089
46202	1655813946857	8.80832282383407	1.31693750372305	-4.17506590167024	0.091035932554836	0.0425069213965552	0.023061372154789	-0.0274253516550631	0.008725720290611	-0.0549474893673812	0.30859375	-0.260009765625	-0.16748046875	0	0	0	0.591011685506659	-0.600210966932799	0.31299510664768	0.438732317002954	0.0835617167764052	-0.434821253752823	0.896631427496384	-0.984105527153316	0.105478501618371	0.142865661103839	-0.156696365355657	-0.894318043528792	-0.419096034463654	161.176268223875	-63.7187565231813	-79.12181202456
46203	1655813946857	8.7546416923831	1.3492076406157	-4.16845142927102	0.0600636964764204	0.0640081264008323	-0.0232853481966337	-0.02240980635266	0.0171923504995489	-0.0577668448959201	0.314697265625	-0.25390625	-0.15576171875	0	0	0	0.591112634470444	-0.600029815348166	0.31285141641524	0.438946540377794	0.0841764238804465	-0.434720316047012	0.896622873051254	-0.984020503598062	0.105419689232778	0.143493336502712	-0.156901173231164	-0.894374046994908	-0.418899851874686	161.091202869978	-63.7176495929426	-79.0412359465416
46204	1655813946858	8.76863998428911	1.35626354229977	-4.14647550785804	0.0564249286871345	0.0392485764740765	-0.0189633197498917	-0.0177518516382637	0.0215935414337417	-0.0458399838563269	0.3115234375	-0.253662109375	-0.16796875	0	0	0	0.591204657485623	-0.599886140850214	0.312734415141621	0.439102330407359	0.0846676072037322	-0.434666139888908	0.896602890428349	-0.983955781837982	0.105348477106672	0.143988602878532	-0.157042719277275	-0.894408768519954	-0.418772658033709	161.025248326081	-63.7150640451935	-78.9775110968947
46205	1655813946859	8.73552052351081	1.38485944603367	-4.15309077060535	0.0310996717780889	0.0641631224612776	-0.0418004035995878	-0.0137801776876792	0.0198327001854859	-0.0347574636750359	0.3154296875	-0.2587890625	-0.16259765625	0	0	0	0.591251396664822	-0.59975345671221	0.312674839283109	0.439263044180745	0.0850604720820751	-0.434517134386851	0.896637929162833	-0.983903141355745	0.105312461642359	0.144374145376255	-0.157160187450486	-0.894485408124172	-0.418564845792695	160.969324381962	-63.7195978564144	-78.9239238048233
46206	1655813946860	8.68184405598921	1.38942739845912	-4.14391287827439	0.0236722745054937	0.0797200077903413	-0.0931183081022357	-0.00453500558167355	0.0148358230482675	-0.0173586667798977	0.30517578125	-0.251953125	-0.163818359375	0	0	0	0.591283474143019	-0.599715021195621	0.31260097176478	0.439324912803056	0.0852450516081019	-0.434536373131177	0.896611075998025	-0.983869951782028	0.105328971314155	0.144588124624166	-0.157267921575773	-0.894474118254914	-0.418548506884605	160.942461761448	-63.7161231459196	-78.900964372782
46207	1655813946860	8.64810872862543	1.39092159523178	-4.14922270998131	0.0218283723965426	0.100145869165581	-0.120938769832911	-0.00279872771952418	0.00544684915817877	-0.0110959871554393	0.306884765625	-0.250732421875	-0.170166015625	0	0	0	0.591305971622418	-0.59966666497621	0.312583298092148	0.439373213332143	0.0853831453402896	-0.434491503733253	0.89661968062017	-0.983854416200079	0.105297859355007	0.144716441840087	-0.157290197454899	-0.894499577416821	-0.418485722320044	160.924115714138	-63.7172365090393	-78.8823124564914
46208	1655813946861	8.64868220104233	1.4155760677585	-4.15139646476054	-0.00145349114783382	0.10277137887407	-0.115930793499487	0.00371888780436758	0.000178670864450851	0.00220772684766417	0.31298828125	-0.25537109375	-0.1611328125	0	0	0	0.59132168265646	-0.599723620282221	0.312513247404397	0.439324159468469	0.0853340989446885	-0.434669921070816	0.896537869402954	-0.983848400025611	0.105348275634181	0.144720650178023	-0.157354432172543	-0.894406954656098	-0.418659506208162	160.930947589803	-63.7066526215825	-78.8929872402614
46209	1655813946862	8.68264567301996	1.4150045240445	-4.14530097418276	0.000749888354460965	0.0824797967787979	-0.0881158885886855	0.00508292074684141	-0.00212410211850149	0.00432497172384162	0.314453125	-0.248291015625	-0.158935546875	0	0	0	0.591327116573695	-0.59972559434124	0.312529765595838	0.439302399621602	0.0853087142173151	-0.434677860915644	0.896536435683675	-0.983858164833358	0.105314773642501	0.144678643701709	-0.157307135150716	-0.894407041386878	-0.418677094606626	160.936825998599	-63.7064671771211	-78.8964069559626
46210	1655813946864	8.71666759158025	1.41422615061784	-4.13915333738097	0.00360707591028622	0.061330426259368	-0.060295584733872	0.00527301451765231	0.00164172585130129	0.00617688276438768	0.31005859375	-0.25048828125	-0.15771484375	0	0	0	0.5913731225569	-0.599701735165584	0.312531247834914	0.439271986226576	0.0853640959322785	-0.434722531466698	0.896509504556895	-0.983867419443951	0.105204098088107	0.144696229053037	-0.157219184841946	-0.89439835553329	-0.41872868248662	160.936855509934	-63.7029839954466	-78.8904911782339
46211	1655813946864	8.71637018031826	1.38948753576642	-4.13642110282025	0.0272802638291236	0.0569109970018339	-0.0652886749599286	0.0052050242968555	0.00735527307063095	-0.00083180395705276	0.31298828125	-0.254150390625	-0.1591796875	0	0	0	0.5913797789083	-0.599666877557398	0.312564638239499	0.439286853867882	0.0854059657655432	-0.434650657811884	0.896540365335187	-0.983872804062214	0.105146608041163	0.144701403739545	-0.157162738708677	-0.894440046331298	-0.418660813882137	160.933355709711	-63.7069754609072	-78.8833856102916
46212	1655813946865	8.79085531744017	1.38597083870415	-4.15687407528632	0.0411183942741112	0.0427368944333095	0.00953932799705548	0.00228922302138558	0.0130681499319944	-0.00706448126237538	0.314208984375	-0.250732421875	-0.15966796875	0	0	0	0.591443686106898	-0.599576241549222	0.312586203605757	0.439309187303584	0.0855963917700995	-0.434587182671267	0.896552975776552	-0.983875146944698	0.104968462959252	0.144814767922755	-0.157044429829551	-0.894491812395074	-0.41859460653201	160.916698390974	-63.7086066297468	-78.857632261645
46213	1655813946866	8.78475263372621	1.36570847201049	-4.11917069359884	0.0555300849128649	0.0111713628917237	-0.0146571055841829	0.000621056897368117	0.0216187933221084	-0.00646178239583486	0.314208984375	-0.248291015625	-0.1630859375	0	0	0	0.591435074439742	-0.599500064590978	0.312635682902856	0.439389525425602	0.0857172046625573	-0.434393041972401	0.896635514526835	-0.98386841933958	0.104926964996645	0.144890529168855	-0.157020680966155	-0.89459097754368	-0.418391549444259	160.89884259703	-63.7192853930615	-78.8374385312565
46214	1655813946866	8.83973161282122	1.36454693110904	-4.12442351802832	0.0645243231113843	-0.00672765964991348	0.0366528840113922	0.00191736298594012	0.0299055488865261	-0.011494644685661	0.318603515625	-0.25146484375	-0.16357421875	0	0	0	0.59148218194362	-0.599369697623792	0.312645391118606	0.439497045980826	0.0860176499653154	-0.434219541410522	0.896690779339054	-0.983846444755111	0.104803375711018	0.145128996352567	-0.156994066885257	-0.894689690505491	-0.418190411972843	160.861156374161	-63.7264377407165	-78.7949382436547
46215	1655813946867	8.76709858348004	1.39372235853432	-4.10308981111108	0.0279420248942029	0.0113965800570434	-0.0331723315653321	-0.000320062461451914	0.0271595802992676	-0.0164450284264187	0.313720703125	-0.248779296875	-0.16552734375	0	0	0	0.591493129348818	-0.599252680931919	0.312685955449921	0.439613006624487	0.0862474353205568	-0.433986061020998	0.896781734169528	-0.983829313039359	0.104726742395026	0.145300351795274	-0.156975356999533	-0.894811940167768	-0.417935795341898	160.829384448635	-63.7382130143052	-78.7598755888719
46216	1655813946867	8.72682061219516	1.35048275407603	-4.06816640385063	0.0650384228844422	-0.00560076546856538	-0.0901919461393934	-0.00206193593909661	0.0316813622974575	-0.0225511601300349	0.3115234375	-0.259521484375	-0.164794921875	0	0	0	0.591541885350016	-0.599122280072795	0.312628440470632	0.43976601688378	0.0866319034585518	-0.433845118158206	0.896812871647948	-0.983778574279638	0.104683312170899	0.145674709339861	-0.157081603287817	-0.89488536562133	-0.417738617206151	160.775204987919	-63.742245288791	-78.7074808754096
46217	1655813946868	8.63977844336707	1.35460653820223	-4.06423593734603	0.0555575216018285	0.0318043637974936	-0.169314253823549	-8.68944735714337E-05	0.0315099438890246	-0.0263004711353759	0.3115234375	-0.26025390625	-0.167236328125	0	0	0	0.591576439543381	-0.59896569779489	0.312660020585468	0.439910355151765	0.0869676087851514	-0.433583228425212	0.896907029212372	-0.983752751215258	0.104562055409342	0.145935948432812	-0.157057822150326	-0.89502645804297	-0.417445181915485	160.730726647201	-63.7544421072013	-78.6581831218289
46218	1655813946868	8.62663445026843	1.35528465019779	-4.08199206052098	0.0584330067904497	0.0541718398854994	-0.173604014279793	0.0018916059785521	0.0215885824610279	-0.0297629442377626	0.3017578125	-0.259765625	-0.157470703125	0	0	0	0.591612205287413	-0.59890971091748	0.312612466131048	0.439972274971013	0.0871612083764089	-0.433562953871923	0.896898037005444	-0.983726225503827	0.104536889148858	0.146132652282349	-0.15711663505294	-0.895039219161335	-0.417395686552591	160.704553421924	-63.7532770629556	-78.6330738218623
46219	1655813946869	8.60690463363213	1.35958269250624	-4.06662190159716	0.0530212517834307	0.0508455775208469	-0.197112032557857	0.00739949136048422	0.0178310106500855	-0.0331550397496622	0.31298828125	-0.255859375	-0.154541015625	0	0	0	0.591704946653761	-0.598751692514393	0.312610670667929	0.440063899225065	0.0875419585913964	-0.433431335209173	0.896924569372908	-0.983706017903138	0.104319649380035	0.146423635709463	-0.157031448529055	-0.895128308351389	-0.41723666636676	160.662158588824	-63.7567147758237	-78.5813446688405
46220	1655813946870	8.67540598690083	1.38630308398794	-4.05529919422068	0.0323769595402798	0.0144447942435195	-0.136494963755108	0.0152627299659958	0.0116841025246076	-0.0363074096351262	0.313720703125	-0.2568359375	-0.160400390625	0	0	0	0.591860427688538	-0.598577820928354	0.312680256436676	0.440041911258119	0.0878712990547148	-0.433364214888909	0.896924797324813	-0.983733885509205	0.103864582742071	0.146559854505855	-0.156672516107321	-0.895213720686594	-0.417188347141991	160.643430629793	-63.756744312626	-78.5377932860958
46221	1655813946870	8.70928620354212	1.38872116851072	-4.04827989180868	0.0346455701735131	-0.00585180410877688	-0.108690882349288	0.022132201516283	0.0105023741519459	-0.0377223990377612	0.3193359375	-0.25146484375	-0.1591796875	0	0	0	0.592010467077631	-0.598399324894011	0.312691589660284	0.440074794316423	0.0882844354442324	-0.433301953650435	0.8969143077357	-0.983732701667334	0.103495153252501	0.146828896759217	-0.156447531551574	-0.895286641370214	-0.417116290326165	160.607447192745	-63.755385159134	-78.4837282834936
46222	1655813946871	8.74406711072229	1.43973367800628	-4.04617959696329	-0.00965905327894771	-0.0176594744128607	-0.0708853569543581	0.0247865466780743	0.0116217781241752	-0.0404783865276365	0.31396484375	-0.2587890625	-0.15380859375	0	0	0	0.592206585620988	-0.598187995405368	0.31269476645564	0.440095972636982	0.08878621036832	-0.433270325873375	0.896880055283878	-0.98373315540053	0.103026685956768	0.147154955562092	-0.15616045534689	-0.895355977641488	-0.417075035799923	160.565828767332	-63.7509474673688	-78.4192148784032
46223	1655813946872	8.75857415704421	1.46776202342146	-4.02737477658316	-0.0365026041379651	-0.0368622330402645	-0.0615847319670948	0.0287346154642013	0.0244891104268242	-0.0298371881035923	0.314453125	-0.24755859375	-0.15966796875	0	0	0	0.592325876870085	-0.597991130477455	0.312784553138311	0.44013916751233	0.0891448623767248	-0.433073775783159	0.896939406114345	-0.983748707099209	0.102631757816303	0.147326859629092	-0.155857867278073	-0.895496413737349	-0.416886673079239	160.536700677408	-63.7586373067321	-78.3685726036621
46224	1655813946872	8.75971378726691	1.49305709530701	-4.02795590945162	-0.0595779673442546	-0.0324012543789458	-0.0565798314801533	0.0279893897579564	0.0275065692053768	-0.0192479634423926	0.32177734375	-0.249267578125	-0.15966796875	0	0	0	0.592455152545322	-0.597774469847209	0.31292962953207	0.440156361288019	0.0894814603196201	-0.432833195293967	0.897022013838392	-0.983785063590142	0.102143878366842	0.147423121555342	-0.155434928236897	-0.895668495127408	-0.416674849157224	160.515785569261	-63.7693439310524	-78.3195467748336
46225	1655813946873	8.74062349323469	1.49496764431538	-4.01193710004976	-0.064981051476585	-0.0357076982814179	-0.0800839939209048	0.0310713464022496	0.0353222893114255	-0.0114465727119382	0.311279296875	-0.255859375	-0.154296875	0	0	0	0.59250778609004	-0.597603917622143	0.313099186452886	0.440196524870298	0.089676914170415	-0.432519600745506	0.897153747155871	-0.983820296010618	0.10180684573044	0.147421135933757	-0.155098923988702	-0.895858337647961	-0.416391837869308	160.503783959961	-63.7864260324986	-78.2864841142171
46226	1655813946874	8.68831731089761	1.52032634715337	-4.00444191379132	-0.0952883381833693	-0.0142033135328617	-0.12638143398663	0.0291531162288356	0.0346594291576152	-0.000836356914769062	0.3173828125	-0.2607421875	-0.15673828125	0	0	0	0.592575746412776	-0.597415589497354	0.313294376112776	0.440221798738974	0.0898824946432725	-0.432189950155704	0.897292028350365	-0.983866005304387	0.101401237318897	0.147395633166606	-0.154689433262553	-0.896063410733084	-0.416102803622258	160.494383902079	-63.8043683441275	-78.2516702936314
46227	1655813946874	8.65525118675814	1.49464925381333	-4.00600669245835	-0.0736007341777644	0.00178513579001443	-0.159189647065611	0.026376452522062	0.0289387772811717	0.00693290187797895	0.3125	-0.25830078125	-0.160400390625	0	0	0	0.59257336584491	-0.597320102658017	0.313471542703318	0.440228455426331	0.0898885737516352	-0.431913781308995	0.897424386689075	-0.983910153566558	0.101184796012874	0.147249607009547	-0.154404838063869	-0.896221023281199	-0.415868997896299	160.502121463237	-63.8215528552974	-78.2435943609029
46228	1655813946875	8.6627127640012	1.48900481599518	-4.03812484109563	-0.0648629806827058	0.0287954198901849	-0.139986451961379	0.0228072194239827	0.0173185808360685	0.0187116163570687	0.312744140625	-0.2490234375	-0.1533203125	0	0	0	0.592552524091727	-0.597298528248244	0.313657470428423	0.440153343267375	0.0897069187938495	-0.431746732599824	0.897522939879472	-0.983976269599258	0.101000994873932	0.146933658159063	-0.154088836669118	-0.89632224000292	-0.41576805130999	160.536441321191	-63.83435514746	-78.2622796014132
46229	1655813946875	8.71818098494685	1.50863530577817	-4.04695705063308	-0.0803684939697897	0.0163910661723675	-0.0836692823710798	0.0190393350628263	0.0116851061468591	0.0283517474798707	0.31689453125	-0.253662109375	-0.157958984375	0	0	0	0.592496966500104	-0.597315846355663	0.313809195320865	0.440096481822638	0.0894751372489773	-0.431603008367734	0.89761519761098	-0.984028299664957	0.100942267240491	0.146625250700017	-0.153891212461175	-0.896398071089106	-0.415677751238816	160.570328281598	-63.8463449231419	-78.2879776540649
46230	1655813946876	8.69738547361132	1.43430547194626	-4.02544164154044	-0.0145357631041643	-0.000256762341848545	-0.122191275709103	0.0140379653143277	0.00320716079521996	0.031161922521335	0.316162109375	-0.243408203125	-0.158447265625	0	0	0	0.592493316484126	-0.59730235004149	0.313937902925986	0.440027914640638	0.0893457914826953	-0.431512419137335	0.897671633546797	-0.984078182142043	0.10078932605615	0.146395502612474	-0.15364719644804	-0.896458891351629	-0.41563685488689	160.596730368762	-63.8536818327865	-78.3020542482861
46231	1655813946877	8.72482905184097	1.45007698031658	-4.07543883134253	-0.0228114946767041	0.0348685473733519	-0.0744724363331617	0.00649286116925513	-0.00177431405263464	0.0317318948447093	0.3154296875	-0.25	-0.156982421875	0	0	0	0.592421452679115	-0.597378262363906	0.314019795851678	0.439963182407253	0.0890615589367011	-0.431485098533541	0.897713010077979	-0.984113693420662	0.100856780437676	0.146110055306575	-0.153584755564178	-0.896464455281551	-0.415647931878705	160.632221875492	-63.8590621725099	-78.3375294796114
46232	1655813946880	8.73155700745501	1.40420903376876	-4.01707579410388	0.0135766779731689	-0.0251833381027356	-0.0993990549055308	0.00458074210441398	-0.00590852874798048	0.0239157579779813	0.314453125	-0.248046875	-0.152099609375	0	0	0	0.592439987751613	-0.597377169648926	0.314012116022926	0.439945188729132	0.0890738163460861	-0.431524006845926	0.897693091628303	-0.984116485433686	0.100822503807347	0.146114906233645	-0.153559754946383	-0.896449582654627	-0.415689243809786	160.633408292331	-63.8564719761014	-78.3369912417193
46233	1655813946881	8.75177353676489	1.40030468733847	-4.03132273173886	0.019543726561208	-0.0216750148657562	-0.0758960976585605	0.000867098496493839	-0.00609451167626544	0.0216995472020732	0.31005859375	-0.26025390625	-0.160400390625	0	0	0	0.592393004834834	-0.597440850572236	0.314041738005859	0.43990083505324	0.0888844337155642	-0.431545115782436	0.897701715764979	-0.984134006943829	0.10089662922603	0.145945628874276	-0.1535572004816	-0.896431081151891	-0.415730084219443	160.6559365712	-63.8575934300736	-78.3616648686199
46234	1655813946883	8.7306792612587	1.35191393236654	-4.01318102259369	0.0610769587287813	-0.0339349619501403	-0.109431649424577	0.000805634938885071	-0.00525872726687462	0.0148450434536093	0.318603515625	-0.251953125	-0.15478515625	0	0	0	0.592400630705232	-0.597449532873611	0.314084217136613	0.439848443165175	0.0888103204295697	-0.431560052317162	0.897701870461016	-0.984157868038331	0.100825194571449	0.145834052669042	-0.153447117155861	-0.896431927914016	-0.415768903181705	160.671298865655	-63.8576135466386	-78.3714962011644
46235	1655813946883	8.72320465494273	1.34538880387461	-4.0674264139112	0.0742382654196478	0.0171039991140624	-0.0945330025869531	0.0016099154947568	-0.00424118327069163	0.0109737505017605	0.311279296875	-0.24658203125	-0.160400390625	0	0	0	0.592384492346128	-0.597475888418347	0.314098195785204	0.4398243960844	0.0887297723263731	-0.431574803154654	0.897702744111285	-0.984167000244362	0.1008458732646	0.145758106037069	-0.153435143083074	-0.896422500346528	-0.415793648026945	160.681683349026	-63.8577271557821	-78.3821423210118
46236	1655813946884	8.81168714392202	1.36684009002904	-4.07118726610408	0.0623186972495533	-0.0158383604574163	-0.0104165347495933	0.00142350339410885	-0.00313493077259985	0.00897698120378362	0.313720703125	-0.25146484375	-0.158447265625	0	0	0	0.592423212114415	-0.597441336462961	0.31407802525707	0.439833583624545	0.0888376870719412	-0.431592104421558	0.897683753198574	-0.984160357967707	0.100779463597317	0.145848858486831	-0.153415302889192	-0.896421639139757	-0.41580282553322	160.670942141667	-63.8552576882698	-78.3688508560341
46237	1655813946884	8.79689765192725	1.31563916275529	-4.08655600493226	0.113180060534908	-0.000867636952698314	-0.0247639796409977	0.00594043418058552	-0.0019310374308096	0.00732402989057293	0.310791015625	-0.249755859375	-0.16259765625	0	0	0	0.592424260959568	-0.597444330630331	0.314103382988356	0.439809994906273	0.0887986731858914	-0.431589417532012	0.897688905086169	-0.984172646620619	0.100745119643561	0.145789651593559	-0.153359046959063	-0.896426793186361	-0.415812466351629	160.678621887793	-63.8559275882476	-78.3737492827733
46238	1655813946886	8.81760714256209	1.33736846387107	-4.10280633314779	0.0965015439458914	0.00629917351006886	0.00374873668512699	0.00340034735250397	0.00156509731516376	0.00508222516765179	0.313720703125	-0.249267578125	-0.15771484375	0	0	0	0.592435393570233	-0.597448383979476	0.314065147565277	0.439816798235808	0.0888370231302285	-0.431636881722328	0.897662289315077	-0.984161392280794	0.100766775060168	0.145850646168961	-0.153409052096964	-0.896401505677561	-0.415848534148808	160.672689851833	-63.852466911059	-78.3701091309404
46239	1655813946886	8.83852236137609	1.35917397109934	-4.11859661309315	0.079044234179332	0.0142739855903563	0.0322716345942151	0.00859183202034186	0.00893550622073084	0.0042717982986341	0.3076171875	-0.257568359375	-0.15185546875	0	0	0	0.59243452939594	-0.597414145037878	0.314123293733656	0.439822946220399	0.0888457912851619	-0.431540270687202	0.897707870159403	-0.984174800792771	0.10069576942666	0.145809202398487	-0.153317927377798	-0.896455998247985	-0.415764664623856	160.67416588163	-63.8583937543457	-78.3664596232828
46240	1655813946887	8.85334344962358	1.38443309700392	-4.10016223498996	0.0519535677784197	-0.00469666455592881	0.0415987195791061	0.00592558114824872	0.0127046593122451	0.00689073656137146	0.314453125	-0.255859375	-0.162841796875	0	0	0	0.592455166002698	-0.597337148510104	0.314245853205968	0.439812176990801	0.0888757495053433	-0.431372653342567	0.897785461621014	-0.98420926457796	0.100492840039138	0.14571654888783	-0.153079145113809	-0.896559436428541	-0.415629585426932	160.679724554753	-63.8684857885889	-78.3582453649976
46241	1655813946888	8.7994597659469	1.36115028326691	-4.08917880427074	0.0679985931967631	0.00794422641870441	-0.0147325562301273	0.00709720072414083	0.0163887457453395	0.00686982766954269	0.321044921875	-0.257568359375	-0.15966796875	0	0	0	0.592431591819816	-0.597296229078695	0.314327709450634	0.439841010836561	0.0888706115997778	-0.431205876644714	0.89786608485951	-0.984222746479545	0.100445800170714	0.145657909295467	-0.152995423807848	-0.896644931494696	-0.41547595251558	160.680311223658	-63.8789759949019	-78.3545205555244
46242	1655813946889	8.79495892401994	1.41207753941654	-4.05903411816807	0.012420894843814	-0.0106574657093573	-0.0238797160604403	0.00498640579339501	0.0168427985063467	0.0154831852366191	0.312255859375	-0.24609375	-0.15283203125	0	0	0	0.592376103345429	-0.597300149176988	0.31438786525423	0.439867427936328	0.0887856039480712	-0.431074706466674	0.897937477765711	-0.984230633121758	0.100501644732347	0.145566068267424	-0.152994043532157	-0.89670174353057	-0.415353832043135	160.686334325558	-63.8882684773792	-78.3619122989577
46243	1655813946890	8.70735059494989	1.38796435270143	-4.05431823591389	0.026375040529299	0.0223482670095814	-0.108013221655728	0.00151660878563087	0.0147200516468519	0.0221216895121324	0.310302734375	-0.254638671875	-0.15283203125	0	0	0	0.59229746276773	-0.597316633747059	0.314481414919799	0.439884069179632	0.0886285574382448	-0.43090752432211	0.898033231171879	-0.984248982227269	0.1005703105379	0.145394475902268	-0.152967054593467	-0.896774396445895	-0.415206890704019	160.701095131114	-63.9007365460283	-78.3775530194012
46244	1655813946891	8.67385961050642	1.36149536498188	-4.05694324154954	0.0484365320098851	0.0389296850818514	-0.140850087413277	0.000394594148113167	0.0150867382595734	0.0288629949278395	0.31787109375	-0.253662109375	-0.158447265625	0	0	0	0.592263385513954	-0.597263410026007	0.314647991820801	0.439883100910677	0.0885461205744862	-0.430657829856321	0.898161131487359	-0.984291167206125	0.100441446845374	0.145197844046014	-0.152743191963542	-0.896908774256921	-0.414998997552689	160.716325822852	-63.9173991145435	-78.3815202105237
46245	1655813946892	8.61434549950303	1.36460583216377	-4.01477607827552	0.0317418877035272	0.0288630150655209	-0.211349787329047	-0.00263607675519513	0.0113127267357046	0.0277775306773905	0.31689453125	-0.25390625	-0.154052734375	0	0	0	0.592164289668981	-0.597309983248876	0.314731804225296	0.439893315885965	0.0883293506406353	-0.430514449934648	0.898251208856894	-0.984308117836398	0.100570690899844	0.14499332844409	-0.152759467715659	-0.89696312328289	-0.414875524095882	160.736176735175	-63.9291401370476	-78.4054371135883
46246	1655813946893	8.57429000857543	1.34145178269851	-3.98416728137064	0.0449324094324109	0.0180894810585018	-0.263384556092546	-0.00542859086473813	0.0056037125400499	0.0355521137473029	0.31005859375	-0.25	-0.157958984375	0	0	0	0.592091834985475	-0.597331331139324	0.314826319017826	0.439894224372794	0.0881593393860193	-0.430369449064221	0.898337391068177	-0.984330566730174	0.100623295594438	0.144804308583578	-0.152713019352229	-0.897026805450023	-0.414754920434288	160.754259561558	-63.940378054985	-78.4233571584847
46247	1655813946893	8.60816371979219	1.31450033004462	-3.97507623541786	0.0708689250368296	-0.00657202707974277	-0.240615550073265	-0.000961833341140718	-0.00212254291026901	0.0273296676770632	0.3056640625	-0.251220703125	-0.162353515625	0	0	0	0.592019188627862	-0.597402754278064	0.314874467281995	0.439860545322345	0.0879280380697256	-0.430346077970017	0.898371255827474	-0.984349497516982	0.100734700300577	0.144598018290084	-0.152724349267808	-0.897025514314491	-0.414753541045218	160.779605697015	-63.9447951580583	-78.452303432024
46248	1655813946895	8.62211171160227	1.31411839829277	-3.95534545006029	0.0677639461906967	-0.0313108437223845	-0.236315266907884	-0.00752000343876307	-0.00718648966324669	0.0260174439645658	0.3076171875	-0.25634765625	-0.14990234375	0	0	0	0.591933835725516	-0.597544858014856	0.314818559218759	0.4398224091093	0.0876588348628607	-0.430485525349759	0.898330752637817	-0.984342553941412	0.101007217789406	0.14445510878658	-0.152923723374056	-0.896927953861839	-0.414891046433433	160.803108662109	-63.9395122621252	-78.4903427274617
46249	1655813946896	8.66920227534328	1.28962904545452	-3.92713141401043	0.090130430949458	-0.079748554568424	-0.209245861622461	-0.00553588435408843	-0.0122469301601228	0.0224109988496052	0.319091796875	-0.25146484375	-0.158447265625	0	0	0	0.591881776316033	-0.597631437882053	0.314811602123921	0.439779811369482	0.0874606392463993	-0.430558740073905	0.898314982580488	-0.984349888069834	0.101139236066296	0.144312691004055	-0.152989981500479	-0.896877932761141	-0.414974745359986	160.824237651197	-63.9374556176628	-78.5175747430543
46250	1655813946897	8.65396217586137	1.23811070696885	-3.94336911136457	0.141020169433361	-0.0641275867515725	-0.223623790410022	-0.00378803600451908	-0.0153744988350148	0.00993845051579612	0.315673828125	-0.257080078125	-0.157470703125	0	0	0	0.59192689583181	-0.597611431935422	0.314839506523827	0.439726291621101	0.0874733231038554	-0.430598142319194	0.898294861154414	-0.984370976957354	0.100997270245502	0.144268260982731	-0.152846974026943	-0.896875014276915	-0.415033747177974	160.832236886976	-63.934831710674	-78.516976700891
46251	1655813946897	8.72817262354048	1.25846151960439	-3.9680509506696	0.131406767548681	-0.073091972212963	-0.14379183373606	-5.50761837780515E-05	-0.0138076419537999	-0.00643375440989911	0.306640625	-0.2529296875	-0.16162109375	0	0	0	0.591975696300283	-0.59760686200423	0.314781293989935	0.439708483462935	0.0875575508789591	-0.430713465691934	0.898231365381839	-0.984361487303192	0.100955023887634	0.144362548696313	-0.152859862613855	-0.896824393972137	-0.415138373049496	160.825105184952	-63.926553241744	-78.509209447409
46252	1655813946898	8.68024798094166	1.28218025632483	-3.99832397412826	0.109318176683526	-0.0249326661811124	-0.170866305500974	0.00621056006175894	-0.0157377077670102	-0.0205603338059707	0.311279296875	-0.264404296875	-0.163330078125	0	0	0	0.592072982276215	-0.597589579627261	0.31468985530277	0.439666433730146	0.0877139785808717	-0.430916156350155	0.898118880860392	-0.984350421998253	0.100839757256141	0.144518476564019	-0.152841436375666	-0.896739989937402	-0.415327444041074	160.814007508105	-63.9118937022477	-78.4944977432977
46253	1655813946899	8.70034646606688	1.330434817735	-4.0189489630569	0.0684327802064647	-0.0125041165395647	-0.137296107887865	0.0195815279656881	-0.0256714441271367	-0.0270817557626664	0.31591796875	-0.24755859375	-0.150390625	0	0	0	0.592245278081727	-0.597519175502286	0.314609608395567	0.43958748822294	0.0879832584245117	-0.431158925458211	0.897976017071016	-0.984352715559852	0.100532649790171	0.144716680780453	-0.152671797025352	-0.896657776034919	-0.415567269006068	160.799895907207	-63.893286021663	-78.4664457473041
46254	1655813946900	8.72065196430752	1.40224264145345	-4.04299978610841	0.00361922302451242	0.00460310147487357	-0.0986837075857565	0.0126924871466144	-0.0356115957962484	-0.0067813907819031	0.319580078125	-0.2490234375	-0.15966796875	0	0	0	0.592376450297644	-0.597516257494277	0.314568895488001	0.439443822523716	0.0880414640429844	-0.431438403458565	0.897836067793165	-0.984379834979806	0.100273102248444	0.144712285071456	-0.152463245060234	-0.89655240169585	-0.415871073674409	160.813436591116	-63.8750698988727	-78.466295980312
46255	1655813946900	8.75420144144611	1.44968473554769	-4.04516648687635	-0.0408324573511757	-0.00673222715345915	-0.0608010691816378	0.0115579702876882	-0.0414976153979447	0.0187078109555289	0.3037109375	-0.2568359375	-0.157470703125	0	0	0	0.592419215582827	-0.597628547736324	0.314518676540613	0.439269386647807	0.0878362420754273	-0.431776418653164	0.897693666499388	-0.984410123186265	0.100234950230737	0.144532571141053	-0.152386035930031	-0.896393930728722	-0.4162408161224	160.851308534797	-63.8565467290289	-78.5012313149109
46256	1655813946901	8.69713052474442	1.41537374757563	-4.12663080636455	-0.00261767338779915	0.0837405196644717	-0.0830716369198381	2.84899230406198E-05	-0.0425960335310587	0.0452475302101586	0.3115234375	-0.25537109375	-0.165283203125	0	0	0	0.59236674190777	-0.597843082159465	0.314476281800355	0.439078535549928	0.0873766345981912	-0.43212514694563	0.897570710921158	-0.984444288057975	0.100412622533195	0.144176103935547	-0.152429549091775	-0.896205982245836	-0.41662941560871	160.911637897312	-63.8405628140899	-78.5687979010704
46257	1655813946901	8.60565077504129	1.3165249715756	-4.11952182113608	0.0817139427646407	0.103451934056556	-0.182342557399014	-0.0118676399730229	-0.0498535197539887	0.0495006222247804	0.319580078125	-0.25390625	-0.15966796875	0	0	0	0.592279191299732	-0.598101556256927	0.314398663180274	0.438900180618367	0.0868560179869991	-0.432506951997937	0.897437334086841	-0.984465472221917	0.100717680287585	0.143818228609468	-0.152590190190324	-0.895987547542343	-0.417040224087244	160.973012036711	-63.8232344207912	-78.644902719473
46258	1655813946902	8.62229452938082	1.23887291416525	-4.13034819230631	0.158873683632437	0.0929630102267207	-0.173981048421483	-0.0142353221591155	-0.060699985619292	0.0311253400544902	0.3017578125	-0.250244140625	-0.15869140625	0	0	0	0.592246860992467	-0.598367811801157	0.314169891954809	0.438744682513609	0.0865064815787967	-0.433082177514238	0.89719365588728	-0.984443655518429	0.101081869267345	0.143712020426033	-0.152929126572966	-0.895668623557254	-0.417600765110272	161.009746405871	-63.7916031128815	-78.7040553741801
46259	1655813946903	8.65259752560685	1.18926144232261	-4.12456094230234	0.20832803307196	0.0638691340943738	-0.156274662904588	-0.01568160783884	-0.0708112973961874	0.0040025450601181	0.305419921875	-0.2548828125	-0.15771484375	0	0	0	0.592319993787983	-0.598543307519599	0.313918316648318	0.438586621381899	0.086402398992371	-0.433697588606337	0.896906364725668	-0.984419084161053	0.101224630863381	0.1437798346295	-0.153145983257405	-0.895354664780176	-0.418194132034994	161.026455292639	-63.7543560136315	-78.7328977168825
46260	1655813946904	8.69028803390965	1.21129948204591	-4.16050192281982	0.195381564011039	0.0745255231779227	-0.104217023876666	-0.0171275052147466	-0.0711693703169697	-0.023419790403784	0.310791015625	-0.257080078125	-0.164794921875	0	0	0	0.592459067827868	-0.59869053033721	0.313609929075184	0.438418423675993	0.0864369225400167	-0.434414525533347	0.896556009643262	-0.984384008550475	0.101282130667984	0.143979351705211	-0.153351824677473	-0.895000530733357	-0.418876196333832	161.03073485343	-63.7089990764176	-78.7466378214208
46261	1655813946904	8.75489617750993	1.21446016110749	-4.15391925470417	0.200011790605282	0.0339427633564824	-0.0486203993477492	-0.0107781804023508	-0.068488538770812	-0.042553359684022	0.3134765625	-0.2509765625	-0.162841796875	0	0	0	0.592678318425694	-0.59871558964949	0.313277690956802	0.438325383622178	0.0867934621188753	-0.435056369639594	0.896210271180506	-0.984326625915236	0.101178998433732	0.144443427646514	-0.153518690874259	-0.894700377507444	-0.419455892842489	160.998390367705	-63.664310942529	-78.7176521434441
46262	1655813946905	8.84032170797389	1.24160374721358	-4.16283484184769	0.187030010280598	7.24384289512714E-05	0.0355143191016101	-0.0129568746015072	-0.0511866208282322	-0.059831644442168	0.306640625	-0.25927734375	-0.156982421875	0	0	0	0.592889049680974	-0.598723641833577	0.312872990182362	0.438318454428145	0.0872809854477723	-0.435677371078392	0.895861182276298	-0.984229393034573	0.101186133565479	0.145099511580383	-0.153865302996037	-0.894397336033762	-0.419974849044139	160.940188063527	-63.6192610762713	-78.6716685818939
46263	1655813946905	8.85713405947411	1.22134150721928	-4.17816605837084	0.216592524939161	-0.000835439725473744	0.053956080626028	0.0003965454792312	-0.0416051911639453	-0.0669657612767722	0.306640625	-0.256591796875	-0.156982421875	0	0	0	0.593163663531948	-0.598599942224423	0.312599614385215	0.438310915356314	0.0879191805102655	-0.436103823197273	0.895591242192064	-0.984167115682132	0.100876698703145	0.145735994416853	-0.15390031224243	-0.89422443885832	-0.420330045131449	160.877647849434	-63.5844742573138	-78.6018653249459
46264	1655813946906	8.86924378784558	1.25308468664748	-4.16388140263361	0.187326577673965	-0.0198462647017578	0.06335062322235	0.0131405445116184	-0.029266251794344	-0.0683797134096294	0.311279296875	-0.24267578125	-0.15966796875	0	0	0	0.593445990941192	-0.598441285116422	0.312511505447919	0.43820821884888	0.0884091744617624	-0.436394942587841	0.895401179335132	-0.9841753832763	0.100316829597005	0.146066247478856	-0.153566379210876	-0.894145395214537	-0.420620231791935	160.849728449819	-63.5600065966013	-78.5474600327969
46265	1655813946907	8.84891492886995	1.33223872735405	-4.15994072115894	0.111598784298994	-0.00979631467831307	0.0549724655655073	0.0242546169487751	-0.0195140776092443	-0.0503220617210853	0.31298828125	-0.25341796875	-0.1650390625	0	0	0	0.593688097309432	-0.598281377582183	0.312412255991771	0.438169394934887	0.0889159510889963	-0.436606087068549	0.895248054103794	-0.984164043781178	0.099866050838478	0.146451038979608	-0.153346302760188	-0.894092778532864	-0.420812327297055	160.811089427402	-63.5403093584078	-78.4889819404316
46266	1655813946908	8.80029941945339	1.35705193872452	-4.1904605346987	0.0913438751558066	0.0380991874226364	0.0278930921395535	0.0379149001818242	-0.0132539259518798	-0.0300333483942562	0.312744140625	-0.257080078125	-0.15771484375	0	0	0	0.593897909604694	-0.598159640665745	0.312326534728196	0.438112374797242	0.0893143599666069	-0.436823280718635	0.895102433538176	-0.984159760086488	0.0994748173437039	0.146745791561269	-0.153142129181561	-0.89403030269485	-0.421019365508396	160.784061261097	-63.5215900950853	-78.4443835195089
46267	1655813946908	8.76590416783158	1.38131621971482	-4.20105773982229	0.0661435562318858	0.0630335989895547	0.0051356016823334	0.0497153098543924	-0.016823117237996	-0.0105335071251689	0.302734375	-0.255126953125	-0.15966796875	0	0	0	0.594072813078779	-0.598071881777512	0.312397656229901	0.437944313092242	0.0894354572183398	-0.436970936523312	0.895018267761104	-0.984222044400233	0.0989703942854607	0.146669111852521	-0.152670450018245	-0.894014128349726	-0.421224966024458	160.802055141063	-63.5107763319798	-78.4329425362637
46268	1655813946909	8.74541023640682	1.40558944160733	-4.19229471107466	0.0353000479262532	0.064021057838073	-0.01330622156153	0.0538869664376133	-0.0245293460052629	0.00271347151709481	0.319091796875	-0.255615234375	-0.157470703125	0	0	0	0.594215063052236	-0.598068312494128	0.312555859029799	0.437643219321856	0.0892462571531407	-0.437186495309066	0.894931882270115	-0.984338304763904	0.0984345876559439	0.146248875987231	-0.152030284347164	-0.893967896667649	-0.421554495135493	160.866929924991	-63.4996816334399	-78.4622939528202
46269	1655813946909	8.71145244796754	1.4511744684916	-4.20649302323667	-0.0133866591641284	0.0933902827561131	-0.0310212552805087	0.060520562765001	-0.0251496125467331	0.0110300035721326	0.312744140625	-0.252685546875	-0.16357421875	0	0	0	0.594361794812698	-0.59804613066696	0.312682142802188	0.437383996088035	0.0891414063338192	-0.437387212959625	0.894844252155782	-0.984435873456388	0.0979278688793215	0.145931982611464	-0.151458973748627	-0.893925365137474	-0.421850235077387	160.917800462596	-63.4884314856303	-78.4806333650879
46270	1655813946910	8.73847126555582	1.45096533546572	-4.16963298473738	-0.0197895138538697	0.0460189274088863	-0.0224111637431807	0.0567647531138815	-0.0258767232267669	0.020560719184817	0.312255859375	-0.25244140625	-0.161376953125	0	0	0	0.594492550530913	-0.598036475201683	0.312816471329071	0.437123365832605	0.088996459187151	-0.437577681235846	0.894765557638653	-0.984535236576815	0.0974489252569571	0.145581849503634	-0.150897310084655	-0.893884489098298	-0.422138036616805	160.97233069589	-63.4783322822273	-78.5037376495553
46271	1655813946910	8.80542416317269	1.42263093608309	-4.15724410854339	0.00833032851397302	0.000989934906818847	0.0281449290248794	0.0430418511405839	-0.013767238997177	0.0230775880260618	0.31396484375	-0.25439453125	-0.157958984375	0	0	0	0.594547348591931	-0.598052055667163	0.312950493575482	0.436931547917346	0.0887914545662865	-0.437664640874865	0.894743393227286	-0.984616415192597	0.0971508777063338	0.145231614651112	-0.15048784844393	-0.893874358670593	-0.422305622010828	161.02182011341	-63.4754884724328	-78.5317354305931
46272	1655813946912	8.83822914058426	1.37080052813743	-4.14747179950918	0.0578782028976385	-0.0281824110363085	0.0458503549656193	0.039050332697946	-0.00716554486408009	0.0118416001325269	0.30322265625	-0.254638671875	-0.15673828125	0	0	0	0.594633765475029	-0.598011253105852	0.313073060839423	0.436781964705953	0.0887355994708077	-0.437706033241648	0.894728686167163	-0.984684699681446	0.0967918870672459	0.145008181876828	-0.150073434024207	-0.8938930355819	-0.422413547768486	161.053429049729	-63.4736016358414	-78.5398138490372
46273	1655813946912	8.83877293679066	1.39298099755703	-4.15063401537127	0.0348078295390622	-0.0236109157667963	0.0508970048587667	0.0283973275831194	0.00438084185093422	0.0038472156509808	0.3125	-0.2568359375	-0.168701171875	0	0	0	0.594685769905011	-0.597952637738004	0.313175128491397	0.436718235237601	0.0887479638331218	-0.437649270609771	0.894755226221233	-0.984726428350058	0.0965403479337628	0.144892451596924	-0.149792056613206	-0.893948028218399	-0.422397043810705	161.066785875106	-63.4770066721975	-78.5368120293152
46274	1655813946913	8.85263477870971	1.36960506844325	-4.12751455117773	0.0536988361211134	-0.0529356296001716	0.0501545732912412	0.0177466580749337	0.0159238750577845	-0.00415313517148087	0.31298828125	-0.260009765625	-0.15576171875	0	0	0	0.594665665845021	-0.597972872140167	0.313222693654141	0.436683792039024	0.0886399767289674	-0.437629325101848	0.894775686044491	-0.98474641957212	0.0965285800902845	0.144764368425537	-0.149724559326048	-0.893959063400923	-0.422397619900925	161.082355972714	-63.4796319037776	-78.5498836120112
46275	1655813946914	8.81310636860891	1.37386083045498	-4.09852847053154	0.0427012336725923	-0.0596080801388846	0.00316187181174321	0.00700826728788862	0.018546573203674	-0.0186775788675297	0.31396484375	-0.256591796875	-0.15966796875	0	0	0	0.594715905973961	-0.597850453920978	0.313253444104345	0.43676092508925	0.0888942290064935	-0.437468620612303	0.894829046259067	-0.984736076749931	0.0963705418766735	0.144939911016773	-0.149641823019151	-0.894054766017142	-0.422224348143898	161.053832260421	-63.4864797698518	-78.5138056644114
46276	1655813946914	8.55326475184591	1.30405068123417	-4.12074599866097	0.0916037875044406	0.0669143091610871	-0.230069559973558	-0.0034374308006078	-0.0356543878550823	-0.00387385689183609	0.31298828125	-0.251708984375	-0.1650390625	0	0	0	0.594797735330975	-0.597880224861757	0.313215882340402	0.436635662554174	0.0888700955379578	-0.43771315887751	0.894711851192632	-0.984758056110277	0.0962229301897347	0.144888642176019	-0.149511461249575	-0.893950970831831	-0.422490218471201	161.071126292514	-63.4714419520842	-78.5230861939331
46277	1655813946915	8.75858967087535	1.4030635207949	-4.09453626603266	0.0108732903241008	-0.0373954033471715	-0.0430819873913855	-0.00665742217996339	0.0268497406294178	-0.0394637172168991	0.30859375	-0.254638671875	-0.156982421875	0	0	0	0.594867195015463	-0.597699059428435	0.313185691133409	0.436810688424732	0.089341114455307	-0.437497411193627	0.894770462446519	-0.984708840588667	0.0960954863274476	0.145307111918222	-0.149554888032478	-0.894070283985753	-0.422222290694401	161.009181983892	-63.4789616329258	-78.4583478479028
46278	1655813946915	8.69120727172926	1.4312588302669	-4.10787836730735	-0.0166250693141742	0.00726127544344114	-0.0936380345132086	-0.0082280497223309	0.00590367245668043	-0.0427342116910518	0.3173828125	-0.257080078125	-0.158203125	0	0	0	0.594963535484942	-0.59759404150142	0.313048272030809	0.436921654743482	0.0897642818810479	-0.437538189372263	0.894708168365094	-0.984648465493417	0.0960383416435659	0.145753340736372	-0.149698941545487	-0.89405646900808	-0.422200493989485	160.954146114982	-63.4709695203125	-78.406208774425
46279	1655813946916	8.65623160040072	1.41089634979199	-4.1112166676044	0.00509955387775667	0.0233186148996057	-0.126485550491743	-0.0102005123661078	-0.00364622294846806	-0.03863434387163	0.318115234375	-0.251953125	-0.16552734375	0	0	0	0.595070511023297	-0.597487522523416	0.312918228139575	0.437014793613776	0.0901816858536375	-0.437594620939296	0.894638592539797	-0.984594200492916	0.0959465388169214	0.146179759353916	-0.14980495282971	-0.894038706888045	-0.422200505321396	160.902456758362	-63.4620458245558	-78.3552279683721
46280	1655813946917	8.67550913496229	1.41304118310583	-4.12527674746564	0.0120005250199542	0.0267048492382682	-0.102991503350282	-0.0162717451858533	-0.00632424679360753	-0.0409208164493517	0.31689453125	-0.25439453125	-0.16259765625	0	0	0	0.595184752207371	-0.597380124179136	0.312721920536502	0.43714654109524	0.0906839753033643	-0.437692470591951	0.894539947576571	-0.98451369414072	0.0959202223116251	0.146738192032893	-0.150030672439247	-0.893993630927426	-0.422215804048859	160.835456980072	-63.4493985306205	-78.294700335913
46281	1655813946917	8.74235973492368	1.39248156244364	-4.11053011117984	0.04013976422541	-0.018327323485711	-0.0524430763408219	-0.0172824054432149	-0.00190504818257253	-0.0274948235160293	0.305908203125	-0.254638671875	-0.158447265625	0	0	0	0.595240437365054	-0.597313610817197	0.312599887338344	0.437248879351379	0.0909955215371544	-0.43772252904574	0.894493601221374	-0.984458330741972	0.0959402643230282	0.147096093470759	-0.150205226583205	-0.893976763259219	-0.422189455884037	160.791023464818	-63.4434583822557	-78.2563858455022
46282	1655813946918	8.76207300368161	1.39347538226967	-4.1240963866628	0.0454840105967193	-0.0152163117932952	-0.0289474284643916	-0.0172009572888428	0.0021427807500936	-0.0208033392072403	0.31201171875	-0.253662109375	-0.156982421875	0	0	0	0.595255281878085	-0.59729367016894	0.312506088559076	0.43732295341757	0.0911604323792491	-0.437752252781561	0.894462263459502	-0.984416595220072	0.0960221880194978	0.147321778645484	-0.150378664124101	-0.893953412987845	-0.422177158055281	160.763196350288	-63.4394425627202	-78.236472120157
46283	1655813946918	8.77562024221223	1.37340155084319	-4.10065807868761	0.065789478744687	-0.0432881468849265	-0.0296951580171143	-0.0156482605710992	0.0133579338060738	-0.0171782288773512	0.31005859375	-0.252197265625	-0.1630859375	0	0	0	0.595259807880678	-0.597222047299876	0.312456846703958	0.437449775732736	0.0913930903335255	-0.437636207242051	0.894495306387954	-0.984372917309268	0.096072960139354	0.147580303557425	-0.150523296227951	-0.894004774283031	-0.422016825318396	160.725144755034	-63.4436769092691	-78.2042497705006
46284	1655813946919	8.82313047292253	1.32879677347781	-4.06770769004761	0.111235281850986	-0.0965077964850786	-0.00769422946667575	-0.0142870306133755	0.0208059076753591	-0.0153840455776518	0.313232421875	-0.251708984375	-0.165283203125	0	0	0	0.595244754031156	-0.597159229500585	0.312436872988155	0.437570266149381	0.0915681100393032	-0.437485626026406	0.894551065196456	-0.984337968699635	0.0961337663915437	0.147773686208514	-0.150645426748064	-0.894071935573229	-0.421830925158687	160.693878546576	-63.4508236439031	-78.1783421371028
46285	1655813946919	8.80445119813307	1.35675637705607	-4.05379640528833	0.0824659695506887	-0.0953475534055894	-0.0261394022829577	-0.0124414495174728	0.0355146474405469	-0.0147743645880798	0.314208984375	-0.24462890625	-0.166748046875	0	0	0	0.595214470585986	-0.597041305045177	0.312468283936303	0.437749912174632	0.0918105032077063	-0.437169320899913	0.894680846092424	-0.984301176301812	0.0961666110778933	0.147997220395055	-0.150738269300192	-0.894223108501285	-0.421477171850008	160.651818571222	-63.4674648728026	-78.1396000556693
46286	1655813946920	8.76552025557673	1.36213410044249	-4.02302717930252	0.0733390260570436	-0.103731207883062	-0.0731615802109502	-0.00175771091029303	0.0342677174710337	-0.0188237721039352	0.307861328125	-0.243896484375	-0.164794921875	0	0	0	0.595188299367914	-0.596983199496531	0.312332871576394	0.437961328369594	0.0921184737034577	-0.437055391860939	0.894704851472164	-0.984214269177288	0.0963981312567486	0.148423962479193	-0.15111736879116	-0.894253870405652	-0.42127610437117	160.591623953158	-63.4705440371772	-78.0979343401989
46287	1655813946921	8.6926364489024	1.36713765285781	-3.99849510751907	0.0602055315849499	-0.090042868912869	-0.147946114524238	0.000477748716393244	0.0370358738919148	-0.0138773078666606	0.30712890625	-0.25048828125	-0.160888671875	0	0	0	0.59518151061615	-0.596844477764209	0.312407910772797	0.438106078558176	0.0923559332978896	-0.436725986358773	0.894841211849138	-0.984197205155664	0.0963205334145084	0.148587402583551	-0.151083562800383	-0.894423148001941	-0.420928722433907	160.557021041339	-63.4880412438281	-78.0593904294423
46288	1655813946922	8.65979875428152	1.36840847292983	-4.00178489297711	0.058985284133021	-0.0710941599504578	-0.175758178907461	0.00460948962175451	0.0307137965521823	-0.019202036816973	0.3203125	-0.2529296875	-0.15966796875	0	0	0	0.595173109138733	-0.596789539927126	0.312342511153956	0.438238942721598	0.0925688015192196	-0.436624868249567	0.894868560969344	-0.984147475670041	0.0964222517683498	0.148850581108064	-0.151277107050547	-0.894461555233074	-0.420777569616595	160.518704319559	-63.4915518609618	-78.0299699348174
46289	1655813946922	8.60046094399359	1.37459415842971	-3.95826717050248	0.0422746641140533	-0.0811721523862839	-0.246238691001384	0.00997450807221377	0.0218186332500855	-0.0058477261684638	0.31005859375	-0.24365234375	-0.15966796875	0	0	0	0.595186983863401	-0.596693568800685	0.312417191263238	0.438297544819361	0.0927045671101838	-0.43642511523026	0.894951943979769	-0.984151866790412	0.0962959056855547	0.148903329852443	-0.151165360879602	-0.894572645090634	-0.420581521617018	160.503921905835	-63.5022578233726	-78.0075938982731
46290	1655813946923	8.6226444316581	1.3819233984504	-3.88325128510018	0.0277887116251954	-0.155682214184005	-0.256833628063321	0.0120379633757993	0.0110732206243803	-0.00241422073929606	0.31494140625	-0.255126953125	-0.15283203125	0	0	0	0.595250744704482	-0.596576062074425	0.312439680049813	0.43835487840208	0.0929568969802861	-0.436305774532897	0.894983958746215	-0.984143606357778	0.0961159945182602	0.149074067707541	-0.15106414984669	-0.894650203547183	-0.420452893822937	160.477736437248	-63.5063694258458	-77.9727077297735
46291	1655813946923	8.5816318062279	1.39996390155927	-3.94549887201038	0.015478885883111	-0.0798451976541696	-0.264669253568607	0.0178180549750407	0.000524530798619118	0.00323132218336145	0.318359375	-0.251953125	-0.1591796875	0	0	0	0.595288319126289	-0.596541012832557	0.312493797882448	0.438312974260983	0.0929728925874227	-0.436287621662041	0.894991146564259	-0.984167965613905	0.0959588867936036	0.149014454012754	-0.150895515848929	-0.894675920783505	-0.42045872575899	160.485203458006	-63.5072926265697	-77.9702124759033
46292	1655813946924	8.56682332782637	1.3481635692592	-3.96101915664315	0.0663222594525994	-0.0635667787172935	-0.279102519274097	0.0197701058473593	-0.00994493367575582	0.0115188600774734	0.321044921875	-0.25	-0.15966796875	0	0	0	0.595377679624351	-0.596444558395558	0.312648988859464	0.43821218277292	0.0930089970509671	-0.436206362704532	0.895027002723189	-0.98423274610394	0.095552056740557	0.148847928938726	-0.150450084627001	-0.894759081311127	-0.420441385269096	160.504622672726	-63.5118984243842	-77.9635006229367
46293	1655813946925	8.57978648681617	1.32398143195896	-3.94016047083492	0.086667142431595	-0.0916601427489489	-0.279869625454879	0.0214537377546246	-0.0233555050402321	0.011123865264166	0.313720703125	-0.25146484375	-0.1630859375	0	0	0	0.595437157730239	-0.59647898794316	0.312660652596492	0.438076162846569	0.0929122665204791	-0.436393148528219	0.894945993145763	-0.984269864378521	0.0953958150241398	0.148702631288654	-0.150266911881215	-0.894684669810269	-0.420665183727124	160.531802606397	-63.5014936330234	-77.980651204486
46294	1655813946926	8.59123918606559	1.31440366091947	-4.01036672998133	0.107022404894457	-0.0373147870073932	-0.241520168960523	0.0267333631335611	-0.0314173601879688	0.0176354977255265	0.309814453125	-0.251220703125	-0.152587890625	0	0	0	0.595514492269466	-0.596523640797727	0.312624759733599	0.437935834418667	0.0928506111418684	-0.436657776125046	0.894823306893664	-0.984296116180522	0.0952564981970985	0.148618152401273	-0.150133006639191	-0.894570391920477	-0.420955929067071	160.554461841814	-63.4857431422486	-77.9954635257559
46295	1655813946926	8.62388265495335	1.31204863125912	-4.00780685653817	0.10964375548782	-0.0575718403997765	-0.213729029672562	0.0330268272947238	-0.0438884615422586	0.0107418896418174	0.306884765625	-0.251708984375	-0.160400390625	0	0	0	0.595632788337649	-0.596583398514622	0.312608415792197	0.437705161552562	0.0927284539852742	-0.437028631992402	0.894654910365081	-0.984349900540458	0.0949951196660199	0.148429109495505	-0.149855620940594	-0.894417073885829	-0.421380339852277	160.595443538133	-63.4641384756312	-78.0206796008464
46296	1655813946927	8.68279190832714	1.32862723257525	-4.05615276897588	0.102613639049685	-0.0425174201220897	-0.138176455220799	0.0290065047648777	-0.047569101989502	0.0115659353702616	0.307373046875	-0.25048828125	-0.15380859375	0	0	0	0.595752400436489	-0.596649273182715	0.312641869602038	0.437428603953196	0.0925294123645612	-0.437393480319903	0.89449720582074	-0.98442746654925	0.0946682774918078	0.148123193120316	-0.149468628651277	-0.89427337017848	-0.4218225556306	160.651250868043	-63.44392033459	-78.0553377745694
46297	1655813946927	8.74049025281912	1.29699063587452	-4.09991008678184	0.14370665036321	-0.0366360681380659	-0.0727889821723693	0.032745124268737	-0.0565559552096736	0.00242981762477155	0.306884765625	-0.251953125	-0.157470703125	0	0	0	0.59591450728553	-0.596712344849077	0.31256899807832	0.437173762881163	0.0924699978900634	-0.437885155844074	0.894262763275774	-0.984473016043651	0.0943730428939177	0.148008815470097	-0.149205161345478	-0.894063934551861	-0.42235944497728	160.687839666274	-63.413890533012	-78.0758072156756
46298	1655813946929	8.75259842866919	1.32154916376261	-4.08788057637778	0.115748244639217	-0.0553923672011533	-0.0633914836728095	0.0334182415037591	-0.0552542579780635	0.00342842455998548	0.30517578125	-0.24853515625	-0.166259765625	0	0	0	0.596085446328175	-0.59675390269137	0.31259398985749	0.436866018137523	0.0923395542551885	-0.438309249582206	0.894068458481026	-0.984556016153257	0.0939342763614323	0.147735584003589	-0.148737546626199	-0.893902317624883	-0.422866159403282	160.742258005221	-63.3890257990633	-78.1033408433113
46299	1655813946930	8.82453498274437	1.31632853046599	-4.11445726062301	0.129811527428881	-0.0688304212791442	0.0113803230978142	0.0360535219474154	-0.0492663902031211	0.000502573089256326	0.312255859375	-0.256103515625	-0.161865234375	0	0	0	0.596248939500619	-0.596790015274041	0.312548817819634	0.436625830996228	0.0923098282975193	-0.438737052808638	0.893861675032817	-0.984604602038183	0.0936008772478729	0.14762334985923	-0.148434070364302	-0.89372740490108	-0.423342240372805	160.77586468059	-63.36258783612	-78.1183283194871
46300	1655813946931	8.8026324246788	1.31653819280179	-4.10516140205958	0.12380860879568	-0.0736992247824556	-0.0121160318901961	0.0357458196302018	-0.0430095430302748	0.00319309784446964	0.314453125	-0.255615234375	-0.160888671875	0	0	0	0.596311814943844	-0.596966812641676	0.312424699676194	0.436387042652571	0.0920428632733556	-0.439280545528575	0.893622243255258	-0.984632908501823	0.093606052781237	0.147431144531801	-0.148412084466471	-0.893459853156723	-0.423914312074367	160.823079319554	-63.3320060261276	-78.1659636234691
46301	1655813946931	8.76703989028767	1.31455744105453	-4.11530557525708	0.122106060108016	-0.0532268906914586	-0.0399167766918573	0.0394548046010609	-0.0379323311885446	0.00524017722636387	0.31982421875	-0.259765625	-0.158447265625	0	0	0	0.596450637973526	-0.5969875754525	0.312433117848209	0.436162834372631	0.0919827632539867	-0.439603812016719	0.893469450918458	-0.98469066894693	0.0932643666652417	0.14726182261326	-0.14806572105997	-0.893336580674329	-0.424295057567361	160.859436877741	-63.3125073549367	-78.1819251289085
46302	1655813946932	8.71119643732906	1.29000714484479	-4.1085513551824	0.137277157328505	-0.0397742564836163	-0.0962668521370506	0.0377828872562796	-0.0342574905750468	0.00597098785443983	0.3193359375	-0.25390625	-0.164306640625	0	0	0	0.596582658088727	-0.59697479953862	0.312527525978991	0.435932066139972	0.0918952684425511	-0.439808085190199	0.893377919941612	-0.98477116569274	0.0928313551464805	0.146996907184572	-0.147583911243852	-0.893281135871008	-0.424579558432773	160.903247124436	-63.3008329033766	-78.1981809859407
46303	1655813946932	8.72147605666132	1.25582359673648	-4.17706144447178	0.179755898284829	0.0102375245792458	-0.0629868044607473	0.0438429257902452	-0.0364216411542445	0.00845610139395038	0.31591796875	-0.253662109375	-0.15869140625	0	0	0	0.596719026916694	-0.596994666175344	0.312560898436998	0.435694223328746	0.0918061066528904	-0.44011419677433	0.893236325156408	-0.984838108324102	0.0924641753677006	0.146779687512185	-0.147192184486275	-0.893168444399631	-0.424952457052434	160.944953994729	-63.2827823023882	-78.2172824637311
46304	1655813946933	8.71998300345712	1.25364667269904	-4.18083078716364	0.180956783673921	0.0106037106293238	-0.0630094106355443	0.0468742404131849	-0.0369728751861867	-0.00200259604297999	0.30517578125	-0.25341796875	-0.157958984375	0	0	0	0.596904019785925	-0.596955228891404	0.312565850589045	0.43549125698246	0.0918940874895174	-0.440410561189381	0.893081191313155	-0.984889341840641	0.092016360417902	0.146717325984872	-0.146793940655523	-0.893068601512951	-0.425299908274767	160.96690707708	-63.263018694411	-78.2140210483288
46305	1655813946934	8.78695139353662	1.27634427092329	-4.17495841036666	0.162291120287537	-0.0255738556489404	-0.00234315118072992	0.0511734144745001	-0.0297940309479429	-0.0058439296597905	0.30908203125	-0.245361328125	-0.15576171875	0	0	0	0.597088798081655	-0.596906099750825	0.312609432148982	0.435273957660179	0.0919569020234996	-0.440670401868879	0.892946541001734	-0.984953380802433	0.0915206202737921	0.146597454652384	-0.146324180558437	-0.89299136220986	-0.425623849428672	160.994775831769	-63.2458755939201	-78.2129498655898
46306	1655813946934	8.80615958057666	1.29716707369488	-4.19455280259276	0.144473260935195	-0.0173958439722296	0.026224473938564	0.0538082013474	-0.0238143536548993	-0.0087882346713048	0.31640625	-0.24951171875	-0.167236328125	0	0	0	0.597292802302504	-0.596812136488948	0.312715454582865	0.435046694645702	0.092048636409058	-0.440851537141449	0.892847674990115	-0.985034836665064	0.0909007055653079	0.146435761629322	-0.145716914225711	-0.892965275880171	-0.425886835885762	161.025121158237	-63.2332948722217	-78.2062326864443
46307	1655813946935	8.84003713156916	1.34442247833101	-4.19637212463139	0.100182079103909	-0.0287791249816896	0.0641745925483015	0.0540949218495448	-0.0154617496073674	-0.0119991195157453	0.310302734375	-0.251953125	-0.150390625	0	0	0	0.597479814041298	-0.596708705649308	0.312797133688755	0.434873022354345	0.0921933475168538	-0.440988743154334	0.892764983119744	-0.985096882798354	0.0903516499385494	0.146358159507241	-0.14520509004371	-0.892953250604164	-0.426086815168993	161.042723531912	-63.2227765179665	-78.1917838473765
46308	1655813946936	8.85987891813801	1.36537511333023	-4.21462207234133	0.083552099241877	-0.0204371415656215	0.0927325624635262	0.0539912002618567	-0.00543670867228401	-0.00751515996351569	0.316162109375	-0.258056640625	-0.155517578125	0	0	0	0.597664537885111	-0.596551369671148	0.312928699728614	0.434740373538292	0.0924041844592732	-0.440989717736733	0.892742703999811	-0.985160676980212	0.0897454580814721	0.146301720036495	-0.144637157142648	-0.89301389776656	-0.42615287300389	161.052240215057	-63.2199432821214	-78.1655657545337
46309	1655813946937	8.83171918226218	1.35974589624957	-4.25526649567789	0.0911348262489804	0.0272139812280009	0.0841009635886873	0.0551584469403076	0.00311125585952291	-0.00775349382481688	0.308837890625	-0.25	-0.150634765625	0	0	0	0.597812251309142	-0.596418122694682	0.313078047361887	0.434612553162141	0.092535118362838	-0.440956822293425	0.892745390770773	-0.985227420305295	0.0892052968895269	0.14618257517716	-0.144097821455254	-0.893084260235134	-0.426188129787907	161.068026142384	-63.2202849440843	-78.1484115201343
46310	1655813946938	8.73242123967594	1.39177983433207	-4.18864524053772	0.0383247695009936	0.016604277439354	-0.0282489033919582	0.0448852376010394	0.011900558961977	-8.21931817775573E-05	0.313232421875	-0.256103515625	-0.158935546875	0	0	0	0.597970882710931	-0.596169961832273	0.313427490141779	0.43448292079464	0.0926891700646615	-0.440626773896906	0.892892358505732	-0.985342339393439	0.0883880637066707	0.145904161670769	-0.143210306721927	-0.893328381010808	-0.425975599922367	161.092762845385	-63.2389801809811	-78.1206012835344
46311	1655813946939	8.73296927202487	1.3900729635893	-4.18806943125117	0.038794490921559	0.0167361860665193	-0.0282509792631416	0.0506482921249916	0.0165024818865524	-0.00664637117256064	0.31005859375	-0.253662109375	-0.1552734375	0	0	0	0.598084451755478	-0.596017289521743	0.313606640828024	0.434406784003275	0.0928285308394356	-0.440471643112451	0.892954419595989	-0.985403052249138	0.0878917267938253	0.145793926414242	-0.142701396209966	-0.893453846583592	-0.42588324168099	161.102227557284	-63.2468783825002	-78.0991783743766
46312	1655813946940	8.71392530984041	1.41511821009778	-4.17620911216619	0.00881028871282247	0.0183878053384334	-0.0466564097472055	0.0441893590430576	0.0159880009230602	-0.0129374108263076	0.314697265625	-0.257568359375	-0.15966796875	0	0	0	0.598206968030327	-0.595841318137175	0.313831462505878	0.434317119328652	0.0929658734839508	-0.440268103199564	0.893040505056979	-0.985477610200567	0.0873164730827701	0.145635549649678	-0.142095834424321	-0.893610558819357	-0.425756905998965	161.116096700138	-63.257837621438	-78.0767217973841
46313	1655813946941	8.69429588541296	1.41644409723189	-4.16176906922666	0.00354757713806877	0.0151056862498225	-0.0701427350791821	0.047801769927439	0.0121429135532169	-0.0173694438082716	0.310791015625	-0.259521484375	-0.1611328125	0	0	0	0.598352988078833	-0.595670357162197	0.313966094722055	0.434253173414282	0.0932042339264852	-0.440160730280889	0.893068587677773	-0.985523822191055	0.0867979860442274	0.145632776230489	-0.141618383948239	-0.893713959350116	-0.425698945489214	161.114041982042	-63.2614136216965	-78.0441973525567
46314	1655813946943	8.66134362703638	1.46375751171042	-4.17327339767781	-0.0470506852330659	0.0441226233703408	-0.0877961273122345	0.0451579679885528	0.00568350250939042	-0.00268323307719788	0.30859375	-0.255859375	-0.15576171875	0	0	0	0.598408342452701	-0.595636619910159	0.314136591453867	0.434099844062121	0.0930704378634945	-0.440134554120476	0.893095441632678	-0.985601135577795	0.0864513151855145	0.145315421241021	-0.141167613650079	-0.89376045133574	-0.425751054589977	161.154433045873	-63.2648335798369	-78.0601775490533
46315	1655813946943	8.64799287237401	1.48364637090364	-4.19630184245343	-0.0665296699630515	0.0724377786642772	-0.0870376536339012	0.0365523934034407	0.000585071566447535	0.0163664724375904	0.317138671875	-0.25439453125	-0.157958984375	0	0	0	0.598447337361681	-0.59560966157621	0.314276514502967	0.433981782882246	0.092958806937879	-0.440101467990318	0.893123372264691	-0.985662596318381	0.0861821136731607	0.145058227969786	-0.140811599066249	-0.893802741747637	-0.425780169116426	161.186635330457	-63.2683910871066	-78.073217263263
46316	1655813946945	8.60829280252779	1.48435492713277	-4.16907221988091	-0.0784277930950749	0.0662312275550928	-0.13401807267134	0.018173905172191	-0.00257624451182778	0.0307022482911673	0.3095703125	-0.254638671875	-0.155029296875	0	0	0	0.598416949475514	-0.595638735346412	0.314451537681987	0.433856983330662	0.0926694548087232	-0.440026638906116	0.893190309619647	-0.985734621075695	0.0860347700597091	0.144655712481501	-0.140497789869491	-0.893853777412033	-0.425776696929305	161.235039102898	-63.2769186420624	-78.1073187688365
46317	1655813946947	8.55977353745925	1.43017702823612	-4.18999533443089	-0.0296982841353569	0.101652502744889	-0.17629935092198	0.00673504106318036	-0.00719055470886113	0.0388035327789772	0.3046875	-0.254638671875	-0.16357421875	0	0	0	0.598336603225404	-0.595742496126824	0.314528330729906	0.433769658594888	0.0923256149536796	-0.440043389780831	0.893217664364975	-0.985774776337357	0.0861304768178895	0.144324742508541	-0.140442412256621	-0.893836313915092	-0.425831624901466	161.277224551507	-63.2804042543999	-78.150633785299
46318	1655813946949	8.57944833573504	1.40084976428252	-4.20189571033874	-0.00175327776110083	0.0998914844825222	-0.157882375530432	8.78212178522978E-05	-0.0114915680817086	0.0306901592165373	0.320068359375	-0.255126953125	-0.15576171875	0	0	0	0.598210290108491	-0.595950299166837	0.314540080256024	0.433649890630456	0.0918155576709824	-0.440206659905832	0.893189789431181	-0.985807745513511	0.0864179734416978	0.143927143902044	-0.140545338788364	-0.893728163616198	-0.426024620537455	161.333096923749	-63.2768523623848	-78.218509360213
46319	1655813946949	8.65330641561388	1.39506019802256	-4.22451616200979	0.0123094707043619	0.0865051475489612	-0.0831032588148446	-0.014767264929605	-0.0123581398244483	0.0218130459908447	0.303955078125	-0.260009765625	-0.1650390625	0	0	0	0.598141799109148	-0.596048781434964	0.314500378022379	0.433637810311956	0.0916307247473513	-0.440284870432835	0.89317022070276	-0.985801891504462	0.0866318007645049	0.14383866588134	-0.140706932979508	-0.893668934205638	-0.426095523383266	161.34666760137	-63.2743591285732	-78.2435961623316
46320	1655813946951	8.68106073281054	1.39857407600542	-4.1854200809078	0.00431984370454132	0.0385691905210002	-0.0744606304611128	-0.0218015923810859	-0.00961752386719132	0.00947764223763381	0.315185546875	-0.25537109375	-0.166015625	0	0	0	0.598043201562424	-0.596191803639231	0.314419569898311	0.433635787733585	0.0913913346767222	-0.440409754243945	0.893133177254543	-0.985784065730782	0.086969326259854	0.143757128662183	-0.140987232391078	-0.893574610570765	-0.426200675323268	161.360792577275	-63.2696400465899	-78.2766919256033
46321	1655813946951	8.78363653267637	1.44828393028644	-4.1732270512844	-0.0356433137586865	-0.0135188125064041	0.0191063503282809	-0.0337226891261317	-0.0059051491370345	-0.00521297987587134	0.30615234375	-0.259033203125	-0.15869140625	0	0	0	0.598003852276329	-0.596225591874281	0.314284025820512	0.43374184415489	0.0914811894164293	-0.440454135637486	0.893102091802942	-0.985726667428733	0.0872338875534437	0.143990228773194	-0.141329859204624	-0.89352694601906	-0.426187127486335	161.332109410099	-63.2656805681211	-78.2666348163912
46322	1655813946952	8.76387764963517	1.47689297433228	-4.1617348913192	-0.0657658960019254	-0.0135666476965483	0.000685739911840955	-0.0465262515779707	0.00198119289910246	-0.0113616259700017	0.30419921875	-0.255859375	-0.16650390625	0	0	0	0.597866536229266	-0.596374505581404	0.314067133356512	0.433883497836664	0.0913985696755178	-0.440567627142274	0.893054571331168	-0.985641812647305	0.0878348812048853	0.144205585207572	-0.141973654677916	-0.893412110707007	-0.426213892100488	161.307219862184	-63.2596287450476	-78.2798745525815
