// Start Time : 21/06/2022 11:20:58																																
// Update Rate : 100Hz																																
// Filter Profile : 46.1 human																																
// Firmware Version : 4.4.0																																
PacketCounter	Time_Of_Arrival	Acc_X	Acc_Y	Acc_Z	FreeAcc_X	FreeAcc_Y	FreeAcc_Z	Gyr_X	Gyr_Y	Gyr_Z	Mag_X	Mag_Y	Mag_Z	VelInc_X	VelInc_Y	VelInc_Z	OriInc_q0	OriInc_q1	OriInc_q2	OriInc_q3	Mat[1][1]	Mat[2][1]	Mat[3][1]	Mat[1][2]	Mat[2][2]	Mat[3][2]	Mat[1][3]	Mat[2][3]	Mat[3][3]	Euler_X	Euler_Y	Euler_Z
6198	1655810495098	5.52747917381547	-0.561253154753816	8.0773673187309	-3.46944695195361E-16	-1.73472347597681E-16	-0.00902000453035434	0.0170339050479005	-0.00628590784089724	-0.00574213552023411	0.63916015625	-0.3720703125	0.2958984375	0	0	0	0.0801234043082798	-0.285687601077123	0.349584514646828	0.888680764837403	0.59234652341988	0.575557541369381	0.563789954473485	-0.667118594037241	0.742741814402387	-0.0573356662822082	-0.451750348845638	-0.342152179170443	0.823925669345701	-3.98070412779351	-34.3183057169724	44.1764121817017
6199	1655810495099	5.5298981293929	-0.583109370612157	8.08327455526232	0	-8.67361737988403E-17	-0.00151428593449232	0.0170341394620397	-0.00628594987907257	-0.00574220112547789	0.643310546875	-0.3740234375	0.28955078125	0	0	0	0.0778905491911386	-0.286329235333718	0.346057646636899	0.890052097657234	0.596519348394679	0.571413985819752	0.563605113355417	-0.66062335137824	0.748354335101668	-0.0595195492953646	-0.455786632762052	-0.336826136076352	0.823897262679823	-4.13195331949585	-34.3054838575234	43.7685856790595
6200	1655810495099	5.5801387373507	-0.60789870138662	8.06289727597531	0.0618934684201435	0.00947501925283259	0.0114604742969338	0.0201681010779268	-0.00769828920099609	-0.00563232486301414	0.629638671875	-0.36328125	0.289794921875	0	0	0	0.0790443249639083	-0.286016541426309	0.347741582344952	0.889394358330297	0.594540659877523	0.573342834097792	0.563736993944083	-0.66377477188001	0.745655573198459	-0.0583165360229769	-0.45378899939073	-0.339522842746684	0.823893065443065	-4.04873913312108	-34.314631807888	43.9601594601829
6201	1655810495100	5.55514136887681	-0.541594593141834	8.12251395297396	-0.0229807915911175	0.0225128289711688	0.042621760756969	0.0214401888164672	-0.00179436541976849	-0.00796639229614614	0.64453125	-0.36376953125	0.28955078125	0	0	0	0.0791541808356778	-0.285984092320492	0.347736105806402	0.889397163990563	0.594585399316447	0.573277339523346	0.56375641451671	-0.663824685761999	0.745628432749664	-0.0580949812657166	-0.453657348108333	-0.339692997078709	0.823895429191715	-4.03339659269662	-34.3159790079665	43.9547346531175
6202	1655810495101	5.58376532845548	-0.62120307965477	8.09236297903642	0.0615820947351766	-0.0120512080278471	0.0385424711290252	0.0170944960370389	-0.00779879343003828	-0.00554729528431875	0.636474609375	-0.360107421875	0.28271484375	0	0	0	0.0792565395946908	-0.285986612469911	0.34772695691661	0.889390815026203	0.594595241842998	0.573197704687745	0.563827003360399	-0.663862941786837	0.745608728729978	-0.0579104322535466	-0.453588462044388	-0.339870585638661	0.823860116838921	-4.02079764784136	-34.3208759198517	43.9502836097344
6203	1655810495101	5.55508831091079	-0.543949727433429	8.09861863295603	-0.00860344372194	0.0252394761832279	0.023053573346175	0.0230059143793901	-0.00154692042978366	-0.00649577660534188	0.637939453125	-0.36962890625	0.286865234375	0	0	0	0.0793708233356206	-0.285950916455076	0.347730351890179	0.88939077359497	0.594631351505668	0.573144013994886	0.563843502248959	-0.663928652685345	0.745567749554716	-0.0576842696698111	-0.453444924935725	-0.34005098153916	0.823864691563056	-4.00512391759359	-34.3220205272313	43.9458633262215
6204	1655810495102	5.53394351378046	-0.597122139789602	8.08866164410932	0.0195916439165382	-0.0246602535352774	0.00599588644982774	0.0123643407623559	-0.00492483734422878	-0.00580940504174455	0.634765625	-0.36865234375	0.284423828125	0	0	0	0.0794426153174822	-0.285949695884958	0.347720237423988	0.88938871073374	0.59464681581821	0.573083723936422	0.563888472835211	-0.663950090697781	0.745559014714648	-0.0575502618598057	-0.453393252596101	-0.340171722717934	0.823843284589637	-3.995953179398	-34.3251404327054	43.9421071743828
6205	1655810495102	5.5315917961592	-0.541822247941185	8.09964598354281	-0.0226299585174314	0.00964639417189768	0.0105370804515843	0.0278566110622801	-0.00744597874804585	-0.00584361689916423	0.63427734375	-0.375	0.28466796875	0	0	0	0.0795877917305752	-0.285932051950815	0.34773111772262	0.889377149943726	0.594651862869148	0.573014819654265	0.563953170434251	-0.664041622053295	0.745497706349656	-0.0572878172758509	-0.453252563332059	-0.340422070794466	0.823817290149294	-3.97791430617238	-34.3296291343589	43.9384218858686
6206	1655810495103	5.55834423333667	-0.525709427421813	8.14514740038426	-0.0372681379152457	0.0195586538438553	0.062190639215995	0.014049441905814	-0.00770228583700298	-0.00394757808949889	0.638427734375	-0.3701171875	0.289306640625	0	0	0	0.0796689849309448	-0.285940788211503	0.347730666163324	0.889367248265118	0.59464249889319	0.572959306711815	0.564019442362034	-0.664081756100474	0.745472473299367	-0.0571507897358851	-0.453206045551661	-0.340570733336323	0.823781436954114	-3.96860207869991	-34.3342273115093	43.9360991012388
6207	1655810495104	5.56109548664722	-0.584022992988485	8.10994970284152	0.0192732082988423	-0.011908331646139	0.0380809618828923	0.0141972183057943	-0.0105295579271882	-0.0020432342923	0.637451171875	-0.37548828125	0.286865234375	0	0	0	0.0797533457866533	-0.285962112360729	0.34773768228233	0.889350087676916	0.594608349230207	0.572908205994741	0.564107346636805	-0.664133946910689	0.745435816313496	-0.057022314209983	-0.453174372164356	-0.340736894481533	0.823730148260048	-3.95995479747561	-34.3403268051541	43.9351898500442
6208	1655810495106	5.56106097579457	-0.58897393251254	8.08587723425228	0.0335921358728156	-0.0090707562859219	0.0185124206673155	0.0157347632131344	-0.0104791142364626	-0.00208593785279924	0.642578125	-0.3671875	0.29248046875	0	0	0	0.0798445965331965	-0.285980593035375	0.347746697070699	0.889332432495299	0.594574670167109	0.572856821861713	0.56419502234792	-0.664192842130648	0.745394150161741	-0.0568808347957961	-0.453132243454474	-0.34091439182169	0.823679881623172	-3.95040110538936	-34.346410881161	43.9342436442683
6209	1655810495106	5.56085786216103	-0.593588394517097	8.06194486504422	0.0479118760919148	-0.00623108852386371	-0.00105611960786867	0.0201110393229445	-0.00618631499468905	-0.00582825711359721	0.641845703125	-0.369873046875	0.2841796875	0	0	0	0.0799531132470842	-0.285970805282619	0.347747065823982	0.88932568635957	0.594585353473644	0.572792283626636	0.56424928644386	-0.66424930834712	0.745358955785821	-0.0566823022666083	-0.453035444303196	-0.341099731526799	0.823656396416219	-3.9367682490454	-34.3501766478932	43.9305038402972
6210	1655810495106	5.58748390469335	-0.613800869188074	8.06664002203846	0.0758141441070146	-0.00920574797309567	0.0189745735521996	0.0154080136300483	-0.00311461705163432	-0.00457763426781224	0.6376953125	-0.373779296875	0.2900390625	0	0	0	0.080032073277426	-0.285958654534742	0.347747882577598	0.889322171828857	0.594598116118956	0.572748076377514	0.564280711449229	-0.664291532353668	0.745332554819429	-0.056534438792297	-0.452956775367148	-0.341231627684484	0.823645030287194	-3.92658483645069	-34.3523575270695	43.9276798139859
6211	1655810495107	5.56241028549146	-0.583636349589574	8.08533615753026	0.0335305165550928	-0.0090613743700672	0.0185126396724335	0.0229500184290707	-0.00194457626809222	-0.00952867471159682	0.6396484375	-0.373046875	0.293701171875	0	0	0	0.0801511275988221	-0.285923582014426	0.347737545201074	0.889326768769617	0.594652609811142	0.572670419895999	0.564302103328474	-0.664338809918201	0.745308792804337	-0.0562916424081856	-0.452815877903224	-0.341413815690992	0.823647003985354	-3.90976454923435	-34.3538421449218	43.9211744926979
6212	1655810495107	5.58691094801632	-0.57983161038206	8.0840139072845	0.0473853890548923	0.00655327897046299	0.0310299659300011	0.0214982558172711	-0.00139952392660681	-0.00494493703962468	0.6396484375	-0.375244140625	0.282470703125	0	0	0	0.080252280505328	-0.285897129604549	0.347746742377627	0.889322554489271	0.594670068899256	0.572630249211802	0.564324469470343	-0.664405835774572	0.745263549278885	-0.0560992647450167	-0.452694593013929	-0.341579917155368	0.823644805515147	-3.8964544582568	-34.355394405695	43.9183258126214
6213	1655810495108	5.55988072719597	-0.562214029091532	8.05566064654795	0.0337421222960656	0.0123768490233711	-0.0085691085149282	0.0198727631688562	-0.00013651595495753	-0.00661193078723586	0.634765625	-0.37060546875	0.287841796875	0	0	0	0.0803503355175913	-0.285860528567513	0.347745692862999	0.889325876652954	0.59471338260467	0.57258050755208	0.564329296530239	-0.664456465078622	0.745233513354887	-0.0558982699907043	-0.452563364144883	-0.341728800284868	0.823655163578625	-3.88248817742878	-34.3557294183283	43.9137539366367
6214	1655810495108	5.56089641221802	-0.589998422332707	8.03845193880791	0.0617769779299778	-0.00335134359906721	-0.0206217672697591	0.0197562299984611	0.000978073976182985	-0.00983555261850048	0.63525390625	-0.36083984375	0.2841796875	0	0	0	0.0804461064145231	-0.285828501958146	0.347731633620481	0.889333009851055	0.594769556895987	0.572510860526597	0.56434075589917	-0.664486020865912	0.745222269884749	-0.0556964679455499	-0.452446131891453	-0.341869979739254	0.823660982862211	-3.86848713710918	-34.3565247387363	43.9075677144642
6215	1655810495109	5.54110931532423	-0.59387016941197	8.1169585825702	0.0187532345004439	-0.0460324008868455	0.0330792229573422	0.0275290240209331	0.00182896579996747	-0.0055092718378571	0.6376953125	-0.3701171875	0.283935546875	0	0	0	0.0805732114275706	-0.285770287077517	0.347747210878443	0.88933412053634	0.594814440699794	0.572476060390261	0.564328752957916	-0.664577779431919	0.745159669853024	-0.0554386283188232	-0.452252314776089	-0.342064652813731	0.823686601247763	-3.85051307260192	-34.3556916926894	43.9036673357998
6216	1655810495109	5.51497060503968	-0.605881556240988	8.07136385434806	0.0330610835289827	-0.0558808735258163	-0.0185722059900737	0.0183079902372311	-0.000386781291896975	-0.00808258369602838	0.646484375	-0.372802734375	0.290283203125	0	0	0	0.0806583477804458	-0.285750402249598	0.347739486529605	0.889335812871408	0.594847914244639	0.572418047194484	0.564352317408953	-0.664610668486685	0.745142960882911	-0.0552686817314314	-0.452159947642959	-0.342198110884181	0.823681877095043	-3.83876665791421	-34.3573271557259	43.8991552756236
6217	1655810495109	5.54039212822528	-0.595543711027554	8.09361006023393	0.0327517523827646	-0.043131100114112	0.0135126859998138	0.0291628769207535	-0.00325504594853205	-0.00950299974901629	0.63134765625	-0.3701171875	0.285400390625	0	0	0	0.0808072619023285	-0.285710335486563	0.347737578987873	0.889335913353136	0.594896360711616	0.572336095017048	0.564384367565856	-0.664685974648507	0.745097525167002	-0.0549748405688743	-0.451985481091637	-0.342434040846768	0.823679581240008	-3.81842864169426	-34.3595516104302	43.8927251994894
6218	1655810495110	5.56390157702046	-0.561666993458695	8.10960415657023	0.0180960717670646	-0.0116228192039817	0.0380835356503812	0.0183085410253048	-0.000387209333712227	-0.00808301133313075	0.638671875	-0.367919921875	0.28369140625	0	0	0	0.0808855347659404	-0.285691560108017	0.347731954108477	0.889337028825729	0.594925641149896	0.572285176554289	0.564405136580641	-0.6647184350241	0.745080036715057	-0.0548191666098766	-0.451899196327563	-0.342557171264763	0.823675725497351	-3.8076655032193	-34.3609931242193	43.8887693676512
6219	1655810495111	5.54088445203437	-0.591172579905517	8.09359346502129	0.0323567140174777	-0.0429461188942672	0.0135148049779819	0.0216818942998985	-0.00593506153780454	-0.00435339173418215	0.64111328125	-0.3662109375	0.291259765625	0	0	0	0.08099848346429	-0.285678491492741	0.347741166181687	0.889327344973445	0.594927761682064	0.572232406978103	0.564456402908157	-0.664790505255215	0.74503065403817	-0.0546160110770769	-0.451790374512875	-0.342752676061767	0.823654090349834	-3.79369523019923	-34.3645514693548	43.88602762365
6220	1655810495111	5.56278999868471	-0.57033162740807	8.06229071935434	0.0462952467376348	-0.00569637146211436	-0.00104803350337157	0.0215331154038231	-0.0031104663854166	-0.0062615918838285	0.64013671875	-0.3662109375	0.293212890625	0	0	0	0.0810894402237111	-0.285668115668961	0.34774822642386	0.889319628363959	0.594929797418409	0.57218931179627	0.564497942963304	-0.664847982153703	0.74499134740653	-0.0544522994514706	-0.451703106885308	-0.342910022827439	0.8236364607487	-3.78243740268523	-34.367434834369	43.8837737325729
6221	1655810495112	5.54163682627889	-0.587233182023749	8.09336512735703	0.0319111101427612	-0.0426975777272297	0.0135173453271591	0.0169811128498516	-0.00477588039611142	-0.0059350724959072	0.637939453125	-0.368896484375	0.29052734375	0	0	0	0.0811817318334988	-0.285657418678437	0.347744149141359	0.889316238639798	0.594947691783848	0.572128709527976	0.564540506761848	-0.664889365365586	0.744967066308932	-0.0542789272076366	-0.4516186177128	-0.343063856809364	0.823618731140972	-3.77051011442789	-34.3703893620674	43.8798806946948
6222	1655810495112	5.54292819006164	-0.57907221077329	8.11678588386506	0.0170508264875939	-0.0452195423669022	0.0330860851956221	0.0216509661389455	-0.00422226839119349	-0.00303749214725611	0.6474609375	-0.368408203125	0.29296875	0	0	0	0.0812659056171122	-0.2856559684026	0.347766698951127	0.889300198696053	0.594917981633219	0.572109807019875	0.564590970385765	-0.664966170888557	0.744908351369734	-0.0541436943090939	-0.451544667450817	-0.343222838359144	0.823593040600408	-3.76126008300238	-34.3738923840358	43.880364451518
6223	1655810495113	5.56493603485124	-0.594696819452596	8.04461352533705	0.0740334683410993	-0.0211153454970359	-0.0130926211883384	0.0169815552969992	-0.00477635400642527	-0.00593505278758101	0.6279296875	-0.3662109375	0.301513671875	0	0	0	0.0813581991241572	-0.285645248702047	0.347762623366864	0.889296796979623	0.594935899365886	0.572049208093225	0.564633491005997	-0.665007540184307	0.744884002448542	-0.0539703103035215	-0.451460127966715	-0.343376653860095	0.82357527065844	-3.7493304979255	-34.3768441420459	43.8764700361701
6224	1655810495113	5.54190733651523	-0.588218826261996	8.06939554422651	0.0450647478411099	-0.0391286055778667	-0.00604060547764362	0.0201139722352589	-0.00427311002662065	-0.00299463002416864	0.639404296875	-0.3701171875	0.292236328125	0	0	0	0.0814293123917431	-0.285649405943504	0.347785081130808	0.889280170312129	0.594899908453921	0.572036282937866	0.564684504767171	-0.665077221782224	0.74482960885249	-0.0538622580577997	-0.451404904700818	-0.343516149226315	0.823547367935062	-3.74197184680306	-34.3803856265015	43.8775550297569
6225	1655810495114	5.54223438451638	-0.586345163369036	8.06930729293784	0.0450660334726689	-0.0391281171990586	-0.00604060943700269	0.0199966916623525	-0.00316231808949711	-0.00621955301540612	0.645751953125	-0.36962890625	0.282958984375	0	0	0	0.0815326137203859	-0.28562609178355	0.347784716684966	0.88927833631138	0.594927053065627	0.571979144876558	0.564713785343452	-0.665130512115965	0.744796447480561	-0.0536624046487852	-0.451290597490135	-0.343683152986318	0.823540337184755	-3.7281584011611	-34.3824184144145	43.8733894517129
6226	1655810495114	5.5659799206372	-0.552576584589065	8.08506197275954	0.0299855442433492	-0.00733248426880544	0.0185255325893987	0.0246458660740258	-0.00663568696776951	-0.010493268206757	0.63916015625	-0.370361328125	0.282958984375	0	0	0	0.0816331189175392	-0.285637114852519	0.347781032018868	0.889267016301861	0.59491958477324	0.571905504211565	0.564796230428064	-0.665175298467639	0.744768775327372	-0.0534910609901717	-0.451234429051821	-0.343865621355032	0.823494945029048	-3.71649210373661	-34.3881423842231	43.8700630900971
6227	1655810495115	5.52152511547804	-0.600596128810483	8.10030925411385	0.0298646058448008	-0.0756587975825132	0.00853195462829959	0.0183096244184064	-0.000390128613969524	-0.00808676763240101	0.63720703125	-0.3701171875	0.292724609375	0	0	0	0.0817267455109787	-0.285603736885101	0.347771065594102	0.889273034832943	0.594971582825617	0.571843934013122	0.564803798466669	-0.665209789698694	0.744752050007453	-0.0532946498132433	-0.451115008971104	-0.344004213843514	0.8235024890909	-3.70284990896526	-34.3886678350917	43.8644793010972
6228	1655810495116	5.56849126532235	-0.571594741326719	8.09126025843204	0.0430986637763012	-0.025306879653093	0.0260528826827873	0.0261808927739525	-0.00467005737182873	-0.0077080800575678	0.6396484375	-0.363525390625	0.291259765625	0	0	0	0.0818204687485407	-0.285603043659728	0.347784363217438	0.889259438548453	0.594953876307482	0.571804705324842	0.564862163748885	-0.665277404957838	0.744702895190421	-0.053137297142124	-0.451038645261431	-0.344175793546518	0.823472624692137	-3.69208103454699	-34.3927202624674	43.8633674353402
6229	1655810495117	5.56795388514932	-0.575618596922457	8.06762684010832	0.0574250612954966	-0.0224713945585921	0.00649015285172894	0.021507298351818	-0.00331209376902124	-0.00777672763761443	0.6416015625	-0.3701171875	0.2890625	0	0	0	0.0819329060908222	-0.285577276760453	0.347779170358661	0.88925939216982	0.59499053532545	0.571735434887961	0.564893667309705	-0.665328139681909	0.744673295128308	-0.0529164442320089	-0.450915434888344	-0.344354869308135	0.823465235795193	-3.67681083392638	-34.3949077041475	43.8581357279731
6230	1655810495118	5.56634383923393	-0.549839578376822	8.06126138950697	0.0425600379907274	-0.00328594658996709	-0.00103001694654914	0.0230168771969287	-0.00346228459444348	-0.00933356673243368	0.638427734375	-0.363037109375	0.2841796875	0	0	0	0.0820104704204208	-0.28557954364017	0.347781673091815	0.889250535483197	0.594984464231461	0.571689052623518	0.564947001437857	-0.665371103489035	0.744644381205759	-0.052782953502774	-0.450860046982414	-0.344494372449126	0.823437213991388	-3.66768526862541	-34.3986110760119	43.8561054943537
6231	1655810495119	5.56955361213116	-0.564786356597953	8.09100715620925	0.0421743134039686	-0.0246908759540938	0.0260584535626371	0.020059839015744	-0.00467392712125308	-0.00602114744203937	0.640869140625	-0.3720703125	0.287841796875	0	0	0	0.0821163550078742	-0.285563074612716	0.347781620575101	0.889246073394822	0.595003349615778	0.571628083366517	0.564988803652538	-0.665425678614668	0.744609697260755	-0.0525838852259427	-0.450754567571103	-0.344670470234932	0.823421269315906	-3.65396088245317	-34.4015138188081	43.8521439768752
6232	1655810495120	5.5455828529452	-0.564394317950416	8.09228710541631	0.0271390444398226	-0.0397080448451996	0.0135442196305817	0.0215368679850107	-0.00311045151809153	-0.00626392010687087	0.63916015625	-0.372802734375	0.2861328125	0	0	0	0.0821820009862026	-0.28557342897935	0.347795315941788	0.889231327374285	0.594972469739857	0.57160298925492	0.565046708623716	-0.665478972542977	0.744569073845712	-0.0524845822664339	-0.450716648632818	-0.344799821559377	0.82338787074976	-3.64722667252601	-34.4055349022302	43.8523729667585
6233	1655810495121	5.57024678354762	-0.597145998757776	8.0501274108307	0.0837503563774216	-0.0370205935771619	-0.00552676368538485	0.0184290311868078	-0.00149956425764501	-0.00486299573174549	0.651123046875	-0.37451171875	0.289306640625	0	0	0	0.0822734409767046	-0.285546271985373	0.347799357262762	0.889230012174982	0.594997867285731	0.57156150467782	0.565061929611135	-0.665533002095046	0.744533375994925	-0.0523055938877958	-0.450603330045161	-0.344945645573366	0.823388814930216	-3.63481776630548	-34.4065919223171	43.8490735387207
6234	1655810495123	5.54697946422161	-0.553946073174708	8.11577189203071	0.0113987115435957	-0.0417694543465327	0.033109492153395	0.0262122013393767	-0.00446789667602463	-0.00619522616025112	0.63671875	-0.36279296875	0.287109375	0	0	0	0.0823478605910195	-0.285567628452763	0.347827631721327	0.889205205814203	0.594934136381995	0.571548515190987	0.565142166317811	-0.665612048219532	0.744469536934429	-0.0522083311516074	-0.450570721011042	-0.345104916452395	0.823339918871893	-3.6282917454346	-34.4121641739018	43.8514891963367
6235	1655810495124	5.57078416620334	-0.556971189526624	8.09070173133489	0.0397284801906239	-0.0233440634039989	0.0260719214606624	0.0108913465691153	-0.00457933536850269	-0.00273273740525547	0.63427734375	-0.3779296875	0.28173828125	0	0	0	0.0824080147591083	-0.285568311716143	0.347829149768154	0.889198819735282	0.59493124383031	0.571512303593462	0.565181830879067	-0.665644774180012	0.744447603350052	-0.0521037472088527	-0.450526192048099	-0.34521218505096	0.823319316894109	-3.6211332623917	-34.4149189220154	43.8498147285964
6236	1655810495125	5.54586994934098	-0.563608265912446	8.0684295241159	0.0389600678940706	-0.0353459526874886	-0.00600008936704377	0.0200573626571095	-0.00275765439294766	-0.0031944827731227	0.630859375	-0.36474609375	0.286376953125	0	0	0	0.0824516882372762	-0.285581098679008	0.347856193400367	0.889180085189227	0.594879009580595	0.571520311933195	0.565228712122972	-0.665706886792157	0.74439557563966	-0.0520535094455148	-0.450503390484361	-0.345311106128782	0.823290310368227	-3.61777820893261	-34.4181749938149	43.8527291717238
6237	1655810495126	5.57038802547413	-0.560321618158335	8.06702341560644	0.0529491526300422	-0.0197490182983162	0.00652116175179707	0.015354064929543	-0.00160329810555003	-0.00477654449526346	0.636474609375	-0.3671875	0.287841796875	0	0	0	0.0825292890508836	-0.285560090379329	0.347856329285025	0.889179579954271	0.594902817917795	0.571479347035562	0.565245073525878	-0.665747631996811	0.744369781250208	-0.0519010525149286	-0.450411731334905	-0.345434486803686	0.82328870246261	-3.60721732286989	-34.4193113822153	43.8495317471795
6238	1655810495127	5.5239109904835	-0.585655509550752	8.07608335166782	0.0379482972256002	-0.0687418605039391	-0.0109762036823398	0.0138776649384588	-0.0031669135810943	-0.00453286833322793	0.6416015625	-0.365966796875	0.2890625	0	0	0	0.0825499510954214	-0.285577614960357	0.347865352965551	0.88916850349855	0.594870244079413	0.571472994332899	0.565285776804166	-0.665770666928597	0.744350403560592	-0.051883482695701	-0.450420705303775	-0.345486748613278	0.823261862815395	-3.60611666227136	-34.4221385132292	43.8507809366461
6239	1655810495127	5.59829774423901	-0.572338880419955	8.09524290828359	0.0655981092416342	-0.0247782398311627	0.046143678712502	0.0279358288318399	-0.00895205574005773	-0.00563934515226255	0.634765625	-0.365234375	0.289794921875	0	0	0	0.082697472453401	-0.285567004888007	0.347876627305015	0.889153792065242	0.594866675788361	0.57140030563759	0.565363006177247	-0.665862983718895	0.744285960449413	-0.0516226306077648	-0.450288934962293	-0.345745715512374	0.823225227538224	-3.58819310348857	-34.4275029030593	43.8473114720979
6240	1655810495128	5.52384748255895	-0.552079174614241	8.09286617268083	0.00851739576640895	-0.0521310461940418	0.0010466404251428	0.00769358061193527	-0.00165926519839736	-0.00304505365913851	0.642333984375	-0.3759765625	0.28076171875	0	0	0	0.0826789215583353	-0.285595921063332	0.347888867325625	0.889141440825267	0.594816611725762	0.571419291972001	0.565396490241407	-0.665870342991904	0.744275063841689	-0.0516847721025674	-0.450344184750874	-0.345737793863597	0.823198331603875	-3.59261820675182	-34.4298288294316	43.8506717584599
6241	1655810495128	5.57566631915379	-0.60092670979833	8.07921244455894	0.0787313347864246	-0.0552447823528101	0.0216194593176908	0.0200585791657932	-0.00275710417353213	-0.00319547181480146	0.638916015625	-0.37548828125	0.287353515625	0	0	0	0.0827772114500672	-0.285572409152161	0.347902275180497	0.88913460135112	0.594824812110529	0.57138612611013	0.565421380729923	-0.665941676896904	0.74422388037757	-0.0515024159383996	-0.450227859943621	-0.345902747552851	0.823192664791163	-3.58000019896759	-34.4315578563405	43.8486156622596
6242	1655810495129	5.54871406147029	-0.54745362334568	8.09130442969885	0.0206642541986804	-0.03541406062679	0.0135763829491005	0.0186726003165571	-0.00562935741489009	-0.00123752807695266	0.6376953125	-0.359375	0.289794921875	0	0	0	0.0827899573197982	-0.285627898525951	0.34795044538557	0.88909674057811	0.594694382279265	0.57142897069341	0.565515272240949	-0.666017456806639	0.744152621045939	-0.0515521466020314	-0.450288062149444	-0.345985271424565	0.82312505310127	-3.58374161735951	-34.4380803865567	43.8570393816144
6243	1655810495130	5.55116557913406	-0.606039753065521	8.05679123026164	0.0772166248183404	-0.0668952900575269	-0.0104340025958187	0.00926444343500512	-0.00332317200752767	-0.00440146864949557	0.638671875	-0.374267578125	0.287353515625	0	0	0	0.0828426737376445	-0.28562555701135	0.347943051877833	0.889095475885405	0.594707347663792	0.571385216919435	0.565545846524071	-0.666033156241932	0.744145448115876	-0.0514527631408894	-0.450247715620089	-0.346072948862451	0.823110265179909	-3.57691484254746	-34.4402044550803	43.8542234364499
6244	1655810495131	5.55229269090486	-0.597964220801504	8.08029449803993	0.0616377132554127	-0.0686673612987378	0.00913322624849577	0.0245828354947391	-0.00129335530579029	-0.00504187005852958	0.640625	-0.365478515625	0.29296875	0	0	0	0.0828912938122842	-0.285623778405662	0.347973617987074	0.88907955313593	0.594666836788518	0.571401008494884	0.565572489354784	-0.666103906637278	0.744086789190223	-0.0513851701869439	-0.450196555724824	-0.346172988032882	0.823096181238797	-3.57228902857735	-34.4420554402386	43.8569645211606
6245	1655810495131	5.55140184761839	-0.566198896599508	8.09748705455129	0.0333303275242058	-0.0529181703081281	0.0211333024312221	0.0138171771351996	-0.00165624261361442	-0.00473406635139049	0.632080078125	-0.37353515625	0.290283203125	0	0	0	0.0829618501796601	-0.285605924766763	0.347971917388772	0.88907937320673	0.594689600893807	0.57136051652926	0.565589461305797	-0.666138100292954	0.744065752247099	-0.0512463430017623	-0.450115884997252	-0.346285022032973	0.823093174305779	-3.56267565711857	-34.4432345716701	43.8538401975877
6246	1655810495132	5.53041739630743	-0.656046227970214	8.04738507662292	0.102914338990466	-0.114309281442685	-0.0273584695798359	0.0200310290702443	-0.00296059461310106	-0.00470912086651328	0.638916015625	-0.369384765625	0.286865234375	0	0	0	0.0829742313581331	-0.28561477588292	0.348004892911924	0.889062467567514	0.594633588613419	0.571398844648865	0.565609631836896	-0.666193510622508	0.744015742879775	-0.0512521292388383	-0.450107877843951	-0.346329228741957	0.823078953455752	-3.5631382863587	-34.4446359470637	43.858456612231
6247	1655810495133	5.52952823831508	-0.587708834495029	8.10517569305487	0.0319683876100029	-0.0856266792248949	0.0161784399032907	0.021540553760527	-0.00311266716169179	-0.00626625248752946	0.638427734375	-0.370361328125	0.2861328125	0	0	0	0.0830837463710849	-0.285589092737594	0.348007013458875	0.889059660417509	0.594659977385504	0.571342370922601	0.565638936499612	-0.666253617912035	0.743976419344759	-0.0510411998102973	-0.449984030733309	-0.346506829149862	0.823071922396526	-3.54854188342369	-34.4466719707044	43.8543570369116
6248	1655810495134	5.55310352674293	-0.553913343800081	8.1208750600343	0.0160094308949978	-0.0529024241840993	0.0407046983069126	0.0230501452559972	-0.00326487562781071	-0.00782341540425665	0.635986328125	-0.371337890625	0.28271484375	0	0	0	0.0831118176091514	-0.285611076755102	0.348031787918016	0.889040276481939	0.59460037486676	0.571353242473427	0.565690610248578	-0.66630386534712	0.743932600744584	-0.0510239607722227	-0.449988392330062	-0.346582973996849	0.823037477216989	-3.54749451507069	-34.4502622702692	43.8577709325041
6249	1655810495134	5.55142858533763	-0.528629016728519	8.11441818492895	0.0020502070709659	-0.0343280215833104	0.0331446340673338	0.0139085369977614	-0.00296407145377722	-0.00301993712080083	0.642578125	-0.35888671875	0.28759765625	0	0	0	0.0831823848697552	-0.285599551817816	0.348037575068098	0.889035113586387	0.594605484684362	0.571321546490116	0.565717251018048	-0.666348953841873	0.743901074376196	-0.0508946289482776	-0.449914868944245	-0.346702872872555	0.823027173697686	-3.53856964640778	-34.4521133350875	43.8559369093792
6250	1655810495135	5.57623965547455	-0.562103413906764	8.07220172221641	0.0573845039443917	-0.0306265838852465	0.0141441951071961	0.0155992438642071	-0.00573111948782009	-0.00114796100800291	0.635009765625	-0.37109375	0.289306640625	0	0	0	0.0831921822030279	-0.285638769490619	0.348067625124618	0.889009832636452	0.594518843407987	0.571345257204983	0.56578435989536	-0.666396907427832	0.743855978320813	-0.0509258803262858	-0.44995833874199	-0.346760552234186	0.822979108368366	-3.54094321380936	-34.4567764033533	43.8612962107213
6251	1655810495136	5.55439673476162	-0.585618312554341	8.07975262731687	0.0573066814881258	-0.064789413437102	0.00918579733719049	0.0185601020050589	-0.00644505628871682	-0.00728814842086157	0.62890625	-0.367431640625	0.28515625	0	0	0	0.0832956629767279	-0.285633081285254	0.348059428642343	0.889005179702528	0.594536754017314	0.571269276067209	0.565842259242099	-0.666437263562173	0.743832933324866	-0.0507340224808606	-0.449874895785838	-0.346935125813129	0.822951150809518	-3.52775637609042	-34.4607997555633	43.8566268446099
6252	1655810495136	5.58008360030258	-0.575739867881029	8.10168439079793	0.0556879977707314	-0.0503810993581926	0.0412691896858099	0.0186141762385825	-0.00411498127306656	-0.00143842117604688	0.637939453125	-0.3662109375	0.28173828125	0	0	0	0.08329001240125	-0.285646846689464	0.348100030401687	0.888985388881567	0.594464495621421	0.571328622986371	0.565858257872116	-0.666494740598945	0.743778285337088	-0.0507801439045453	-0.449885234475988	-0.346954560162448	0.822937305621132	-3.53101454332378	-34.4619115142717	43.863079691818
6253	1655810495137	5.57940121510311	-0.580657099404468	8.07811617140599	0.0700198884730893	-0.0475574894056443	0.0217255216087544	0.0169234902841514	-0.00134856654555091	-0.00331107650665583	0.636474609375	-0.370361328125	0.281982421875	0	0	0	0.0833713880382785	-0.285622965806067	0.348109656486965	0.888981664671012	0.594478376929347	0.57130063759395	0.565871929722792	-0.666551770053397	0.743737757434196	-0.0506249543746732	-0.449782388719406	-0.34708749567148	0.822937466121434	-3.52024987957807	-34.4628615947929	43.8610090848712
6254	1655810495138	5.55230817048912	-0.563916664191868	8.04962661063723	0.0547001237898057	-0.0407105320390026	-0.017894509989782	0.0154434427619127	-0.00099089645697693	-0.000241053014716169	0.64208984375	-0.37353515625	0.285400390625	0	0	0	0.0833601003498887	-0.285661811314879	0.348148576140148	0.888955000074552	0.59437979697578	0.571351240542562	0.565924391484858	-0.666602429571919	0.743687325202489	-0.0506987497082815	-0.449837590510003	-0.347112261759282	0.822896846451918	-3.52554194936741	-34.4665073536201	43.8682916941947
6255	1655810495138	5.55420042950922	-0.586171336390565	8.05616963490661	0.0685952026482858	-0.0592605597407125	-0.0103207501473417	0.0121234942057035	0.0030297344330539	-0.00378487311810855	0.631103515625	-0.3701171875	0.2958984375	0	0	0	0.0834130228527398	-0.285627173241864	0.348151051331846	0.888960196511048	0.594415926724785	0.571334802156998	0.565903039309862	-0.666634905872946	0.743666226150197	-0.0505810869326922	-0.449741712906067	-0.347184515679701	0.822918771048861	-3.51728688323017	-34.4650234940345	43.8657281310632
6256	1655810495139	5.50754222956569	-0.611583602839457	8.06548067051605	0.0528759927788899	-0.10707789042851	-0.0277615772221349	0.016986047334678	-0.00286036408368384	-0.00310853271232366	0.6337890625	-0.369140625	0.285888671875	0	0	0	0.0833809397952414	-0.285649732836967	0.34820351454305	0.88893540905338	0.594317085180074	0.571425380915889	0.565915396776047	-0.666696353620713	0.743603862677461	-0.0506879421559543	-0.449781251645625	-0.347169021452507	0.822903698018063	-3.52476302389257	-34.4658822672508	43.8750264077737
6257	1655810495140	5.53092932803055	-0.578027061910212	8.08123783365692	0.0385224044953792	-0.0756913542168769	-0.00327933525524671	0.026091502003925	0.000475375292795714	-0.00377962312800153	0.6328125	-0.366455078125	0.289306640625	0	0	0	0.0835001033388756	-0.285601951299388	0.348225313326642	0.888931037434817	0.594341313145087	0.571400993178466	0.56591457701992	-0.6667921629676	0.743533727801917	-0.0504559909819774	-0.449607178427972	-0.347359324929742	0.822918516312758	-3.50861085307038	-34.4658252986153	43.872637733823
6258	1655810495140	5.57857543011172	-0.542934248766559	8.09560535100105	0.0369112310798234	-0.0270527136419134	0.0337339675138786	0.0138481338818509	-0.0014532494987913	-0.00322219546594633	0.64013671875	-0.371826171875	0.297119140625	0	0	0	0.0834682927467284	-0.285612032964055	0.348251593811976	0.888920490336174	0.594293188067117	0.571456857504527	0.565908708740264	-0.666815052622255	0.74350774302673	-0.0505363399513309	-0.449636844813013	-0.347323042815112	0.822917621464172	-3.51418798404628	-34.465417485922	43.8777542514876
6259	1655810495141	5.55539267058272	-0.573162560442482	8.07996109063584	0.051189322428356	-0.0583986104861254	0.009259661757957	0.0152955177991967	-9.51342103961093E-05	-0.00498217144491443	0.640380859375	-0.365234375	0.28759765625	0	0	0	0.0835419987184834	-0.285585019182365	0.348252637648674	0.888921836631023	0.594322594378699	0.571422061927413	0.565912962348095	-0.666855435153618	0.743481669641724	-0.0503868585330898	-0.449538076715479	-0.347436086279733	0.822923862537459	-3.50379279619811	-34.465713087734	43.8745947870799
6260	1655810495142	5.5563787924509	-0.565154385444493	8.10352931525424	0.0353267067448546	-0.0593788198193389	0.0288144607607084	0.0169539047311904	-0.00114320047396332	-0.00179816926782667	0.638427734375	-0.36767578125	0.28125	0	0	0	0.0835163587109221	-0.285593972151257	0.348310737687796	0.888898605528166	0.5942314261645	0.571522320794615	0.565907456208204	-0.666929395290061	0.743409295678103	-0.0504757446445271	-0.449548878161805	-0.347426043832242	0.822922201797071	-3.50996537036843	-34.4653304421905	43.8840084357497
6261	1655810495142	5.55844262003425	-0.587381211155965	8.10998242423416	0.0492229308745342	-0.0779092686348013	0.036405141061703	0.0123682217372937	-0.00109400959036952	-0.000152237192706903	0.642578125	-0.37060546875	0.2900390625	0	0	0	0.0835719305667016	-0.285578231448743	0.348328716574962	0.888891394577089	0.594224357863696	0.57152014903514	0.565917071458645	-0.666985445555123	0.743365675261188	-0.0503774578667061	-0.449475058194681	-0.347522937502446	0.822921612287925	-3.5031502776891	-34.4659986487922	43.8842401636523
6262	1655810495143	5.55846757237572	-0.58623933163144	8.11004794757515	0.047265655320612	-0.0765633724313658	0.0364252829420959	0.0153827803106334	0.000521812584033889	-0.00044420683298937	0.638916015625	-0.373046875	0.285888671875	0	0	0	0.08354662699972	-0.285613378132057	0.348383059556641	0.888861183291811	0.594108484091898	0.571604288374816	0.565953749560463	-0.667052425850532	0.743298409861847	-0.050483017577886	-0.449528831441263	-0.347528432517929	0.822889918697929	-3.51060722464557	-34.4685476226582	43.8940369171443
6263	1655810495143	5.5818948654376	-0.590034865583949	8.08519225708261	0.075574584276211	-0.0581254689879474	0.0294127753696092	0.0108301593211749	-0.00114621324782364	-0.000107759548232357	0.647705078125	-0.372802734375	0.2861328125	0	0	0	0.0835952786448456	-0.285601024843384	0.348398962408616	0.888854345204713	0.594100435202017	0.571602068697352	0.565964440538168	-0.667101657709497	0.74325998476178	-0.050398148112405	-0.449466407169675	-0.347614254760684	0.822887767993399	-3.50472923161924	-34.4692906153114	43.8943135838201
6264	1655810495144	5.55760044706519	-0.590485716995967	8.08667188037378	0.0590730363273849	-0.0721082106732535	0.0169193850348019	0.018459679962151	0.000626093969864386	-0.000533284793737939	0.640869140625	-0.36767578125	0.28466796875	0	0	0	0.0835658226593065	-0.285649621537282	0.348481723713055	0.888809054430061	0.593929563907172	0.571726331446951	0.566018263881341	-0.667208513911281	0.743154483042503	-0.0505392253416105	-0.449533616186083	-0.347635464623564	0.822842093997763	-3.51470989691494	-34.4730312856096	43.9087708508966
6265	1655810495144	5.55962836803973	-0.612562910807046	8.09317819339814	0.0729435919278626	-0.090636248542627	0.0245225245397886	0.0122818784551306	-0.00171269171179	-0.00469024593312034	0.63916015625	-0.375	0.28955078125	0	0	0	0.0836281743744236	-0.285635958141774	0.348479191003683	0.888808574049919	0.593948705707699	0.571688158253934	0.566036734408973	-0.667237013114277	0.743137163776439	-0.0504174983973557	-0.449466020204517	-0.347735252061873	0.822836855734463	-3.50628790424709	-34.4743150080611	43.9059367987385
6266	1655810495145	5.53348995595538	-0.589348250233484	8.08814197924594	0.04296680133431	-0.0859430033750472	0.00442273125779025	0.0169259707972666	-0.00134980535780156	-0.00331098584679674	0.636962890625	-0.37841796875	0.28515625	0	0	0	0.0835981295234902	-0.285672984353822	0.348536443133759	0.888777051097868	0.593826587636098	0.571778929962378	0.56607317465814	-0.667305838551869	0.743067401095684	-0.0505346936618038	-0.44952519579113	-0.347735089802545	0.822804597501109	-3.51455528987381	-34.4768477042937	43.9163682820483
6267	1655810495146	5.55480684704443	-0.569207015785562	8.05696796563656	0.0573271813868993	-0.0489491949909732	-0.0101914614900256	0.0166774174349506	0.00469577109463739	-0.00412565115723879	0.640625	-0.369873046875	0.293701171875	0	0	0	0.0836677729783331	-0.285623755394619	0.348545564949742	0.888782742447774	0.59387011901628	0.571767559120929	0.566038991657363	-0.667357573215233	0.743031385837422	-0.0503808409298079	-0.449390866854084	-0.34783073181853	0.822837548238242	-3.50374197023808	-34.474471890718	43.9137004754354
6268	1655810495147	5.58380987182143	-0.606430433854514	8.09220061826725	0.082632212447521	-0.0709022189942928	0.0371119265501001	0.0153258842293538	0.000109336540998153	-0.00346990700277547	0.631103515625	-0.373046875	0.293701171875	0	0	0	0.0836051116360229	-0.285648655032295	0.348617523557868	0.888752414036074	0.593741336293241	0.571905955889357	0.566034277402879	-0.667432706659976	0.742952015153415	-0.0505557638654476	-0.449449449501561	-0.347772743034531	0.822830062373139	-3.51590845146458	-34.4741442422344	43.9268376077272
6269	1655810495147	5.53413812989965	-0.578067157518522	8.11216953810741	0.0263101803001053	-0.0863527585151866	0.0239783215743579	0.0199123416843663	5.94214753407829E-05	-0.00511600836007801	0.63525390625	-0.3720703125	0.287841796875	0	0	0	0.0836981322922387	-0.285614075361816	0.348625487886176	0.888751647988419	0.593769738302681	0.571872224450894	0.566038564744093	-0.667493683107529	0.742909783693833	-0.050370986723785	-0.449321355921919	-0.347918398756905	0.822838445212011	-3.5030545557939	-34.4744422194867	43.9237796790389
6270	1655810495148	5.56038545355475	-0.598199761193629	8.11737412860769	0.0527639310485207	-0.0867284138635659	0.0441471230011654	0.0152639934129348	0.00162065956930504	-0.00367406841581956	0.639892578125	-0.368896484375	0.282958984375	0	0	0	0.0836282591369376	-0.285598067835904	0.348677609528486	0.888742922636025	0.593715336523797	0.572001377048199	0.565965125985159	-0.667537653952158	0.742860477774451	-0.0505152562773056	-0.449327920045575	-0.347811350038605	0.822880115844246	-3.51288524645295	-34.4693382521603	43.9328673430324
6271	1655810495149	5.53396829456239	-0.574868944787632	8.11251265803199	0.0247995003167089	-0.0837555899159519	0.024004702959731	0.0183698918918299	0.00193221089696854	-0.00225045236396733	0.641357421875	-0.364501953125	0.282470703125	0	0	0	0.0837065114417635	-0.285558736073576	0.348697698948803	0.888740312432221	0.593732245999743	0.571997152599435	0.56595165648511	-0.667609655033189	0.74280626938012	-0.0503606461044411	-0.449198584778011	-0.347934050629898	0.822898856388623	-3.50208073090456	-34.468402160627	43.9318405774548
6272	1655810495150	5.534867173632	-0.603274907773257	8.09571268856836	0.0511856925770273	-0.0987491329478633	0.0121224373079425	0.0151443700998058	0.00271756411630014	-0.00690366836179884	0.640869140625	-0.368896484375	0.28564453125	0	0	0	0.0837089450747105	-0.285592090552937	0.348706396766519	0.888725952801083	0.593682013335428	0.57199562418458	0.566005894806481	-0.66762207467205	0.74279332273718	-0.0503869537444729	-0.449246516349966	-0.347964201622455	0.822859940656165	-3.504070906509	-34.4721716320306	43.9341862551083
6273	1655810495150	5.53569471741344	-0.595125662059047	8.1193858431282	0.0366999145977339	-0.101481845328777	0.031644579589889	0.016865374893851	0.000161728855648145	-0.00351417589210909	0.63916015625	-0.36669921875	0.287841796875	0	0	0	0.0837854434073311	-0.28556360224324	0.348717560895412	0.888723517900847	0.593698983594039	0.571974848875658	0.566009089267191	-0.667679141015436	0.742752124392383	-0.0502378976818493	-0.44913926741301	-0.348086273737232	0.822866857093803	-3.49370148889023	-34.4723936469445	43.9323281309737
6274	1655810495151	5.55806144068401	-0.568596790917142	8.11158225793576	0.0350695248929517	-0.0658717114839584	0.0365535697154637	0.0122213345719722	-0.000202822980792468	-0.00489340135784696	0.6376953125	-0.37060546875	0.279541015625	0	0	0	0.0837540864415121	-0.28559110255772	0.34874442114028	0.888707096780342	0.593630101726793	0.572024440278747	0.566031220029093	-0.667702127840931	0.742725163455757	-0.0503309054787609	-0.44919613845238	-0.348062309498465	0.822845950288427	-3.50024218903825	-34.4739317503874	43.9381318086149
6275	1655810495152	5.53303571655741	-0.575299062058599	8.08946413279215	0.0354132249419988	-0.078685718331905	0.00451373557459611	0.0201299939771403	-0.00426705990956518	-0.0029893374400618	0.63330078125	-0.3642578125	0.28515625	0	0	0	0.0838520499913755	-0.285577185627742	0.348760582702787	0.888695988915216	0.593623454003501	0.571991796988093	0.566071178417772	-0.667776726770708	0.742669779330113	-0.0501581703529992	-0.449094019154511	-0.348234092311614	0.822829009522364	-3.48833074905252	-34.476708958179	43.936818651085
6276	1655810495154	5.55841202381637	-0.565658548210536	8.11154745721461	0.0332280161426014	-0.0646332457303846	0.0365681594807441	0.0090820622505496	0.00120316636953145	-0.00500947918412848	0.635009765625	-0.3740234375	0.286376953125	0	0	0	0.0838067230646455	-0.285613735488269	0.348759009075967	0.888689136232661	0.593583895377573	0.572003982591111	0.566100347154366	-0.667749387525208	0.742687173515031	-0.0502644780731289	-0.449186948394648	-0.348176975396367	0.822802454539205	-3.49581831629104	-34.4787363165769	43.9393363606956
6277	1655810495155	5.53420632100455	-0.602682653815234	8.07257873183849	0.0618848115723462	-0.0932238858893796	-0.00734836922968718	0.0168948232856028	0.000369610500395929	-0.00200215710541122	0.63818359375	-0.366943359375	0.28369140625	0	0	0	0.0838805501679707	-0.285586034661374	0.348776890950804	0.888684055471123	0.593590594290167	0.57199469639417	0.566102705935228	-0.667815151224911	0.742637467284418	-0.0501250035394827	-0.449080315939917	-0.348298233533167	0.822809340219822	-3.48611292799609	-34.4789002646098	43.938548508564
6278	1655810495156	5.53516923704287	-0.594882132184875	8.09612721007318	0.0455082773673319	-0.0941673599699461	0.0121953581126064	0.0108033888622322	-0.00135157580345875	-0.00161914644309925	0.628662109375	-0.380126953125	0.2939453125	0	0	0	0.0838161997268848	-0.285629509778676	0.348823638396191	0.8886578065279	0.593475704879273	0.572088938645477	0.566127930769664	-0.667850458803484	0.742593827918773	-0.0503008092670409	-0.449179643788569	-0.348236490070232	0.822781255613872	-3.49842873350856	-34.4806535472362	43.9488065224054
6279	1655810495157	5.53642578043506	-0.623788799461695	8.07908649310921	0.0737077166030158	-0.109893257307017	0.000327055258468434	0.0139142776124028	-0.00296566005466318	-0.00301567375592663	0.640869140625	-0.3720703125	0.285888671875	0	0	0	0.0838836004976069	-0.285621935537479	0.348831691699988	0.888650720121864	0.593473121611098	0.572061075393086	0.566158793930894	-0.667897060729003	0.742559984866565	-0.0501815219431009	-0.449113760861029	-0.348354409897553	0.822767303014765	-3.490211854876	-34.482798778709	43.9475367644608
6280	1655810495158	5.51217365078605	-0.587323270141546	8.12094373177566	0.014958127890259	-0.10929931134982	0.0192282063256499	0.0168713488315947	-0.00176541290898693	-0.00633498659211382	0.638916015625	-0.369140625	0.2890625	0	0	0	0.0837975386729793	-0.285630871344903	0.348915781973854	0.888622954315652	0.593345564848652	0.572238817994481	0.566112864943656	-0.667979473945366	0.74247149920385	-0.0503934049024343	-0.449159730009389	-0.348251070422286	0.822785955694205	-3.50483276376477	-34.4796063743463	43.9625844562494
6281	1655810495159	5.558187474226	-0.602049110219931	8.04769431020114	0.0859571520704627	-0.0696509227402677	-0.0142663303834425	0.0168089697906065	-0.000254288740113187	-0.00654034485674726	0.64501953125	-0.367919921875	0.28125	0	0	0	0.0838771660829498	-0.285604648729296	0.348914635759789	0.888624320276416	0.593377123153658	0.572196644962013	0.566122415394502	-0.668019479184132	0.742446395925013	-0.0502327045710231	-0.449058531984919	-0.348373863359716	0.822789211268217	-3.4936700847642	-34.4802701912674	43.9589518124997
6282	1655810495160	5.56025378127056	-0.587148487174942	8.09463210086208	0.0550474496795362	-0.0739546547132156	0.0247784974741467	0.0169971568675822	-0.00478776328786806	-0.00592414026811756	0.6298828125	-0.37353515625	0.289306640625	0	0	0	0.083881869871108	-0.285665815114397	0.34895150059278	0.888589738977444	0.593255784618149	0.572225080194951	0.566220832902664	-0.668073811115151	0.742393364281948	-0.0502938919970413	-0.449138015446458	-0.348440167411872	0.822717747963908	-3.49821817592233	-34.487111140144	43.9662294060924
6283	1655810495161	5.54025807722435	-0.633975924296125	8.10895816519544	0.0687864620382046	-0.126611512261131	0.027578144844286	0.0185021258709133	-0.00301568895068352	-0.00466196650397031	0.632568359375	-0.36865234375	0.290283203125	0	0	0	0.0839711368913446	-0.285650439375109	0.348959669577725	0.88858304263709	0.593261950986025	0.572186505606336	0.566253353468452	-0.668132074197696	0.742351994354761	-0.0501303092529269	-0.449043192733774	-0.348591622503353	0.822705349307965	-3.4869206295936	-34.489371750784	43.9640018282722
6284	1655810495162	5.51217578330396	-0.586867199376618	8.09734409077789	0.0259043526540895	-0.102294960703079	-0.000228920439381497	0.0215168913980259	-0.00139930378566737	-0.00495708968447559	0.6337890625	-0.36767578125	0.288818359375	0	0	0	0.083923726637885	-0.285615540605437	0.349010137403949	0.888578918870547	0.593231373907882	0.572306260031919	0.566164359298291	-0.668185942245129	0.742297464192972	-0.0502197295758549	-0.449003433836932	-0.348511146709772	0.822761142143748	-3.49288877539574	-34.4831856212104	43.971468710985
6285	1655810495162	5.58547462988232	-0.579834583936976	8.09300108863447	0.0675907603587768	-0.0552669082852919	0.0373267643795714	0.0201092647326941	-0.00640262802260043	-0.0073197300070263	0.63037109375	-0.3720703125	0.289306640625	0	0	0	0.0840291759894379	-0.285610887680929	0.349008348479532	0.888571151406705	0.593239187059402	0.572238205027141	0.566224958514208	-0.668236795208902	0.742264540548251	-0.0500293651132056	-0.448917422769529	-0.348692971755971	0.822731036841296	-3.47980813252551	-34.4873979214704	43.9676870274954
6286	1655810495163	5.51387171164128	-0.576294039974309	8.12058113947947	0.0102124049904409	-0.102409235130184	0.0193084619962711	0.0184740909032612	-0.00322448847518335	-0.00617467163623005	0.63525390625	-0.3662109375	0.283447265625	0	0	0	0.0839873668059134	-0.285596068792453	0.349041663748828	0.888566781212732	0.593209604915493	0.572320731756868	0.566172539635479	-0.668266578908863	0.742232078368919	-0.0501130856523581	-0.448912178660202	-0.348626622393412	0.822762015414611	-3.4854860791125	-34.4837542306115	43.9732432408471
6287	1655810495164	5.56089996449781	-0.584512907902657	8.07074375198861	0.0667908816000616	-0.0655059269873595	0.00532752022744987	0.0153629685600005	-0.00161009691243468	-0.00477891926539043	0.63623046875	-0.363037109375	0.2861328125	0	0	0	0.0840592073569889	-0.285579210374956	0.349047152985239	0.888563250001389	0.593221199189032	0.572289821197084	0.566191636627507	-0.668312069444098	0.742200269302828	-0.049977375702968	-0.448829128586896	-0.348745065629635	0.822757128520263	-3.47609089620517	-34.4850816639877	43.971137389608
6288	1655810495165	5.58725212054786	-0.56770897550915	8.11627869111697	0.0506561342955474	-0.0543415848320805	0.0568688613587991	0.0246583090410213	-0.0028042951716031	-0.00484165609297675	0.636474609375	-0.369140625	0.2958984375	0	0	0	0.0841023630699566	-0.285587644659704	0.349046351496674	0.888556770415167	0.593212683449167	0.572257806063235	0.566232916382235	-0.668332189181092	0.74218687406582	-0.0499072025745472	-0.448810424454967	-0.348826099029445	0.822732979487544	-3.47132370585344	-34.4879510950827	43.9699467346621
6289	1655810495165	5.53998385004268	-0.599255987315371	8.1021169127987	0.0509477932017456	-0.101338618275611	0.020011244620628	0.0138587722426228	-0.00338349439803075	-0.00604009443210995	0.63427734375	-0.37109375	0.28564453125	0	0	0	0.0841724777075997	-0.28558119849314	0.34904307529847	0.888553490033083	0.593224621306817	0.572210731328925	0.566267982166925	-0.668363039584419	0.7421678511655	-0.0497767818752974	-0.448748700268715	-0.348943777202576	0.822716746127571	-3.46234246572016	-34.4903886593286	43.9670154166128
6290	1655810495166	5.5432563414526	-0.614222898194367	8.13202834180349	0.0492576162139961	-0.120012693847769	0.0472323031928283	0.0231544051913622	-0.00457723970190229	-0.00610295285023723	0.6318359375	-0.375732421875	0.286865234375	0	0	0	0.0841583479901269	-0.285563941189304	0.349106325211998	0.88853552638765	0.593156018378813	0.572321565802919	0.566227836809432	-0.668451923947085	0.742084292321094	-0.0498289921806611	-0.448706990398449	-0.348939720305951	0.822741215912009	-3.46586239658469	-34.4875979993795	43.9758712781995
6291	1655810495167	5.54080756693857	-0.595567878049046	8.10182557832334	0.0496137247970058	-0.0986324482470679	0.0200455846578027	0.0155530630457895	-0.00614329733995822	-0.00415937902461	0.628662109375	-0.370361328125	0.29150390625	0	0	0	0.08423772081782	-0.285567246795636	0.34911328927595	0.888524206310613	0.593142517616973	0.572280148512234	0.566283838206436	-0.668502284553371	0.742047835284691	-0.0496961336144663	-0.448649807023163	-0.349085149738741	0.822710707897958	-3.45677170669079	-34.4914909000342	43.9744510048561
6292	1655810495168	5.54040368110134	-0.600465204654787	8.07812665480678	0.0624735104762911	-0.0925668675449826	0.000583741171087837	0.0217083569050916	-0.00593157095858034	-0.00433941761264562	0.635986328125	-0.37744140625	0.291748046875	0	0	0	0.0841779745591124	-0.285563797741561	0.349199111716947	0.888497251765383	0.593026595591024	0.572448537956255	0.566235046878473	-0.668601266361425	0.741948097950442	-0.0498534509098466	-0.448655551109778	-0.349021047129637	0.822734772037085	-3.46758656940195	-34.4880991924437	43.9884697479996
6293	1655810495169	5.54188593846791	-0.628566337564489	8.06108260556083	0.0906525163525769	-0.108226111059292	-0.0112223146401362	0.020014523151082	-0.00317259516026565	-0.00622067172022561	0.63916015625	-0.376708984375	0.283203125	0	0	0	0.0842739160842862	-0.285545018590382	0.349205877012698	0.888491533378811	0.593038595636022	0.572404936393864	0.566266556383115	-0.668660924133752	0.741906325055223	-0.0496746754357938	-0.448550769281084	-0.349181319138052	0.822723898852074	-3.45522746696835	-34.4902895459509	43.9857096819611
6294	1655810495170	5.54212896902957	-0.589626126105031	8.10135637607375	0.044826992683142	-0.0920727095721839	0.0201321847375642	0.0262965983877377	-0.0059824279098096	-0.00598685848525106	0.64208984375	-0.373779296875	0.289306640625	0	0	0	0.0842389061324374	-0.285600316731087	0.349349610036755	0.888420573683366	0.59277461810054	0.57262144538482	0.566324052483346	-0.668856078474837	0.741717313321555	-0.0498695639274793	-0.448608736454186	-0.349227873178036	0.822672531553427	-3.4689663730026	-34.4942864814193	44.0092838865827
6295	1655810495171	5.56704659172134	-0.585763899759401	8.09967131552485	0.0585701663004206	-0.076252705305074	0.0326443862148871	0.018637179339286	-0.0079687726150444	-0.00706612625073283	0.64453125	-0.37158203125	0.28173828125	0	0	0	0.0843372004115949	-0.285605513344596	0.349349753282076	0.888409521141943	0.592768481257845	0.572556955213572	0.566395675004525	-0.66890563288397	0.741683973016974	-0.0497004875816361	-0.448542954379359	-0.349404374910105	0.822633454747809	-3.45739769097798	-34.4992657061498	44.0063556451145
6296	1655810495172	5.54139284210938	-0.561965811390442	8.09422134601954	0.0276928964960883	-0.0717838286172972	0.0124507614256775	0.023283160408677	-0.0075992412057633	-0.00568970069794891	0.647216796875	-0.378662109375	0.287841796875	0	0	0	0.0843556059650187	-0.285700121843602	0.349455911613033	0.888335599849252	0.59251201243451	0.572667439922468	0.566552308594231	-0.669069067532055	0.741529395161957	-0.049807017402457	-0.44863804786553	-0.349551368704785	0.822519144241652	-3.46527071768551	-34.5101559690055	44.0242701828085
6297	1655810495173	5.5430513475331	-0.590318419889714	8.07705809008808	0.0558368641513179	-0.0874205595724884	0.000670941821223181	0.014045200911249	-0.00598620305712084	-0.00260138445008006	0.634033203125	-0.379150390625	0.2919921875	0	0	0	0.0844232700535427	-0.285707526514472	0.349470191804406	0.888321172665968	0.592483588666349	0.572642813856459	0.566606922742391	-0.669124268525503	0.741486593027317	-0.0497025716734321	-0.448593257228924	-0.349682484690467	0.822487841532898	-3.45815295619793	-34.5139534612423	44.0244124651532
6298	1655810495175	5.52234526911808	-0.60723155407603	8.10819198127384	0.0383720428783188	-0.120884415939975	0.0154212477356754	0.0203913257831163	-0.0103061231460371	-0.00215961532429455	0.63916015625	-0.366455078125	0.28369140625	0	0	0	0.0843598098943255	-0.285782762632749	0.349661762234963	0.888227609955538	0.592129729225468	0.572941303672058	0.566675080018468	-0.669375621779153	0.741240149010667	-0.049993184159606	-0.448685480860643	-0.349716033434567	0.822423270113174	-3.47859580966822	-34.5186928922366	44.0564382957009
6299	1655810495175	5.5666249895652	-0.561783446750298	8.06841088554887	0.052586764541822	-0.0495961935940916	0.00550713219042365	0.0232154693952005	-0.00415674260004079	-0.00308211994400368	0.63232421875	-0.37158203125	0.291259765625	0	0	0	0.0844645758396895	-0.285766224327077	0.349688989996411	0.888212255453255	0.592110550618274	0.572921847169574	0.56671478971554	-0.669470338877958	0.741166691407023	-0.0498136618951004	-0.448569460852115	-0.349903547544993	0.822406800924136	-3.46620415005425	-34.5214542972182	44.0563933476564
6300	1655810495177	5.57310010070461	-0.63034628934826	8.08799529721004	0.0929214416856614	-0.103243413027141	0.0287127074311417	0.014016549312296	-0.00619746624029327	-0.00411337392657811	0.63916015625	-0.368896484375	0.291259765625	0	0	0	0.0844327898198658	-0.285797935169216	0.349722038367429	0.88819206263982	0.592028072266287	0.57297924323415	0.566742929793998	-0.669502111198526	0.74113119976673	-0.0499146054080788	-0.44863090035059	-0.349884740386243	0.822381288512494	-3.47331845033378	-34.5234112084851	44.0632502937933
6301	1655810495177	5.5460217116446	-0.576751026157175	8.09961905851688	0.0364877234891859	-0.0844503654697833	0.0202350857584417	0.0230596230329381	-0.00134614924280139	-0.00501112364389351	0.642578125	-0.36572265625	0.287109375	0	0	0	0.0845343849256205	-0.285768552110623	0.349741973855819	0.888184003522513	0.592033772696067	0.572955915510742	0.566760558674039	-0.669584990645769	0.741068978977364	-0.049726338085076	-0.448499668103742	-0.350054691839279	0.82238054477969	-3.46025284154083	-34.5246371756823	44.0618088605548
6302	1655810495179	5.546081302245	-0.574937977871506	8.09970714125462	0.0352877676698487	-0.0831128208177157	0.0202508618623831	0.0168991658508624	0.000374119995315269	-0.00201320062033012	0.63427734375	-0.371337890625	0.2919921875	0	0	0	0.0845351975900197	-0.285765657688055	0.349797520890476	0.888162982584507	0.59195936652998	0.5730399062353	0.566753362794843	-0.669668931583706	0.740990989494586	-0.0497581707799913	-0.448472552614941	-0.350082303679681	0.822383578509059	-3.46244981972485	-34.5241367496625	44.0696046172651
6303	1655810495179	5.54623253619053	-0.610159463126596	8.05950731517992	0.0778710058721911	-0.0960035341845478	-0.0109850979888311	0.0184090351891796	0.000215946436436827	-0.00357086446740669	0.636474609375	-0.37890625	0.28564453125	0	0	0	0.0846115272722101	-0.285738189389604	0.349817583536092	0.888156649936251	0.59196269074664	0.57303213695592	0.566757746113566	-0.669739115372921	0.740937095403266	-0.0496159046563474	-0.448363346074916	-0.350209067088651	0.82238915315403	-3.45255078726575	-34.5244415802616	44.069055621047
6304	1655810495181	5.52373191007468	-0.596722854751022	8.10802763843938	0.032806270721226	-0.11392149005887	0.0155245782847899	0.0183163169122417	0.00151509026157364	-0.00529155317374926	0.64599609375	-0.378662109375	0.29052734375	0	0	0	0.0845307685442473	-0.285736802137267	0.349938363073691	0.888117205735253	0.591795243907348	0.573265459413072	0.566696658127223	-0.669879665357227	0.740795382437249	-0.0498340777033122	-0.448374423032283	-0.350126997535993	0.822418058147375	-3.46757393693485	-34.5201934185679	44.0888123354121
6305	1655810495181	5.50355584516785	-0.643368391289269	8.12276188294681	0.0464797621600547	-0.166426643313432	0.0185105258734417	0.020017408853811	-0.00317531643973785	-0.00622299137170782	0.64306640625	-0.373046875	0.289306640625	0	0	0	0.0846229278679153	-0.285720649058823	0.349948704222274	0.888109551346915	0.591799230229112	0.573228537651199	0.566729842802105	-0.669942609153914	0.740749728984426	-0.0496662808104915	-0.448275106982618	-0.350284002820238	0.822405341560933	-3.45597988330861	-34.5225011099987	44.0867752408226
6306	1655810495183	5.56976370227406	-0.572462197587772	8.07513196887276	0.0581182976347717	-0.0585324517113105	0.0133460500344391	0.026051568135635	-0.00187506889574387	-0.00963838706920382	0.644287109375	-0.365478515625	0.29345703125	0	0	0	0.0846293016214149	-0.28574891904414	0.350117442506188	0.88803334004141	0.591530663436063	0.573466460835494	0.56676952327353	-0.670197386666613	0.740511315519995	-0.0497840787008104	-0.448248744694431	-0.350398644237758	0.822370873144354	-3.46430163850895	-34.5252606087594	44.1116547746979
6307	1655810495183	5.52525348181051	-0.583629544442118	8.13154431497068	0.015046296820207	-0.113659919638155	0.0350492915657288	0.018508445388681	-0.00301667394780844	-0.00466536613256369	0.638671875	-0.3662109375	0.289306640625	0	0	0	0.0847116716272538	-0.28573593694952	0.350133089928034	0.888023494263042	0.591523587346054	0.573442482224071	0.566801169012513	-0.670263157675964	0.740461504055127	-0.04963930372864	-0.448159731653235	-0.350543122301829	0.822357814051392	-3.45430639939964	-34.5274614137101	44.1107999918642
6308	1655810495184	5.55012622826931	-0.617028951409742	8.08967540967845	0.0713034283133842	-0.109788720769549	0.0163683449909247	0.0186364550962422	-0.00603790681447684	-0.00424699984418404	0.64306640625	-0.372802734375	0.290283203125	0	0	0	0.0847492226794511	-0.285727428132599	0.350164597151182	0.888010225712469	0.591489183429362	0.5734691310406	0.566810110733397	-0.670329840770346	0.740404648314359	-0.0495869068131185	-0.448105401059694	-0.350619612255261	0.822354812135918	-3.45068157684042	-34.5280832768018	44.1137960901323
6309	1655810495185	5.5749190931033	-0.613508429862422	8.08803645870103	0.0849377720996825	-0.0938899031172536	0.0288785288641744	0.0185141510458996	-0.00495193587084393	-0.00748027769260873	0.638427734375	-0.36181640625	0.29443359375	0	0	0	0.0848394646105934	-0.285721565229279	0.35016648212427	0.888002751799921	0.591493243919288	0.573416670185394	0.566858946080356	-0.670378528672405	0.740371400082602	-0.0494248746558755	-0.448027198608364	-0.350775586797631	0.822330904815037	-3.43953285784364	-34.5314796736399	44.1109799555419
6310	1655810495186	5.5499395246616	-0.583066497256823	8.10615768456802	0.0421241699305026	-0.0920775737545546	0.0281121264717257	0.0216220350899232	-0.00463261349908706	-0.0060600170482842	0.640625	-0.365966796875	0.2822265625	0	0	0	0.0848705073153431	-0.285693080350659	0.350213650418891	0.887990348983627	0.591459725800053	0.573478849976915	0.566831016605197	-0.670466516640289	0.740294792096622	-0.0493788503193058	-0.447939775885959	-0.350835615956782	0.822352921655577	-3.43624587038246	-34.5295372197585	44.1157074581564
6311	1655810495188	5.52701003000298	-0.613099379150222	8.09073298936189	0.0563646366949923	-0.123371237706937	0.00389521043992502	0.0153671511615156	-0.00161310055455134	-0.00478423430703874	0.63134765625	-0.367919921875	0.288330078125	0	0	0	0.084937298643031	-0.285678632469146	0.350224302800647	0.887984409760432	0.591461313356718	0.573457898968453	0.566850556066617	-0.670516984256311	0.740257186054051	-0.0492572057587432	-0.447862131270513	-0.350949193767453	0.822346748499565	-3.42782657490314	-34.5308961557742	44.1145844816417
6312	1655810495190	5.55247760105267	-0.602867970531559	8.1127111792429	0.0540611257153134	-0.109142632298549	0.0359016174804694	0.0215586421564651	-0.00312216183576985	-0.00626977868651511	0.63232421875	-0.367919921875	0.287353515625	0	0	0	0.0849540478903913	-0.285710515193593	0.350230373876449	0.887970155168073	0.591416373444349	0.573443709290196	0.566911796929149	-0.670532768452376	0.7402429899228	-0.0492556829385969	-0.447897845109271	-0.351002319288144	0.822304622509698	-3.42789603458817	-34.5351554963785	44.1160516901932
6313	1655810495191	5.55272524245489	-0.60085423756642	8.11269107541918	0.0537957619370088	-0.10894859688202	0.0359052189466702	0.0183871333952139	-0.00193177618176069	-0.00789988290821288	0.63916015625	-0.370849609375	0.29443359375	0	0	0	0.0850390401718684	-0.285691500784957	0.350231368616599	0.887967745170302	0.591436709632366	0.573398455332754	0.566936354383146	-0.670578179380808	0.740212700167183	-0.0490924011383697	-0.447802996682204	-0.351140100149813	0.822297456051773	-3.4165892819953	-34.5368635439977	44.1128073141316
6314	1655810495192	5.55004406740885	-0.58193492161373	8.08256671416729	0.0534400149025421	-0.0852140967026742	0.00868750341992808	0.024549622538238	-0.00365376035365032	-0.0108971975536768	0.63134765625	-0.369873046875	0.290771484375	0	0	0	0.0850420705770535	-0.285654847348804	0.350267653283217	0.887964934826577	0.591427758499199	0.57346542846115	0.566877948800694	-0.670636147216808	0.740160834590871	-0.0490825527447413	-0.447728002835213	-0.351140059374623	0.822338308836198	-3.41573620914307	-34.5328013107684	44.1165849735844
6315	1655810495192	5.50289023986001	-0.613423080551515	8.06858956643965	0.053787634111193	-0.132217975190541	-0.0280130419630566	0.0170652926922655	-0.0043668544092003	-0.00289830012497775	0.63916015625	-0.369384765625	0.287109375	0	0	0	0.085117929779605	-0.285650752754996	0.350288524618619	0.887950750324054	0.591403193942031	0.573449915101034	0.566919268561037	-0.670705917958998	0.740105775101092	-0.04895930224983	-0.447655932396681	-0.351281420705152	0.822317170961077	-3.40726661086053	-34.5356751680015	44.1169996802469
6316	1655810495193	5.57289561397444	-0.552653280430121	8.07435110893612	0.0517233340916197	-0.0484226728559708	0.0134368149226844	0.0275589501377236	-9.95384745142195E-05	-0.00838683478996962	0.638671875	-0.37255859375	0.28857421875	0	0	0	0.0851225021505165	-0.285620303896933	0.350343411383828	0.887938452669666	0.591361072203531	0.573541343348942	0.566870716964443	-0.670792203079733	0.740027307455154	-0.0489632975616743	-0.447582285808686	-0.351297468949274	0.822350403258918	-3.407406625834	-34.5322983348727	44.123604162865
6317	1655810495194	5.55584867515083	-0.615861154671962	8.11923300999061	0.0648401729537437	-0.122082894477494	0.0437610615774222	0.0124482855862508	-0.00452798125432561	-0.00275983123318309	0.638427734375	-0.371826171875	0.283935546875	0	0	0	0.0851774404501563	-0.285625116566123	0.350358829232083	0.887925552737431	0.591333967131426	0.573527481489914	0.56691301563154	-0.670842746919433	0.739986988834968	-0.0488801110938387	-0.447542342379131	-0.351405014663697	0.822326192849898	-3.40173111204606	-34.5352402601094	44.124224584438
6318	1655810495194	5.55233970641337	-0.604240361899088	8.06554511418955	0.0770725251332078	-0.0960688614542804	-0.00292534894188634	0.0247037084220938	-0.00452490618925538	-0.00615179609918527	0.62939453125	-0.37158203125	0.290283203125	0	0	0	0.0851777199988838	-0.285683663259339	0.350472868920052	0.887861683323177	0.591107225395346	0.573675096562202	0.567000116110892	-0.671010628871639	0.73982704833348	-0.0489966784125029	-0.447590196526581	-0.351500813851859	0.822259201125033	-3.41010145719841	-34.5412985349219	44.1425755427118
6319	1655810495195	5.55361107809185	-0.595490165562762	8.08889791722011	0.0622981170499052	-0.0985396526975268	0.0165487586091064	0.016972680373778	-0.00306998053889646	-0.00462054467541448	0.638916015625	-0.3720703125	0.28369140625	0	0	0	0.0852521407672758	-0.285674167643304	0.350487615067569	0.887851774858929	0.591097403251106	0.573653433500626	0.567032272540763	-0.671070770914631	0.739781008357688	-0.0488679864259309	-0.447512994553055	-0.351633044388927	0.822244684871804	-3.40122563049691	-34.5435352872044	44.1419700271905
6320	1655810495196	5.52945832737665	-0.595201343219476	8.09039660747379	0.0461555398904851	-0.111573549256072	0.00408969797942049	0.024510986552069	5.98562314938521E-06	-0.00678497287615264	0.6376953125	-0.371826171875	0.281005859375	0	0	0	0.0852181712005491	-0.285680466117795	0.35057428188874	0.887818792014535	0.590968688313829	0.57380253717509	0.567015571006708	-0.671183204656206	0.739671072350857	-0.0489878608918538	-0.447514374316691	-0.351621036143691	0.822249069151907	-3.40953113125131	-34.5423735464323	44.1556480887994
6321	1655810495196	5.55193678709268	-0.567922425928348	8.08226353817425	0.0458032909554394	-0.0771263103523857	0.00879292945103493	0.0216558928135697	-0.00441865939999289	-0.0045476005832743	0.637939453125	-0.36474609375	0.290771484375	0	0	0	0.0853147542722027	-0.285669224514823	0.350596370017807	0.887804411004423	0.590950558990873	0.57377840818267	0.567058881538536	-0.671265606953121	0.739607156067621	-0.0488235559481577	-0.447414708911354	-0.351794816614638	0.822228973737147	-3.39820528601332	-34.5453862140112	44.1553223848863
6322	1655810495197	5.55544773505806	-0.619527105198248	8.07210824364365	0.085974860012296	-0.110048503371113	0.00496216347264067	0.0184539875285364	-0.00344491431915088	-0.00768995076477492	0.63916015625	-0.3671875	0.284423828125	0	0	0	0.0853184491732154	-0.285721649697648	0.35062912052355	0.887774251127849	0.590844717469873	0.57380435369799	0.567142912778762	-0.671313665887654	0.739559964143119	-0.0488776168517668	-0.447482381586611	-0.35185170614033	0.822167802249464	-3.40221170782082	-34.5512317129196	44.1617464107476
6323	1655810495198	5.554771724362	-0.58718417026393	8.08870819020104	0.0572411516425369	-0.094017650207922	0.0166238023307166	0.0247411282433782	-0.0062495599540712	-0.00745203522809628	0.634033203125	-0.368896484375	0.28759765625	0	0	0	0.0854358102662615	-0.285712625036474	0.350641967375508	0.887760794884494	0.590837013219601	0.573752204107704	0.567203695413996	-0.671392562600871	0.739501866078362	-0.0486725482264659	-0.447374173029665	-0.352058799560774	0.82213803643783	-3.38809324537459	-34.5554602157481	44.1595171702672
6324	1655810495199	5.5552081825428	-0.585016623079461	8.08856549376904	0.0552149952607177	-0.0925127761534762	0.016649671786924	0.0184545439761497	-0.00344529686233796	-0.00769028744632155	0.64111328125	-0.369140625	0.2939453125	0	0	0	0.0854310636177602	-0.285757370087596	0.350665795377745	0.887737437963418	0.590752450785429	0.573773197413692	0.56727053494843	-0.671423421666481	0.739470066642464	-0.0487299638565982	-0.447439527454476	-0.352091378010679	0.822088517619519	-3.39228446327062	-34.5601103307258	44.1646636295863
6325	1655810495199	5.52921340048795	-0.561340812186251	8.08321931948659	0.0270905110076672	-0.0895232634028749	-0.00366140541485471	0.0216279923869371	-0.00463262002647407	-0.00605965161476052	0.63525390625	-0.37158203125	0.28564453125	0	0	0	0.0855294563342209	-0.285747840561419	0.350681200218973	0.887724945873799	0.590741734854932	0.573737184062902	0.567318117394603	-0.671496613870485	0.739414815824306	-0.0485595273862931	-0.44734382778916	-0.35226605536594	0.822065767427317	-3.38054060813454	-34.5634208629676	44.1633856708558
6326	1655810495200	5.50953753043424	-0.608103116778458	8.09786708517321	0.0394592790938501	-0.139874554824618	-0.000494823753820483	0.0140904658247207	-0.00770868644109516	-0.00389237434978118	0.64306640625	-0.372314453125	0.291015625	0	0	0	0.0854919127014599	-0.285782284929511	0.350769608720294	0.887682544652832	0.590578334437361	0.573879969401782	0.567343821339939	-0.671608266021052	0.739303628921717	-0.0487081232996927	-0.447391962271776	-0.352266837755971	0.822039236966229	-3.39097040415022	-34.5652092608978	44.1784332116919
6327	1655810495201	5.57787506546488	-0.561321579369614	8.05641676627478	0.0673714208008685	-0.0527880686952469	0.0019087807837419	0.0215931639965723	-0.0029075170978567	-0.0047608271365373	0.63720703125	-0.371826171875	0.288330078125	0	0	0	0.085584843841638	-0.285765799846307	0.350791942073211	0.887670071321157	0.590565842029411	0.573860573767774	0.567376443027919	-0.671689459188282	0.739240495762216	-0.0485464709385471	-0.447286548694956	-0.352430888686215	0.822026284285606	-3.3797957246219	-34.5674790285141	44.1780711115868
6328	1655810495203	5.5559624203768	-0.584564910688462	8.06450034768321	0.0653336587709753	-0.0845813364075017	-0.00273437211912508	0.0170104522663346	-0.00479544226658623	-0.00592079584315026	0.627197265625	-0.365966796875	0.28662109375	0	0	0	0.0855577795635985	-0.285799131424547	0.350917784548206	0.887612207735394	0.590351129929507	0.574053140781114	0.567405088935844	-0.671862497124671	0.739073149687851	-0.0486997368358395	-0.447310103114557	-0.352468255265375	0.821997445666243	-3.39055988506573	-34.5694722184681	44.1980920697212
6329	1655810495205	5.5329483140451	-0.577632415229304	8.08928395533471	0.0366133908951995	-0.102742618970932	0.00422632051491867	0.0200246632184843	-0.00317695031326663	-0.00622626436745698	0.638916015625	-0.366943359375	0.2900390625	0	0	0	0.0856457915377749	-0.285786271305324	0.350931766631924	0.887602332519391	0.590346204603993	0.574022926402146	0.567440779883132	-0.671928492068441	0.739023387120929	-0.0485441534578587	-0.447217464167369	-0.352621770815453	0.821982011050535	-3.37981636649803	-34.5719556710019	44.1968237031442
6330	1655810495207	5.55751713708024	-0.574263593094133	8.08774990847229	0.0495954910747111	-0.0850622089485543	0.0167469320528522	0.0154953921006952	-0.00269323715042955	-0.00155215727975913	0.64404296875	-0.366943359375	0.287353515625	0	0	0	0.0856036418482703	-0.285778978163307	0.350933669063878	0.887607994589736	0.590351871114601	0.574055617874702	0.567401811644961	-0.671910503052527	0.739035152839355	-0.0486139769553081	-0.447237011168786	-0.352543884437393	0.822004784284498	-3.3845728800841	-34.5692441812694	44.1981796861081
6331	1655810495207	5.5355846378136	-0.597581994342398	8.09586524940786	0.0492916425260729	-0.119003601678491	0.0120896692822381	0.0231692791972655	-0.00457896289206778	-0.00610703403281955	0.636474609375	-0.37158203125	0.2880859375	0	0	0	0.0857076154830264	-0.285766763334184	0.350952447250384	0.887594468995095	0.590339473484942	0.574022126380118	0.567448591919629	-0.671991677858819	0.73897316883436	-0.0484338789629212	-0.447131402312577	-0.352728300776891	0.821983123243437	-3.37215185019618	-34.5724992591237	44.1971103082979
6332	1655810495208	5.53379299791834	-0.572385210394489	8.0890791337667	0.0332562765787829	-0.0990434984703615	0.0042762847480784	0.0154010758092554	-0.00139875946328212	-0.00327655768803567	0.63916015625	-0.37060546875	0.29931640625	0	0	0	0.0856934252076297	-0.285810103916431	0.351039990613365	0.887547264299559	0.590167018978895	0.574145073130175	0.567503590041429	-0.672113260184365	0.738855123732706	-0.0485476221690764	-0.447176313319375	-0.352775482615039	0.821938442750927	-3.38023606106151	-34.5763263164601	44.2116100609622
6333	1655810495209	5.53725372354116	-0.624340617159703	8.07906667506636	0.0752227470813661	-0.133029269981892	0.000515112402764473	0.0185513235946905	-0.00474209309702173	-0.00596704063751589	0.644775390625	-0.370361328125	0.28271484375	0	0	0	0.0857767587056785	-0.285807362178218	0.35105275441768	0.887535048889021	0.590152230680977	0.574111988825707	0.567552437144673	-0.672174505393177	0.738808622563415	-0.048407163988258	-0.447103767510076	-0.352926682913802	0.821912998781353	-3.37058302626623	-34.5797255014523	44.2106774352378
6334	1655810495210	5.53741251285773	-0.585368594272088	8.11907061336655	0.0307292668238415	-0.117905243773532	0.031603119101824	0.0215952521696813	-0.00290737840187448	-0.00476214823521419	0.63427734375	-0.36767578125	0.288818359375	0	0	0	0.085792464476661	-0.285807940659414	0.351179833226157	0.88748306960206	0.589973091582548	0.574291977555437	0.567556583720069	-0.672372647940119	0.73862475554854	-0.0484612504260226	-0.44704225025217	-0.353018689315914	0.821906948190092	-3.37436514226777	-34.5800140608263	44.2283481202341
6335	1655810495211	5.5357361306477	-0.560114028810119	8.1121917293958	0.0164329816540581	-0.0991738745756944	0.023757682263934	0.0186469247825589	-0.00603618023340692	-0.00424237625359396	0.63671875	-0.369384765625	0.291748046875	0	0	0	0.0858758305022939	-0.285811618584688	0.351200015797133	0.88746583557996	0.589940535172189	0.574267410723866	0.567615279869436	-0.672444651176525	0.738567781279269	-0.0483303585782105	-0.446976907753446	-0.353177821269575	0.821874120835085	-3.36540620244265	-34.5840988218903	44.2287033937288
6336	1655810495212	5.56164505351779	-0.587050188637505	8.09383066192673	0.057777968833219	-0.0968382629235622	0.0246853712012687	0.0171968576846703	-0.00544153794345304	0.000338491141522675	0.6376953125	-0.37451171875	0.279052734375	0	0	0	0.0858390127317607	-0.285804799066865	0.351267891334374	0.887444730245827	0.589852970695703	0.574395274566711	0.567576903614734	-0.672528081710306	0.738485064821478	-0.0484333392063136	-0.446966947628693	-0.353142857199536	0.821894561447172	-3.37247687459404	-34.5814281328204	44.239329999052
6337	1655810495213	5.56228999777461	-0.622670842051104	8.05354646611836	0.10034851428929	-0.109676709357757	-0.00634754242459579	0.0171374975928313	-0.00587456496097106	-0.00268429639211251	0.6376953125	-0.3681640625	0.28955078125	0	0	0	0.0859128092693347	-0.28581085487394	0.351293417573039	0.887425534458826	0.589810180012164	0.574383870759464	0.56763291004433	-0.672603124607025	0.73842384794661	-0.0483245026108793	-0.446910492518229	-0.353289385341674	0.821862288879358	-3.36504770167862	-34.5853257738142	44.2408390257693
6338	1655810495215	5.53831419457384	-0.622645385258474	8.05493670945817	0.0831435598982865	-0.123597841797964	-0.0187899157990241	0.0199613354763622	-0.00166922714523711	-0.00644160343530962	0.63916015625	-0.377685546875	0.28662109375	0	0	0	0.0858898436054849	-0.285895898154124	0.351397496534535	0.88735915480336	0.589566669695816	0.574520463089988	0.567747637137003	-0.672742679009618	0.738285468389373	-0.0484959277057916	-0.447021733054162	-0.353356483817615	0.821772940368144	-3.3773235231893	-34.5933105176196	44.2594745625422
6339	1655810495215	5.54049790231679	-0.606962858544953	8.10170668126913	0.0536898556499106	-0.128640889378846	0.0201016956923272	0.020092446497869	-0.00468912367927444	-0.0060142376268404	0.638916015625	-0.3671875	0.291015625	0	0	0	0.0859787017246861	-0.285891249661782	0.35141339039385	0.887345752944398	0.589549644837448	0.574489242026814	0.567796906532165	-0.672811475948286	0.738232583803274	-0.0483463550170165	-0.446940638233231	-0.35351769829331	0.821747712433124	-3.36703420276975	-34.5967397906327	44.2587452312633
6340	1655810495216	5.53981283469652	-0.611714130189139	8.07827816176645	0.0658642745279467	-0.123425796295789	0.000707872174803725	0.0213764140477254	-0.000538875929028978	-0.00972554920528663	0.641357421875	-0.3720703125	0.2958984375	0	0	0	0.085960138497301	-0.285905411186231	0.351540269966412	0.887292730183167	0.589355068892748	0.574685314330258	0.567800486318527	-0.672991189301043	0.738060586362934	-0.0484709189181448	-0.446926685143762	-0.353558142814918	0.821737900887914	-3.37572950948962	-34.5969889582252	44.2779713298957
6341	1655810495217	5.51552784218624	-0.574051088660499	8.11983549866906	0.0086375864752795	-0.12577476365202	0.019220703444395	0.0230774043201548	-0.00328704965025187	-0.00783330125794167	0.645263671875	-0.37548828125	0.28564453125	0	0	0	0.086061725609312	-0.285888931588586	0.351553580218567	0.887282919037548	0.589355198061289	0.574646784138629	0.567839346996376	-0.673063163279094	0.73800691924131	-0.0482883566575789	-0.446818115965409	-0.353732753121734	0.821721796360569	-3.36311006209195	-34.599693866492	44.2760448819798
6342	1655810495218	5.56565985443641	-0.598490075553982	8.10013550706963	0.0624076252056771	-0.107496257617194	0.032692497210224	0.0231135920926498	-0.00501424520724505	-0.00913047385076557	0.63818359375	-0.36572265625	0.295166015625	0	0	0	0.0860789653954003	-0.285914573466366	0.351741574625442	0.887198474455416	0.589061442719121	0.574906715469573	0.567881048468476	-0.673351638171381	0.737736552792944	-0.0483978309958431	-0.446770845147248	-0.353874338121842	0.821686536792007	-3.37086130319296	-34.6025966070213	44.3032746203945
6343	1655810495219	5.56616981637419	-0.596217471815515	8.09995268193316	0.0619712667802969	-0.107187438522933	0.0326986204967969	0.0216698250297004	-0.00636134749736696	-0.00735789288134008	0.638427734375	-0.367919921875	0.294189453125	0	0	0	0.0861785189430528	-0.285914775328628	0.351754129498691	0.887183767041632	0.589043547258797	0.574861683598683	0.567945194682429	-0.673420531125711	0.737684590506801	-0.0482310396651384	-0.446690595033229	-0.354055771961003	0.821652008243124	-3.35941194518788	-34.6070618708576	44.3019013039606
6344	1655810495220	5.53934934552127	-0.579334217545601	8.07105585671738	0.049284822011714	-0.0996857184551589	-0.00709735826320212	0.0200348192290037	-0.00512394395445797	-0.00903660779238331	0.635009765625	-0.36572265625	0.28662109375	0	0	0	0.0861988881310516	-0.285835126421111	0.351765515677221	0.887202938548525	0.589118604968333	0.574897458205138	0.567831120870843	-0.673452138550331	0.737661547330619	-0.0481420675894026	-0.446543935533953	-0.354045694987341	0.821736064377596	-3.35288675050638	-34.5991212773915	44.3000344424409
6345	1655810495221	5.51760782889827	-0.602329971708583	8.07916517831685	0.0489723624930995	-0.13359105589993	-0.0116944385645326	0.0184654848298377	-0.00539654351469576	-0.0105007026478969	0.640380859375	-0.369140625	0.28857421875	0	0	0	0.0862871466588692	-0.285834376802656	0.351760161213364	0.887196723586408	0.589126996041972	0.574833259450812	0.567887406414087	-0.673488590616081	0.737638634609238	-0.0479829453221099	-0.446477883936627	-0.354197640535584	0.821706474718617	-3.34194979765251	-34.6030391774436	44.296428196963
6346	1655810495223	5.54158871185659	-0.605465548373651	8.05399421802652	0.0756120676761295	-0.113723236837826	-0.018609237675248	0.021862897762893	-0.00894451971437824	-0.0039061287022148	0.643310546875	-0.366943359375	0.28759765625	0	0	0	0.0863120363535219	-0.285885669919891	0.351805554698809	0.887159775800293	0.589004470835037	0.574864725393632	0.567982641314364	-0.673566222733939	0.737566168127144	-0.0480071997327012	-0.446522426008226	-0.35429746701373	0.821639232229927	-3.34390827434873	-34.6096686686997	44.3039528109128
6347	1655810495223	5.56338980604299	-0.547953307064755	8.06195024188526	0.0466208397170816	-0.0634100060520794	-0.00246790362159643	0.023247225591377	-0.00803425815357414	-0.00870202600491398	0.6376953125	-0.363525390625	0.284912109375	0	0	0	0.086423382833452	-0.285889385761469	0.351813928997327	0.887144417427071	0.588988436944788	0.574804470498757	0.568060244903637	-0.673634581833492	0.737515916526173	-0.047819692895031	-0.44644044541613	-0.354499779358469	0.821596516017105	-3.33104986794246	-34.6150712006986	44.3017304248174
6348	1655810495224	5.5682187686182	-0.59267584893909	8.07525580913469	0.0725908199199822	-0.0999274757567585	0.0133406311191528	0.0139425560119809	-0.00685412121664819	-0.00863284105355728	0.639892578125	-0.370361328125	0.292724609375	0	0	0	0.0864597329113168	-0.285970700035436	0.351803838621093	0.887118668745963	0.588909635705413	0.574733605263476	0.568213625280285	-0.67363340664558	0.737517547432735	-0.0478110936904173	-0.446546161582862	-0.354611266332093	0.821490946612293	-3.33087923961793	-34.625750122603	44.3020313201622
6349	1655810495224	5.54547979939482	-0.585705841056724	8.09986262618913	0.04379870989342	-0.118063073449691	0.0202834259050064	0.0217983939897405	-0.00743387197349056	-0.00412166473294405	0.635498046875	-0.367919921875	0.292236328125	0	0	0	0.0865572215441456	-0.285976996584972	0.351830190653098	0.887096681184075	0.588865348738486	0.574708040437578	0.568285376647595	-0.673721537437317	0.737446728687124	-0.0476614345331299	-0.446471601614479	-0.354799930390435	0.821450009645593	-3.32064133237872	-34.6307461960137	44.3029111882881
6350	1655810495224	5.56635653320147	-0.572642112248472	8.0444899878641	0.0721719428752245	-0.075932896592721	-0.0139584457928095	0.0171129578893813	-0.00608926822954441	-0.00419455797191029	0.641357421875	-0.36669921875	0.28466796875	0	0	0	0.0865326374014338	-0.285949061125332	0.351910262182725	0.887076323929558	0.588784603624053	0.574854670617	0.568220730178939	-0.673830376303555	0.737342540069675	-0.047734710371053	-0.446413837717734	-0.354778925915026	0.821490474211786	-3.32557166603457	-34.6262448258218	44.3141446271324
6351	1655810495225	5.54350851145456	-0.565957101895167	8.06914913031975	0.0433863984137158	-0.0940589228691349	-0.00701389726597767	0.015603453339253	-0.00592566787468499	-0.00263595403542335	0.6357421875	-0.37451171875	0.287841796875	0	0	0	0.0865975694535174	-0.285959743623285	0.351935535979182	0.887056517087099	0.588736807083902	0.574846584051094	0.568278432451418	-0.673900259088404	0.737284478959578	-0.0476449145857699	-0.446371384370945	-0.354912667976351	0.821455771983297	-3.31946970446736	-34.6302626559961	44.3160667624715
6352	1655810495225	5.56929876105462	-0.556035380994206	8.09075734007404	0.0397835699698371	-0.0789955893469367	0.0249340577947539	0.0141903683453299	-0.00705279492097634	0.000649408447839824	0.63818359375	-0.368408203125	0.2900390625	0	0	0	0.0865557392077669	-0.2860560054015	0.352065795969608	0.886977869561705	0.588443274164047	0.575029561304641	0.568397322932548	-0.674068717314032	0.737115558636967	-0.0478750201454436	-0.446504062052867	-0.354967120788818	0.821360131567868	-3.33585279326516	-34.6385416569258	44.3394645218532
6353	1655810495226	5.54864170122338	-0.610191667837549	8.08233061577632	0.0679209683572187	-0.128675338400157	0.00885304868217851	0.0139312885596019	-0.00296177933623224	-0.00301998968224583	0.638671875	-0.367431640625	0.28955078125	0	0	0	0.0866080073421719	-0.286057126630423	0.352088635206005	0.886963339900211	0.588409826525438	0.575029748199474	0.568431759082788	-0.674129099093426	0.737065292045982	-0.0477986717038841	-0.446456978670721	-0.355071181521143	0.821340746736329	-3.33062337311668	-34.6409397906385	44.341101816484
6354	1655810495226	5.54692460427744	-0.622755054485246	8.0355123839939	0.0958532493440569	-0.121596624866602	-0.0299637139979634	0.0138651538604907	-0.00145221263891458	-0.00323589222647738	0.6337890625	-0.369384765625	0.281982421875	0	0	0	0.0865819148193726	-0.2860568274799	0.352146745915442	0.886942914070298	0.5883283215866	0.5751334262645	0.568411231426994	-0.674202817745959	0.736992482734753	-0.0478815302165222	-0.446453073191914	-0.355054393559245	0.821350126956692	-3.33634592642786	-34.6395102362158	44.350232696274
6355	1655810495226	5.54904791359705	-0.607493679401602	8.08225497707564	0.066294508107664	-0.126563769923046	0.00889159912716941	0.0154413147772911	-0.00312586219382181	-0.0045787478320338	0.633056640625	-0.374267578125	0.294921875	0	0	0	0.0866432302959081	-0.286055355022566	0.352164940662637	0.88693017711367	0.588304376861991	0.575121906385079	0.568447669500912	-0.674260946395471	0.736945610423944	-0.0477843430714024	-0.446396837277001	-0.355170325439603	0.821330569013608	-3.32966836418102	-34.6420478156763	44.3508247045216
6356	1655810495227	5.54838385508236	-0.612888131218324	8.05878092529232	0.0787713880410644	-0.120647539177192	-0.0104741276426008	0.0154112417494347	-0.00334511937929399	-0.0060897981802161	0.6357421875	-0.365478515625	0.284423828125	0	0	0	0.0865534867044296	-0.286072302694692	0.352257867715522	0.886896570183229	0.58815406452694	0.575311478898327	0.568411381508375	-0.674353699889489	0.73684577714364	-0.0480144577282866	-0.44645479482899	-0.35507041971052	0.821342263140525	-3.34561915573714	-34.6395206878556	44.3675824127304
6357	1655810495227	5.52520402615083	-0.605955357565745	8.08369807748417	0.04995280076924	-0.138748463141175	-0.00353401847687174	0.0199288700350491	5.86509193574683E-05	-0.00515476607090976	0.637451171875	-0.366943359375	0.29052734375	0	0	0	0.0866289991279197	-0.286048685693464	0.352282369886163	0.886887082886275	0.588146562560862	0.575309144074242	0.568421507063557	-0.674429589448168	0.736785096754967	-0.0478795371379943	-0.446350030608958	-0.355200098457667	0.821343131846274	-3.33623571324613	-34.6402258327071	44.3678314973488
6358	1655810495228	5.52325964294231	-0.580622201259935	8.07689224223188	0.03458227240209	-0.119036700678214	-0.0114455285350221	0.0215718150624523	-0.00312477845476749	-0.00628097312011596	0.642333984375	-0.368896484375	0.284912109375	0	0	0	0.0866466717236241	-0.286066426933363	0.352284746634159	0.886878690097865	0.588122913340971	0.575294261701433	0.568461037588975	-0.674441076844013	0.73677562313625	-0.0478635040263432	-0.446363834409575	-0.355243850904693	0.821316707321596	-3.33522811162865	-34.6429788005364	44.3682422577853
6359	1655810495229	5.55002601668916	-0.600381847471198	8.08211480453215	0.0618225298242698	-0.121305470678932	0.00898711829650978	0.0154785702630621	-0.00485512691552596	-0.00587303972686907	0.635009765625	-0.37353515625	0.288330078125	0	0	0	0.0867120233661344	-0.28607239332015	0.352297569503087	0.8868652847564	0.588098016604598	0.57526913648472	0.568512219282808	-0.674492800700651	0.736734895051937	-0.0477614511484195	-0.446318478968472	-0.355368984326061	0.821287221567664	-3.32825207551979	-34.6465433098008	44.3682038446653
6360	1655810495230	5.52409726489856	-0.577028453454582	8.0765769396539	0.0312289132592828	-0.116630681195061	-0.011405344482224	0.0201654781564084	-0.0061989371475463	-0.00580027256524246	0.639892578125	-0.3642578125	0.28662109375	0	0	0	0.0867013871059572	-0.28614887174385	0.352423578221452	0.886791584413843	0.58783288942662	0.575433518433601	0.568620048865214	-0.674671534829587	0.736560981974983	-0.0479190976828585	-0.446397596542635	-0.355463339453137	0.821203385347249	-3.3395529678525	-34.6540535188013	44.3893017816082
6361	1655810495230	5.52578329480912	-0.605501434365146	8.0598164622927	0.0592255816322109	-0.132060144168371	-0.0228657805482229	0.0170856963692268	-0.00630954114924389	-0.00570439017264755	0.636962890625	-0.372314453125	0.291259765625	0	0	0	0.0867755972980156	-0.286159266311947	0.352439232869488	0.886774749951614	0.58779892287635	0.575405142688795	0.568683873547237	-0.67473170771512	0.736513165695879	-0.047806687403257	-0.44635137377322	-0.355608321786656	0.821165740034761	-3.33188899269824	-34.6584991566394	44.3895444077671
6362	1655810495231	5.52710666423732	-0.596835826335	8.08307583162314	0.0431594418223923	-0.132956871712114	-0.00342156542145311	0.0168859405467408	-0.0017812822085446	-0.00635513413206158	0.6416015625	-0.3701171875	0.2919921875	0	0	0	0.0867664714469399	-0.286168923431641	0.352495986281203	0.88674996833959	0.587707853835234	0.575491873901513	0.568690233443223	-0.674811344797246	0.736436318176578	-0.0478664621991092	-0.446350901727907	-0.355627125433157	0.821157853389246	-3.33607756415005	-34.6589421612457	44.3982990662873
6363	1655810495232	5.52963727210888	-0.618338705362652	8.08979144704657	0.0565833947648871	-0.151014336072664	0.00453981297438233	0.0202332753432576	-0.00770828916245668	-0.00558327946989681	0.639404296875	-0.36572265625	0.29345703125	0	0	0	0.0868567213656825	-0.286180194009091	0.352516237669604	0.886729445033709	0.587666397472372	0.57545970884543	0.568765618490935	-0.674886402331128	0.736376424265742	-0.047729505907206	-0.446291999962345	-0.355803155243362	0.821113613021046	-3.32673261930953	-34.6641933588863	44.3987186245549
6364	1655810495233	5.52813081754369	-0.592890670033559	8.0826658049997	0.0422908238271564	-0.130736038597761	-0.00338793189228781	0.0232166774169977	-0.00630854413073491	-0.00740767729864683	0.638671875	-0.368408203125	0.29248046875	0	0	0	0.0869045193544564	-0.286143167594634	0.352586962505815	0.886708591379154	0.587609043019664	0.575549508831625	0.568734011155645	-0.675018046617118	0.736260076773388	-0.0476627327254237	-0.446168409126783	-0.355898668490514	0.82113938430936	-3.32198494958231	-34.6619916037159	44.4059832562042
6365	1655810495233	5.576273208972	-0.594261420038001	8.05605106944443	0.0839270861381806	-0.0961081761824162	0.00218133360220207	0.0185298592362704	-0.00496554753719013	-0.00748052239229632	0.6376953125	-0.375	0.282470703125	0	0	0	0.0869851246718645	-0.286144063108122	0.352597646562953	0.886696150252194	0.587592949572483	0.57551339758356	0.568787178841555	-0.675074505597856	0.736216975448174	-0.0475286961082712	-0.446104177860417	-0.356046196811269	0.82111032646759	-3.31278070310436	-34.6656952784245	44.404970605677
6366	1655810495234	5.57465792700985	-0.568963196241818	8.04896699656363	0.0672995925039776	-0.0752793296396797	-0.00574067869108674	0.0201372461297763	-0.00641946907165052	-0.00731139154381374	0.640380859375	-0.375244140625	0.28759765625	0	0	0	0.0869666369440389	-0.286205270773797	0.352728392932786	0.88662620526296	0.587338447600704	0.575695853279286	0.568865390480939	-0.675257092778706	0.736038969755396	-0.0476916518215191	-0.446162982128779	-0.356119249014218	0.821046694079883	-3.32437044067444	-34.6711438223242	44.4264578134562
6367	1655810495235	5.52970021868229	-0.586915841320444	8.08202829219328	0.038597277870399	-0.127598043779018	-0.0033313829132755	0.0170572599376283	-0.006530587360089	-0.00721486137128243	0.638427734375	-0.366455078125	0.28955078125	0	0	0	0.0870424450013446	-0.286216376821053	0.352738026450877	0.886611348395201	0.587312140669939	0.575657128047888	0.568931736106671	-0.67530902099961	0.735998994927456	-0.0475731607350428	-0.446119015037738	-0.356264438856072	0.821007596815234	-3.31628698097416	-34.6757660119597	44.4258139950396
6368	1655810495235	5.5555576209156	-0.57645038934195	8.10359087407715	0.0355666274514763	-0.112227707751099	0.0285950887815893	0.0187563807188843	-0.00732150154158648	-0.00251328135567859	0.63720703125	-0.36474609375	0.28662109375	0	0	0	0.0870320665485725	-0.286268852600169	0.352879152894361	0.886539264147859	0.587052894967083	0.575853309419609	0.569000759701823	-0.675511588740735	0.735803445689687	-0.0477219319406983	-0.446153552028599	-0.356351308881654	0.820951126846536	-3.32686275981739	-34.6805750450886	44.44821934569
6369	1655810495236	5.58043167259664	-0.572883432588374	8.10179428166225	0.048806369886263	-0.0960200226151127	0.0410876207204041	0.0201686336425986	-0.00619888180028476	-0.00580117430823757	0.628662109375	-0.373779296875	0.28564453125	0	0	0	0.0871186050111447	-0.286273995999994	0.352900037326493	0.886520790241305	0.58701752573831	0.575826857568766	0.569064016239432	-0.675586022298708	0.735743824631744	-0.0475872986296044	-0.446087380398372	-0.356517116866405	0.820915095750215	-3.31764327821576	-34.684982519287	44.4486293499936
6370	1655810495237	5.53035057782188	-0.58890467296717	8.05791337891247	0.0482116004115418	-0.119990201589137	-0.0226499697851565	0.0109217079513111	-0.00458091254074698	-0.0027068445217167	0.636962890625	-0.3671875	0.286865234375	0	0	0	0.0870240759845353	-0.286332160843386	0.35293840612649	0.886496015415009	0.586896750295301	0.575921397992013	0.569092916690887	-0.675592564880217	0.735722583359862	-0.0478222397307093	-0.446236362000437	-0.356408226152564	0.820881407731591	-3.33412232125708	-34.6869962705688	44.459225250525
6371	1655810495238	5.55514538525992	-0.58574113470404	8.0561412861169	0.0614367249797415	-0.103768389979375	-0.0101569385756637	0.0202975933685296	-0.00726560080632214	-0.00256192231450145	0.630615234375	-0.36572265625	0.287841796875	0	0	0	0.087107766797893	-0.286343584320217	0.352974017959724	0.886469926916589	0.586833388728038	0.575916203474347	0.569163509415055	-0.6756872041425	0.735643159217704	-0.0477068596146011	-0.446176395646452	-0.356580522283383	0.820839177364269	-3.32626694436615	-34.6919152989677	44.4620593602363
6372	1655810495239	5.55873351115433	-0.600587555451226	8.08618103834006	0.0594661424986459	-0.122985547669893	0.0172610433842966	0.012462217448935	-0.00452545173938808	-0.00275547050632444	0.634033203125	-0.36572265625	0.28564453125	0	0	0	0.0870533733764361	-0.286371530914549	0.352958079856175	0.88647258859464	0.586823880291798	0.575916109820823	0.56917340764316	-0.675634541041167	0.735684608096049	-0.0478134328683352	-0.446268641595362	-0.356495149839956	0.82082611293088	-3.33373375455623	-34.6926050487308	44.4625188049612
6373	1655810495239	5.56026485753289	-0.629565702645387	8.06956507217552	0.0874402681829927	-0.138373482362377	0.00586576380965198	0.0170831499938273	-0.00435848250473653	-0.00290146964325318	0.645263671875	-0.37548828125	0.28857421875	0	0	0	0.0871179005210491	-0.286375681016817	0.352989118584125	0.886452549712708	0.586775302966714	0.575919312198536	0.569220247061791	-0.675713104560419	0.735618307140015	-0.0477232283671054	-0.446213563390493	-0.356626768537114	0.820798881461917	-3.32756864651913	-34.6958690924816	44.465049230231
6374	1655810495240	5.53208571148671	-0.582983273353893	8.05715288643143	0.0432613764966696	-0.115603609041907	-0.0225740630265658	0.0201332142462025	-0.00446888254014566	-0.00450958668423424	0.636962890625	-0.36572265625	0.2861328125	0	0	0	0.0871192904680389	-0.286435260602257	0.353118590835652	0.886381594753809	0.586524204579921	0.576087566026854	0.569308768342054	-0.675903712701639	0.735434980069178	-0.047849359941262	-0.446255004003351	-0.356733102416785	0.820730141424126	-3.33662230880285	-34.7020381229294	44.4856758767102
6375	1655810495241	5.56078083428639	-0.588791967387187	8.10915912634261	0.0411852356604719	-0.122980439793456	0.0367085883853448	0.0170163671786261	-0.0028493097264969	-0.00312017782805295	0.637939453125	-0.372802734375	0.277099609375	0	0	0	0.0871807616709363	-0.286433336630595	0.353149465026961	0.886363872127193	0.586482798035671	0.576094901611082	0.56934400141388	-0.675980807432694	0.735369940291293	-0.0477598042146659	-0.446192644034943	-0.356855314173262	0.82071091692228	-3.33046933225695	-34.7044936366799	44.4880627895817
6376	1655810495242	5.53565690111313	-0.59580930877915	8.08736487872417	0.0381304501968155	-0.135106280221868	0.00486064028298116	0.0199009765290931	-0.000163602059472589	-0.00667652541952047	0.64013671875	-0.372314453125	0.282958984375	0	0	0	0.0871699159400509	-0.286550570469589	0.353218294439364	0.886299617957666	0.5862512140738	0.576157300553719	0.569519340335031	-0.676071657115349	0.735276484456702	-0.0479124811536522	-0.44635930419596	-0.356947133933928	0.820580352637115	-3.34162238766299	-34.7167146922093	44.5024777431854
6377	1655810495243	5.55926023103538	-0.599442845479779	8.06239169544697	0.065896707706284	-0.116252959393416	-0.00202945308893554	0.0140710730077836	-0.00597892440489365	-0.00258466640488915	0.643798828125	-0.373779296875	0.286865234375	0	0	0	0.0872226028484903	-0.286569264988496	0.353246014689499	0.886277342044957	0.586190618939879	0.576157243596615	0.569581766665711	-0.676138512351317	0.735218941316641	-0.0478520683417646	-0.446337619277414	-0.357065734816976	0.820540547832575	-3.33758000239046	-34.7210662194859	44.5054356767802
6378	1655810495244	5.53337516495147	-0.576365654095342	8.05674353336901	0.0344344875769871	-0.111958092293408	-0.022496669296828	0.0203001233323084	-0.00726496203293801	-0.00256109104612303	0.635986328125	-0.37255859375	0.29248046875	0	0	0	0.0872295107316359	-0.286692731479594	0.353455745661794	0.886153105300069	0.585752627150871	0.576415679814137	0.569770852053929	-0.676447946603262	0.73492009663237	-0.0480689827445826	-0.446443765016474	-0.357263789979162	0.820396580348578	-3.35326188890624	-34.7342481168087	44.5396913139876
6379	1655810495245	5.53799543638323	-0.584055878663359	8.1101365919874	0.0185215882532027	-0.135169376884191	0.0242947100462061	0.0156427114949313	-0.00570088244534422	-0.00112304422762847	0.640625	-0.37646484375	0.291259765625	0	0	0	0.0872860082902007	-0.286709152410834	0.353492559319527	0.886127544536539	0.585681744859185	0.576427592295081	0.569831663370505	-0.676530382111915	0.734848326524988	-0.0480060317348925	-0.446411845517352	-0.357392176529259	0.820358029361249	-3.34903748281641	-34.7384879633143	44.5437497482846
6380	1655810495246	5.53855023398113	-0.620026565307275	8.07020545945534	0.0601387703619928	-0.1446851965788	-0.00638137435004893	0.0154461280686192	-0.00312782994961406	-0.00458270600960966	0.640869140625	-0.371337890625	0.28515625	0	0	0	0.0872167836834021	-0.286686635415138	0.353686660839212	0.886064191615189	0.585433038037512	0.576770397911296	0.569740349692221	-0.676785942974993	0.734597957176661	-0.0482351397149964	-0.446350697731748	-0.357353815433838	0.820408011436541	-3.36477953175358	-34.7321215331815	44.5729460849146
6381	1655810495247	5.53863062974871	-0.580979842561658	8.109923769096	0.0163598939469408	-0.131120428922927	0.0243533455718747	0.020098466997733	-0.0027377636704555	-0.00321923543459411	0.63720703125	-0.370849609375	0.290771484375	0	0	0	0.0872900659296262	-0.286680918612298	0.353722821368675	0.886044389935738	0.585388433093187	0.576779450359044	0.569777016072272	-0.676877035504778	0.734521220065972	-0.0481254203000789	-0.446271062479932	-0.357496913156343	0.820388990587221	-3.35722092504898	-34.7346778705226	44.5755782262198
6382	1655810495249	5.56434655957037	-0.607784460655221	8.09191607528796	0.0564955858459001	-0.128903513417249	0.0255366761940561	0.0185274194709146	-0.00301645487916246	-0.00468078964849086	0.634033203125	-0.368408203125	0.2900390625	0	0	0	0.0872774095919192	-0.286711070929027	0.35385136367786	0.885984552915554	0.585171948460099	0.576966885349354	0.569809620790732	-0.677060483637396	0.734343732396487	-0.0482533334257033	-0.446276699181245	-0.3575590802934	0.820358831163309	-3.36624709761306	-34.7369510999698	44.5954806241727
6383	1655810495250	5.53609053967697	-0.561286681481074	8.07947366736886	0.0142905627510561	-0.107623722630198	-0.00302637656205817	0.017085789009571	-0.00435843539233594	-0.00290165287542702	0.635009765625	-0.36962890625	0.28369140625	0	0	0	0.087339357284409	-0.286718336781684	0.353884236116505	0.885962967313267	0.585117085562765	0.576973065318002	0.56985970034745	-0.67714024634267	0.734275568194768	-0.0481713268993049	-0.446227613405451	-0.357689071471019	0.820328864044583	-3.36066176537296	-34.7404428122048	44.5984731914864
6384	1655810495251	5.54169454062777	-0.599508466734864	8.11658513169065	0.025742207631179	-0.144800601771321	0.0324694672762078	0.0140670216083929	-0.00402408292686576	0.000217422118655963	0.63525390625	-0.37109375	0.280029296875	0	0	0	0.0872748862762153	-0.286754093696993	0.353931805701296	0.885938745561176	0.585008733322073	0.577070938081127	0.569871840293123	-0.677176661747704	0.734230742276988	-0.0483423818157412	-0.446314407924659	-0.357623194881919	0.82031036794698	-3.37264374386144	-34.7412892715679	44.6086369085371
6385	1655810495252	5.54193731126097	-0.59818639328006	8.11651692148372	0.0251075666356387	-0.144372382771574	0.0324773950653441	0.0153793782224352	-0.00161982217575137	-0.00480289762215428	0.6376953125	-0.369384765625	0.289794921875	0	0	0	0.0873267315319411	-0.286751617058116	0.353955415036857	0.885925005991246	0.584978148561284	0.577073743415955	0.569900395126822	-0.677238069332691	0.734179212252069	-0.0482647049453285	-0.446261317114021	-0.357724445567852	0.820295104149008	-3.36729954849283	-34.7432802954214	44.6102737985746
6386	1655810495253	5.53897866054472	-0.580470383720342	8.08620591614314	0.0230690491101722	-0.121550838450626	0.0050847695970333	0.0186522405765992	-0.00212383262911817	0.00136043462449918	0.64013671875	-0.361572265625	0.28369140625	0	0	0	0.0872898396953525	-0.286816076627472	0.354064725623977	0.885864093494483	0.584749416513684	0.57723419570479	0.569972633725471	-0.677378713108238	0.734037307909555	-0.0484490415252983	-0.446347621159487	-0.357756780377307	0.820234044147967	-3.38038149768019	-34.7483174423008	44.6294401863536
6387	1655810495254	5.56251533359434	-0.584175423634896	8.06126716037969	0.0507598336706602	-0.102637988769467	-0.00178757579891275	0.0185284381921218	-0.00301763180230996	-0.00468126709046186	0.637939453125	-0.3740234375	0.284912109375	0	0	0	0.0873574613386349	-0.286814906976726	0.354093078372263	0.885846473681109	0.584710601969573	0.577233365366788	0.570013292697382	-0.677455053957042	0.733973531594647	-0.0483477485157593	-0.446282603080649	-0.357888944822013	0.820211766168802	-3.37342184240031	-34.7511526990394	44.6313004772027
6388	1655810495256	5.54065368215096	-0.607805791704413	8.06969123378541	0.0484411439506376	-0.136121365745946	-0.00619400144602444	0.0140679121962484	-0.00402358449149977	0.000217803436586332	0.63916015625	-0.377685546875	0.289306640625	0	0	0	0.0873536830181535	-0.286907884189667	0.354157143237201	0.885791125461887	0.584513167767746	0.577293588255068	0.570154776938423	-0.677543429738721	0.733884103914456	-0.0484667188859025	-0.446407053622594	-0.357975187661467	0.820106400105945	-3.38213712238315	-34.7610195249999	44.6439630691322
6389	1655810495257	5.54075118105078	-0.569125459366657	8.1093158040454	0.00456924522918081	-0.122535274706223	0.0244765750241136	0.0155098250678589	-0.00268249243988719	-0.00156227344949791	0.639892578125	-0.3740234375	0.290283203125	0	0	0	0.0874027601025751	-0.286912687621983	0.354194928305172	0.885769620144469	0.584454124888849	0.57731629259072	0.570192313355516	-0.677624135817157	0.733813420578692	-0.0484086184129525	-0.446361855962693	-0.358083456875497	0.820083734415964	-3.37818525942208	-34.763637437036	44.6479833591586
6390	1655810495258	5.51993316320912	-0.623180719909929	8.10145413349532	0.0310183548238877	-0.169189906185608	0.00881903368329162	0.0154111832527915	-0.00139743973192495	-0.0032931857406491	0.642333984375	-0.37646484375	0.283447265625	0	0	0	0.0873392891287391	-0.286922022548713	0.354433613653801	0.88567737639806	0.584105132977728	0.577708535126795	0.570152648043244	-0.677946797065934	0.733497324173589	-0.0486807536735689	-0.446328728603832	-0.358098483481622	0.820095203102085	-3.39708441274372	-34.760871051401	44.6845497974043
6391	1655810495258	5.56559623411399	-0.601874579546538	8.06800249698657	0.0584372167355596	-0.1160127935004	0.00637087333560338	0.0185603181188268	-0.00279450073527685	-0.00317125781192513	0.640380859375	-0.375244140625	0.282470703125	0	0	0	0.0874036426578353	-0.286921392571355	0.354469417774969	0.88565690286777	0.584055092694378	0.577720623681451	0.570191660471177	-0.678032523150232	0.733424070224832	-0.048590439032504	-0.446263987173839	-0.358228996855303	0.820073435470112	-3.39088650715679	-34.7635919020454	44.6876034347384
6392	1655810495260	5.56903128989532	-0.616476363901619	8.09823515055211	0.0531197937703264	-0.134865927492784	0.0338630201303633	0.017087791917413	-0.00435933845522476	-0.00290121824995422	0.64453125	-0.369384765625	0.2861328125	0	0	0	0.0873813000846817	-0.28706250985135	0.354739995316806	0.885505030790897	0.583509302320952	0.578080310318776	0.570385877215296	-0.678415891584307	0.733048088236286	-0.0489119451565275	-0.44639530928403	-0.358418268444666	0.819919247666709	-3.41391031395099	-34.7771385295642	44.7322151812857
6393	1655810495260	5.53976673541319	-0.577199115785539	8.06238802888946	0.0255128070406065	-0.111040462203308	-0.0141520663282186	0.0170201835338512	-0.00285054864781718	-0.00312216947824388	0.63818359375	-0.372314453125	0.287353515625	0	0	0	0.0874381030780558	-0.287066173287864	0.354774188374687	0.885484537158643	0.583456574833889	0.578093072677251	0.570426879280493	-0.67849515927792	0.732979706786387	-0.0488371608078546	-0.446343751070335	-0.358537513744262	0.819895180567947	-3.40880272568149	-34.779998709968	44.7354363168396
6394	1655810495262	5.54195323975197	-0.599018177356319	8.06945594705498	0.0371733165730631	-0.128004682133124	-0.00603550996018498	0.0168790642089642	0.00212449240652972	-0.000764712053098518	0.6337890625	-0.37646484375	0.28173828125	0	0	0	0.087441999088318	-0.287095726236945	0.354935627144478	0.88540987195506	0.583193489120074	0.57831856790082	0.570467341982956	-0.678735464828304	0.732749194757989	-0.0489569848522549	-0.44632221884224	-0.358645021717383	0.819859881543839	-3.41729334945998	-34.7828213632694	44.7595283065705
6395	1655810495262	5.54612903816575	-0.606788173504108	8.12318340774793	0.0210749510412621	-0.151095457538769	0.0407675520771118	0.0123675796778144	-0.00324317984528044	-0.00448386304010204	0.6279296875	-0.363525390625	0.288330078125	0	0	0	0.0874806745133477	-0.287109293070813	0.354956936830424	0.885393109536679	0.583147653656681	0.578319822870037	0.570512924051924	-0.678785881337577	0.732705409165304	-0.0489132975444501	-0.446305435023455	-0.358732443271407	0.819830770838136	-3.41437205403245	-34.7860012561309	44.7618420310653
6396	1655810495264	5.56759559426475	-0.624929539786294	8.05162942759128	0.0766770889563423	-0.124789948057986	-0.00473436608581146	0.0184879546219063	0.000671975024351158	-0.000593441758722005	0.64306640625	-0.36865234375	0.283935546875	0	0	0	0.0873862872885981	-0.287124263086221	0.354963787466927	0.885394829399993	0.583120734268657	0.578384757411751	0.570474610880915	-0.678747650778069	0.732728692762098	-0.0490946979458967	-0.44639874084638	-0.358580165649045	0.819846588682218	-3.42693854705088	-34.7833284473657	44.7663808015204
6397	1655810495264	5.54309341609977	-0.58759476304491	8.09300421357175	0.0190144356199512	-0.127096606235776	0.0133674970150732	0.0184259591888059	0.000222560185431278	-0.00361396772384253	0.6318359375	-0.369140625	0.281982421875	0	0	0	0.0874437762080271	-0.28711233455258	0.354999780873465	0.885378590733953	0.583083325855119	0.578406037942861	0.570491271082192	-0.678830784859581	0.732657483164545	-0.0490079370094332	-0.4463211855118	-0.358691326399506	0.819840186700496	-3.42092345111244	-34.7844906880024	44.769272610933
6398	1655810495265	5.51984795206306	-0.618257641029393	8.07842372520953	0.0311138723679978	-0.157774288797152	-0.0103390282252569	0.013668199936302	0.00307194884977481	-0.00390865211763239	0.635986328125	-0.36572265625	0.286865234375	0	0	0	0.0874146071728348	-0.287182540601235	0.355048248047253	0.885339266261932	0.582933859864793	0.578468412880371	0.570580765819177	-0.678884208774585	0.732598856022791	-0.0491441474705096	-0.446435153297361	-0.3587104841704	0.819769749653278	-3.43070278500567	-34.7907342554186	44.7797059545115
6399	1655810495266	5.54406607301722	-0.614938942224824	8.07703375031941	0.0440293505867455	-0.141403963896125	0.00216662583598826	0.0216380680904876	-0.000724199811744319	-0.000470735525013848	0.63427734375	-0.3818359375	0.29638671875	0	0	0	0.0874832578086954	-0.287171263737387	0.355102281776414	0.885314472017618	0.582870069521312	0.578509022804702	0.570604760398798	-0.678999733607849	0.732498098160723	-0.0490499536329527	-0.44634274253839	-0.358850730422098	0.819758689773299	-3.42418895718419	-34.7924083087996	44.7848519933273
6400	1655810495267	5.51776324772781	-0.59193159662773	8.07159802280912	0.0155537296725142	-0.135357666865349	-0.0183918195222166	0.0139715319540862	-0.00273819864428889	-0.00151185074421172	0.634033203125	-0.3720703125	0.28515625	0	0	0	0.087390067605379	-0.287126617709293	0.355230524168201	0.885286708465644	0.582739160204014	0.578777693908946	0.570465995654574	-0.679145752040622	0.732348501566226	-0.0492617472171175	-0.446291517564361	-0.358722808428942	0.819842562973498	-3.43858793676295	-34.7827274426741	44.8045879243843
6401	1655810495267	5.54623926166984	-0.597849446795692	8.1237709233644	0.0130506276719336	-0.1424607853777	0.0409100694129343	0.0200920959899669	0.00117887004063741	0.00237678823509225	0.63720703125	-0.3759765625	0.28955078125	0	0	0	0.0874438100776943	-0.287110470080057	0.355296638137955	0.885260106961435	0.582663753796552	0.578847812928093	0.570471874398796	-0.679271946596085	0.732235758013927	-0.0491977362623141	-0.446197907412481	-0.358839802912295	0.81984231609901	-3.43413155061639	-34.7831375478333	44.8117655249476
6402	1655810495269	5.51984299749704	-0.612670888631624	8.07885272736562	0.0264339550241351	-0.150252645065587	-0.0102071123596961	0.0107174782381131	0.00190072825109808	-0.000568554816020022	0.64306640625	-0.372802734375	0.28955078125	0	0	0	0.0873380888633681	-0.287127239698595	0.355444295683915	0.885205828676318	0.582434601777663	0.579128435866522	0.570421063270714	-0.67943701337008	0.73206282179892	-0.0494911083180601	-0.446245761341038	-0.358739849627275	0.819860012913521	-3.4544858590412	-34.7795929966322	44.8369190174016
6403	1655810495269	5.54420369121013	-0.609573245408387	8.0773460132384	0.0393264136237378	-0.133837387637923	0.00229269167919632	0.0185322314743057	-0.00302148146805061	-0.00468007521942917	0.640625	-0.3642578125	0.294677734375	0	0	0	0.08740187404989	-0.287129599311612	0.355475770011017	0.88518612875869	0.582387140268456	0.579133111297075	0.57046477388994	-0.67951577159719	0.731995778695284	-0.0494013777435465	-0.446187779976777	-0.358869083889453	0.819835011223441	-3.44834268317471	-34.7826422118056	44.8394848144422
6404	1655810495270	5.54436328016983	-0.608039458111355	8.0773520688351	0.0392915833486922	-0.132594398578085	0.00230970189167934	0.017048069136526	-0.000666651877687715	0.0011875232981793	0.633544921875	-0.366943359375	0.293212890625	0	0	0	0.0874382309882163	-0.287076870521019	0.355578719125603	0.885158291312071	0.582301289833708	0.579283915464325	0.570399292726001	-0.67968989032829	0.731836660533294	-0.0493635015471414	-0.446034596016407	-0.358950202094661	0.81988285234702	-3.44550462361659	-34.7780743442154	44.8511668133035
6405	1655810495271	5.54542092819614	-0.599509504166555	8.10073264087314	0.0238607898003486	-0.134692448639003	0.0216536256550306	0.0169860667404731	-0.00111809138005145	-0.00183269456334591	0.637451171875	-0.36767578125	0.29052734375	0	0	0	0.0874879293281748	-0.287074461238869	0.355621216335952	0.885137089053453	0.582243608392303	0.579315956112925	0.570425633609919	-0.679778156820085	0.731758825427213	-0.0493019159837992	-0.445975378240322	-0.359057160355219	0.819868231852563	-3.44127759111181	-34.7799118142853	44.855589184219
6406	1655810495272	5.52016975706095	-0.607109020127114	8.07904934105478	0.0253055118065434	-0.146130931953787	-0.0101418233292314	0.0138676527784348	0.000504236931107614	-0.000446071596407981	0.63525390625	-0.37158203125	0.280517578125	0	0	0	0.0874489013699745	-0.28699913182216	0.35559979045233	0.885173981210908	0.58236057472717	0.579339846920939	0.57028195024309	-0.679730882008877	0.731802957358886	-0.0492986779155612	-0.445894706233293	-0.358928646628283	0.819968375965022	-3.44063286499755	-34.7698893415303	44.8510161819206
6407	1655810495273	5.52339854949552	-0.622000159676441	8.1094424358225	0.0238239996684139	-0.166534851132701	0.0173467560721257	0.0155136202933153	-0.00268284508737366	-0.00156049849773485	0.63916015625	-0.37255859375	0.286865234375	0	0	0	0.0874945215058104	-0.287005785410807	0.355640822236499	0.885150830879202	0.582294569399345	0.579368670866563	0.570320065986059	-0.679814406322235	0.731728628530832	-0.049250250203771	-0.445853571707997	-0.359033643836756	0.819944775694389	-3.43735982234875	-34.7725479439764	44.8556885705767
6408	1655810495274	5.5477763497334	-0.618958902699294	8.10791826442558	0.0342449664467795	-0.148924845648612	0.0298692005008547	0.0154399651280161	0.000786334269848041	0.00101404596501683	0.635986328125	-0.372314453125	0.28564453125	0	0	0	0.0874488884456431	-0.287084994125833	0.355777779734415	0.885074612394143	0.582008755190041	0.579569233742316	0.57040802254306	-0.679990288245228	0.731549726713744	-0.0494793415196607	-0.445958537057327	-0.359074505700965	0.819869796114784	-3.45362541166799	-34.7786833085229	44.8796687963998
6409	1655810495274	5.51928684688791	-0.572992443756941	8.09540751656768	-0.00802580720095803	-0.127753221031686	0.00108281454500947	0.0156442632245365	-0.00373931244260699	0.00168253308812273	0.64501953125	-0.379638671875	0.284912109375	0	0	0	0.0874918754995788	-0.287098281485082	0.355833083973994	0.885043820858287	0.581914786235738	0.579618210256591	0.570454127778178	-0.680093278655935	0.731455976142246	-0.0494498462365319	-0.445924112251443	-0.359186421381351	0.819839496979757	-3.45169889174445	-34.7818995378303	44.8867152806963
6410	1655810495275	5.54487207450012	-0.600723303308511	8.07755022857394	0.0306896183036965	-0.125327759100995	0.00243584493865434	0.00927665030004769	0.000562249457412547	0.00121216014906207	0.638427734375	-0.370849609375	0.292236328125	0	0	0	0.087426981031039	-0.28718417077408	0.356092511600869	0.884918017799608	0.581446750477178	0.580010068936889	0.570533080803694	-0.68044064913961	0.731109292339166	-0.0497968438135281	-0.446004707775598	-0.359259686838292	0.819763550089204	-3.47618207575774	-34.7874074690223	44.9291271570293
6411	1655810495276	5.54688920770483	-0.623161701550459	8.08475597188966	0.0438549488004571	-0.143134526417482	0.0106103875847374	0.0138626534348614	0.00246504096294374	0.00235016386320431	0.637939453125	-0.367431640625	0.2919921875	0	0	0	0.0874495064873554	-0.287174255401738	0.356151292193968	0.884895354218872	0.581374408206048	0.58008675390147	0.570528838386915	-0.680539741544492	0.731017681767369	-0.0497876402535514	-0.44594781943813	-0.359322288331127	0.819767061699151	-3.47552632374268	-34.7871114996426	44.9364790409662
6412	1655810495276	5.54903156205561	-0.645309867224135	8.09190351588472	0.0579012261525036	-0.159604202027313	0.0188055269110983	0.0155454832138153	-0.00245743984781195	-5.00240696535469E-05	0.642333984375	-0.36962890625	0.283203125	0	0	0	0.0874436330756333	-0.287118762091059	0.356203108481054	0.884893085631404	0.581364323927466	0.580189920187753	0.570434202495686	-0.680616750913436	0.730945913085938	-0.0497886585378996	-0.445843426822017	-0.359301723702369	0.819832854979664	-3.47531899267619	-34.7805095658094	44.9420704154435
6413	1655810495276	5.52168983247065	-0.629662837514972	8.06313632383121	0.0442657290728949	-0.154188316323233	-0.0211620656607199	0.0153784881136191	0.000332911940879897	-0.00200652558949393	0.634521484375	-0.3720703125	0.28466796875	0	0	0	0.0874829694750484	-0.287113213353482	0.356243925897718	0.884874566269506	0.581312535957638	0.580227345870407	0.570448913262776	-0.68069741178915	0.730873990625618	-0.0497417672639032	-0.445787807282851	-0.359387585944711	0.819825465539331	-3.47208514462458	-34.7815357750783	44.9464703753612
6414	1655810495277	5.54487864756991	-0.595939602182816	8.07790006602885	0.0264237912238873	-0.121390965780299	0.00249773477443149	0.0184975269385075	-0.00129036524900862	-0.00339247071713852	0.6376953125	-0.372802734375	0.28662109375	0	0	0	0.087489962768541	-0.287187004848936	0.3563447555003	0.88480932741924	0.581084078946658	0.580342366163503	0.570564659990838	-0.680846287610872	0.730727843284382	-0.0498512958251806	-0.445858302424894	-0.359499036277849	0.819738261321313	-3.48008097884066	-34.7896106033496	44.9634096446768
6415	1655810495278	5.54819055954442	-0.610525729600628	8.10827423161195	0.02487764243726	-0.141761770509818	0.0300031094481223	0.015514974654132	-0.00268396638444997	-0.0015597506791301	0.635986328125	-0.378173828125	0.284912109375	0	0	0	0.0875344180666525	-0.287195458030189	0.356386376452104	0.884785423263687	0.581015039132337	0.580371967289056	0.570604857924535	-0.68092991644929	0.730652952666143	-0.0498067429632758	-0.445820561646063	-0.35960345152025	0.819712989081124	-3.47708534541915	-34.7924151130427	44.9682747451328
6416	1655810495279	5.52078857271492	-0.594952258875134	8.07953087219358	0.00903254785896059	-0.134218619847182	-0.00994297937524457	0.0138010914387627	0.00201224418684895	-0.000671060750598062	0.63330078125	-0.36865234375	0.2861328125	0	0	0	0.0874577220711094	-0.287239017369672	0.356578070304712	0.884701629663022	0.580691653356547	0.580687859503158	0.570612665078231	-0.681172940099539	0.730406453255801	-0.0500982905739461	-0.445870642000783	-0.359594247545651	0.819689787501276	-3.49748710789054	-34.7929598097682	44.9998128331136
6417	1655810495279	5.52284209478721	-0.61707105626267	8.08675640977591	0.0221798697833311	-0.152003611411438	-0.00174481959689921	0.0138693081840237	0.000503810536003422	-0.000447372668899136	0.6396484375	-0.3671875	0.297607421875	0	0	0	0.0874870012813655	-0.287237295592916	0.356624169032281	0.884680712285114	0.580627876165006	0.580737988459944	0.570626548786168	-0.681256107050317	0.730330453337659	-0.0500753984932324	-0.445826632253796	-0.359667648930381	0.819681521254524	-3.49592808639702	-34.7939284700432	45.0054323705782
6418	1655810495280	5.54826504766008	-0.606855693175091	8.10849877036311	0.0214703660768468	-0.136908669803751	0.0300798328959608	0.0171558045809263	-0.0039094440977546	0.000124653279562179	0.6357421875	-0.37548828125	0.285888671875	0	0	0	0.0874837013484259	-0.287179391107242	0.356617570757697	0.884702496632926	0.580703811100305	0.58075387821491	0.570533098699736	-0.681247942555105	0.730341020450517	-0.0500323356613953	-0.445740198476666	-0.359620531651962	0.819749198643307	-3.49264151738454	-34.7874087175299	45.0024698569598
6419	1655810495281	5.54740260522201	-0.612752097330666	8.08519936349135	0.0353928194473472	-0.13383636425236	0.0107756018493088	0.0154418805004101	0.000786961311579198	0.0010123091515348	0.639404296875	-0.36962890625	0.2802734375	0	0	0	0.0875174420840725	-0.287173720900352	0.356672529554498	0.884678844562536	0.580631921370885	0.580815863693012	0.570543166086226	-0.681346701640869	0.730250807984514	-0.0500042958262001	-0.445682896293164	-0.359703613994224	0.819743902710616	-3.49071145845888	-34.7881110663014	45.0090741217807
6420	1655810495282	5.52096226946076	-0.590217900445568	8.07975941280808	0.00456847048885511	-0.130083195349276	-0.0098841329598045	0.0108556740908401	-0.00111668729773687	-0.00012421244817487	0.637939453125	-0.376708984375	0.292724609375	0	0	0	0.087467973642024	-0.287275008851652	0.356801050298285	0.884599024068127	0.580332159590648	0.580996995956194	0.570663714664541	-0.681506447565188	0.730084728185998	-0.0502518815235351	-0.445829055212794	-0.359748218007339	0.819644845752483	-3.50837481389322	-34.7965215732471	45.0328006176968
6421	1655810495283	5.52533899686676	-0.635774019165332	8.09395454180818	0.0316513132480186	-0.16614370654817	0.00653226737002477	0.0139691618316881	-0.000777320798181751	0.00128602679262288	0.640625	-0.3681640625	0.29345703125	0	0	0	0.0874972318336733	-0.287279791627055	0.356854515479	0.884573010285985	0.580250352209929	0.581055372924567	0.570687464691267	-0.681600119041054	0.729998178407386	-0.0502388021863551	-0.44579233560423	-0.359829561205567	0.819629111488322	-3.50753111357788	-34.7981786808006	45.0397176049192
