// Start Time : 29/04/2022 06:53:08																																
// Update Rate : 100Hz																																
// Filter Profile : 46.1 human																																
// Firmware Version : 4.4.0																																
PacketCounter	Time_Of_Arrival	Acc_X	Acc_Y	Acc_Z	FreeAcc_X	FreeAcc_Y	FreeAcc_Z	Gyr_X	Gyr_Y	Gyr_Z	Mag_X	Mag_Y	Mag_Z	VelInc_X	VelInc_Y	VelInc_Z	OriInc_q0	OriInc_q1	OriInc_q2	OriInc_q3	Mat[1][1]	Mat[2][1]	Mat[3][1]	Mat[1][2]	Mat[2][2]	Mat[3][2]	Mat[1][3]	Mat[2][3]	Mat[3][3]	Euler_X	Euler_Y	Euler_Z
49365	1651215230052	9.61737996453289	0.357400045253687	-0.527885651985302	-3.46944695195361E-16	-2.94902990916057E-15	-0.174202242678426	0.0393709622340591	0.00773558760722026	-0.00617050982979923	0.365966796875	-0.30712890625	0.2451171875	0	0	0	-0.659498805538806	0.304074395810467	-0.613182617854646	-0.310816930790958	0.0630916779468452	-0.0198983230719819	0.997809348980442	-0.782248480255765	-0.621863194692378	0.037060521104485	0.619763467228746	-0.782873057287012	-0.0547998253892238	145.929941756444	-86.2068192017214	-17.5046201543983
49366	1651215230053	9.61506985973177	0.429444727728023	-0.565201174899869	-0.083461624288285	-0.0502581359875654	-0.171943002446008	0.0424249529258539	-0.00339882718882618	-0.00357076333315604	0.3623046875	-0.30517578125	0.245849609375	0	0	0	-0.661299766331008	0.302192837698962	-0.614199873884014	-0.306790845389598	0.0628760075286194	-0.0228183088203344	0.997760458456758	-0.776541903008578	-0.629117732057169	0.0345478231305564	0.626920473863374	-0.776975034343977	-0.0572757842119944	148.902302240718	-86.1647093937511	-19.9463222480077
49367	1651215230054	9.60422167830023	0.447470880774308	-0.577859433706989	-0.105869285969191	-0.052283685559794	-0.181421414479592	0.0400074418148751	-0.00797687161430397	0.00535996833203646	0.359375	-0.311279296875	0.2412109375	0	0	0	-0.661377520168051	0.302099927361004	-0.614242157127317	-0.306630041112111	0.0628844125921126	-0.0229140058164565	0.99775773562042	-0.776294397387421	-0.629427303552122	0.0344714102990535	0.627226083033738	-0.776721454499969	-0.0573691805903305	148.99961187028	-86.162377755848	-20.0208763703769
49368	1651215230055	9.6119379304786	0.465044951680986	-0.607197099933281	-0.137621964629755	-0.0429014903587776	-0.171446528378951	0.0294455702581734	-0.0211658872368587	0.019724816946465	0.369384765625	-0.309326171875	0.245361328125	0	0	0	-0.661455032196276	0.302113772084068	-0.61424699354265	-0.306439455721968	0.0628557992819048	-0.0232103209214813	0.997752689547543	-0.77612837844174	-0.629644257387921	0.0342468876806317	0.627434370013333	-0.776536792522503	-0.0575909818012809	149.261865431829	-86.1580604037003	-20.2673225134925
49369	1651215230056	9.61187194269789	0.462998339066928	-0.609800423200613	-0.137621964803813	-0.0429014905039367	-0.171446528382079	0.0216324078671664	-0.0305367449791803	0.0196276323881183	0.362548828125	-0.310546875	0.23828125	0	0	0	-0.661552299170163	0.302159029445117	-0.614208737061346	-0.306261495629083	0.0628950964845831	-0.0235710284071673	0.997741756898058	-0.7760049741706	-0.629807634439644	0.0340385614270914	0.627583051795283	-0.77639342489576	-0.0579030472250868	149.550670966508	-86.1487231528192	-20.5443576864804
49370	1651215230057	9.61872784061606	0.445174779799595	-0.643084065520105	-0.143978597176587	-0.00994979971898224	-0.163291910358753	0.0185875082338477	-0.0343939845539328	0.0265958015275536	0.364501953125	-0.31005859375	0.2392578125	0	0	0	-0.661648014729975	0.302240772693107	-0.614161760949186	-0.3060682134975	0.0629116934193373	-0.0240032285013038	0.997730406398755	-0.775904800390088	-0.629945528016644	0.0337694012894598	0.627705233021622	-0.776268302040825	-0.0582551601484875	149.899951338588	-86.1390528849823	-20.8837748247785
49371	1651215230058	9.68204375573319	0.438280989767993	-0.610253745793581	-0.114112552664737	-0.0373307555883448	-0.102277808038778	0.0130786672857642	-0.039106986892341	0.0340985714666553	0.362060546875	-0.313232421875	0.247802734375	0	0	0	-0.661736566057948	0.302373253088642	-0.61410431063732	-0.305861126354901	0.0628926229465076	-0.024521604031436	0.997719002983623	-0.77584414863516	-0.630038774403006	0.0334215466030879	0.627782107906471	-0.776176419175746	-0.0586497340831461	150.323350262074	-86.1293618267774	-21.3006286793806
49372	1651215230059	9.67805823236315	0.437626552270228	-0.656104880277933	-0.142773016501618	-0.00638567252128475	-0.1036001483728	0.00409595723958243	-0.0394804011701401	0.0373054424433541	0.361328125	-0.3125	0.24072265625	0	0	0	-0.661812433088151	0.302540457765512	-0.614031669327578	-0.305677418020639	0.0628687609556445	-0.0250588423968788	0.997707158094814	-0.775841303448706	-0.630061175054541	0.0330633868789116	0.627788014188639	-0.776141076162459	-0.0590528503500465	150.755760169126	-86.1193211729826	-21.7317182404236
49373	1651215230060	9.66631689307629	0.417869519630778	-0.674213268500269	-0.139931852595303	0.0150678434019922	-0.114901515201019	-0.00462633027605364	-0.0413548714723276	0.0384620320385832	0.3603515625	-0.30322265625	0.2373046875	0	0	0	-0.661874120113009	0.302745128693306	-0.6139465854349	-0.305512072445478	0.0628299545706016	-0.0256221439706802	0.997695295441951	-0.775894518718845	-0.630015521285085	0.0326823922308968	0.627726128682491	-0.776159744304114	-0.0594639276457917	151.206051834804	-86.1092913912605	-22.185704195991
49374	1651215230061	9.69947028821915	0.39342702546797	-0.640251040020124	-0.0976242811816959	-0.00229977403242311	-0.0846407177710979	-0.00892937547443421	-0.0437747297934738	0.0415047330181458	0.367919921875	-0.30908203125	0.243408203125	0	0	0	-0.661941953875541	0.302970410078738	-0.613840791713815	-0.305354323277581	0.0628168260897568	-0.0262197713200943	0.997680595156552	-0.775975529535881	-0.629935335744824	0.0323024819722281	0.627627296985655	-0.776204867526595	-0.059916439367695	151.669759767547	-86.0968981167273	-22.6556788465944
49375	1651215230062	9.71702074823708	0.355531633833126	-0.66262345919366	-0.0816408974611719	0.03265481148422	-0.0670098410040722	-0.00963151235873338	-0.0437883430159878	0.0430315105104779	0.3642578125	-0.309814453125	0.24365234375	0	0	0	-0.661996425843688	0.303209233106906	-0.613746944276914	-0.305187780750893	0.0627576986989452	-0.0268307214661282	0.997668072877759	-0.776062992932182	-0.629849158878134	0.0318789595446962	0.627525061057451	-0.776253920728337	-0.0603502137421911	152.15551859187	-86.0863719467455	-23.1481013149554
49376	1651215230063	9.73540108939409	0.352277265977023	-0.682566003001006	-0.0904464673493994	0.0441426243011655	-0.0475504682142898	-0.0186657621638897	-0.0404408592040547	0.037843695228055	0.356689453125	-0.303955078125	0.24072265625	0	0	0	-0.662048908511143	0.303445908284426	-0.613627103047584	-0.305079664825555	0.0627647183017385	-0.0273817628924868	0.997652659595213	-0.776202366595021	-0.629693957710732	0.0315500509489779	0.627351955626817	-0.77636058547784	-0.0607763530307129	152.565397005728	-86.0734542943459	-23.5697385097156
49377	1651215230065	9.72357340233572	0.332759528358588	-0.700479854290237	-0.0876062183668936	0.0655960856436317	-0.0588521703005522	-0.023976759271021	-0.0376650068864821	0.0360564676680559	0.364013671875	-0.302734375	0.245361328125	0	0	0	-0.662073162698543	0.303696269516047	-0.613521019470279	-0.304991248701556	0.0627210691003716	-0.027901215650692	0.997641012416851	-0.776375382982261	-0.629497828195005	0.0312049514808228	0.627142194554038	-0.776501131012046	-0.0611445937672294	152.962649131088	-86.0637210362949	-23.9816977041765
49378	1651215230066	9.71571850802963	0.310724576990181	-0.676219524275204	-0.0553270137226685	0.056060221785984	-0.0688275924106705	-0.0307982132043976	-0.0372240420811108	0.0312338494348159	0.366455078125	-0.314208984375	0.24072265625	0	0	0	-0.662113340889565	0.303944100959395	-0.613376712683001	-0.304947398162764	0.0627739836603602	-0.028395623007179	0.997623734465777	-0.77658615351242	-0.629250135691493	0.0309550142145282	0.626875883367826	-0.776683948157983	-0.0615521853839112	153.301864692118	-86.0493263829946	-24.3394749287831
49379	1651215230068	9.75657369849684	0.306465320300438	-0.669446090713363	-0.0450207787984583	0.0481075543209922	-0.0285948180880222	-0.0378091646436952	-0.0345422839201035	0.0249795956314928	0.36474609375	-0.300537109375	0.24267578125	0	0	0	-0.66212364043408	0.304195409270649	-0.613242960916885	-0.304943451549423	0.0627964477291091	-0.0288210932984687	0.997610119602686	-0.776838793859999	-0.628949288671575	0.0307291495759623	0.626560527408763	-0.776911923489787	-0.0618851244860338	153.593235704608	-86.0380203153673	-24.6532567532247
49380	1651215230069	9.78388961254199	0.217928840331564	-0.681089708910576	0.0193197879751795	0.108375492661731	-0.00331669842362459	-0.0394491430646967	-0.0286283228749535	0.0181858951066216	0.357177734375	-0.313232421875	0.23095703125	0	0	0	-0.662148345311752	0.304415333680521	-0.613089396471215	-0.304979122819329	0.0629053931094763	-0.0291772862769173	0.997592901680469	-0.77709515165941	-0.628638078529059	0.0306152166533481	0.626231615925913	-0.777150469464446	-0.0622182531578274	153.799969872568	-86.0237681535071	-24.8831932601688
49381	1651215230069	9.71929704470846	0.185987154466497	-0.721946624605579	0.0146881948320684	0.159236498948315	-0.0661515361590137	-0.0334516030895269	-0.0208427900294201	0.0207738843928309	0.35791015625	-0.307861328125	0.236083984375	0	0	0	-0.662129592266684	0.304618430164213	-0.613001137614666	-0.304994459510615	0.0628744345748332	-0.0294698526307408	0.997586253545435	-0.777317655215448	-0.628371983344238	0.03042882578061	0.625958519685812	-0.777354602696833	-0.0624159699019077	154.009994719429	-86.0182787790169	-25.1129382544534
49382	1651215230070	9.75925726363716	0.14834612631987	-0.716239646674199	0.0508811336125651	0.174271471507634	-0.027742384656964	-0.0328776229030561	-0.0231053686093012	0.0131808115419843	0.362548828125	-0.30859375	0.23095703125	0	0	0	-0.662157717299372	0.304803533850098	-0.612865518635939	-0.30502101442438	0.0629813236391869	-0.0297822999978102	0.997570231853124	-0.777529748798041	-0.628113973024029	0.030336885568958	0.625684299472753	-0.777551188989387	-0.0627160736532472	154.186116164339	-86.0050805881514	-25.3083012681823
49383	1651215230071	9.73659257064263	0.149833451631953	-0.744230986343314	0.0313086632892496	0.193701163979048	-0.0485148902054195	-0.0269979308047813	-0.0176129605137818	0.00968907315305051	0.36572265625	-0.303466796875	0.242919921875	0	0	0	-0.662155739283463	0.304945201144114	-0.612780827651292	-0.305053861631259	0.0630161631243454	-0.0299801145917994	0.997562106294214	-0.777704745826301	-0.627901131606066	0.0302571850486825	0.625463261514482	-0.777715476030203	-0.0628835975337076	154.304917352781	-85.9984036056646	-25.4428988130991
49384	1651215230072	9.69857173948714	0.113678429830604	-0.716367643687381	0.0755897724393289	0.193301957766128	-0.0892456115257101	-0.0173248702085961	-0.0172286871860003	0.00494417462621002	0.361083984375	-0.30419921875	0.234375	0	0	0	-0.66220526098974	0.305062164253325	-0.612672937280221	-0.305046127959386	0.0631378957310084	-0.0302405257492662	0.997546548650773	-0.777814554640607	-0.627767871516126	0.0301996371062182	0.625314420681225	-0.777812966010802	-0.0631574634828255	154.444543354913	-85.9856504241017	-25.592556133293
49385	1651215230073	9.72772178872474	0.095514404488501	-0.722300199020764	0.0887410601163567	0.206798074136819	-0.0603147782039333	-0.0130909853270908	-0.020810188377111	0.00422846504186206	0.366943359375	-0.314697265625	0.2412109375	0	0	0	-0.66224259096566	0.305148003381839	-0.612590509110846	-0.305044775222394	0.0632351283587838	-0.0304289404649951	0.99753466011143	-0.777899077085354	-0.627664762283192	0.0301657431159534	0.625199443706728	-0.77788882609931	-0.063361106513668	154.54123440391	-85.9759321433097	-25.697004522661
49386	1651215230074	9.69924988987201	0.14744842151778	-0.717670936115325	0.0506118457730459	0.168393467465267	-0.087394416564722	-0.000132849505473956	-0.0172676528761708	0.00349783002512877	0.362548828125	-0.310302734375	0.23388671875	0	0	0	-0.662320840343904	0.305227153790461	-0.612506804912642	-0.304963773210566	0.0633435970493623	-0.0307318373019382	0.997518492504723	-0.777901382675167	-0.627666963236297	0.0300603076129901	0.625185594479679	-0.77787514257609	-0.063665021929763	154.725022981779	-85.9627534179803	-25.8808486319042
49387	1651215230075	9.69504746094248	0.150306245620474	-0.761321569089556	0.0217784833193241	0.199297713541892	-0.088698794632057	0.0057474634280316	-0.0170428859375316	-0.00115776976474961	0.366943359375	-0.306640625	0.23583984375	0	0	0	-0.662383563763019	0.30523170474472	-0.612457368266474	-0.304922273590073	0.0634591569494728	-0.030857142306927	0.997507279255601	-0.777864715142151	-0.627712026974585	0.0300681913037477	0.625219497725465	-0.777833817701511	-0.0638367582495305	154.778772419051	-85.9536383118944	-25.9314307932894
49388	1651215230075	9.68052766077171	0.147047513091475	-0.705073487180873	0.0600258228467607	0.15503357419442	-0.106826833190818	0.0136500737930547	-0.0174896052790892	-0.00688849755095159	0.363525390625	-0.313720703125	0.233642578125	0	0	0	-0.662503003734381	0.305250982663594	-0.612374749419856	-0.304809405856843	0.0636380077117584	-0.0311442187502066	0.997486963129302	-0.777774552879803	-0.627826127368218	0.030018305855735	0.625313480477672	-0.777730281930867	-0.0641767847483348	154.932439617313	-85.9371755977077	-26.0769644928647
49389	1651215230078	9.6619305309952	0.146969247919521	-0.690785216750905	0.0692848812316144	0.143567705178158	-0.126291053502639	0.0192114482671249	-0.0165010038797417	-0.0060012129940182	0.37109375	-0.308837890625	0.23779296875	0	0	0	-0.662591965996226	0.305197431053997	-0.612340251421176	-0.304738955771572	0.0637878891349841	-0.0312348741281488	0.997474554982683	-0.777650589308113	-0.627977393826586	0.0300658243112429	0.625452369208438	-0.777604510970049	-0.0643471706494061	154.955953035406	-85.9271536133021	-26.0895026306161
49390	1651215230076	9.68025514662422	0.148136074611433	-0.708578509705143	0.0599824798455869	0.152772248881844	-0.106790708144928	0.0261625286493297	-0.0207302709401994	-0.00931247524051122	0.3623046875	-0.313720703125	0.241943359375	0	0	0	-0.662743236559416	0.305190863627962	-0.612262881212652	-0.304572000423465	0.0639854020944022	-0.0315701004263731	0.997451350732399	-0.777482622490261	-0.628188866632135	0.0299919916827799	0.625640983347865	-0.777420141621313	-0.0647401216944615	155.143245562518	-85.9084774495664	-26.2615176659112
49391	1651215230076	9.68101841259279	0.183323851022664	-0.708426794610202	0.0347343152208066	0.12929181116644	-0.104975463110284	0.0328598400473382	-0.0234564985132751	-0.010567118314709	0.365966796875	-0.30419921875	0.23583984375	0	0	0	-0.662881203378633	0.305090981632907	-0.612219174129928	-0.304459662289166	0.0642143515078754	-0.0316860680844794	0.99743296022829	-0.77727024009468	-0.628447613930072	0.0300760770174144	0.625881371286589	-0.777206272256564	-0.064983993732871	155.164222298271	-85.8937359117555	-26.2636739900283
49392	1651215230078	9.68082377537187	0.184176853655224	-0.710861225366455	0.0345550594916659	0.126761860987355	-0.104941458063493	0.0382291928336932	-0.0254876216518416	-0.0122662617144122	0.369140625	-0.31298828125	0.2333984375	0	0	0	-0.66307040718689	0.305054001086509	-0.612141018006168	-0.304241788070764	0.0644508609909681	-0.0320668056895357	0.997405537627696	-0.777022317168152	-0.628757981625233	0.0299953190547965	0.626164838632894	-0.776939586142599	-0.0654406169317535	155.375203058695	-85.8718519912692	-26.452128231572
49393	1651215230079	9.66977300931654	0.203647481377252	-0.725424834842578	0.0121436214435014	0.124746059267516	-0.114413615356453	0.043849675914481	-0.0290183366809093	-0.0160177809591791	0.369873046875	-0.302978515625	0.236572265625	0	0	0	-0.663250329373813	0.304910815182152	-0.612087316310731	-0.304101155180329	0.0647570239929646	-0.0321914772757591	0.997381690544988	-0.776737317121041	-0.629103764405891	0.0301262975146987	0.626486766049516	-0.776654467830542	-0.0657432092590327	155.38076149267	-85.8529151369978	-26.4325104863701
49394	1651215230080	9.69307306612951	0.237048192884458	-0.699656628179455	0.00624107300431515	0.078924502708995	-0.0918279284958085	0.0519354038668024	-0.0211693015252952	-0.0180043431679218	0.36376953125	-0.3056640625	0.24072265625	0	0	0	-0.663459031741701	0.304820071340841	-0.612030790992493	-0.303850535930468	0.0650060699697354	-0.0325394910764266	0.99735419605453	-0.776403026472496	-0.629519151845064	0.0300662259790041	0.626875227897417	-0.776303303471497	-0.066186325383741	155.569295886626	-85.8311884689235	-26.5907510735444
49395	1651215230081	9.77172432614814	0.272415274354706	-0.721588256770775	-0.0272124097079973	0.0703390535676147	-0.0108606348342324	0.0528776702200813	-0.0226420393249005	-0.0215700916826469	0.35693359375	-0.30517578125	0.23681640625	0	0	0	-0.663641528759605	0.304621077438041	-0.612003440660198	-0.303706616829765	0.0653155756011343	-0.0325794061445892	0.997332671619234	-0.776057383948928	-0.629936580148611	0.0302463519952311	0.627270924244252	-0.775962941954021	-0.066428159027796	155.519074859893	-85.8142580151825	-26.5100187481623
49396	1651215230081	9.73554896265045	0.307299535814562	-0.689489816511957	-0.0341246248108178	0.0212332414103621	-0.0479996044950628	0.0572981697789571	-0.0179217574526168	-0.0185407864932463	0.365478515625	-0.300537109375	0.235107421875	0	0	0	-0.663850561502602	0.304494288279503	-0.611969309790414	-0.303445587004464	0.0655535845596064	-0.0328786356212286	0.997307235946412	-0.775676181373504	-0.63040800826535	0.0302027277697383	0.627717443760491	-0.775567365503862	-0.0668286792043211	155.679761991444	-85.7943388046555	-26.6362181984376
49397	1651215230082	9.75052823980316	0.346760511794794	-0.747156170988563	-0.097467322382702	0.0401021104651186	-0.0279963859484464	0.055584916928605	-0.0180125547596334	-0.0229983315627914	0.366943359375	-0.30810546875	0.239990234375	0	0	0	-0.664024983295382	0.304275142707663	-0.611959265753588	-0.30330399955841	0.0658449891771209	-0.0328732073675293	0.997288217937842	-0.775311978847094	-0.630846642764207	0.0303948806434922	0.628136746940081	-0.775210852317291	-0.0670250818204022	155.606412771896	-85.7795067156384	-26.5307306284222
49398	1651215230083	9.7998727778116	0.400021727842645	-0.76441240101134	-0.143982276404741	0.0152013086429086	0.0240238713083674	0.0533085256402477	-0.0105684357097181	-0.0187201623748343	0.363525390625	-0.3173828125	0.24365234375	0	0	0	-0.664213913076681	0.304151063304269	-0.611930659753412	-0.303072394024925	0.066065996689273	-0.0331241557900867	0.997265297894521	-0.774961315904961	-0.631278509341766	0.0303710798966606	0.628546134291115	-0.774848523226593	-0.0673759832675088	155.735571300895	-85.7617002888659	-26.6282613487153
49399	1651215230084	9.7713288955668	0.45364640539378	-0.759106063904664	-0.182380722383978	-0.0217274241881465	-0.00314249697203373	0.0495143953253149	-0.00546284770871115	-0.0174744150650855	0.3642578125	-0.3095703125	0.237548828125	0	0	0	-0.664332227109979	0.303949705846235	-0.611961350709377	-0.302953088079717	0.0662357631078835	-0.0330560080628249	0.99725629805806	-0.774638331994186	-0.631668005477901	0.0305120543529276	0.628926290029906	-0.774533944502448	-0.0674454633218366	155.658196817342	-85.75472876087	-26.5222173457188
49400	1651215230084	9.77539715046589	0.452284300760741	-0.717802405165827	-0.153130650041015	-0.0551913539749332	-0.00189251482756347	0.0392769704945745	-0.00440748960176904	-0.0181748278901638	0.36328125	-0.307373046875	0.23828125	0	0	0	-0.664483538045589	0.303853003105267	-0.611923516404726	-0.302794633772136	0.0664459251495721	-0.0332363230056779	0.997236323979467	-0.774384951190984	-0.631977524525418	0.0305345028396325	0.629216088796175	-0.774273695360877	-0.0677300396593474	155.732882139718	-85.7392969517421	-26.5742669082901
49401	1651215230084	9.75355946693866	0.490410688693073	-0.741971820324268	-0.197956187824081	-0.0592015796595956	-0.0208409859254939	0.0279041685906982	0.00036236187188673	-0.0167463112992654	0.36474609375	-0.312255859375	0.236572265625	0	0	0	-0.664550022410616	0.303711441778892	-0.611941874148514	-0.302753646568031	0.0665730055923813	-0.0331276231087713	0.997231465364767	-0.774198158653323	-0.632199179244693	0.0306823874583162	0.629432479352791	-0.774097382988407	-0.0677347443067277	155.630492522212	-85.7355516543036	-26.455555471446
49402	1651215230085	9.70577488315385	0.508907873847448	-0.721620682879239	-0.200842078217442	-0.0862638776942236	-0.0692787903560692	0.018049812426492	0.00746884701673634	-0.0122935619621268	0.3583984375	-0.3056640625	0.232421875	0	0	0	-0.664638472614528	0.303657833246585	-0.611906777868591	-0.302684185624383	0.0667240310129367	-0.0332163474985042	0.997218420379529	-0.774074366447284	-0.632348408161786	0.0307305370029736	0.6295687245207	-0.773971682268876	-0.0679047579427657	155.650703053328	-85.725512039058	-26.4648959779051
49403	1651215230086	9.72081563405062	0.488921860174021	-0.667220989941947	-0.149600498688873	-0.115168027987023	-0.0585681841939074	0.00510315408036001	0.00390050210938461	-0.0115491652064587	0.361572265625	-0.303955078125	0.244384765625	0	0	0	-0.664651666613477	0.303598024320575	-0.611910144001856	-0.302708403193898	0.0667884305925436	-0.0331131805125578	0.997217540366859	-0.774034550868358	-0.632391724528888	0.0308418678000936	0.629610847747245	-0.773940710922821	-0.0678671966068571	155.560843712243	-85.7248356154908	-26.3718537213382
49404	1651215230087	9.70904293706686	0.473900226683732	-0.680940043245468	-0.145226264565631	-0.095183229131313	-0.0698117652939683	-0.00247653314846539	0.00356737067498445	-0.0113607365218894	0.365478515625	-0.305908203125	0.2314453125	0	0	0	-0.664729912270766	0.303575910305736	-0.611829830250324	-0.302721108002736	0.0670118509958083	-0.0331643682050906	0.997200850635254	-0.774019584695107	-0.63240319490328	0.0309819557894446	0.629605506912487	-0.773929146471227	-0.0680483791709114	155.520554576641	-85.7120271829787	-26.330947363154
49405	1651215230088	9.67127867175842	0.439492747159083	-0.650784054092891	-0.101476296537301	-0.0945520225134617	-0.110570723213577	-0.0163084523050994	0.00221108234802343	-0.0105359728638447	0.367431640625	-0.310546875	0.233642578125	0	0	0	-0.664714269216476	0.303587503646969	-0.611796695430597	-0.302810784797386	0.0670788621792058	-0.0330806163003247	0.997199127092445	-0.774115166219472	-0.632280512479586	0.031097636044445	0.629480846156373	-0.774032962065404	-0.0680208641411841	155.431167802164	-85.7107066353934	-26.2506748553733
49406	1651215230089	9.68881965295588	0.406752639584811	-0.668733944684223	-0.0836798474812742	-0.0610538773747417	-0.092854593191225	-0.0205402649822515	0.000520341180531526	-0.0109704090199244	0.361083984375	-0.3076171875	0.23388671875	0	0	0	-0.66477493460238	0.30363435042254	-0.611664511378051	-0.302897661081321	0.0673454135282669	-0.0331535111646384	0.997178740233748	-0.774240510616081	-0.632118376309896	0.0312728324955096	0.629298201966014	-0.774162258850687	-0.0682390648642321	155.378798285773	-85.6951172664377	-26.2105877809181
49407	1651215230090	9.65105049962153	0.372477295030113	-0.638784753523393	-0.0399351825833142	-0.0604197661103666	-0.133621522505296	-0.0236374304367865	0.000375401953227411	-0.0123946666660639	0.369873046875	-0.3125	0.2421875	0	0	0	-0.66475667880435	0.303665081686919	-0.611611157421636	-0.303014633749683	0.0674386205628872	-0.0330725206154221	0.997175130474441	-0.77438104406877	-0.631939299795244	0.0314120989629669	0.629115276434723	-0.774311907279256	-0.0682278477018246	155.278658372336	-85.6923628334128	-26.1237574839294
49408	1651215230090	9.63840632152843	0.323221812954596	-0.655222303927573	-0.00998480262357926	-0.0164504962997545	-0.146649158158603	-0.0267905009482115	-0.0057632008328636	-0.0114723778198094	0.3740234375	-0.311279296875	0.23681640625	0	0	0	-0.664823930985866	0.303724324939124	-0.611451885692246	-0.303129125476537	0.06775625184734	-0.0331486485223738	0.997151070518776	-0.774544150045854	-0.631728535456207	0.031629371161975	0.628880314499783	-0.774480616020502	-0.0684786495424528	155.208417228226	-85.6740485602274	-26.0694428717373
49409	1651215230091	9.67098459674353	0.269353281533411	-0.620246583106592	0.057262067948402	-0.010455607926676	-0.118265684244054	-0.0250776451729561	-0.0109205873517744	-0.0081477214225213	0.37060546875	-0.30712890625	0.228271484375	0	0	0	-0.66483151520121	0.303790742822333	-0.611365221394228	-0.303220723302852	0.0678875012900822	-0.0331821104426125	0.997141030504293	-0.774696528976078	-0.6315367550703	0.0317271963414985	0.628678435419098	-0.77463557531387	-0.0685795180585622	155.173148302939	-85.6664290144007	-26.0484989467385
49410	1651215230092	9.67173264015309	0.304975675233568	-0.618996234733388	0.0338947886075492	-0.0351166919368507	-0.116492412813262	-0.020536245086274	-0.0099983018162189	-0.0132482859702869	0.367919921875	-0.308349609375	0.239990234375	0	0	0	-0.664922395726042	0.303846649298849	-0.611190976571695	-0.303316685213888	0.0682456077344004	-0.0333000418775107	0.997112653733728	-0.774837726062973	-0.631352404361443	0.0319474533661991	0.628465619819034	-0.774780774618202	-0.0688891572563938	155.120414355593	-85.6449653260528	-26.0097892102962
49411	1651215230092	9.6967498475182	0.290990184493264	-0.666321029865465	0.0182389543682019	0.00920332753423522	-0.0887375976234015	-0.0182460690105656	-0.0166003408654748	-0.00447126061232244	0.36865234375	-0.306884765625	0.230224609375	0	0	0	-0.664952253052358	0.303913104972761	-0.611101069002693	-0.303365801055714	0.0683846161791633	-0.0334010771195407	0.997099750434871	-0.774949738415561	-0.63121203075128	0.0320042991564966	0.628312380269307	-0.774890792487625	-0.0690493484271825	155.132327577385	-85.6352403401992	-26.0322568414875
49412	1651215230093	9.68994979284297	0.306881297526301	-0.637630729414646	0.0261922325753708	-0.0245391264664246	-0.0969996492830525	-0.0187502265336468	-0.013594135947117	-0.000369716894659734	0.365966796875	-0.31298828125	0.236083984375	0	0	0	-0.665025585733724	0.303996133793298	-0.610959075773819	-0.303407858645496	0.0686307167366556	-0.0335908440722194	0.997076466433106	-0.775069983674483	-0.631060043901764	0.0320895839415363	0.628137202470169	-0.775006371706207	-0.0693453580835106	155.167646649021	-85.6177461070259	-26.0791271181442
49413	1651215230093	9.71918662496721	0.289186796014468	-0.643053937357435	0.0393767285871744	-0.011131197730384	-0.0680446573094784	-0.0181157967149155	-0.0143042886459718	0.0015983708895344	0.370361328125	-0.304443359375	0.2353515625	0	0	0	-0.665039449681819	0.304078892771738	-0.610886078487139	-0.303441520639846	0.0687084521626384	-0.0337125178298491	0.997067006145016	-0.775185320205247	-0.630918541044984	0.032086039081798	0.627986359676469	-0.775116288505951	-0.0694828853247676	155.213293747643	-85.6106580825184	-26.1353590210261
49414	1651215230094	9.67887622686378	0.325237778029311	-0.652129663782652	0.00507770563417421	-0.0272360505159149	-0.106455858738091	-0.0181163795447783	-0.014303085826691	0.00159956476299265	0.35888671875	-0.296875	0.23876953125	0	0	0	-0.665102772948774	0.304167879663795	-0.610755443835913	-0.303476506869114	0.0689193776112556	-0.0339059431194418	0.997045889821957	-0.775305657705915	-0.630767821518704	0.032141755797531	0.627814667333344	-0.77523050917629	-0.0697595952066348	155.262097746176	-85.5948779516674	-26.1955859034579
49415	1651215230095	9.65530985721342	0.292965081355279	-0.681582510450946	0.0107336957522377	0.0157317828563063	-0.128936596956567	-0.0176753880362169	-0.0127781036791125	0.00213094268821733	0.3603515625	-0.300048828125	0.234130859375	0	0	0	-0.665111849828678	0.304248771426151	-0.610688910989572	-0.303509417148006	0.0689834781600968	-0.0340192554763085	0.997037597083366	-0.775418597209091	-0.630629437576311	0.0321327179751659	0.627668127949174	-0.775338121543771	-0.0698821753936964	155.306423484367	-85.5886962331484	-26.2502463600115
49416	1651215230096	9.68960770259189	0.306802934440984	-0.642845738662923	0.0282979952539274	-0.0254695320767096	-0.0970079488444568	-0.0223498960263819	-0.0159905571889657	0.0011692465309632	0.361572265625	-0.31201171875	0.237548828125	0	0	0	-0.665166835494551	0.304310053056713	-0.610586502643877	-0.303533516033904	0.0691590287954795	-0.0341669740211444	0.997020384256162	-0.775500845982507	-0.630525592505432	0.0321856346230714	0.62754718278109	-0.775416078684155	-0.0701030548664299	155.339252255828	-85.5758926624501	-26.2909793697461
49417	1651215230097	9.69701003245023	0.326155400344417	-0.672165439504422	-0.00335653627959263	-0.0160534579131806	-0.0869525262697301	-0.0202157394696758	-0.0151877407429371	-0.0068772552369394	0.36376953125	-0.30615234375	0.23779296875	0	0	0	-0.66519310772395	0.304372074873517	-0.610494560317112	-0.303598684610061	0.0693080637208118	-0.034241721831258	0.997007470779082	-0.775623103726749	-0.630370957480462	0.0322685129879094	0.627379624524543	-0.775538497078769	-0.0702484610525133	155.328394637785	-85.5663113420669	-26.2917231747229
49418	1651215230097	9.71445747690536	0.293104630045425	-0.691884246983942	0.0133852545328559	0.0185239370550909	-0.0692395293919663	-0.0264699078474876	-0.0162080070115007	-0.00623267547743859	0.3662109375	-0.306884765625	0.232666015625	0	0	0	-0.665240797109958	0.304453118235406	-0.610362137356987	-0.303679176003652	0.0695327201554979	-0.0343607282422718	0.996987733717139	-0.775777811987862	-0.630174513716961	0.0323862422784061	0.627163445407257	-0.775692866163052	-0.0704740386855077	155.318922217386	-85.5517069717175	-26.297031386498
49419	1651215230098	9.70342664642282	0.312480655509832	-0.704973039678365	-0.00903914692014195	0.0165244142434391	-0.0786869072416341	-0.0274952664215567	-0.0110212785391373	-0.0110678310740139	0.357421875	-0.302490234375	0.235107421875	0	0	0	-0.665249492143925	0.30451714644698	-0.610266758135114	-0.303787597899085	0.0696875828700946	-0.0343768089828851	0.996976366719832	-0.775942699108998	-0.629964805764984	0.032515706926471	0.626942236966984	-0.775862473961487	-0.0705751585559247	155.263316529396	-85.5433176761255	-26.2570734868202
49420	1651215230099	9.72088680933683	0.280061225264371	-0.724251564862809	0.00759667454388463	0.0510878192004414	-0.0609722810520008	-0.0261117290268936	-0.0109732686217652	-0.0141067753190873	0.36376953125	-0.306396484375	0.237060546875	0	0	0	-0.665293228740355	0.30455941576126	-0.610146108625913	-0.303891770523734	0.0699305767996323	-0.0344058716531789	0.996958349392921	-0.77607939656716	-0.62978670815822	0.0327027896544881	0.626745949051467	-0.776005759142945	-0.0707430358732123	155.190044266381	-85.530052365688	-26.1972044413475
49421	1651215230100	9.70903134956329	0.265460350932107	-0.739250367881778	0.0104155625600967	0.0725740021366179	-0.0722112768973364	-0.0276918737949757	-0.00878100749904821	-0.0124983339112189	0.365478515625	-0.30224609375	0.22802734375	0	0	0	-0.665296906050433	0.304615863080671	-0.610055715707238	-0.304008596082856	0.0700823993850958	-0.0343956191539471	0.99694804211626	-0.776244345811865	-0.629575898934697	0.0328466600384065	0.62652467859737	-0.776177253508234	-0.0708215944813218	155.118393012928	-85.5224812392023	-26.1412624843285
49422	1651215230101	9.73743684549977	0.214869134456265	-0.746479104036437	0.049590527693338	0.108901142059015	-0.0450491037626008	-0.0238460989317053	-0.00787588197605658	-0.0160825191649693	0.36962890625	-0.307861328125	0.22900390625	0	0	0	-0.665342807455711	0.304649952128203	-0.60993605328146	-0.304114067650071	0.0703328351514389	-0.034413040540743	0.9969298044197	-0.776373577220164	-0.629406081051223	0.0330462362472245	0.626336459815271	-0.776314193981073	-0.070985289529528	155.03630790858	-85.5091160965008	-26.0719671392379
49423	1651215230102	9.75920937541067	0.179920122528252	-0.72335231000071	0.0944405641185872	0.112891046072138	-0.0261602062868018	-0.0122266152876424	-0.00361619604877412	-0.0172859892263802	0.36181640625	-0.30615234375	0.234130859375	0	0	0	-0.665361598224443	0.304635413731151	-0.609878990985535	-0.304201947172483	0.0704897621106313	-0.0343326583170679	0.996921492400716	-0.776438164706625	-0.62931688007464	0.0332271100177112	0.626238748261871	-0.776390064996973	-0.07101758338187	154.926441479721	-85.5030379446762	-25.9688048080858
49424	1651215230103	9.76662159074254	0.200864692216448	-0.751561567915085	0.0632944654966184	0.121403709789473	-0.0160888058784536	-0.00503092350734352	-0.00406726868897507	-0.0215029050261066	0.365478515625	-0.29736328125	0.235595703125	0	0	0	-0.665426078993196	0.304612120383698	-0.6097907159647	-0.304261190812017	0.0707334776772121	-0.0343223989903915	0.996904583229123	-0.77646499653252	-0.629273167762002	0.0334273764230809	0.626177997294253	-0.776425948344284	-0.0711608209778241	154.838485416436	-85.4906983714498	-25.8843108632891
49425	1651215230104	9.77749824796462	0.184586320324853	-0.739926536834149	0.085722714118753	0.12339331208296	-0.00664530872115065	0.00968733372424099	0.000336822250303736	-0.0212873923312813	0.366943359375	-0.3115234375	0.227783203125	0	0	0	-0.665472296123739	0.304511568097995	-0.609773922059813	-0.30429441658054	0.0708969377405863	-0.0341864251183895	0.996897643971853	-0.776389624555263	-0.629355225864818	0.0336325818155747	0.626252964146234	-0.776365434582368	-0.0711613440274037	154.703442905829	-85.4856441463298	-25.7433134900748
49426	1651215230105	9.72118203587115	0.209356698132575	-0.803611699154143	0.0244588533761853	0.159287995678862	-0.0574307793646582	0.0165771195859708	0.000648691173688744	-0.0199668953688604	0.366455078125	-0.304931640625	0.242919921875	0	0	0	-0.665554911724904	0.304422122545021	-0.609740907611411	-0.304269381254919	0.0710863937807936	-0.0341683004256449	0.996884773614917	-0.776270255164593	-0.629494629871865	0.0337787197682316	0.626379450146586	-0.776253204958605	-0.0712723384319222	154.641915946201	-85.4762849086524	-25.6716759407346
49427	1651215230106	9.75555019325716	0.225099602763284	-0.763481899057972	0.0412535610755264	0.118291979490805	-0.0255203132489576	0.0235212070160347	0.00170003309804345	-0.0221310139376447	0.368896484375	-0.309814453125	0.234375	0	0	0	-0.665619416207	0.304274488914683	-0.609748231180093	-0.304261273803796	0.0712482599369135	-0.0340164683192156	0.99687841050905	-0.776107562393082	-0.629684225318	0.0339827600694533	0.626562636176328	-0.776106085705271	-0.0712643436720787	154.505625357538	-85.4716648316134	-25.521478777272
49428	1651215230107	9.79311427122683	0.262676794251852	-0.79306364958268	-0.00221231386204715	0.1163729717697	0.0153077726131148	0.0346417653970429	0.00370724684206144	-0.0203781774994136	0.361572265625	-0.30712890625	0.236572265625	0	0	0	-0.665720851233973	0.304125403316122	-0.609757143979748	-0.304170532194986	0.0714079288469334	-0.0339849347669388	0.996868061433748	-0.775865554742998	-0.62997605280405	0.0341000565508182	0.626844118311029	-0.775870605901729	-0.0713530254197591	154.456573168819	-85.464160681272	-25.4510207394667
49429	1651215230108	9.79387221649343	0.2989021585297	-0.790414544116842	-0.0274507371527651	0.0928826399593707	0.0170964411351306	0.0382340110554023	0.00611680878341465	-0.0219089304213025	0.361083984375	-0.302734375	0.23388671875	0	0	0	-0.66579383437196	0.303926746047908	-0.609801997687928	-0.304119428456693	0.0715401133050849	-0.0337998372216545	0.996864877098238	-0.775610377256064	-0.63027981254381	0.0342914069767692	0.627144763895069	-0.775631954539993	-0.0713057937019728	154.316804599663	-85.4618541997768	-25.2888577295329
49430	1651215230109	9.73438640011279	0.301704286354824	-0.783639851212251	-0.0287705226267613	0.0882919525624783	-0.0425915636522074	0.0422659391277225	0.010051181461984	-0.0229087055540656	0.370849609375	-0.307373046875	0.23095703125	0	0	0	-0.665881472882516	0.303738313373368	-0.60985575666905	-0.304007988576837	0.0716379860934453	-0.0337053871458928	0.996861046398053	-0.775309474773744	-0.630644359741135	0.0343934565397983	0.627505551588618	-0.775339692266583	-0.071310197878173	154.251629418618	-85.4590810918177	-25.1967977425474
49431	1651215230109	9.79464770622312	0.337025023069745	-0.786574668393793	-0.0528668120367351	0.0681066178754633	0.0188931586495222	0.0458021307929953	0.0117272164888937	-0.0209524743242851	0.368896484375	-0.306884765625	0.234375	0	0	0	-0.66594716757591	0.303511217237371	-0.609932377031839	-0.303937175180995	0.0717268729187593	-0.0334826234405148	0.996862161800135	-0.775007118346462	-0.631006269108173	0.0345695654947797	0.627868793788647	-0.775054838236447	-0.0712093779825754	154.105111718118	-85.4598883756181	-25.0235069282149
49432	1651215230110	9.75434453644553	0.374896961836354	-0.793222452988734	-0.0879175387808795	0.0510110561500672	-0.0194930493141019	0.0445244194825948	0.0131571019671726	-0.0248773616276317	0.3671875	-0.30810546875	0.234375	0	0	0	-0.666049768997641	0.303332687108808	-0.60995276969976	-0.303849641903905	0.0718937993338827	-0.0334014710533757	0.996852859427514	-0.774737193659644	-0.631329352092439	0.0347207423152471	0.628182746004472	-0.774795192885199	-0.0712660277009201	154.024699320074	-85.4531600649622	-24.9193265666427
49433	1651215230112	9.7777869346181	0.409284408777226	-0.76357464746027	-0.0935476063087847	0.00801139858972238	0.00295634159358471	0.0443140259756573	0.0206591596894621	-0.0251655644995637	0.36376953125	-0.304443359375	0.227783203125	0	0	0	-0.666092440720508	0.303082638939879	-0.610050096009819	-0.303810228179774	0.0719595886632998	-0.0330831916832809	0.996858726213227	-0.774441027162625	-0.631680518453186	0.0349402068398754	0.628540303438616	-0.774522578776605	-0.0710764512235293	153.821902678928	-85.4574022926735	-24.6904561134209
49434	1651215230113	9.70740471044315	0.430630343558801	-0.767377175754641	-0.116709250196277	0.00115044962525276	-0.0661806410230916	0.0407627416883613	0.0242524572360721	-0.0259694431185139	0.369140625	-0.298583984375	0.24169921875	0	0	0	-0.666151331197497	0.302891593974643	-0.61010814648748	-0.303755058942095	0.0720494637782245	-0.0328964050747673	0.996858415875809	-0.774190149064193	-0.631979092933169	0.0351004157714855	0.628838999952478	-0.774286931717516	-0.0710018275133937	153.694081068656	-85.4571777910425	-24.5405308798646
49435	1651215230115	9.68904558233392	0.432383053063724	-0.749260530360372	-0.107472942853718	-0.010258327953084	-0.0856994317663346	0.0417042422382594	0.0227816671472923	-0.0295296334581904	0.3681640625	-0.304931640625	0.23779296875	0	0	0	-0.666190128525935	0.302632027067814	-0.610201652096631	-0.3037408642675	0.0721355999427372	-0.0325345836461683	0.99686406098719	-0.773907292387315	-0.632310687133717	0.0353652050216235	0.629177207160778	-0.774031456598152	-0.0707908623051497	153.454523388819	-85.4612632615982	-24.2763172620487
49436	1651215230116	9.68561126672358	0.471858415745171	-0.786801660695728	-0.160622569969952	-0.00389463438059845	-0.0850485337108981	0.0320335290173766	0.0276291498809627	-0.0236371738212587	0.361328125	-0.30224609375	0.2265625	0	0	0	-0.666244998677207	0.302411516523964	-0.61026724796059	-0.303708351017705	0.0722423214805695	-0.0322738017365137	0.996864809645004	-0.773646839969408	-0.632617024391566	0.0355846519627595	0.629485197595978	-0.773792027725431	-0.0706702471774298	153.273333754837	-85.4618053546264	-24.0724025953631
49437	1651215230117	9.65981210601172	0.454417252806849	-0.740536354710789	-0.119730516361946	-0.0247020237020005	-0.114650823239847	0.0286938786318962	0.0237217772545589	-0.0241472981951364	0.361328125	-0.303955078125	0.231689453125	0	0	0	-0.666253068754878	0.302207603858463	-0.610352417319598	-0.303722470714562	0.0722809816845006	-0.0319379985536916	0.99687282234752	-0.773448975333346	-0.632846449906337	0.0358057732320288	0.62972386189704	-0.773618339421533	-0.0704451749103318	153.05674473104	-85.4676112964267	-23.838667475084
49438	1651215230118	9.61741814620169	0.389021468531878	-0.752764821679304	-0.0789983612382824	0.0291491877445628	-0.158380897121992	0.025101323215105	0.0213145674071974	-0.0226116021867405	0.369384765625	-0.296630859375	0.241455078125	0	0	0	-0.666296156112659	0.30206098082906	-0.610382065561648	-0.303714224643458	0.0723857958025639	-0.0317607093193883	0.996870881262744	-0.773287572432702	-0.633033667219619	0.0359820300653071	0.629910014912582	-0.773472451681384	-0.0703828075798379	152.92237237311	-85.4662041205421	-23.6904204751966
49439	1651215230119	9.71475592999947	0.367444643425584	-0.677031086840866	-0.00694661485168245	-0.0160281376064816	-0.067454501500757	0.0300896771911586	0.0185148485530104	-0.0283124746686496	0.366943359375	-0.305419921875	0.2333984375	0	0	0	-0.666328479550688	0.301847247225029	-0.610445385750329	-0.3037285427787	0.0724893407176081	-0.0314394596801711	0.99687354055434	-0.773078209519886	-0.633274423288399	0.0362434376718385	0.63015504238866	-0.77328847475167	-0.0702108066353189	152.696818017969	-85.4681320659691	-23.4469315411846
49440	1651215230121	9.76330213568489	0.387453046458413	-0.693225511140593	-0.0269871692041179	-0.0156556024936903	-0.0171896283892732	0.0363357024318193	0.0195610761187654	-0.0289415942520602	0.36962890625	-0.298583984375	0.234130859375	0	0	0	-0.666426448994725	0.301605174235757	-0.610472106683902	-0.303700368645509	0.0727162516702745	-0.0311941228333387	0.996864721736949	-0.772796538224146	-0.633600809917601	0.0365448242646954	0.630474311333779	-0.773031008674568	-0.0701797860910009	152.492587829332	-85.4617416982404	-23.2185676069223
49441	1651215230121	9.69285956746571	0.408716161783524	-0.6975050158429	-0.0505677802632753	-0.0209140476648613	-0.0863265966269875	0.0362214422800761	0.0181017880443098	-0.0219682401871806	0.370361328125	-0.296875	0.23681640625	0	0	0	-0.666459885450246	0.30139410347026	-0.610552818874526	-0.303674284132478	0.0727736995154567	-0.0309157789547612	0.996869200683046	-0.772552539741915	-0.63388704709997	0.0367394183023785	0.63076664623072	-0.77280749616609	-0.0700143690419938	152.312156325808	-85.4649861479311	-23.0167933353498
49442	1651215230121	9.6512051064724	0.37696531245449	-0.707981692737559	-0.0341127764261272	0.00988888219620107	-0.12827518688646	0.0407141292891954	0.0191425506053062	-0.0105470985933086	0.362548828125	-0.294189453125	0.237548828125	0	0	0	-0.666550331224873	0.301188939825079	-0.610601312247417	-0.303581810971588	0.0729025200175543	-0.0307802708959516	0.996863981443137	-0.772250079510747	-0.634246613148512	0.0368923895307146	0.631122046256296	-0.772517837097121	-0.0700082430578864	152.212021405411	-85.4612056686187	-22.8900226380669
49443	1651215230123	9.72856810461493	0.343142806399237	-0.730560021113391	-0.0168794186248374	0.0480242728188056	-0.0508273512322255	0.0369418505739189	0.0137031071225023	-0.0115861036632334	0.3583984375	-0.303466796875	0.237548828125	0	0	0	-0.666583019919862	0.301016426210808	-0.610683830633613	-0.303515152353959	0.0729087403078606	-0.0306012850684489	0.996869037004801	-0.77200846864789	-0.634535326885653	0.0369843652109653	0.631416851155131	-0.772287822179191	-0.0698876225884203	152.112312291227	-85.4648675422483	-22.7687862536491
49444	1651215230124	9.73482511380367	0.293648828316839	-0.761151338571093	0.0023772189645728	0.103889993216061	-0.0442892372505472	0.0448779422532866	0.0201285019858596	-0.00661731291386739	0.372314453125	-0.300048828125	0.238037109375	0	0	0	-0.666635840038963	0.300803198523829	-0.610800865548031	-0.303375007505821	0.0728794768072212	-0.0304489515282881	0.996875841422157	-0.77165582020907	-0.634962081157355	0.0370195979149974	0.631851150982391	-0.771943013986881	-0.0697718149332396	152.050428806238	-85.4698008203576	-22.6751092542199
49445	1651215230125	9.73429781778193	0.259702909085745	-0.761440187463027	0.0276435319295946	0.127383207993605	-0.0460707610762014	0.0578807524670028	0.0192197020701762	-0.0119581431942774	0.363525390625	-0.2998046875	0.243408203125	0	0	0	-0.666683766926661	0.300556870172663	-0.61093294437964	-0.303247852721357	0.0728530105272731	-0.030224565685072	0.996884604398253	-0.771280979844521	-0.635412615223798	0.0371006542331633	0.632311702396206	-0.77158102882562	-0.069603354583019	151.941059705384	-85.4761619841202	-22.5321205996087
49446	1651215230126	9.80206566387952	0.312692586105768	-0.791348272096603	-0.0270645328014223	0.115811973750731	0.0255215565996298	0.0615876408727632	0.0239466555258693	-0.00742263905875456	0.364013671875	-0.303466796875	0.251953125	0	0	0	-0.666769056720519	0.30028947890558	-0.61106010957931	-0.303068963009355	0.0728635426790731	-0.0300607576927718	0.996888787676535	-0.770834172679108	-0.635950865038099	0.037164169402911	0.6328551037784	-0.771143856945142	-0.0695094922827119	151.8682227036	-85.479201832613	-22.4192025455573
49447	1651215230126	9.88501565831336	0.344456648454578	-0.766551615764934	-0.0314573534620589	0.076060996528806	0.107645831061792	0.069752985631235	0.034148594030176	-0.00336005250370095	0.361328125	-0.299072265625	0.237548828125	0	0	0	-0.666776399785461	0.300012361679803	-0.61127279542638	-0.302898308182904	0.0726763048218526	-0.0297753336782149	0.996911021215932	-0.770389315969754	-0.636490395478484	0.0371520968896412	0.633418074068853	-0.770709676835574	-0.0691963689431069	151.768284823339	-85.4953925557314	-22.2788123048627
49448	1651215230127	9.89966924928309	0.34717829830372	-0.820790189872789	-0.0693898934273532	0.117766116267213	0.126074891624579	0.073928065522132	0.0464079408857138	-0.000648738148791014	0.365234375	-0.306640625	0.242431640625	0	0	0	-0.666779020338179	0.299687222531569	-0.611543435025105	-0.302668025674778	0.0724043914580192	-0.0294610171080983	0.996940144927744	-0.769839593481779	-0.637159269770892	0.0370818722940612	0.634117185073392	-0.770168886294416	-0.0688133866236554	151.680844732299	-85.5166890565911	-22.1411837343089
49449	1651215230128	9.90074941782438	0.380934512377192	-0.813819547405866	-0.0946061425373108	0.0942836084613083	0.127856381803108	0.0747487607789581	0.0600186041997752	0.00267611808995872	0.364501953125	-0.3056640625	0.23779296875	0	0	0	-0.666705176065698	0.299375269568524	-0.611859450134854	-0.302500693319295	0.0720049225028953	-0.0290142678552849	0.996982178073497	-0.769365899374308	-0.637735557024239	0.0370063803545312	0.63473727164498	-0.769708731643214	-0.0682426876440395	151.530080097427	-85.5476047150649	-21.9468910148098
49450	1651215230129	9.91915135368758	0.3463974502882	-0.825180831080818	-0.0782213384518732	0.127860864027107	0.145626078550974	0.0754857339823023	0.0773188504792424	-0.00240979953477795	0.37060546875	-0.3046875	0.247802734375	0	0	0	-0.666611061197541	0.299067766003472	-0.612188658764147	-0.30234617660446	0.0715670348364951	-0.0285379610552	0.997027454137309	-0.768909562407009	-0.638290521660715	0.0369228221721265	0.635339471750161	-0.769266400369147	-0.067623671146439	151.36526540918	-85.5811470346003	-21.7400602830283
49451	1651215230131	9.93206960947074	0.396646430616297	-0.801035045122652	-0.106249585182746	0.0828680849620772	0.158612919203751	0.0740757634526508	0.093841115725261	0.000538160651763099	0.3681640625	-0.30908203125	0.23681640625	0	0	0	-0.666435259545445	0.298699811180355	-0.612613004515021	-0.302237943240907	0.0709674589997972	-0.0278183834058069	0.997090646484962	-0.768437961354816	-0.638861296932653	0.0368692667459362	0.635976980174571	-0.768818821847005	-0.0667150647291703	151.073301018553	-85.6283918473241	-21.4045772202601
49452	1651215230132	9.87330337563505	0.39691663374151	-0.786133471927345	-0.106512960339993	0.0781889290452392	0.0989322003372717	0.0712061098454894	0.0974704554746777	-0.00178359203825763	0.36279296875	-0.295654296875	0.242431640625	0	0	0	-0.666287227692638	0.298381808307794	-0.612978320222438	-0.302137726247334	0.0704517508164993	-0.0272082238807971	0.997144053464766	-0.768023727524468	-0.639362181698124	0.0368178567224968	0.636534449002026	-0.768424175288277	-0.0659407466307396	150.8232983739	-85.6687217852724	-21.1163893415187
49453	1651215230132	9.84796910476583	0.37765583502659	-0.732058068392382	-0.0656389985172529	0.0574287439607823	0.0692867239246091	0.0701760382717736	0.113940959385602	-0.00784617265086162	0.372802734375	-0.31005859375	0.239013671875	0	0	0	-0.666055897678191	0.297967526541223	-0.613450678351864	-0.302097930354782	0.0697872367130868	-0.026281696129058	0.997215630663966	-0.7675704173484	-0.639904387204526	0.0368514538112756	0.637154138339818	-0.768004978945437	-0.0648302114099898	150.384789716034	-85.7233680857162	-20.6362465536065
49454	1651215230133	9.82696957406417	0.414076909115309	-0.745290395864057	-0.109284661396325	0.0520548574166554	0.0504553979025566	0.0665419436443868	0.11683799932202	-0.00516566466512896	0.36572265625	-0.3125	0.249267578125	0	0	0	-0.665858337414619	0.297610117789171	-0.613861512242785	-0.302051214319619	0.0692045231530345	-0.025497126063711	0.997276606833657	-0.767167586851754	-0.64038656343512	0.0368638448322292	0.637702616945562	-0.767629432691483	-0.0638782154300901	150.010939579836	-85.7704767751989	-20.2253863288027
49455	1651215230133	9.78621550965156	0.381211981451955	-0.746043206043828	-0.0944529656935637	0.0837072601509339	0.00851304539586728	0.0599535472785472	0.121006881741154	-0.0108998272536472	0.368896484375	-0.306640625	0.24951171875	0	0	0	-0.6655939817031	0.297206237755834	-0.614336834806644	-0.302065153831737	0.0685174112775543	-0.0244978653290656	0.997349095826603	-0.76677686737055	-0.640850190159263	0.03693601816983	0.638246504116731	-0.76727497572067	-0.0626937924807276	149.495554682823	-85.8271705887643	-19.6741133684769
49456	1651215230134	9.7722842130889	0.379115643667024	-0.676406014007184	-0.0559850964158323	0.0401627699363448	-0.00993095092074192	0.0539271830589238	0.123755657325725	-0.0111818680323734	0.3681640625	-0.30078125	0.25341796875	0	0	0	-0.665334998545638	0.29686961477728	-0.614770397187871	-0.302084640910014	0.0678515811269126	-0.0236101000789632	0.997416024591965	-0.766460878785381	-0.641226603096515	0.0369616662617692	0.63869702068361	-0.766988270220325	-0.0616044569354707	149.036932742028	-85.8802071473049	-19.1862017466312
49457	1651215230135	9.75385394278785	0.345106294261314	-0.650390079553036	-0.0215364060871829	0.0522888616157405	-0.0312476908956718	0.0513251776453825	0.125878548040091	-0.0155455257790675	0.3642578125	-0.296142578125	0.2529296875	0	0	0	-0.665048504768323	0.29646943476535	-0.615242022670931	-0.302148331279709	0.0671662555793911	-0.0225444076340619	0.997487064475461	-0.766121809566761	-0.641624520309602	0.0370856824613464	0.639176084516305	-0.766687501281912	-0.0603672788893372	148.436172309765	-85.9372575559987	-18.5543687432045
49458	1651215230136	9.74683529098537	0.327853719389967	-0.610251293368059	0.0110849345279086	0.0424873445794547	-0.0413644005216067	0.0489206959349067	0.125767933461331	-0.018465496665795	0.3623046875	-0.302490234375	0.241455078125	0	0	0	-0.664825362988217	0.296007226076903	-0.615691604754531	-0.302176780498822	0.0666071398900946	-0.0214908092376696	0.997547810400069	-0.76568163685718	-0.642137830875247	0.0372912474790285	0.639761768078846	-0.766287903647932	-0.0592260823243138	147.80374565855	-85.9866832195211	-17.8823078513269
49459	1651215230137	9.72829463019783	0.294498454090118	-0.584112265163417	0.0455259420184043	0.0546348883061974	-0.0626841467685786	0.0482751724565522	0.126509670227793	-0.0203976211813681	0.366943359375	-0.303466796875	0.24951171875	0	0	0	-0.664538813833248	0.295598087324998	-0.616153541943106	-0.302266022618929	0.0659531670415348	-0.0203882437532461	0.997614404103033	-0.765357365536078	-0.642514044679872	0.037467391272743	0.640217371505073	-0.766002625260364	-0.0579801286421956	147.129014904864	-86.0415747776639	-17.1780600046447
49460	1651215230138	9.73678148653182	0.315123763710778	-0.600092759697409	0.0146512103143204	0.0627139036781698	-0.0525558098372674	0.0526605644098364	0.124427059757708	-0.0279753683491793	0.365966796875	-0.3046875	0.25439453125	0	0	0	-0.664313848907684	0.295199904869129	-0.61654929784167	-0.302342669244119	0.0654479589924006	-0.0193924491415112	0.997667528578546	-0.765029090861662	-0.642891853039197	0.0376902564491881	0.640661419783576	-0.765711432729146	-0.0569117473705691	146.485166496365	-86.0859150523012	-16.5047326227014
49461	1651215230139	9.71760366585586	0.247951861035916	-0.575968892651833	0.0743250475436439	0.0983568003291573	-0.0756533627609084	0.0559157435239696	0.122411247370008	-0.0250331883157513	0.37109375	-0.302734375	0.25341796875	0	0	0	-0.664057691937222	0.294757988532883	-0.617001299688368	-0.30241446089419	0.0648542487578271	-0.0182923882578646	0.997727074379503	-0.764652849922954	-0.64332644407625	0.0379091737830339	0.641170761593791	-0.765373421856306	-0.0557097800498827	145.765648795684	-86.1362186978895	-15.7513080770984
49462	1651215230140	9.71823617377058	0.25028770517887	-0.564166098582835	0.0750960685325883	0.097434775343421	-0.0756500086647431	0.0642469947600723	0.123576305230746	-0.0300870950504742	0.359130859375	-0.2978515625	0.24755859375	0	0	0	-0.663858910107426	0.294284504992938	-0.617423097768638	-0.302451146358912	0.0643706969256795	-0.0172461340750402	0.997777021301236	-0.764207428909421	-0.643839868374483	0.0381736753690374	0.64175027773812	-0.764965878161238	-0.0546240448159168	145.052463717752	-86.1789232066805	-14.9983870709168
49463	1651215230141	9.78924639087746	0.234185863409255	-0.544848242746057	0.0987453665037195	0.102641797562496	-0.00652863098594913	0.0745257387809853	0.12336922157695	-0.0326910694703235	0.3671875	-0.30419921875	0.250244140625	0	0	0	-0.663638478809485	0.293757645682077	-0.617893804556869	-0.302485803529676	0.0638273837871215	-0.0160895463034315	0.99783124403811	-0.763705962173005	-0.644417568532659	0.0384603784154634	0.642401174049594	-0.764504495648133	-0.0534191699064869	144.247118587016	-86.2258296857166	-14.1483022212713
49464	1651215230142	9.83866662432307	0.254425097032976	-0.549746452297622	0.0779359606815744	0.102632874828564	0.0437669853320397	0.084990376330658	0.132236035820632	-0.0350769066500351	0.35107421875	-0.30029296875	0.25732421875	0	0	0	-0.663439567996359	0.293214707858963	-0.618370656682776	-0.302474471097479	0.0632857320977899	-0.0149778035796115	0.997883050017775	-0.763143152868905	-0.645068658858968	0.038716321974086	0.643123195307209	-0.763977807765268	-0.0522538505760251	143.464230854633	-86.2711958485998	-13.3151674907999
49465	1651215230143	9.85009297779259	0.239376125337497	-0.524234429763598	0.100361103595506	0.104636696792489	0.0531839857020664	0.0969672001602471	0.138204211509148	-0.0355323528110384	0.3681640625	-0.30029296875	0.2607421875	0	0	0	-0.663210486924232	0.292586367485403	-0.618918500303338	-0.302464803865982	0.0626662150879291	-0.0136905688882189	0.997940636415849	-0.762494820101326	-0.64581651996802	0.0390214281522679	0.643952323394519	-0.763369891245334	-0.0509098648091612	142.530532214696	-86.3222796432383	-12.3236722305962
49466	1651215230144	9.93016284348785	0.311298384563492	-0.527283244711616	0.0411445907681686	0.0717267526263499	0.135991534737244	0.102542569684342	0.151356424447968	-0.0392310151980435	0.369384765625	-0.2919921875	0.26025390625	0	0	0	-0.662960319456849	0.291884034632523	-0.619553515177343	-0.30239174423868	0.0619143043160764	-0.0123193294812989	0.998005437381073	-0.761710801896026	-0.646725886685859	0.0392718953617279	0.644952147989266	-0.762623014084627	-0.0494253496953741	141.530403169229	-86.380624185524	-11.2533903440282
49467	1651215230145	9.91641437178364	0.300429855374047	-0.568065036286582	0.0150540662253066	0.124174096381613	0.123738618363214	0.111981597367987	0.165440036507586	-0.0464310435245546	0.36962890625	-0.30029296875	0.251220703125	0	0	0	-0.662683681882698	0.291130875491947	-0.620197075063644	-0.302404925859658	0.061196802835587	-0.0107540599554774	0.99806778402931	-0.760956661967469	-0.647588148302215	0.039680584494638	0.645910140754911	-0.761914654257932	-0.0478136977966316	140.31072185347	-86.4376595853497	-9.96677430173101
49468	1651215230146	9.92348397832601	0.300658435984601	-0.466976872037597	0.0741934285818072	0.0615007538270527	0.125857947735165	0.118998559687232	0.181024216020967	-0.047058127173201	0.364501953125	-0.300537109375	0.265869140625	0	0	0	-0.662437823063105	0.290317433120891	-0.620846437568261	-0.302393153957413	0.0605309779697933	-0.0091550720287617	0.998124333618898	-0.760113921546725	-0.64854833693157	0.040148236999336	0.646964316617911	-0.761118413467605	-0.0462161627969757	139.018972554612	-86.4901922113626	-8.60057587194476
49469	1651215230147	9.89198882919302	0.359157662005953	-0.486542686543418	0.00686289732499227	0.0555886863675741	0.0976099346502508	0.125637772320896	0.193440210888343	-0.0577205691778388	0.367431640625	-0.305419921875	0.2685546875	0	0	0	-0.662110228963443	0.289440665503474	-0.621583845706676	-0.302436222386443	0.0597152478188097	-0.00730431023174372	0.998188727761427	-0.759262190999602	-0.649512865083049	0.0406689489671545	0.648039361841873	-0.760315516837351	-0.0443317082902338	137.467403311997	-86.5509851083018	-6.97372081119169
49470	1651215230148	9.81502082280437	0.433423623370658	-0.444972159844254	-0.0360993675539906	-0.00650600477469466	0.0219001528194802	0.125320647412117	0.201118613784649	-0.0579298588856029	0.362548828125	-0.2900390625	0.259765625	0	0	0	-0.661762782355096	0.288550600345164	-0.622365306052333	-0.302440071340546	0.0587999537256638	-0.00544768114460198	0.998254921456442	-0.758360511393994	-0.650537108575943	0.0411194008211815	0.649177864841448	-0.759454931602791	-0.0423828581398243	135.866865749418	-86.6146132014948	-5.29321242075397
49471	1651215230148	9.78601218452951	0.456169305825582	-0.423000045026264	-0.0493590832096987	-0.0197970803590523	-0.00706690140061106	0.124645352353558	0.201949504150977	-0.0597797022993427	0.36181640625	-0.2939453125	0.266357421875	0	0	0	-0.66140770163212	0.287655794435831	-0.623125485691246	-0.302503925976602	0.0579375460190807	-0.00351970412257191	0.998314004932405	-0.757511327313286	-0.651491037392468	0.0416655395902973	0.650245976345376	-0.758648166069211	-0.0404120077015842	134.125016454717	-86.6724329348453	-3.47644435399796
49472	1651215230149	9.73759270206097	0.444194182065405	-0.387000870957769	-0.0277335210891965	-0.021162882165225	-0.0573534842236931	0.116831742984717	0.203902351076534	-0.0610747460108238	0.357421875	-0.299560546875	0.265869140625	0	0	0	-0.661080710297474	0.286713108236071	-0.623889367293244	-0.302539163442742	0.0571153018880941	-0.00157907596515738	0.998366339982137	-0.756582945012035	-0.652531296297954	0.0422510907388999	0.6513985643269	-0.757760129507226	-0.0384642239236035	132.3138616648	-86.7244999362589	-1.58366224244015
49473	1651215230149	9.71944516462349	0.483839670832189	-0.351207341325367	-0.0437757182497247	-0.0559618975848572	-0.075132159193096	0.117259310879969	0.200271368894874	-0.0615290025670711	0.353515625	-0.299560546875	0.270751953125	0	0	0	-0.660720247051294	0.28583613921455	-0.624629385873441	-0.302629454876365	0.0562716636445758	0.000347052057224462	0.998415434288524	-0.755777950129327	-0.653426229120309	0.0428235121857797	0.652405694310668	-0.75699012057786	-0.0365070866892043	130.447624901921	-86.7741057884695	0.353363749160655
49474	1651215230151	9.66046343024307	0.524466239106401	-0.327503645101053	-0.0718596031134855	-0.0829948224196806	-0.133080226578908	0.107075232615536	0.195999109202555	-0.0634752798336731	0.375732421875	-0.287109375	0.277099609375	0	0	0	-0.660330866550449	0.284986359828069	-0.625406804875612	-0.302675155584262	0.0552982062544491	0.00221962405770931	0.998467416420828	-0.754960783819018	-0.654341049807978	0.0432666780740869	0.653434253219415	-0.756196313006904	-0.0345081572146426	128.574773772336	-86.8274739568729	2.29857106884643
49475	1651215230152	9.68234302581301	0.529022767594205	-0.282466464871487	-0.0522712205988778	-0.102446164798391	-0.112472830613944	0.10188714439125	0.190554489821067	-0.0614772387778052	0.359130859375	-0.28662109375	0.275390625	0	0	0	-0.659974576723572	0.2841714279958	-0.626092482121886	-0.302800860995844	0.0545096066825662	0.00407084948214187	0.998504947891499	-0.754254521115988	-0.655116476182006	0.043846550730508	0.654315535621312	-0.755516929538554	-0.0326396848212617	126.664259712536	-86.8665705728468	4.27099611839213
49476	1651215230153	9.66126116475231	0.570407237300438	-0.290615756186491	-0.0958281670538742	-0.105309467081029	-0.13128826569249	0.10018427883948	0.184468460749032	-0.0634953739950076	0.357177734375	-0.296875	0.275390625	0	0	0	-0.659711774512813	0.283193261506715	-0.626774338070197	-0.302879316466164	0.0539110115477108	0.0060221080291345	0.998527584520723	-0.7533258243438	-0.656131392588358	0.0446295646046182	0.655434058628813	-0.754622640711865	-0.0308360975873114	124.641925704395	-86.890388595796	6.37377932583273
49477	1651215230154	9.62321366398123	0.575345117588196	-0.243149691364529	-0.0774406751095049	-0.127909223215401	-0.17038467820462	0.090920594617869	0.180316202362355	-0.0595045951588112	0.35888671875	-0.297119140625	0.280517578125	0	0	0	-0.659366835619309	0.282431503248325	-0.627412912515802	-0.303019569115113	0.0531709663626596	0.00778484766348858	0.99855507834216	-0.752688713967698	-0.656823173412366	0.0451997647578223	0.656225988666796	-0.754004452914813	-0.0290643558834586	122.741831066447	-86.9195647254354	8.32958604748064
49478	1651215230155	9.64497142709898	0.614318166043672	-0.198408034371635	-0.0842849500218989	-0.170462883322918	-0.14800733268676	0.0864693298337465	0.174850349139256	-0.0590380486011101	0.3623046875	-0.3037109375	0.277587890625	0	0	0	-0.659012123094904	0.281629606051869	-0.628110363528625	-0.303092655531201	0.052324272446015	0.00955662687587033	0.998584418762756	-0.751945925318365	-0.657639214316228	0.0456945203568517	0.657144958064888	-0.753272417307504	-0.0272244267819668	120.786144816604	-86.9510080764396	10.3505488269029
49479	1651215230157	9.64270910332854	0.6209285231005	-0.224489990065473	-0.11325064778806	-0.139476437204291	-0.149070837826484	0.0778113412355287	0.169987952457992	-0.0530985878260178	0.368896484375	-0.295654296875	0.281982421875	0	0	0	-0.65866832344437	0.280944422685001	-0.628706318611452	-0.303240228187506	0.0515971926004545	0.0111997112953743	0.998605175323387	-0.751396478779279	-0.658231190741962	0.0462063979608915	0.65783057195136	-0.752732532843718	-0.0255474578936507	118.93814930315	-86.9734494317001	12.2466729063331
49480	1651215230158	9.59598727301003	0.641311297268564	-0.149369225684544	-0.0885776598091774	-0.194776256221902	-0.196515686576348	0.0716083185897525	0.166012080077927	-0.0476450701719801	0.362060546875	-0.291259765625	0.271240234375	0	0	0	-0.658320683740107	0.280276184656948	-0.629307703370909	-0.303366036583093	0.0508341495843525	0.0127979484868216	0.998625105708126	-0.750844386564544	-0.658828616324021	0.0466643491017662	0.658520004556089	-0.752184197405865	-0.0238817246517949	117.102306786316	-86.9951551260524	14.131052438362
49481	1651215230160	9.5767172014952	0.645237517680814	-0.119115403262943	-0.0794424177093172	-0.205995248141158	-0.216059448342683	0.067046503351269	0.159814597648717	-0.0437363220684033	0.366943359375	-0.2939453125	0.2861328125	0	0	0	-0.65797776813589	0.279670012953128	-0.629869005176059	-0.303504492243908	0.0500994403466398	0.0143028433174011	0.998641815041805	-0.750369447067139	-0.659339414085131	0.0470874711790025	0.659117393933061	-0.75170936252445	-0.0223001190125803	115.341730877391	-87.0134743090431	15.9334658861017
49482	1651215230159	9.58497269475901	0.598179013356282	-0.134987993656991	-0.0600769187195612	-0.148792733066459	-0.20945998671052	0.0556415946740503	0.147117524013383	-0.0390194127384535	0.363525390625	-0.2939453125	0.282958984375	0	0	0	-0.657679436235709	0.27906061415616	-0.63038407272779	-0.303642641324619	0.0494821889558235	0.0157581149964459	0.99865068707126	-0.749887824571702	-0.659852639992391	0.0475683093476379	0.659711879183072	-0.751229775306351	-0.0208341344410669	113.652625366135	-87.0232468873263	17.6646144004992
49483	1651215230160	9.59364267450396	0.619698682850876	-0.149761149365402	-0.0918306004570655	-0.139307532303993	-0.199333087080685	0.0533267984688619	0.13799724467311	-0.0346825341820939	0.367919921875	-0.294677734375	0.288818359375	0	0	0	-0.657370850130482	0.278559036344929	-0.630867853364071	-0.303766654294245	0.0488212297247849	0.0170400531692044	0.998662167159721	-0.749506415303581	-0.660261366018929	0.0479068049612203	0.660194381184008	-0.75084257013758	-0.0194631426613777	112.110478127092	-87.0359400302413	19.2404979377442
49484	1651215230162	9.6148485166776	0.621607453800819	-0.109892542797963	-0.0719135491324244	-0.15751558619604	-0.178696067401361	0.0534117808346774	0.132178081838133	-0.0247833354785612	0.36572265625	-0.300537109375	0.28759765625	0	0	0	-0.65708095278609	0.27800100532131	-0.631378728890191	-0.303843649318316	0.0481526834906951	0.0183425032718751	0.99867155343805	-0.749019165079946	-0.660788955618539	0.0482519064442347	0.6607961935541	-0.750347591924092	-0.0180798749478704	110.540855043965	-87.0463586142087	20.8530280915706
49485	1651215230163	9.61458291425501	0.55473395577652	-0.100083230791688	-0.0216261593067943	-0.110262801978499	-0.182250470658976	0.0478454397346378	0.119016512560288	-0.0210721674057898	0.363525390625	-0.293701171875	0.2841796875	0	0	0	-0.656804024353362	0.277588584601759	-0.631813496395715	-0.303915707169343	0.0475125669420287	0.0193934921505005	0.99868235612971	-0.748678690074456	-0.661159641269101	0.0484576906724959	0.661228232164187	-0.749994547459595	-0.0168938974159599	109.220185191617	-87.0583950213912	22.2041066906562
49486	1651215230164	9.63402024932411	0.591221205527382	-0.103424948985337	-0.0561923910010715	-0.12145994447466	-0.160917231167277	0.052545016890266	0.108084889813533	-0.0137395732153306	0.3623046875	-0.291748046875	0.28369140625	0	0	0	-0.656555572237887	0.277145702101159	-0.63225779664124	-0.303932754004237	0.046880676786439	0.0204045966750507	0.998692071951397	-0.748250816820241	-0.661630281700511	0.0486424245360407	0.661757445951224	-0.749552548372314	-0.015749919259528	107.941422478204	-87.0692626185713	23.5208600048671
49487	1651215230165	9.61462315841415	0.557329903022276	-0.0797030021295251	-0.0218841420706573	-0.109086088918784	-0.182237652671848	0.0536851249774289	0.100713056041647	-0.00736851243843374	0.371826171875	-0.286376953125	0.28515625	0	0	0	-0.656325410103755	0.276786606952017	-0.632661799842311	-0.303916398511852	0.046256442464554	0.0212284247301847	0.998704007959314	-0.747876758006221	-0.66204799385515	0.0487114839280766	0.662224052994624	-0.749160735634113	-0.0147477394717445	106.844052047208	-87.0826689653576	24.6517646311784
49488	1651215230166	9.59533987953667	0.557285496237186	-0.0557752838474072	-0.0111901498420712	-0.11891874817527	-0.201758567991494	0.0540936206059125	0.0933247645426546	0.000487679039170194	0.361328125	-0.29931640625	0.29150390625	0	0	0	-0.656154006408963	0.276356692068545	-0.633036706085879	-0.303897067064389	0.0457830149937436	0.0220908952497935	0.998707118170861	-0.747421098044609	-0.662547102757188	0.0489186960767426	0.662771165437872	-0.748694416284187	-0.0138222027552045	105.77788321938	-87.0861724303418	25.7579086610101
49489	1651215230167	9.62533488371745	0.574168702262586	-0.0483446967228686	-0.0232772111530988	-0.128871966262906	-0.171010966567509	0.0568835132568517	0.08372939464956	0.00533340529620726	0.357177734375	-0.28466796875	0.2919921875	0	0	0	-0.655964875138935	0.276053127970426	-0.63340858648078	-0.303806378626464	0.0451764662203283	0.0227048264576009	0.998720970919993	-0.747029448940931	-0.662992709687235	0.0488637832815499	0.663254166451182	-0.74828146960693	-0.0129904937565883	104.887785635192	-87.1018281083841	26.6832261226929
49490	1651215230168	9.61484062988176	0.55655369809407	-0.0550653411077822	-0.0213521015337668	-0.105338521986449	-0.182194738155967	0.0498910593871764	0.0765495113000787	0.00961230828101658	0.36669921875	-0.293701171875	0.28857421875	0	0	0	-0.655760987784371	0.275668045255245	-0.633843393377625	-0.303689328750213	0.044499362993379	0.0234382500208833	0.998734426726716	-0.746527648649549	-0.663559840856794	0.0488344899009022	0.663864652240921	-0.747755966902348	-0.012030688549565	103.839592276317	-87.1171165109644	27.7762153109559
49491	1651215230169	9.61669840641563	0.588867651158471	-0.00527206904343299	-0.0177368512473018	-0.159494812695801	-0.179311809391905	0.0500422557376411	0.068281265460936	0.013453516189594	0.355224609375	-0.292236328125	0.286376953125	0	0	0	-0.655598194332666	0.275434558557944	-0.634168756536396	-0.30357338449347	0.0439315843701444	0.0238847130287326	0.998748985670706	-0.746182310018344	-0.663958008358341	0.0487003424270657	0.664290581079106	-0.747388308458435	-0.0113463769205225	103.115012569092	-87.1337500613438	28.5320301927224
49492	1651215230170	9.62561168007234	0.570836292973666	-0.0286609852746078	-0.0243718632157434	-0.12520484625989	-0.170965353704799	0.0440905526328673	0.0535064579715098	0.0165865564621538	0.35546875	-0.29052734375	0.296630859375	0	0	0	-0.655464007152469	0.275176326916062	-0.634478256277361	-0.303450600170527	0.0434306628324485	0.0243292594972305	0.99876016373214	-0.745801971152828	-0.664391444722264	0.0486151005801667	0.66475047751054	-0.746988684862214	-0.0107101511347728	102.424087494749	-87.1465867095788	29.2569487744205
49493	1651215230171	9.66610207206919	0.56855928711925	-0.0112873675559641	-0.0140589527699748	-0.133064262603751	-0.130796514201743	0.0428031730887652	0.0512550050218439	0.0210222337909805	0.361328125	-0.29052734375	0.287353515625	0	0	0	-0.655333273649545	0.275015442359832	-0.634749949653724	-0.303310580636403	0.0429180157564416	0.0245992112851045	0.998775711923193	-0.745506291868489	-0.664738396275269	0.0484069550981962	0.665115337898642	-0.746671107865796	-0.010190386177206	101.888032701696	-87.1645384749084	29.8199326767632
49494	1651215230172	9.6168774447197	0.549134734548003	0.00868850552752761	0.00652977375971316	-0.132116472629436	-0.181049023839259	0.0391476927434764	0.0456684765491706	0.019875401446837	0.37158203125	-0.294921875	0.28857421875	0	0	0	-0.655197681707929	0.274744489596551	-0.635075587558317	-0.303167381834433	0.0423889270475784	0.0250445010026613	0.998787240523868	-0.745092311585415	-0.665210008055972	0.0483020951768866	0.665612970186172	-0.746236167812645	-0.0095370733582274	101.169178809496	-87.1779229326655	30.5757189269974
49495	1651215230174	9.62739564411111	0.529471997082522	0.0257383883272057	0.0288089445317764	-0.129791117749867	-0.17162554524722	0.0338096061321582	0.0362528733366556	0.0226163849356751	0.36474609375	-0.2890625	0.29443359375	0	0	0	-0.655098074881205	0.274638561533437	-0.635289376523349	-0.303030659970832	0.0419621371908372	0.0251939321832623	0.998801504215689	-0.744854703978054	-0.665492159272973	0.0480796829020527	0.66590588599602	-0.74597952500544	-0.00915965438843191	100.786160276658	-87.1945710766408	30.9804697820855
49496	1651215230175	9.62750558533465	0.527309024406806	0.0288290549456401	0.0299654374400614	-0.127902426544744	-0.171603829231337	0.0318737226823734	0.031557439283542	0.0225036032256195	0.3701171875	-0.291015625	0.29248046875	0	0	0	-0.65503699951262	0.274449525171694	-0.635473745046249	-0.30294736631869	0.041701154979854	0.0254810078806125	0.998805152124644	-0.744579381825131	-0.665800702747202	0.0480725325132489	0.666230108771926	-0.745694402861333	-0.00879202519492905	100.364326565529	-87.1988446797175	31.4265331292061
49497	1651215230176	9.62761879220374	0.525085682318564	0.0314800081559402	0.0298229425479905	-0.12761257191589	-0.171599546428204	0.0292029908503903	0.0268510695789664	0.0238750614916764	0.364501953125	-0.286376953125	0.289306640625	0	0	0	-0.654958761136235	0.274375077934567	-0.635652551507134	-0.30280880367281	0.0413283007417413	0.0255536550855249	0.998818793510399	-0.744371099608253	-0.666050290053284	0.0478401211112258	0.666486037082398	-0.745468994547531	-0.00850532436142376	100.081078556184	-87.2148839184431	31.7288696367883
49498	1651215230177	9.62773480785789	0.522835096528487	0.0333937795758342	0.0312788569045666	-0.125448151614851	-0.171575753977441	0.0211642562832182	0.0156459221645947	0.0230476870846167	0.3603515625	-0.294189453125	0.301025390625	0	0	0	-0.654937828707759	0.27422985105026	-0.635765429100183	-0.302748655623073	0.0412006159080246	0.0257472514759946	0.998819096879025	-0.744161264330832	-0.666282480622748	0.0478713764658418	0.666728221930298	-0.745254812166033	-0.00829114135896358	99.8259368121573	-87.2152416617718	32.0022495703005
49499	1651215230178	9.63670267245063	0.504244754027608	0.00598366749931482	0.0246391673725189	-0.0922610055390506	-0.163271972822532	0.01941602708039	0.0176773286751746	0.0170795307035267	0.3603515625	-0.291259765625	0.292724609375	0	0	0	-0.654883678548662	0.274176382191026	-0.635890641737959	-0.302651236193247	0.0409408063974551	0.0257989021305743	0.99882844724226	-0.744013453092267	-0.666459081358679	0.0477103185093798	0.666909163221835	-0.745095100992754	-0.00809064196157333	99.6245691793602	-87.2262905600051	32.217132834082
49500	1651215230179	9.62622866543657	0.485872728887211	-0.00671062340520749	0.0264242232022357	-0.0683588951152048	-0.174480878568026	0.0176343580481865	0.0136611428840235	0.0134875068523342	0.366455078125	-0.293701171875	0.291015625	0	0	0	-0.654808386679895	0.274007403819463	-0.636080909385248	-0.302567341432328	0.0406420387355068	0.0260699273103656	0.998833611557728	-0.743759311443842	-0.666745893101383	0.0476655082111047	0.667210844732012	-0.744829022610205	-0.00770816122841794	99.18598292356	-87.2324118904626	32.6782336399324
49501	1651215230181	9.68605583146523	0.484357403223604	-0.00786228308032643	0.0274823114464638	-0.0647064858790523	-0.114780417123173	0.0177523999570403	0.00830082524065634	0.0123910229458677	0.3583984375	-0.289306640625	0.29443359375	0	0	0	-0.654787342958255	0.273956582129073	-0.636167429678857	-0.302476987596779	0.0404775850479069	0.0260854104764505	0.998839885301426	-0.743618620469334	-0.66691092616507	0.0475516966357095	0.66737763852258	-0.744680715422338	-0.00759734678035046	99.077441711942	-87.2398664899141	32.7993869212793
49502	1651215230182	9.64707383312193	0.448395263260313	0.0216388380904054	0.0711470930378814	-0.0618499600731062	-0.15563436013681	0.0175062153650812	0.00742101687541524	0.00838207831087954	0.355224609375	-0.291748046875	0.29833984375	0	0	0	-0.654765167710904	0.273806506743947	-0.636277335895977	-0.302429700661668	0.0403622973795899	0.0263004018485736	0.998838912844731	-0.743416255082723	-0.667132546044741	0.0476071180249468	0.667610033349575	-0.744474616673037	-0.00737485596562348	98.805741132032	-87.2387096786591	33.0885933218156
49503	1651215230183	9.68595455906779	0.448116571521754	-0.00737557342212439	0.0524930931147426	-0.0387424677836391	-0.116589073113536	0.0178418518648536	0.00586519762003168	0.0063637380429377	0.360595703125	-0.28564453125	0.29296875	0	0	0	-0.654760127847673	0.273738131747471	-0.636347569143408	-0.302354727850549	0.0402584129453607	0.0263397638939136	0.998842068109435	-0.743271020452941	-0.667298107547649	0.0475544510868263	0.667777994802138	-0.74432482996427	-0.00728677958339224	98.7116853129792	-87.2424648720085	33.1954125807508
49504	1651215230184	9.67542925833068	0.430640740852217	-0.0211359523996831	0.054349415809731	-0.0146192374199463	-0.1278196858801	0.0208120276968813	0.00297493450996419	0.00535759098205166	0.358642578125	-0.290283203125	0.2919921875	0	0	0	-0.654735144810799	0.273539046626171	-0.636494790254022	-0.302279112907121	0.040101543900668	0.0266069065275907	0.99884129805581	-0.742989415744368	-0.667607455741859	0.0476131613078271	0.668100736617335	-0.744037873742267	-0.00700343975914575	98.3676579789165	-87.241547932449	33.5638097686962
49505	1651215230185	9.67376963453429	0.396599219569209	-0.0639937320879511	0.0503608038582723	0.0401377891011524	-0.130794064724034	0.0249174504045997	0.00165798971445694	0.00340138307601661	0.36376953125	-0.289306640625	0.29052734375	0	0	0	-0.654757781408634	0.273443166500723	-0.636557727373651	-0.302184284998067	0.0400461888299	0.0266374013340722	0.998842706140645	-0.742793565491534	-0.667826985188529	0.0475903027766673	0.668321795114131	-0.743839745310889	-0.00695783524219828	98.3178715991227	-87.2432248370418	33.6305381684999
49506	1651215230186	9.71393450891119	0.361097488539762	-0.0520820886624811	0.0860155270995718	0.0575890128908879	-0.0924552462046843	0.0281323429962967	-0.000348687896100716	0.00640675729687226	0.36279296875	-0.2890625	0.294189453125	0	0	0	-0.654780802839229	0.27327449118486	-0.636646716762459	-0.30209950469415	0.0400040210064738	0.0267915341311827	0.998840273518349	-0.742531097065201	-0.66811388346241	0.0476592972663931	0.668615919788381	-0.743576527617484	-0.00683369459826011	98.1598173204886	-87.2403284388214	33.8110520914752
49507	1651215230187	9.70509311876312	0.376984940609344	-0.023514497718792	0.0923806531635547	0.0251083698385663	-0.100718545063804	0.0339809041309617	-0.00368756556876967	0.0104263405540144	0.3583984375	-0.287109375	0.293701171875	0	0	0	-0.654824503311154	0.273179744439047	-0.636715613634316	-0.301945234182947	0.0399321091649881	0.0267369091995718	0.998844614714466	-0.742276071067438	-0.668403805564845	0.0475666587760908	0.668903327079723	-0.743317893227983	-0.00684460581696389	98.1883711191608	-87.2454994081794	33.8046486737701
49508	1651215230188	9.75303832350736	0.394386391344917	-0.0817803288235784	0.0419840882229575	0.0594394137400489	-0.0516070205415229	0.0420088244120708	-0.0040819393588269	0.00505924631868397	0.357666015625	-0.290771484375	0.294921875	0	0	0	-0.654873052202525	0.272947091709897	-0.636828746127533	-0.301811727293179	0.0398980664654858	0.0269133776416742	0.998841235830916	-0.741896157793126	-0.668819132790834	0.0476556257404587	0.669326702996462	-0.742937842431541	-0.00671765874788383	98.0236933823532	-87.2414738516017	34.0017686806423
49509	1651215230189	9.76361598055785	0.410712242639456	-0.0682685388767186	0.039091777956721	0.0383643096298467	-0.04035181178212	0.0412712204695826	-0.00408451522521488	0.00654778952189407	0.362060546875	-0.2939453125	0.295166015625	0	0	0	-0.654934189570024	0.27281555441168	-0.636901127064927	-0.301645213697696	0.0398572552289461	0.0268838850941855	0.998843659402139	-0.741588821217028	-0.669163676648638	0.0476024589702704	0.669669634559873	-0.742628595312839	-0.00673423879339374	98.0521037185437	-87.2443606660514	33.9998290574956
49510	1651215230190	9.78305962268378	0.410331460461376	-0.0835488297081945	0.0287980618513295	0.051519021399218	-0.0208476815062806	0.046909521355786	-0.00226040631291387	0.00417794593219037	0.363037109375	-0.29345703125	0.298095703125	0	0	0	-0.654965874056177	0.272591806830026	-0.637046371914501	-0.301471940156196	0.0397312537594265	0.0270265493790998	0.998844829342057	-0.741179873463022	-0.669616752295202	0.0476004224662564	0.670129705839133	-0.742214908685002	-0.00657317865806045	97.8622940168067	-87.2457553111986	34.2248687999277
49511	1651215230191	9.84285086495935	0.409384940726854	-0.0855463964920723	0.0297896653824209	0.0553480549692855	0.0388443181126643	0.0497063517011898	0.00870696796160109	0.00791090611943896	0.36376953125	-0.2900390625	0.29443359375	0	0	0	-0.654996623954458	0.272417693596858	-0.637175020884714	-0.301290583298242	0.0395931859518647	0.0270843281880465	0.998848746704316	-0.740815006633653	-0.670025169262348	0.0475331305653484	0.670541203486081	-0.741844128993122	-0.00646395435273806	97.7440579606686	-87.2504302098321	34.3746802504112
49512	1651215230192	9.84457732262663	0.442507605589757	-0.0416677141260844	0.0332795043768515	0.00282975546349638	0.041861646210652	0.0529288251332117	0.0156684762064594	0.0035996925033959	0.353759765625	-0.2900390625	0.29150390625	0	0	0	-0.654997143511521	0.272144300148663	-0.63735917900304	-0.301146972139707	0.0394215136743303	0.0273700954037977	0.998847747225378	-0.740385052285063	-0.670495962135362	0.0475934776310857	0.67102601932598	-0.741408148483521	-0.0061675562233145	97.3837123251677	-87.2492366980934	34.7719910708389
49513	1651215230193	9.90435168150258	0.442120610212684	-0.0420849992985746	0.0342633877533398	0.00669146580454085	0.101555165760928	0.0555700888723304	0.0233019229510571	-0.00270417508532687	0.35791015625	-0.2958984375	0.3037109375	0	0	0	-0.655004415106543	0.27189364116092	-0.637528138642641	-0.300999894561514	0.0392634406702141	0.0276087342232733	0.998847405773938	-0.73997487582246	-0.670945822740429	0.0476328258526089	0.671487576488405	-0.740992213684974	-0.00591387182561487	97.0773630291543	-87.2488290779001	35.1136004076905
49514	1651215230194	9.84646411648176	0.510968983496954	0.00630229223502398	0.00960982015540609	-0.0729850962003928	0.0467530057345549	0.0604534794037557	0.0396611334874761	-0.00233930392667228	0.362548828125	-0.295166015625	0.301513671875	0	0	0	-0.654900151044213	0.271547596320762	-0.637864362300796	-0.300826778065521	0.0387819164780314	0.0281002382152129	0.998852511418247	-0.739446485599854	-0.671530305062269	0.047601936063594	0.672097357447801	-0.740444073509422	-0.00526460981063387	96.3110673538114	-87.2549304374694	35.9259838706879
49515	1651215230195	9.76620578570238	0.581157037171224	-0.0140490035782625	-0.061745631720197	-0.103800541709006	-0.029940928326317	0.0463935456582029	0.0456412730266872	-0.00246052150501865	0.369873046875	-0.289794921875	0.299072265625	0	0	0	-0.654821002931015	0.271292661661441	-0.638095553469227	-0.300738774506833	0.0384687127429049	0.0285038839432504	0.998853185778597	-0.739096415131127	-0.671912962473559	0.0476388496956242	0.672500295375563	-0.740081414075611	-0.00478050830185955	95.7303875700955	-87.2557373266325	36.5370687078459
49516	1651215230196	9.6870032646011	0.581252197872995	0.00707820601824529	-0.0537922605374877	-0.116657816243603	-0.109109045718634	0.036706447252265	0.048280383207934	0.00441156014317298	0.3603515625	-0.28759765625	0.298095703125	0	0	0	-0.654692646070226	0.271024108124869	-0.638357466340975	-0.300704534657223	0.0380913559637018	0.029038988727867	0.998852234184071	-0.73878895071624	-0.672245431303405	0.0477175690002794	0.672859520925761	-0.739758620919933	-0.00415305600662869	94.9741526464696	-87.2545987885208	37.3201268441407
49517	1651215230198	9.63614509420826	0.564839541232719	-0.0155572321359206	-0.0617521823978463	-0.0867434765907418	-0.160576763867013	0.0244561587555253	0.0410718799171744	-0.006882618948019	0.35888671875	-0.29541015625	0.300048828125	0	0	0	-0.654600892892989	0.270830347841407	-0.638537749166011	-0.300696086775018	0.0378409311562142	0.0294400298256871	0.998850013051556	-0.738583179903702	-0.672465572172587	0.0478010523517088	0.673099509948244	-0.739542655217708	-0.00370281257639138	94.4294570160787	-87.2519431419398	37.8827136318298
49518	1651215230199	9.54656030522648	0.583221182948893	-0.0087629414999494	-0.0771714024928108	-0.101922661860635	-0.249178966867596	0.02006882053481	0.0354603136902816	-0.0065480354898201	0.358154296875	-0.30029296875	0.302001953125	0	0	0	-0.654478180760472	0.270605559202753	-0.638755689894888	-0.300702695139126	0.0375275999109421	0.0299402467923135	0.998846965689409	-0.738361983155066	-0.672701040929262	0.0479050244129592	0.673359681801816	-0.739308387044746	-0.00313811552594295	93.7479210663312	-87.248303799833	38.5835443303975
49519	1651215230200	9.52842899949402	0.583237985031987	0.0508762923743668	-0.0391130751409775	-0.143594987283194	-0.267449577051867	0.0144268696398889	0.0220096225628091	-0.0103565449865421	0.3681640625	-0.288818359375	0.298095703125	0	0	0	-0.654436406968643	0.270460262254981	-0.638855616397602	-0.300712050261011	0.0374294958764145	0.0302250799394763	0.99884206828762	-0.738221248971262	-0.672847018737573	0.0480237123020537	0.673519428380316	-0.739163942517905	-0.00287152845011945	93.4218679570894	-87.2424650842165	38.9215807677907
49520	1651215230200	9.51939040409554	0.601423369345725	0.0811348576501848	-0.0333075740107562	-0.17498838752317	-0.275635617995579	0.00557694846156848	0.0105531989016382	-0.017183120538043	0.3603515625	-0.291748046875	0.298095703125	0	0	0	-0.654397136163394	0.270299995422946	-0.638935885144993	-0.300771067972784	0.0373976942966801	0.0305797712628829	0.998832463454608	-0.738113942901899	-0.672949354289733	0.0482387173838957	0.673638790269017	-0.739056184704885	-0.00259539868899095	93.0797284347682	-87.2310498599586	39.2725697013014
49521	1651215230201	9.50878752467601	0.585798162518537	0.0675380960639333	-0.0308450862577331	-0.153021210820053	-0.286912114664455	0.00344761513963123	-0.000871890932084139	-0.0114231844755079	0.364501953125	-0.2890625	0.2958984375	0	0	0	-0.654413049033771	0.270220151785981	-0.638945099457095	-0.300788614649637	0.0374604588970476	0.0307036357244832	0.998826311614047	-0.738046009487013	-0.673014557731828	0.0483683053386146	0.673709731189568	-0.738991672371436	-0.00255073835383002	93.0187389496642	-87.2237631137605	39.3390008938792
49522	1651215230203	9.54903721971467	0.586316415899753	0.0798641340500944	-0.0204788864646345	-0.159332557696125	-0.246682412786171	-0.00526036184794859	-0.00897719895370086	-0.00821934440498443	0.364501953125	-0.29052734375	0.30126953125	0	0	0	-0.654425048844637	0.270149575354971	-0.638931522852383	-0.300854734856805	0.037571432082127	0.0308658497047481	0.998817143832294	-0.738036445892886	-0.673011270899541	0.0485595899486578	0.673714028371902	-0.738987908266562	-0.00250587523955176	92.9540783105844	-87.2129393611069	39.4039403340535
49523	1651215230202	9.54882732012022	0.552419428116632	0.0779199879783814	0.00439629167889988	-0.135210149769005	-0.248533427600124	-0.00836519782534181	-0.021301949382311	-0.0049847025257598	0.358642578125	-0.28466796875	0.30224609375	0	0	0	-0.654479754413535	0.270158581600505	-0.638867920653258	-0.300862712562696	0.0377242414955697	0.0307964268768413	0.998813526988498	-0.738049715431272	-0.67299193795404	0.0486258059129493	0.673690952258825	-0.739008411007943	-0.00265881629919701	93.129766181582	-87.2086807452018	39.2267019046583
49524	1651215230202	9.55915653019882	0.53531858990143	0.0889093460793579	0.026383953083519	-0.130533111033796	-0.239066904696891	-0.00959767490367369	-0.0320471154861513	-0.00418329763572372	0.366943359375	-0.29541015625	0.302001953125	0	0	0	-0.654529759284583	0.270118339971097	-0.638807513489944	-0.300918323355224	0.0379220862401065	0.0308567877329606	0.99880417201071	-0.738058755891494	-0.672968490160679	0.0488127452900939	0.673669940124314	-0.739027245709966	-0.00274624675575069	93.2201148463659	-87.197695815568	39.1348731187312
49525	1651215230204	9.56830530265733	0.552922734783113	0.057424385736809	-0.0055645572714525	-0.120754171857433	-0.229009889201869	-0.00710130696435836	-0.0369566104214797	0.00525726706662519	0.356689453125	-0.287109375	0.29736328125	0	0	0	-0.654622391656257	0.270178996058887	-0.63871057764992	-0.300868131295025	0.0381042161734355	0.0306048747210853	0.998804991153486	-0.738065757022504	-0.672963355319303	0.0487776660797019	0.673651992515873	-0.73904239664629	-0.00305433113829057	93.5830352743491	-87.1986559611867	38.7710359285523
49526	1651215230206	9.62794500972632	0.517517021933374	0.0510020566811918	0.0199907687039542	-0.0917657600760128	-0.171166317142788	-0.00753828255342403	-0.0445617989305975	0.00712401229600942	0.357421875	-0.299560546875	0.2958984375	0	0	0	-0.654702535875753	0.270214788692675	-0.638628193995157	-0.300836479377278	0.0382759956125135	0.0304247002486946	0.998803927592722	-0.738065929801595	-0.672962761295315	0.0487832468773027	0.673642064768804	-0.739050376851647	-0.00330288502073678	93.8733174871127	-87.1974093884454	38.480373379774
49527	1651215230207	9.63710703479298	0.534325415931111	0.0184821324405021	-0.0119718805384668	-0.0819751789616639	-0.161116902003881	-0.00769699502176833	-0.0452302999901954	0.0106057343350386	0.362060546875	-0.29443359375	0.291015625	0	0	0	-0.654813199362374	0.270306604005594	-0.638511985056669	-0.300759802351922	0.0384735695399115	0.0300768124945908	0.998806873122639	-0.738078141205316	-0.672955762240392	0.0486949642402372	0.673617429942072	-0.739070989430392	-0.00369197245645148	94.3357769232654	-87.2008631289638	38.0166099407333
49528	1651215230208	9.70584447583901	0.515836458702184	-0.0168363459567944	-0.018672788848577	-0.0451114388288891	-0.0932531203694857	-0.00841014518221521	-0.0481393401759146	0.0170347816827992	0.36328125	-0.291748046875	0.2998046875	0	0	0	-0.654898319163822	0.270429074065488	-0.638433860426816	-0.300630193621659	0.0385406435211906	0.029657898032441	0.998816813976051	-0.738072082266508	-0.672979205166173	0.0484622615308801	0.673620234387116	-0.739066572439996	-0.00404738508703217	94.7740481254243	-87.2125507058178	37.5790970592406
49529	1651215230209	9.71500225551971	0.531729829910796	-0.0497772842033364	-0.0506576818053665	-0.0353298602378388	-0.0832132436138	-0.00651612727194567	-0.0494654799611653	0.0195438737832469	0.35791015625	-0.291015625	0.286376953125	0	0	0	-0.655011695611823	0.270553357542536	-0.638319019526385	-0.300515205347515	0.0386994200666695	0.0292179155055763	0.998823642241218	-0.738080369415209	-0.672982984154803	0.0482832405913762	0.673602051043799	-0.739080656255868	-0.00447888133162944	95.2997417817702	-87.2206072273956	37.0526662546792
49530	1651215230210	9.74485456491782	0.512488254474939	-0.0558949000825921	-0.037850497880062	-0.0205831147346284	-0.0543012019279612	-0.00955165440202571	-0.0496971000865795	0.0180008088944544	0.35986328125	-0.299560546875	0.28857421875	0	0	0	-0.655112666197562	0.270661474573939	-0.638207239982514	-0.300435150411673	0.0388677700307266	0.0288522557857369	0.998827734791597	-0.738107296766125	-0.672962173157153	0.048161519496452	0.673562851494531	-0.739113970126176	-0.00486047846203524	95.7627996817593	-87.2254471421941	36.5871737896811
49531	1651215230211	9.81374896918479	0.527758797394989	-0.0910138703957489	-0.0687221838953405	-0.00727142586940676	0.0154204826337505	-0.0120948379787004	-0.0481413797908335	0.0244751249839403	0.357177734375	-0.293212890625	0.292724609375	0	0	0	-0.65520662586189	0.27081759018905	-0.63809666009165	-0.300324428994304	0.0389809704481547	0.0283890711867646	0.998836595535062	-0.738154989154026	-0.672926140386882	0.0479335119831104	0.673504042994503	-0.739164711157917	-0.00527577945825275	96.2809515470614	-87.2359550123748	36.0651120132959
49532	1651215230212	9.82288417690343	0.542963909714266	-0.123586850996747	-0.101578242863047	0.00227155806756199	0.0254431469322842	-0.0155803011976326	-0.0414460781203825	0.0260297880726599	0.36181640625	-0.300048828125	0.29736328125	0	0	0	-0.655254105160027	0.27098443143547	-0.638038881712618	-0.300193072893828	0.0389476466850128	0.0279423827890105	0.998850491345813	-0.7381970273192	-0.672903113812312	0.0476082795193341	0.673459894629811	-0.739202693897802	-0.00558100881894424	96.6861358410753	-87.2525147868981	35.6569594971593
49533	1651215230213	9.84237689540481	0.54054019167957	-0.142169604374055	-0.111179515371723	0.0142135585634225	0.0449094218007513	-0.017414001742005	-0.0369782303431308	0.0260780705088344	0.35888671875	-0.293212890625	0.28857421875	0	0	0	-0.655301843191802	0.271146700545177	-0.637960162624548	-0.300109633295821	0.0389725953750494	0.0275501156399293	0.998860414641585	-0.738281846210451	-0.672827349573024	0.047363205366912	0.673365467161646	-0.739286378066556	-0.00588207781421801	97.0793654642885	-87.2644017818082	35.2568707758102
49534	1651215230214	9.85283222395169	0.520439432452882	-0.131956888907242	-0.0897791033450307	0.0170079214784202	0.0543396406822474	-0.0239301579294302	-0.0305212543775935	0.0260868745743418	0.364990234375	-0.2939453125	0.294921875	0	0	0	-0.655300983638541	0.271311891321126	-0.637926504939812	-0.300033752710241	0.0388792638460599	0.0272170679497052	0.998873182168292	-0.738380864971974	-0.672739209724727	0.0470707333933754	0.673262282536329	-0.73937891970976	-0.00605904305977323	97.3348982419468	-87.2797721975244	34.9935860896958
49535	1651215230214	9.84281991426822	0.569975165764047	-0.147370377861716	-0.137581020942788	-0.00829271624845207	0.0467596458020338	-0.03289748587679	-0.0249686661065442	0.0265449449224276	0.362060546875	-0.291015625	0.285888671875	0	0	0	-0.655286156896069	0.271507451467321	-0.637867023806426	-0.30001569345358	0.0388187274761052	0.0269100860755789	0.998883853941258	-0.738570383838246	-0.672548574958576	0.0468209615259561	0.673057868622128	-0.739563561560867	-0.00623248724379927	97.5822496815667	-87.2926865041835	34.7306411956625
49536	1651215230216	9.82328342403354	0.532901919733906	-0.135108137747609	-0.102622058090328	0.00481972291525692	0.0254313958544561	-0.0366277375636361	-0.0191664957201966	0.0240938742996276	0.361328125	-0.29541015625	0.29638671875	0	0	0	-0.65526956035978	0.271682229170176	-0.637789728909971	-0.300058046577609	0.0388260561001391	0.0266976906361639	0.998889268478947	-0.73879807009979	-0.672307870074307	0.046685537942441	0.672807512580333	-0.739790079110855	-0.00637886076195088	97.7804082746457	-87.2992624327458	34.5133096675622
49537	1651215230216	9.79337550386511	0.513545916174128	-0.135747283296042	-0.0909282210809206	0.0153903742320878	-0.00535056135143996	-0.0459964632867111	-0.0151754760205687	0.0240270674516615	0.357421875	-0.292236328125	0.287109375	0	0	0	-0.655207420080998	0.271896562014496	-0.637740458166705	-0.300104322282804	0.0387187351640362	0.0264800461280665	0.998899227502131	-0.739074625833711	-0.672019310623752	0.0464622814499914	0.672509893604591	-0.740060033582299	-0.00644900752899913	97.9022179278755	-87.3113995821652	34.3685300145072
49538	1651215230217	9.75281844346667	0.477539821049643	-0.150053849502523	-0.0768557559560085	0.0478317550072886	-0.0474514198888016	-0.0535665379923754	-0.0127332040844306	0.0189750131855336	0.359375	-0.29736328125	0.297119140625	0	0	0	-0.655120618026654	0.272097015717755	-0.637701305847073	-0.300195327070234	0.03860051711686	0.026357173963308	0.99890705246233	-0.739382634364202	-0.671691959285374	0.0462950519173235	0.672178041949425	-0.740361540878538	-0.00643962025226602	97.9190031571809	-87.3209744763237	34.3260113614549
49539	1651215230218	9.68382294971564	0.423976152843935	-0.121295092198468	-0.0214506043486759	0.0592105224927961	-0.119033314059145	-0.0564258092498133	-0.0151924635004621	0.0189004702689063	0.362548828125	-0.29541015625	0.285400390625	0	0	0	-0.655049564492341	0.272327874638354	-0.637630246797129	-0.300291966463947	0.0385303941287788	0.0261739700132472	0.998914576939404	-0.739726992737161	-0.671324527144346	0.0461232638747321	0.671803084947009	-0.740701223536297	-0.00650480649329571	98.0275342645862	-87.3302140516168	34.188545772506
49540	1651215230219	9.67295042779825	0.370770345432402	-0.137489442942627	0.00580363969935484	0.104934378149629	-0.132227737535191	-0.0570558943333453	-0.0205481460503753	0.0193078271252375	0.360595703125	-0.295166015625	0.29296875	0	0	0	-0.6549906617727	0.272559910533179	-0.63755412194592	-0.300371552831611	0.0384716735198258	0.0259578509005109	0.998922479631533	-0.74005463559185	-0.670976050839345	0.0459377354584624	0.67144550536555	-0.741024513209019	-0.00660334367858811	98.1799784031685	-87.3399525790205	34.0085763374213
49541	1651215230220	9.67402500113506	0.299250280756682	-0.0983595165634408	0.0847050529178626	0.122070707237883	-0.134675768187149	-0.05313917827072	-0.0196270445755332	0.0158930305696929	0.359375	-0.29931640625	0.291748046875	0	0	0	-0.654942512473748	0.272777346111531	-0.637468494894839	-0.30046088400894	0.0384528749297188	0.0257617341914884	0.998928280439135	-0.740375655824317	-0.670631553257834	0.0457952840115448	0.671092590238003	-0.741343141080049	-0.00671435039415158	98.3410852688915	-87.3471236784716	33.8203451442383
49542	1651215230221	9.66472694960064	0.245643284712913	-0.072889749228198	0.140559719400661	0.137193377354601	-0.146559857785865	-0.0427121246848366	-0.0251680852222004	0.0124524035154696	0.353759765625	-0.302734375	0.29248046875	0	0	0	-0.65491597475101	0.272945809457727	-0.637405747516791	-0.300498858813076	0.038428996264053	0.0255662577489613	0.998934221413428	-0.740592541169804	-0.670402041903011	0.045648550644307	0.670854604373995	-0.74155746148022	-0.00682869776919881	98.507950804375	-87.3544881895577	33.6352506937423
49543	1651215230222	9.67539096706289	0.261611295579577	-0.0613052214300669	0.137569324755771	0.116253806814747	-0.135242022429708	-0.0337807705062378	-0.0278073213027886	0.00704180411107836	0.357421875	-0.294677734375	0.291748046875	0	0	0	-0.654934687840264	0.273085056446021	-0.63730667255084	-0.300541697159688	0.0385295141361006	0.0253687055646144	0.998935385957677	-0.740780210353878	-0.670198480428496	0.0455925079305834	0.670641600624731	-0.741748222518471	-0.00702978678110217	98.765256911135	-87.3559341769328	33.3618131966013
49544	1651215230223	9.63531374788021	0.295912422612452	-0.0758120771585543	0.100005811519806	0.10094343318254	-0.17357997778014	-0.0217087041627219	-0.0300137785903926	0.0106597379443162	0.361572265625	-0.299072265625	0.29052734375	0	0	0	-0.654930168545187	0.273194478880172	-0.637298186860681	-0.300470085138026	0.0384315954669586	0.0251314687314653	0.998945154525144	-0.740824693125889	-0.670165009293078	0.0453611549031028	0.670598081211688	-0.741786539105833	-0.00713749792247137	98.9420737673372	-87.3680948382122	33.1817677206875
49545	1651215230224	9.62465020697925	0.277915264815306	-0.0930915745075587	0.102335746396799	0.122928092026672	-0.184904159158757	-0.020842633565902	-0.038277723456153	0.0130232678427213	0.3623046875	-0.29638671875	0.2900390625	0	0	0	-0.654992815313504	0.273328273139712	-0.637192069697818	-0.300436904032054	0.0385558428333496	0.0248159151304616	0.998948255586668	-0.740928135644694	-0.670058643596195	0.0452428110544089	0.670476654920578	-0.741893243329702	-0.00744786601969244	99.3481816249615	-87.3719670359346	32.7667770552346
49546	1651215230225	9.61428662865792	0.294316645318475	-0.110010537517369	0.0794948395451279	0.121123676479837	-0.194359003649756	-0.0095329043453746	-0.0375764555425613	0.0131848672058156	0.364990234375	-0.293701171875	0.29296875	0	0	0	-0.655073474012509	0.273419620846525	-0.63711084090243	-0.30035018059912	0.0386629746814813	0.0244928304711715	0.998952088763165	-0.740932594035636	-0.670062959900438	0.0451056633371928	0.670465558760778	-0.741900081564206	-0.00775909083734883	99.760512302731	-87.3767612961894	32.3540850801181
49547	1651215230226	9.60561756179722	0.309765002934954	-0.0852352911172397	0.0858250469254876	0.0887517916794717	-0.202491561155675	-0.00365703180865329	-0.0493952114016448	0.013552908483267	0.36328125	-0.29296875	0.291015625	0	0	0	-0.655196488039217	0.273517338861187	-0.636992536330314	-0.300243794378575	0.0388575480035359	0.0240909125179274	0.998954312717657	-0.740921311876655	-0.670083858558902	0.0449803524418114	0.670466778125605	-0.741894366087833	-0.00818834519325862	100.317298752693	-87.3795468757891	31.7980956341114
49548	1651215230227	9.65466343606938	0.291093882481949	-0.106903131631746	0.0899078545155644	0.114972293357157	-0.154147867772334	-1.23021336232839E-05	-0.0583114494150015	0.0134470557247735	0.357421875	-0.298583984375	0.289306640625	0	0	0	-0.655362469381792	0.273593009299124	-0.636831210187751	-0.300154807922935	0.0391857499869083	0.0236907187867301	0.998951063286551	-0.740901079506208	-0.670107913086791	0.0449552578126447	0.670470034665607	-0.741885526656123	-0.00870620202310168	100.960431449298	-87.375477846654	31.1561024473908
49549	1651215230228	9.6742968714404	0.32451068442235	-0.126801282385862	0.0551708547753976	0.103245735498808	-0.132826864812394	0.00916884965880577	-0.0600653648934992	0.0120377745307811	0.364990234375	-0.2939453125	0.289306640625	0	0	0	-0.655540904118706	0.27366043137277	-0.636693099858451	-0.299996646515817	0.0394637297870121	0.0232203764273487	0.998951164046506	-0.740802802841833	-0.670223960760266	0.0448447290604565	0.670562317262895	-0.741795562497777	-0.00924781734380181	101.652115018426	-87.3756039263917	30.4724667866219
49550	1651215230229	9.74293866547217	0.340593105006535	-0.163603864776297	0.0240053077984118	0.116498099733385	-0.063150336202531	0.0109872958334326	-0.0645160784749307	0.0119906222530002	0.35888671875	-0.30322265625	0.284423828125	0	0	0	-0.655736226430292	0.273725016016679	-0.636550544353801	-0.29981331097286	0.0397560401790969	0.0227098344438826	0.998951310469539	-0.740675470773276	-0.67037318834032	0.0447172824444905	0.6706856970773	-0.741676514239171	-0.00983076609274114	102.398819226116	-87.3757871545881	29.7362947117109
49551	1651215230230	9.80295142523383	0.3736462295457	-0.171465428008702	-0.000339913387016604	0.096945541969935	-0.00159837154207842	0.0162613092733743	-0.058233375992829	0.00667749188981487	0.359130859375	-0.294677734375	0.286865234375	0	0	0	-0.655926613235945	0.273749644369465	-0.636420027377459	-0.299651395807342	0.0400613619209315	0.0222889448351901	0.998948592380596	-0.74052765325842	-0.670540346396607	0.0446591380782984	0.670830740232302	-0.741538162735036	-0.0103571794871715	103.056997143028	-87.3723879231707	29.0902556394863
49552	1651215230231	9.85187614787168	0.355704409480328	-0.193735963479882	0.00235690572036629	0.121613046405288	0.046761151630367	0.0168077581208058	-0.0559853862178921	0.00373455368301633	0.349853515625	-0.298828125	0.2822265625	0	0	0	-0.656116494479109	0.2737773068616	-0.636312857642987	-0.299437938675562	0.0403038668916496	0.021812807198816	0.998949347942971	-0.740332034582674	-0.670765814258679	0.0445163003019091	0.671032098251834	-0.741348382249532	-0.0108857361598917	103.741094479017	-87.3733323853822	28.4226416764245
49553	1651215230232	9.87293724684676	0.35460887775283	-0.171429942011519	0.0217416075686618	0.102886208510743	0.0675436924318617	0.0192057521829856	-0.0436968443527194	0.0019765702026546	0.361083984375	-0.29443359375	0.283935546875	0	0	0	-0.656271126362944	0.273756121488092	-0.63622686537028	-0.299301136702182	0.0405459234578098	0.0215303716160992	0.99894567979897	-0.740163324407063	-0.670952831033158	0.0445033901099117	0.671203606436704	-0.741187386311089	-0.0112684106997798	104.208858816866	-87.3687503304886	27.9688380844437
49554	1651215230233	9.83240834075157	0.355450474043871	-0.187831401855928	0.0101117327273895	0.110253079137767	0.0273136664902758	0.0183972510463451	-0.037875924572148	-0.00641646497193461	0.359375	-0.287353515625	0.288818359375	0	0	0	-0.656412531189515	0.273725221830101	-0.636171766993776	-0.299136381457443	0.0407199716281581	0.0212509093039946	0.998944584431166	-0.739957572151628	-0.671183856445218	0.0444412225618676	0.671419894943597	-0.740986254731542	-0.0116058163371287	104.635906118994	-87.3673835991692	27.559122850575
49555	1651215230234	9.81114632409242	0.356826347993622	-0.218729368071602	-0.00999111318711436	0.129996937860796	0.00651625700649916	0.0237087978273423	-0.0345125216155327	-0.00679984949081491	0.36279296875	-0.29638671875	0.293212890625	0	0	0	-0.656556322823033	0.273647951152416	-0.636108893093345	-0.299025199471118	0.040964549915289	0.0210945921718054	0.99893789788522	-0.739755762398553	-0.671401457822686	0.0445139801827126	0.671627365172365	-0.740793561402012	-0.0118988124176348	104.965560955638	-87.3590558724037	27.2460894731755
49556	1651215230235	9.83188744734272	0.322257116605745	-0.195490076346655	0.0344551389799276	0.135671225598283	0.0254263834718529	0.0259789128598339	-0.0313764043159314	-0.00871772419149546	0.364990234375	-0.293701171875	0.2958984375	0	0	0	-0.656684799827076	0.273530809772092	-0.636065036864378	-0.298943537578945	0.0412043299682812	0.02104801437759	0.998929018640777	-0.739542114624488	-0.671627314890419	0.0446565850667965	0.671847947000366	-0.740590123471713	-0.012108060437006	105.170286104749	-87.3480376511627	27.058874435369
49557	1651215230235	9.81286874214596	0.357337770159484	-0.182607628410467	0.0183950327810836	0.101071369078955	0.00784594691983642	0.0280115151364581	-0.0235649728839225	-0.00607253657730426	0.368896484375	-0.29150390625	0.289306640625	0	0	0	-0.656799164136473	0.273425330885846	-0.636045272766254	-0.298830817372134	0.0413699988433344	0.0209687999337194	0.998923837249388	-0.739310915051968	-0.671877462037335	0.0447218838074913	0.672092176773933	-0.740365440465456	-0.0122931071608073	105.369806240356	-87.3416291665868	26.8786293803502
49558	1651215230236	9.79160859879221	0.358707808078755	-0.212223995923513	-0.000770581669388454	0.121549203295831	-0.0129662447292169	0.0349618014819314	-0.0224254084094795	-0.00797527289785534	0.365234375	-0.298828125	0.280517578125	0	0	0	-0.656936480379429	0.273264772063303	-0.636008562510271	-0.298753968190379	0.0416389455256206	0.020984968564098	0.998912323134457	-0.739055358847911	-0.672144861679386	0.0449272909953953	0.672356583052253	-0.740122230454107	-0.0124783498082422	105.522390417222	-87.3274431750961	26.74694104893
49559	1651215230237	9.75299735211647	0.359081754975126	-0.184630981197921	0.0175824796587792	0.0992118651872048	-0.0518557887070781	0.0368660075094346	-0.0237575373497777	-0.00547703836793507	0.35791015625	-0.2880859375	0.2900390625	0	0	0	-0.657064109128978	0.273132672482787	-0.636001055333465	-0.298610042248535	0.0418024016742587	0.0209012517686393	0.998907251394626	-0.738763956244316	-0.672461171781478	0.0449865468837961	0.672666615916466	-0.739837218664204	-0.0126694005660936	105.728622689658	-87.321218342587	26.5651070238051
49560	1651215230238	9.79373567027405	0.393443679193832	-0.174071937572901	0.00301025817171612	0.0677253434463404	-0.00974080859308479	0.0397234935672285	-0.021291578629034	-0.00540542603966252	0.35986328125	-0.294677734375	0.296142578125	0	0	0	-0.657209547244623	0.27299957140768	-0.63598294898424	-0.298450219673316	0.0419938452250655	0.0207826522200251	0.998901696029151	-0.738454351111295	-0.672797400776345	0.045042522502537	0.672994567799779	-0.739534812483696	-0.0129063099565179	105.988920676523	-87.3144164746569	26.3306962940506
49561	1651215230239	9.72513339947719	0.37646548357907	-0.145055873268717	0.0333793081403046	0.0554164544614595	-0.0794041716047768	0.0408035193885991	-0.017274646429182	-0.000338659673876952	0.36279296875	-0.29443359375	0.28564453125	0	0	0	-0.657315467013689	0.272862347155948	-0.636009463562615	-0.298285900752814	0.0420762035266841	0.0207120291496491	0.99889969713945	-0.738138593754704	-0.673143321833259	0.0450498022316881	0.673335733127694	-0.739221942396051	-0.0130349673417559	106.137573466412	-87.3119732854041	26.2087369792285
49562	1651215230240	9.70388126716908	0.377347057136452	-0.174233584576691	0.0127114085944803	0.0752174875159446	-0.100208781480779	0.043895408111271	-0.0194864102404834	-0.00482682967511416	0.363525390625	-0.287353515625	0.285888671875	0	0	0	-0.657424005847714	0.272698417116229	-0.636052259208932	-0.298105305878078	0.0421461937150343	0.0206641350340773	0.998897738449051	-0.737778078109606	-0.673537599819282	0.0450622801306933	0.673726358261446	-0.738864057288602	-0.0131415003251037	106.25825398523	-87.3095813812987	26.1185555884078
49563	1651215230243	9.70579003529235	0.377064643909834	-0.13401390831668	0.0414645958871715	0.0450817683228881	-0.0988443710312694	0.0508420983764413	-0.018342138077107	-0.0067293006540654	0.361572265625	-0.293701171875	0.28369140625	0	0	0	-0.657556725882978	0.272509758389298	-0.636079593797362	-0.297926726198319	0.0422823638743794	0.0206289729679534	0.998892710544772	-0.737391470958465	-0.673956194798717	0.0451316524198387	0.674140949848699	-0.738483238108166	-0.0132848323426699	106.402178534227	-87.3034511356005	26.0070998114561
49564	1651215230241	9.70606190898482	0.41221962751358	-0.135327206323543	0.017145157019643	0.0215403154152066	-0.0969723604565384	0.0482044935884777	-0.0170055850571072	-0.00772945568917463	0.365966796875	-0.291015625	0.29248046875	0	0	0	-0.657717347552671	0.272333688291095	-0.636058182084996	-0.297778847389766	0.0425287024489969	0.0205721624440907	0.998883424429687	-0.737046526892311	-0.674324240537982	0.0452684859351053	0.674502577210782	-0.73814876871485	-0.0135154940999041	106.623677572382	-87.2921655476923	25.8141776053461
49565	1651215230241	9.6570414219509	0.430449815782836	-0.120661837533465	0.0131341625368632	-0.00305044491322633	-0.145313723878452	0.0456631480142524	-0.0210209690861836	-0.00980272491366871	0.362060546875	-0.3037109375	0.28857421875	0	0	0	-0.657855281029335	0.272155344831698	-0.636064576573778	-0.297623507017463	0.0427066454151189	0.0205378782231463	0.99887653791421	-0.736693201654715	-0.674703432700332	0.0453696433544895	0.674877225184783	-0.737803140045148	-0.0136842049972924	106.784145147031	-87.2838264962643	25.6831762856708
49566	1651215230243	9.69546677711948	0.431563944876021	-0.152887532727493	-0.00640748452091153	0.0197743505653273	-0.106438575797473	0.0488390596437844	-0.0201110026479755	-0.0117477101510893	0.362060546875	-0.29638671875	0.28955078125	0	0	0	-0.657997098919476	0.271967144486684	-0.636091918966489	-0.297423537667824	0.0428418858905791	0.020470233494552	0.998872135137435	-0.73628460178916	-0.675146223121832	0.0454154442068492	0.675314414166852	-0.737399855536333	-0.0138526197333737	106.96275535644	-87.2785084455608	25.5388851918017
49567	1651215230245	9.66567052277299	0.450167109431081	-0.153549595993784	-0.0197780311322983	0.00660159275433217	-0.135343761196154	0.0455705364681741	-0.0241295568020667	-0.0123286590138816	0.369140625	-0.295654296875	0.283447265625	0	0	0	-0.658147948622429	0.271785697243634	-0.636084143791671	-0.297272222911419	0.0430589935812165	0.0204298965556836	0.998863625525775	-0.735930692978942	-0.675523520518191	0.0455410623310804	0.675686272025195	-0.737055352435239	-0.0140523750042412	107.148391557814	-87.26825912851	25.3826061443536
49568	1651215230247	9.67635336611738	0.468298081623088	-0.142261024837143	-0.0221851797816383	-0.0153646004574075	-0.124001857472781	0.0438432181047238	-0.0250218005189115	-0.0133503892813315	0.3603515625	-0.28857421875	0.292236328125	0	0	0	-0.658336816385747	0.271627925703827	-0.636037371301192	-0.29709824717959	0.0433494645722119	0.0202858486099526	0.998853997472842	-0.735576504007239	-0.675901803001304	0.045650404730679	0.676053275026303	-0.736712452077309	-0.0143781876621701	107.48249785109	-87.2567088537752	25.0777499025975
49569	1651215230248	9.67624944083115	0.469603231425125	-0.145001584737761	-0.0225224203078477	-0.014873817103016	-0.124001869688195	0.0417088771072896	-0.0274770648095426	-0.0148952862591502	0.367919921875	-0.293212890625	0.2900390625	0	0	0	-0.658496106256726	0.271455757321387	-0.636008991788383	-0.296963317980736	0.0436086683627939	0.0202375624999132	0.998843694032097	-0.735247799368329	-0.67624911918189	0.0458017721245304	0.676394084515567	-0.736394982241039	-0.0146107002763944	107.692609035776	-87.2444019371038	24.8946951105082
49570	1651215230249	9.69364025848463	0.506157813803311	-0.204668976269271	-0.0860669963373648	0.00430470292578115	-0.104066468382776	0.0392553781392437	-0.0283724235975417	-0.0144271720081506	0.35595703125	-0.301513671875	0.286376953125	0	0	0	-0.658657039072248	0.271282825954235	-0.635967118274432	-0.296854101700783	0.0439029056319982	0.0202142094248475	0.998831277350883	-0.73494358100152	-0.676566541291412	0.045996173206461	0.676705598928907	-0.736104001444297	-0.0148469335542722	107.889367399636	-87.2296434508524	24.7227554982461
49571	1651215230249	9.74450192868836	0.489373627343906	-0.182080224618712	-0.0536307920726927	-0.000725774680404408	-0.0543534885726213	0.0372093298119082	-0.0277059560841729	-0.0134366058813587	0.3544921875	-0.29345703125	0.285400390625	0	0	0	-0.658808405770867	0.271129732251272	-0.635934000819754	-0.296728999891119	0.0441532297814686	0.020155026796922	0.998821439094436	-0.734645213443093	-0.67688113782594	0.0461338879850226	0.677013221927768	-0.735816349471984	-0.0150796944499947	108.100915108622	-87.2180052349274	24.5357069670255
49572	1651215230250	9.7341735220493	0.542723427886701	-0.197999957073475	-0.103611086305101	-0.0276127156958046	-0.0619751757343092	0.0363927511938243	-0.0308253111254907	-0.0144756666967542	0.367919921875	-0.2998046875	0.292236328125	0	0	0	-0.658936029168959	0.271016804494975	-0.635964026078273	-0.296484331253257	0.0441992984312914	0.0199412639619335	0.998823692154818	-0.734272211929848	-0.677293866005284	0.0460145396506852	0.677414747998469	-0.735442292136655	-0.0152935977112446	108.384973290763	-87.2206662052785	24.2833243473448
49573	1651215230251	9.72326751435453	0.526779580146377	-0.21478668532558	-0.101332452788831	-0.00567432364960092	-0.0733208492481569	0.031667545609523	-0.0263779216772832	-0.00847838369571647	0.36572265625	-0.286865234375	0.290283203125	0	0	0	-0.659067467158791	0.270896784984281	-0.635935372306549	-0.296363303847502	0.044402268269022	0.0198573000584214	0.998816362604736	-0.73401433182262	-0.677567448035547	0.0461011284199173	0.677680897806304	-0.735192519682421	-0.0155099887638476	108.594691346171	-87.2120189623215	24.094844721538
49574	1651215230252	9.72287996511595	0.493044499148152	-0.218042254332495	-0.0761851746826718	0.0184554226260177	-0.07518847410606	0.027491046081116	-0.0281777766113627	-0.00903628299104388	0.366943359375	-0.289306640625	0.296142578125	0	0	0	-0.659216529014261	0.27078471292042	-0.635877229180372	-0.296258934941866	0.0446715773169978	0.019757104218479	0.998806341095666	-0.733780138464567	-0.677812565431435	0.0462259076511996	0.677916778502296	-0.734969239476155	-0.0157815857540086	108.849972300421	-87.2002389930484	23.858589609608
49575	1651215230253	9.69305114904057	0.511275299653332	-0.219325182266527	-0.0895482543363003	0.00524917106785525	-0.104098418664561	0.0276749075382111	-0.0303988521329691	-0.00755990322856058	0.364501953125	-0.2880859375	0.291748046875	0	0	0	-0.659353651842847	0.270686279173521	-0.635831105236338	-0.296142711682449	0.0448954877622648	0.019637521999849	0.998798659845063	-0.733549468707102	-0.678056865169122	0.0463040447105094	0.678151584926348	-0.734747068947355	-0.0160365998626067	109.102637078151	-87.1912433439302	23.6248209087372
49576	1651215230254	9.71188368128214	0.477235413895668	-0.23801441374804	-0.0737482862246936	0.0418348887535204	-0.0865422228228265	0.0301768387129101	-0.0323795941861488	-0.00306419349219403	0.360595703125	-0.296875	0.2841796875	0	0	0	-0.659492409021471	0.270569141780052	-0.635779350738815	-0.296051885880827	0.0451539133810737	0.0195707613418302	0.998788320619978	-0.733323941819425	-0.678291240765624	0.0464433962480317	0.678378301879413	-0.734532489411552	-0.0162757960810738	109.312691373729	-87.1791801520896	23.4330358741787
49577	1651215230255	9.71178918720572	0.477414425454685	-0.241486229525788	-0.0741026403868179	0.0423241478324985	-0.086547032908717	0.029953441553015	-0.0361615673760965	-0.0021062752496517	0.367431640625	-0.296630859375	0.291748046875	0	0	0	-0.659643926279438	0.270489222975691	-0.63572549379354	-0.295902969430207	0.0453773535899339	0.0193729765920675	0.998782050078563	-0.733079268831905	-0.678554025872786	0.0464674034212685	0.678627792969058	-0.734294982789477	-0.0165890584466922	109.646778261907	-87.1718891039944	23.1191144654376
49578	1651215230255	9.73088354406729	0.477628594613944	-0.260268068014287	-0.0842885189020396	0.053055033760313	-0.0671220872162586	0.0244587922881341	-0.0373013924408958	-0.003164369682615	0.359375	-0.2900390625	0.291259765625	0	0	0	-0.65980521797189	0.270447382338979	-0.6356679614315	-0.295705141200795	0.0455689123910314	0.0190553804756516	0.998779438463982	-0.732825756692041	-0.678833365706824	0.04638611787899	0.678888712936249	-0.734045062702607	-0.0169694245538792	110.094025917085	-87.1688579932886	22.693034932293
49579	1651215230256	9.75024957382823	0.512161359738226	-0.278732776751343	-0.119047952550286	0.0412344172397938	-0.0458304437027035	0.0311371475228268	-0.0374728317844616	0.00188973870979304	0.366455078125	-0.2900390625	0.28955078125	0	0	0	-0.659956996460292	0.270379536682488	-0.635617081548547	-0.295537805720658	0.0457716635741425	0.018820021252251	0.998774630041092	-0.732575488985452	-0.679104623066364	0.0463687811745984	0.67914513010945	-0.733800189240884	-0.017296662067054	110.456715844212	-87.1632856716563	22.3510870068935
49580	1651215230257	9.77150751500647	0.511249476477473	-0.255672660629094	-0.099666405880296	0.0227041849596948	-0.0250087205662766	0.0290586584480692	-0.0428162024720411	0.00531196049241927	0.36181640625	-0.2958984375	0.286865234375	0	0	0	-0.660115674036951	0.270330073915303	-0.635554519498631	-0.295363167596357	0.0459842077636234	0.0185405542084742	0.998770093908501	-0.732337030028711	-0.679364500728787	0.0463287124605768	0.679387906195776	-0.733566713393656	-0.0176621039446225	110.868572856292	-87.158038905308	21.9589938579416
49581	1651215230258	9.7906074971558	0.510765026872373	-0.274745237382317	-0.109417233052929	0.0346140592754275	-0.00558841978599212	0.0257315545406043	-0.0354836843472885	0.00336597185800783	0.363525390625	-0.29345703125	0.284912109375	0	0	0	-0.660251044682469	0.270281148645109	-0.635505130979599	-0.295211597301648	0.0461626583713656	0.0183101481179401	0.998766112484794	-0.732123791121584	-0.67959642701138	0.0462974174995349	0.679605594036607	-0.733357644583641	-0.0179666826344231	111.209786103342	-87.1534417116074	21.6354624162768
49582	1651215230259	9.79054501839045	0.510115951117147	-0.278156094547432	-0.110026352473637	0.0338419842829955	-0.00559253997321818	0.0268258877366067	-0.0314521216174372	0.00840878994455847	0.361083984375	-0.290283203125	0.285400390625	0	0	0	-0.660386845714289	0.270265548341595	-0.635477087545581	-0.294982403867984	0.0462508091684051	0.0179494918253446	0.998768581000864	-0.731868743723539	-0.679883829575765	0.0461098714151402	0.679874256470854	-0.733100125511246	-0.0183085052257023	111.656175727766	-87.1562911354827	21.2107513566966
49583	1651215230260	9.73939446155773	0.527382749206129	-0.30662761787601	-0.143141129864187	0.0397897362242013	-0.0553370983413437	0.0280825775996235	-0.0292259033352445	0.00395553715383204	0.3642578125	-0.2939453125	0.283447265625	0	0	0	-0.660504812534646	0.270202576617028	-0.635452154801286	-0.294829644314296	0.0463822530958438	0.0177600611280151	0.998765871877129	-0.731640469987248	-0.68013209684605	0.0460711788066407	0.680110953649911	-0.73287441698324	-0.0185520795838172	111.933806970163	-87.1531641290583	20.9521623988082
49584	1651215230262	9.75849751375951	0.526789158247927	-0.324707326112844	-0.152511816990618	0.0505857057051271	-0.0359089625550411	0.0253180874195248	-0.0285626326970211	0.00643527561448579	0.356201171875	-0.2939453125	0.29150390625	0	0	0	-0.660644781940044	0.270180201316057	-0.635403184267494	-0.294642027441668	0.0465309044790883	0.0174466845450055	0.998764480809538	-0.731419245276859	-0.680377468963757	0.0459607154546359	0.680338711648094	-0.732654156423656	-0.018897738175585	112.351070057338	-87.151559821888	20.5534492790983
49585	1651215230263	9.78014120998146	0.559980653636227	-0.29988884641875	-0.158121603852066	0.0081352829550998	-0.0132177553071369	0.0262285871555516	-0.0223095824807515	0.00999729543251293	0.37158203125	-0.288818359375	0.283203125	0	0	0	-0.660729868701354	0.270133432280545	-0.635407119714285	-0.294485588079656	0.0465714419614581	0.0172660241529823	0.998765730891673	-0.731206933123264	-0.680612334355423	0.0458614356047948	0.680564120231225	-0.732440260180454	-0.0190720612595516	112.580604913587	-87.1530014905201	20.3418963213886
49586	1651215230264	9.73956575223195	0.559586584338398	-0.313997270086637	-0.168473622253032	0.0158192104526458	-0.0534743553425745	0.0203601665709343	-0.0190128296673329	0.00598801335656751	0.363525390625	-0.28857421875	0.28466796875	0	0	0	-0.660822800351855	0.270095606093816	-0.635389356116307	-0.294350057309407	0.046657459405839	0.0170831172099508	0.998764861510548	-0.731024456336539	-0.680812814661526	0.045794711818277	0.680754232979613	-0.73225820480145	-0.0192768197921074	112.828165845969	-87.1519987915842	20.1096505907303
