// Start Time : 10/06/2022 05:03:48																																
// Update Rate : 100Hz																																
// Filter Profile : 46.1 human																																
// Firmware Version : 4.4.0																																
PacketCounter	Time_Of_Arrival	Acc_X	Acc_Y	Acc_Z	FreeAcc_X	FreeAcc_Y	FreeAcc_Z	Gyr_X	Gyr_Y	Gyr_Z	Mag_X	Mag_Y	Mag_Z	VelInc_X	VelInc_Y	VelInc_Z	OriInc_q0	OriInc_q1	OriInc_q2	OriInc_q3	Mat[1][1]	Mat[2][1]	Mat[3][1]	Mat[1][2]	Mat[2][2]	Mat[3][2]	Mat[1][3]	Mat[2][3]	Mat[3][3]	Euler_X	Euler_Y	Euler_Z
16955	1654837477916	6.76921989806165	0.0608184511350737	7.10309384116342	-6.07153216591882E-15	2.19008838842072E-15	-0.000451186989520735	0.0183402056809648	-0.00873480760955062	-0.0044565236999739	0.500244140625	-0.470458984375	0.400634765625	0	0	0	0.237562740262779	-0.285653250106089	0.587298077431468	0.719059895549716	0.146966377898258	0.708883850708498	0.689843873620806	-0.980326126149184	0.19728982536828	0.00611646920100389	-0.131763311118079	-0.67717088759843	0.723932330285335	0.4840777480909	-43.6177513831861	78.2873221151708
16956	1654837477917	6.77383456783829	0.0339126792823903	7.12125572737604	8.58688120608519E-15	1.35525271560688E-15	0.0157544044901652	0.0207289521890694	-0.0104399908908351	-0.00683791200945412	0.501953125	-0.474609375	0.3916015625	0	0	0	0.234074724432305	-0.287945997066967	0.582235118408254	0.723393663952883	0.156178739330473	0.707568631345104	0.689169669470125	-0.977172151004447	0.212422580548134	0.0033518016967562	-0.144023569885235	-0.67396088848663	0.724592252310101	0.265035570860894	-43.5644169016491	77.5529153241185
16957	1654837477917	6.75402786901529	-0.00266927519573641	7.16162887881489	0.0385082404255988	-0.0555575442400366	0.0311562978226885	0.0132349673481617	-0.0124699048696729	-0.00449606050123631	0.5048828125	-0.472900390625	0.393798828125	0	0	0	0.235846865542377	-0.286832058930146	0.584719723573096	0.7212534026598	0.151660429668999	0.708165296387304	0.689565825041607	-0.978759064530269	0.204958201756884	0.00477798413910152	-0.137948568939528	-0.675643432977248	0.724207251967467	0.378005540687853	-43.5957499788171	77.9121491292488
16958	1654837477919	6.75653997338259	0.0144450830346059	7.08934363390381	0.0333442526991093	-0.00280306944100919	-0.0193879070797998	0.021661736391539	-0.00969266480381724	-0.00282680899744652	0.50341796875	-0.472412109375	0.397216796875	0	0	0	0.235957373422305	-0.28680034752692	0.58472916164954	0.721222216867116	0.151674736350135	0.708094011065351	0.689635879175754	-0.978784637861577	0.204831850888553	0.00495434635112868	-0.137751250590745	-0.67575645343198	0.724139357172176	0.391994585533445	-43.6012924581527	77.9098611620794
16959	1654837477920	6.75262544482221	0.0396584555777583	7.09377444700575	0.00900690603498535	-0.00462987458122074	-0.0187578016785785	0.0172031313679207	-0.00735091571590739	-0.00819033691099579	0.503173828125	-0.4775390625	0.399658203125	0	0	0	0.236053949384555	-0.286768653981479	0.584713450882211	0.72121595408797	0.151747838902134	0.708023592028126	0.689692095445587	-0.978795085356209	0.204777426674741	0.00513677009451524	-0.137596418089515	-0.675846727191945	0.72408454414721	0.406458488764563	-43.6057404952029	77.9030380470705
16960	1654837477921	6.77613710734837	0.0354643736588043	7.14233673668645	0.0116757360398863	-0.0229577033809589	0.0325958766749661	0.0219101635930137	-0.0114000991964542	-0.0070341499011863	0.509521484375	-0.470947265625	0.39404296875	0	0	0	0.23617637206417	-0.28673740325691	0.58470604090028	0.721194307095398	0.15180101461641	0.707932136770506	0.689774268648066	-0.978814535315777	0.204679134026654	0.00534392633349884	-0.137399262792737	-0.675972293678997	0.724004765704182	0.422896200829003	-43.6122429316155	77.8974067199521
16961	1654837477922	6.75744940299187	0.00969176557944964	7.13508385341527	0.036783649494271	-0.0380127845957346	0.0143080868323508	0.020727142721375	-0.0104412328732673	-0.00682706270135898	0.502685546875	-0.474853515625	0.39208984375	0	0	0	0.23629092633368	-0.286706403324164	0.584699004039092	0.721174813135475	0.151853025937231	0.707848146702252	0.689849012265651	-0.97883263321131	0.204587345616131	0.00554023233806095	-0.137212735102543	-0.676088026239138	0.723932072850586	0.438474472258048	-43.6181580691943	77.8919882076151
16962	1654837477925	6.77316229213133	0.0629818656548805	7.14584415923988	-0.0126720984533445	-0.0247284691060108	0.033226019948378	0.0219324579360508	-0.0111884869638632	-0.00900141949668651	0.50439453125	-0.48095703125	0.396484375	0	0	0	0.236415623295917	-0.286671990939951	0.584684763217575	0.721159171288376	0.151925794543467	0.707754083774753	0.689929496291104	-0.978849033452952	0.204502761445624	0.0057610996637445	-0.13701504538027	-0.676212080239088	0.723853645344256	0.456003404477974	-43.624528147824	77.8847949375727
16963	1654837477923	6.7550764953431	0.0423524272442457	7.11471100937559	0.0107048461158883	-0.0221729096420682	-0.0019096996794854	0.0197233255443955	-0.0118271062665765	-0.0049106947606201	0.507080078125	-0.46923828125	0.39599609375	0	0	0	0.236526618249357	-0.286650770660942	0.584682034709449	0.721133422347786	0.151956507935014	0.707666438544574	0.690012631372669	-0.978868588156593	0.204404154295084	0.0059353877068713	-0.136841173688753	-0.676333611071157	0.723772989078022	0.469850419262663	-43.6311087587045	77.8809616838679
16964	1654837477923	6.78000265942525	0.048525621618268	7.11529881780304	0.00993110169770369	-0.00533083489671217	0.0157479413789989	0.0211307724244083	-0.0147076036930834	-0.00734968267777401	0.4990234375	-0.47265625	0.385009765625	0	0	0	0.236656336968797	-0.286633332932099	0.584668421025589	0.721108832340994	0.152008339815362	0.707551935535095	0.690118629763839	-0.978886314034567	0.204313231255911	0.00613903327790805	-0.136656682318853	-0.676480865992757	0.723670221249496	0.48603942725735	-43.6395001747335	77.8750463499539
16965	1654837477925	6.78133630715224	0.0556017677120447	7.09068744368138	0.00818164670627532	0.0123031476727889	-0.00110015747514147	0.0193405059576195	-0.00735013273506301	-0.0063494169820561	0.499267578125	-0.470703125	0.39990234375	0	0	0	0.236754007919427	-0.286595354114275	0.584665602189237	0.721094152209611	0.15205847323362	0.707492695998256	0.690168317026346	-0.978903090948823	0.204227346701569	0.00631897065005316	-0.136480618582638	-0.676568751841493	0.723621285468403	0.500318542384521	-43.6434340953544	77.8701803406987
16966	1654837477930	6.76591852709252	-0.00439300006588984	7.12634774587892	0.0610798354418663	-0.0361508435091063	0.0136785552981422	0.0151945098521109	-0.0101239397633378	-0.00435399188219684	0.501220703125	-0.47607421875	0.39599609375	0	0	0	0.236844624987071	-0.286582281767365	0.584659690387324	0.721074383006318	0.152087284426417	0.707415304923149	0.690241294241577	-0.978917197135671	0.204155340101863	0.00645896740462926	-0.136347273782205	-0.676671399919031	0.723550438783489	0.51145258567037	-43.6492124330034	77.8666622076478
16967	1654837477931	6.76323836597599	0.0312447575273035	7.08289947792219	0.0332174142103215	-0.00269445463320694	-0.019387445555461	0.0219524003546242	-0.0109794271847081	-0.010961897393545	0.501220703125	-0.472412109375	0.40234375	0	0	0	0.236966793456701	-0.28654565835843	0.584640533175852	0.721064332388338	0.15217406528758	0.707323259802942	0.690316492628991	-0.978930483163488	0.20408437153341	0.00668419248032703	-0.136154922743	-0.676789018407918	0.723476648949567	0.529339990288281	-43.6551672247162	77.8584113050709
16968	1654837477932	6.73494535937674	0.0472728018895652	7.10950985064363	0.0113713674754237	-0.0389002191358935	-0.0195667591053681	0.0185620220264773	-0.0106572510312203	-0.0066683644443489	0.496337890625	-0.4755859375	0.39013671875	0	0	0	0.23707442123186	-0.286521917908399	0.584630455198425	0.721046558975323	0.152224842825151	0.70723752026925	0.690393139559093	-0.978945591702754	0.204005899304123	0.00686451271837207	-0.135989432356352	-0.676902269882824	0.723401818711343	0.543675440808162	-43.6612373310047	77.8530514556171
16969	1654837477933	6.76374020935128	0.0248306068523986	7.12908408076293	0.0365422254173384	-0.0377622003411037	0.0143099536616589	0.0209270328169966	-0.0125755653368056	-0.00707214097060831	0.5048828125	-0.468017578125	0.3935546875	0	0	0	0.237189543323732	-0.286498980128045	0.584622919861234	0.721023922277475	0.152268751917031	0.707145096944742	0.690478123517785	-0.978963345981886	0.203914324221609	0.00705092910151456	-0.135812350003893	-0.677026410300408	0.723318909846939	0.55850286533325	-43.6679684115623	77.8481109235226
16970	1654837477934	6.76575150811881	0.0370662127006881	7.08047081664239	0.033100542927062	-0.00259325733164123	-0.0193870225230412	0.0199466404158132	-0.0137497903753255	-0.00712971069454782	0.498779296875	-0.475830078125	0.3955078125	0	0	0	0.237311856815458	-0.286481785725549	0.584609478732737	0.721001405295537	0.152319887646678	0.707037462402112	0.690577062019356	-0.978979560459464	0.203829679981276	0.00724442967560301	-0.135638018379426	-0.677164299353349	0.723222538124601	0.573905460312178	-43.6758057006032	77.8423558727138
16971	1654837477935	6.78615706558144	0.066554288037642	7.0859794604423	0.00779999753469994	0.0126104424057887	-0.00110023679124893	0.0165791160159052	-0.0132162543308927	-0.0048095832101323	0.50048828125	-0.469482421875	0.403076171875	0	0	0	0.237406473696404	-0.286477899843831	0.584604485013981	0.720975849283209	0.152336018005212	0.706948014167704	0.690665072870096	-0.978994846143207	0.203751524697153	0.00737613778501439	-0.135509515693009	-0.677281198209374	0.723137158296213	0.584407678664426	-43.6827782298692	77.8396140585243
16972	1654837477936	6.79047692141856	0.0343669590373931	7.12791575118431	0.0355820829053474	-0.020779195422197	0.0319681772556546	0.0185387516119152	-0.010868350665078	-0.00468778883815502	0.50341796875	-0.477294921875	0.3994140625	0	0	0	0.237511785328134	-0.286457323590738	0.584601236106162	0.720951973667193	0.152367193008757	0.706864849265326	0.690743312213546	-0.979012810650747	0.203659093146779	0.00754256987745783	-0.135344579043111	-0.677395791728691	0.723060707182947	0.597656244222744	-43.6889773064177	77.8358111837446
16973	1654837477937	6.76844665056767	0.0418728101815144	7.07786767738311	0.0326862523414744	-0.002307883292911	-0.0193855596093577	0.0177396247432988	-0.0143856750893948	-0.00303521052294702	0.515869140625	-0.4697265625	0.396484375	0	0	0	0.2376099275979	-0.286457812921359	0.584603529301909	0.720917580067919	0.152361269888127	0.7067714829108	0.690840151107436	-0.979032363663188	0.203560471669346	0.00766585114811713	-0.135209742023824	-0.677522844867848	0.722966887446465	0.607502868108333	-43.6966509539439	77.8347109695983
16974	1654837477938	6.79270419153068	0.0423946447764454	7.10241615994595	0.0336314917383877	-0.00304886593353965	0.0151202420366641	0.0149686908545081	-0.00820144563605482	-0.00210521862960749	0.496337890625	-0.473388671875	0.396240234375	0	0	0	0.23769087062726	-0.286441118911214	0.584607635055856	0.720894200595168	0.152370796862581	0.70671162959594	0.690899278373709	-0.979049385345752	0.203473926109708	0.0077886101203401	-0.13507568736663	-0.677611270558092	0.722909070834694	0.61727987722375	-43.7013367629504	77.8329732698087
16975	1654837477939	6.76535229870838	0.0680452746474026	7.0814219744791	0.00804093632843987	-0.00394138348563823	-0.0187566596991182	0.0173551174167592	-0.00991008989248332	-0.00448044839594228	0.497314453125	-0.478759765625	0.396240234375	0	0	0	0.237774372890139	-0.286427656509775	0.584610349051927	0.720869811383722	0.152379874735404	0.706645591298062	0.690964819708381	-0.979066216918077	0.20338817475617	0.00791159017378446	-0.134943383184752	-0.677705879175005	0.722845090366039	0.627081282767697	-43.7065313119795	77.8311667600156
16976	1654837477940	6.77413344047778	0.0121958482533939	7.11853021219639	0.0601622995984453	-0.0355512918003272	0.0136864032188342	0.0141912450249451	-0.011508877246603	-0.00242316883226561	0.50048828125	-0.4716796875	0.400634765625	0	0	0	0.237862634802797	-0.286424776853329	0.584608251372261	0.720843538222171	0.152388079263976	0.706562656595842	0.691047817160623	-0.979081664976387	0.203309118784276	0.00803091067236378	-0.134821981165175	-0.677816062456023	0.722764428338384	0.636609016611373	-43.7131100104275	77.8291452430435
16977	1654837477941	6.79943032810499	0.0230483947611153	7.09535243562145	0.0572777295769435	-0.000923628779223244	0.0144957691812468	0.0185371018931053	-0.0108695944783846	-0.00467919869873567	0.5048828125	-0.47412109375	0.40087890625	0	0	0	0.237948984249748	-0.286412495182253	0.584612717803389	0.720816296763971	0.152391705572023	0.706493623966212	0.691117593010003	-0.979099873186424	0.203216502154097	0.00815423684861011	-0.134685583486798	-0.677915785733998	0.722696326995978	0.646445144980992	-43.7186412724154	77.8277104525078
16978	1654837477942	6.77562651857622	0.0152215170459003	7.11710324715128	0.0597726207076413	-0.0353504108112527	0.0136895060369646	0.0183340889153816	-0.00873651768370763	-0.00441651477777194	0.499267578125	-0.474365234375	0.392333984375	0	0	0	0.238046911625599	-0.286385133709511	0.584612669206258	0.720794873774248	0.15242316438744	0.706425436984635	0.691180353409432	-0.979117823444768	0.203123389738097	0.00831723235722959	-0.134519391802441	-0.678014742112863	0.722634446111399	0.659422302492178	-43.7236168427977	77.8241325361842
16979	1654837477944	6.82518235048844	0.0358764336093558	7.07171112965356	0.0542443704189219	0.03373696841964	0.0153042207673462	0.0193555550826225	-0.00714461940896256	-0.00830044558391636	0.50927734375	-0.469970703125	0.39697265625	0	0	0	0.238124857266399	-0.28635723977649	0.584611821905476	0.720780896852717	0.1524570978319	0.706376512909506	0.691222869507716	-0.979131620305413	0.203051140080434	0.00845604104368675	-0.134380442917752	-0.678087351689915	0.722592167158894	0.670465818123323	-43.7269877036891	77.820684455594
16980	1654837477945	6.77265339169491	0.0473346816834495	7.09715192107432	0.0331752424758024	-0.0193128335171741	-0.00253108870952978	0.0181309587106454	-0.00660321089931076	-0.00415252289624062	0.5078125	-0.473876953125	0.397216796875	0	0	0	0.238215438642147	-0.286323102020031	0.58461495375089	0.72076198699224	0.152488874200944	0.706323304699571	0.691270231156532	-0.979149638063899	0.202957521286749	0.00861573168538043	-0.134213000578425	-0.678170799866388	0.722544972084312	0.683170858156225	-43.7307429642376	77.8173314866638
16981	1654837477946	6.79773644828356	0.058240361448942	7.07414478034695	0.0300436698049583	0.015299675562619	-0.00172409664698847	0.0151915567196837	-0.0101261340713188	-0.00432723017531308	0.50146484375	-0.46728515625	0.39306640625	0	0	0	0.238280197136782	-0.286327932487052	0.584619311235569	0.720735127255912	0.152473152016279	0.706258794961698	0.691339607178318	-0.979163899756826	0.202885617165811	0.00868813905571508	-0.134126788253593	-0.678259493768055	0.722477725460292	0.68897585156348	-43.7362441487943	77.8174706310375
16982	1654837477948	6.7542798467384	0.0223965984080341	7.08975305140732	0.0576587483055573	-0.0341938135973243	-0.0208079582480067	0.0167450155336104	-0.003510973220758	-0.00368924691957085	0.5	-0.480712890625	0.392333984375	0	0	0	0.238356121065222	-0.28628725702871	0.584625760743153	0.720720948695963	0.152504652676935	0.706227425638277	0.691364704181678	-0.979180706021339	0.202798158852463	0.00883468854027247	-0.133968189759509	-0.678318310266193	0.722451932027438	0.70062119592216	-43.7382343448291	77.8145038806932
16983	1654837477947	6.77320815235872	0.0413534424743319	7.14337237973136	0.0352245066353713	-0.0540816497299941	0.0311768149189007	0.015170645479542	-0.0103347127069746	-0.00235160733476361	0.5048828125	-0.46875	0.3994140625	0	0	0	0.238414257621159	-0.286298574888895	0.58463865121516	0.720686766414409	0.152461547043811	0.706167353750007	0.69143556834366	-0.979198002510535	0.202712578536539	0.00888157544843754	-0.133890808319266	-0.678406426119903	0.722383535559078	0.704405796719294	-43.7438542403682	77.8168398944139
16984	1654837477948	6.74553524442383	0.0618062852973321	7.14604618402689	0.0116619797454752	-0.0727059595043096	0.0141442410787711	0.0165558966518224	-0.0134273686430317	-0.00280991776362994	0.5	-0.47119140625	0.40087890625	0	0	0	0.238517182596433	-0.286295277737532	0.584636189028812	0.720656016438714	0.152471080846113	0.706070488029591	0.691532382061225	-0.979215860176068	0.202620160168254	0.00902052509742945	-0.133749275456955	-0.678534845551093	0.722289135102899	0.715518376282722	-43.7515329230921	77.8144792488517
16985	1654837477949	6.74526991608686	-0.0585457740153372	7.11908180421422	0.133418330280852	-0.0801996299410429	-0.00660828837687965	0.0167585144136312	-0.0155610010680732	-0.0030667581129436	0.502197265625	-0.4765625	0.39599609375	0	0	0	0.238588939859495	-0.286311746404691	0.584646179530301	0.720617614555766	0.152428857262639	0.705991038416502	0.691622799760965	-0.979234302592566	0.202528325074692	0.00908064802157404	-0.133662351092812	-0.678644922782179	0.722201803294836	0.720373985734215	-43.7587052018998	77.8164229743717
16986	1654837477950	6.80117047069965	0.0599469703450411	7.09418280102924	0.0302827525993708	-0.0016145794111425	0.0151314714344632	0.0146162988198463	-0.0155686733383894	-0.00489458073346867	0.512939453125	-0.46826171875	0.389404296875	0	0	0	0.238694144312918	-0.286319234452328	0.584630886218696	0.720592206683155	0.15245604572355	0.705875471455061	0.691734756189419	-0.979246370126774	0.202463664699732	0.00922014478693994	-0.13354287968992	-0.678784415904233	0.722092802906714	0.731549565067904	-43.7675872068248	77.8123793237721
16987	1654837477951	6.7863950439826	0.000131782096148585	7.12962809979847	0.0821554665077943	-0.0496356446250678	0.0299515534590871	0.0201428508477682	-0.0158898573084687	-0.00734980255520805	0.50048828125	-0.470458984375	0.400390625	0	0	0	0.23877755108735	-0.286333611576201	0.584632419768571	0.720557615832352	0.15243599327455	0.705782607921156	0.69183392393725	-0.979262762185803	0.202380429704548	0.00930614145783959	-0.133445534022807	-0.678905790245314	0.721996687956914	0.738470290130761	-43.7754557300895	77.8123789858572
16988	1654837477952	6.80806851626198	0.0399574414117549	7.08698927089615	0.0536064829078298	0.000591383697287454	0.0145165068746298	0.0193458707673624	-0.0194055252730855	-0.00569002490904997	0.50439453125	-0.473388671875	0.405029296875	0	0	0	0.23891218364334	-0.286340255503415	0.584616343737146	0.720523391168129	0.152465977427299	0.705639149628976	0.691973638398193	-0.979279852458228	0.202289398284363	0.00948524702583048	-0.133285769294884	-0.679082019974498	0.721860453170019	0.7528232706751	-43.7865432134153	77.8076492486041
16989	1654837477953	6.7811390918432	0.0658179502100072	7.06552580033951	0.027179514753272	0.000264149709411582	-0.0193684600991784	0.0154118372790754	-0.012054062187479	-0.0065445349167912	0.499755859375	-0.481201171875	0.39453125	0	0	0	0.238951682895855	-0.286351526383799	0.584625762754419	0.720498170783745	0.152431041722966	0.705595227056809	0.692026121670203	-0.979291943573631	0.202229621530106	0.00951154180828173	-0.133236882172438	-0.679145459920363	0.721809793157815	0.75496296575804	-43.7907087209924	77.8096233259018
16990	1654837477954	6.7861164205745	0.0388959629931884	7.08361619048906	0.0532337740587064	-0.0155360055805345	-0.00312918148797792	0.0177765669909738	-0.0139724489028543	-0.00694235271492905	0.50927734375	-0.477294921875	0.394287109375	0	0	0	0.239066550570978	-0.286341491914193	0.584609512291171	0.720477239435867	0.152480536294066	0.705486349612436	0.692126214329434	-0.97930504064153	0.202157805073546	0.00968809692030076	-0.133083896191707	-0.679279936667031	0.721711468812897	0.769079820391863	-43.7986537091754	77.8039579266282
16991	1654837477954	6.80646798556697	0.0681073716001016	7.08902657780625	0.0266432763460061	5.52573099725194E-05	0.0151421444349271	0.0141705152595997	-0.0117160183398916	-0.000424410547304762	0.509521484375	-0.464599609375	0.399169921875	0	0	0	0.239090187331135	-0.286379633102062	0.584641211388603	0.720428512770252	0.152362719380789	0.705443276597392	0.692196059831625	-0.979325517102168	0.202061072536058	0.00963610492623468	-0.133068152822012	-0.679353447381489	0.721645176132582	0.765023242775755	-43.8041984148264	77.8123777909867
16992	1654837477955	6.76833878085765	0.0138089434035353	7.07572293701943	0.0768979692267916	-0.0300839760513362	-0.021383211593669	0.0195123131764797	-0.00969727129627834	-0.00459546750052602	0.506103515625	-0.474853515625	0.39404296875	0	0	0	0.239195287527974	-0.286352135719838	0.584641057534911	0.720404679772111	0.152394576426296	0.70536814479462	0.692265608986064	-0.979344470545644	0.201960896537741	0.00980837811992341	-0.132892065555176	-0.679461239938429	0.721576137586194	0.778773067109153	-43.8097201062379	77.8086461336129
16993	1654837477956	6.77359184697794	-0.00786933679559928	7.07015549068525	0.100043084421376	-0.0278185416440999	-0.021981349907211	0.0207136894923562	-0.0104500426928471	-0.00676497447323652	0.508544921875	-0.47412109375	0.394287109375	0	0	0	0.239256513869894	-0.286350699974126	0.584655137730757	0.7203734914058	0.152363293098715	0.705317585230862	0.69232400715288	-0.979362666110916	0.201869380991709	0.00987528461072923	-0.132793806874545	-0.679540916341415	0.721519194390306	0.784146571808468	-43.8143568855283	77.8102263054456
16994	1654837477957	6.81717968317904	0.0211109399109838	7.10109025853151	0.0758277889023467	-0.0134779000647147	0.0307843605425617	0.0171850812193955	-0.00736655740872999	-0.00813722024902524	0.5029296875	-0.476318359375	0.39306640625	0	0	0	0.239351623253957	-0.286317348902527	0.58464154772235	0.720366182465515	0.152433272788488	0.705250955235781	0.692376478143221	-0.979373044138138	0.201810122245022	0.0100555942164872	-0.132636864267021	-0.679627666225022	0.721466352326249	0.79852068555954	-43.8185233576619	77.803677458796
16995	1654837477957	6.78913228494175	0.0420533290809858	7.10411285217112	0.0506388066660832	-0.0316186177674468	0.0137535371604152	0.018164205945323	-0.00619207351966205	-0.00807880950302604	0.50927734375	-0.475341796875	0.39990234375	0	0	0	0.239380303637913	-0.286322409668588	0.584658644091643	0.720340765083245	0.15238749522099	0.705227019265403	0.692410934776674	-0.979386800724625	0.201742680238284	0.0100690385170111	-0.132587879787921	-0.679672525756565	0.721433095903588	0.799625021307431	-43.8212595534263	77.8068291154449
16996	1654837477958	6.79497177847559	0.0304058988441903	7.05111300986181	0.0715692819168149	0.00531065897734449	-0.0205675680746786	0.0179418607191835	-0.00426445491768449	-0.00584946056367528	0.5087890625	-0.47900390625	0.401123046875	0	0	0	0.239465712674986	-0.286278614791936	0.584658062326149	0.720330255731984	0.152439009739687	0.705185958072804	0.692441414739561	-0.979401608131839	0.201662245220188	0.0102385956810934	-0.132419176475132	-0.679738996519763	0.721401454331743	0.813124139808348	-43.823680066946	77.8021416623961
16997	1654837477958	6.78514467253843	0.0689036652177093	7.10842470700852	0.0243463063478268	-0.0326860174555464	0.0143659319261449	0.0165559149444872	-0.00117173599816704	-0.00539396855771591	0.507568359375	-0.47412109375	0.390625	0	0	0	0.239453695722944	-0.286276943320834	0.584698466300091	0.720302119137397	0.152346430458402	0.7052189445078	0.692428195146535	-0.979419232821566	0.20157926222189	0.0101866295354959	-0.132395360590159	-0.679729388322576	0.721414878655007	0.808982613876995	-43.8226302437852	77.809881208284
16998	1654837477959	6.7902333706369	0.0519922002483649	7.07958577027952	0.0469827046528721	-0.0133340003767185	-0.00309401013685218	0.0165557440786198	-0.00117185321798012	-0.00539270483948381	0.5078125	-0.46337890625	0.4033203125	0	0	0	0.239524373007645	-0.28622659906508	0.584701285052332	0.720296339002972	0.15239748249158	0.705199896708707	0.692436360261545	-0.979432883425403	0.201504963986893	0.0103429373797576	-0.132235525465848	-0.6797711785378	0.721404817445865	0.82140574297336	-43.8232786675312	77.8055989493075
16999	1654837477959	6.76600349017735	0.0439893129388578	7.1018769162392	0.0481606655792712	-0.0472530516004978	-0.00387287825249594	0.0157420832796236	-0.00489149852540735	-0.00175863511780332	0.49755859375	-0.469970703125	0.3896484375	0	0	0	0.239539673216142	-0.286229632900076	0.584733892563368	0.720263574737112	0.152317744275159	0.705198341995954	0.692455488262664	-0.979451752914597	0.201414039686391	0.0103270678187454	-0.132187626090537	-0.679799737469327	0.721386684410783	0.820166213935973	-43.8247977245544	77.811762504802
17000	1654837477962	6.7800014689175	-0.0249109775426114	7.08696746917845	0.12118526958737	-0.041921733571785	-0.00566412533965277	0.0191424367474141	-0.00501904449674042	-0.00801367881340067	0.503662109375	-0.469970703125	0.3955078125	0	0	0	0.239634845692761	-0.286182368147729	0.584726214224214	0.720256931441956	0.152389813120752	0.705147682319469	0.692491220866015	-0.979464752843749	0.20134079025765	0.0105206518409851	-0.132008116393488	-0.679873982659953	0.721349585782328	0.835581284346573	-43.8276355455375	77.8053183671042
17001	1654837477963	6.79570371608569	0.0332859405572926	7.07381576879223	0.0686106413103269	-0.0104758967379029	-0.0036736991595685	0.0191234816185482	-0.00522433709908931	-0.00603981512014597	0.507080078125	-0.46826171875	0.391357421875	0	0	0	0.23966315592888	-0.286173518653615	0.584746966174729	0.720234180292125	0.152351405541719	0.70513900647473	0.692508505924147	-0.979480000969921	0.20126511447932	0.0105489996488234	-0.131939292591052	-0.679905386977819	0.721332577823236	0.837852182612833	-43.8290083430995	77.8081543903948
17002	1654837477965	6.75799371795246	0.095992701314042	7.11049633029035	-0.00192357475994896	-0.0502431217740078	-0.00267597169756861	0.0169429852291118	-0.00564521858795422	-0.00392440296940651	0.506591796875	-0.4755859375	0.396240234375	0	0	0	0.239746270847748	-0.286139951471866	0.584750162261371	0.720217259944231	0.152382351813955	0.705092346619787	0.692549205178844	-0.97949629184353	0.201177946699796	0.0106980384383558	-0.131782522059727	-0.679979570648895	0.721291307572552	0.849736444816268	-43.8322408455736	77.8049692220213
17003	1654837477965	6.74366584656848	0.0461318216359227	7.09889555823252	0.0458774590207294	-0.0630212853892332	-0.0214975133067643	0.0152067455217708	-0.00992424395393347	-0.00626091521735865	0.504638671875	-0.47021484375	0.392822265625	0	0	0	0.239769482150262	-0.286170540396508	0.584765077423841	0.720185268846882	0.152312452069321	0.70504846443845	0.692609254729977	-0.979508313548575	0.201120799309769	0.0106718215045559	-0.131773975556088	-0.680041974350101	0.721234034477132	0.84772166170941	-43.8370105480731	77.8096599349746
17004	1654837477967	6.80096673890539	0.00418767197828817	7.11518372854796	0.0946391436657576	-0.043336848134912	0.0294755498940731	0.0139870660503704	-0.009374549005595	-0.00211794786323301	0.5068359375	-0.468505859375	0.395263671875	0	0	0	0.23985028548139	-0.286161429058008	0.584765954742026	0.72016127030591	0.152320829388251	0.70497978469068	0.692677318895284	-0.979523386503983	0.201041237458285	0.0107868500041291	-0.131652194156593	-0.680136695097923	0.721166954147949	0.856937344911467	-43.8424173079567	77.8078573788785
17005	1654837477967	6.82191832863602	0.0432327653565837	7.07300718268223	0.0645844006552623	0.00752266886123692	0.0139927209729684	0.0149659153003886	-0.00819974563989461	-0.00206092518690337	0.505126953125	-0.477783203125	0.395751953125	0	0	0	0.239861479681162	-0.286182516916434	0.58479543332371	0.720125224346622	0.152227736350218	0.704963561305324	0.692714294292679	-0.979540209171144	0.200961543457795	0.0107441457553873	-0.131634702501433	-0.680177061714651	0.721132075153077	0.853586580921917	-43.8453546990957	77.81481403453
17006	1654837477969	6.79866661962598	0.0400961202977041	7.07093282067822	0.0653843452688565	-0.00934378924899652	-0.00365051920549142	0.0153727846454206	-0.0124678534720198	-0.00256575439205414	0.506591796875	-0.474853515625	0.392578125	0	0	0	0.239957032172026	-0.286180050453668	0.584792844532977	0.720096472992722	0.152236615410731	0.70487269841175	0.692804800764272	-0.979556360706562	0.200875903388445	0.0108723335669721	-0.131504179125991	-0.680296516580538	0.721043202867058	0.86387558940121	-43.8525453041168	77.8126006529639
17007	1654837477969	6.77060772496633	0.0551185684602708	7.09740988139916	0.0412713780501004	-0.044863684533893	-0.00383025220717137	0.0109950973843259	-0.0135122403314393	0.00363515664466627	0.509033203125	-0.4716796875	0.39453125	0	0	0	0.239938703810882	-0.286263404495673	0.584845220979999	0.720026908633946	0.152018661486805	0.704837252536766	0.692888716891957	-0.979579933429495	0.20077097182082	0.0106850782116534	-0.131580699884237	-0.680364214454689	0.7209653633202	0.849090814695423	-43.8592130907486	77.8289348044975
17008	1654837477970	6.77156091212387	0.0557201015729289	7.09649576475265	0.0412555109393002	-0.0448753450687863	-0.00383023879795097	0.0110129639817133	-0.0133082957846623	0.00166440773026326	0.501708984375	-0.476806640625	0.392578125	0	0	0	0.240014703748467	-0.286282148940225	0.584850689097694	0.719989683707104	0.15198440532024	0.704749074985935	0.692985917494665	-0.979596775651386	0.200685226892977	0.0107515971057083	-0.131494857971185	-0.680480845441944	0.720870946365405	0.854487850527229	-43.866937364063	77.83011859468
17009	1654837477971	6.81009727218514	-0.00969774115468315	7.0824953382988	0.11146493111183	-0.0219895752317507	0.0120951285528204	0.011991830294451	-0.0121334817064067	0.00172089601696426	0.510498046875	-0.475830078125	0.399169921875	0	0	0	0.240005607942657	-0.286345938535173	0.584894334602818	0.719931891910627	0.151809241667877	0.704718907636737	0.693054987258233	-0.979617431876917	0.200591851011206	0.0106111484191359	-0.131543305823972	-0.680539617162134	0.720806623280973	0.843402498566371	-43.8724267628149	77.8432222371864
17010	1654837477972	6.81092689842702	-0.00866741391139361	7.08169886868141	0.111441834355366	-0.0220026940813624	0.0120953611938681	0.0163501223073532	-0.0112944379621835	-0.00250574827126718	0.5078125	-0.467041015625	0.3984375	0	0	0	0.240100715667947	-0.286337131606171	0.584894874042647	0.719903243302825	0.151818066764374	0.704635933187099	0.693137415138928	-0.979634934070895	0.200499265308752	0.0107443268083212	-0.131402703746314	-0.680652808906418	0.72072538679858	0.854082558427937	-43.8789784751013	77.8411475409666
17011	1654837477973	6.76815374149786	-0.0395353070261944	7.07357031037957	0.135471411470968	-0.0530737303721373	-0.0237295255836294	0.0159609054926136	-0.00682264028794034	-0.00397259166081398	0.511474609375	-0.470458984375	0.39111328125	0	0	0	0.240095026081913	-0.286354863499654	0.584933939044703	0.719866347007878	0.151706358207483	0.704643759040815	0.69315391777314	-0.979653272723343	0.200413330808745	0.0106753021777743	-0.131395000368602	-0.680670015263618	0.72071054120164	0.848613969890353	-43.8802902599599	77.8499591157762
17012	1654837477974	6.79794655081677	0.0598372597639391	7.11899130844419	0.0381257864348639	-0.0440495172693569	0.030701322754739	0.0203010658185695	-0.00618773690564162	-0.00622680303352894	0.505126953125	-0.4697265625	0.38720703125	0	0	0	0.240194903440838	-0.286311504928329	0.584932778534542	0.71985121733771	0.151758733483072	0.704588016817116	0.693199115239869	-0.97967027393816	0.200320105913815	0.0108632190721336	-0.131207626201929	-0.680755155488669	0.720664261013444	0.863605291016632	-43.8838831283594	77.8449561509424
17013	1654837477975	6.78425331547416	0.020230965516946	7.05990117629661	0.0824514108359017	-0.0220964322945479	-0.0218028147407114	0.0189150113126084	-0.00309454286812919	-0.0057770198416887	0.505126953125	-0.470703125	0.39453125	0	0	0	0.240220054277224	-0.286325588079238	0.58495505253956	0.719819122865298	0.151690488239039	0.704561369050596	0.693241136271754	-0.979685962288006	0.200243824062977	0.0108547786923489	-0.131169398388597	-0.680805176365593	0.720623966268253	0.86298264329817	-43.8872236877864	77.8498139220981
17014	1654837477976	6.80812278913896	0.0211422371537106	7.08483117167343	0.0832824897693911	-0.022829362709423	0.0127061831452249	0.0147781649191336	-0.00586367432498174	-0.00377132912717688	0.509033203125	-0.474853515625	0.3935546875	0	0	0	0.240295711504491	-0.286300761538791	0.584954806158407	0.719803945340007	0.151719497388978	0.704511864240358	0.693285098106553	-0.979699245033324	0.200171691569462	0.0109855894405784	-0.131036572731328	-0.68087761531629	0.720579689949718	0.87343448764267	-43.8907187363801	77.846730840484
17015	1654837477976	6.77044486796035	0.0838152474363277	7.12143020735934	0.0105203976842159	-0.0619129845046098	0.0136432214203275	0.0169741343446925	-0.0052419871647937	-0.00785569610443522	0.5107421875	-0.47607421875	0.398681640625	0	0	0	0.240292019429089	-0.286322398143223	0.58498150256665	0.719774875481958	0.151632251952755	0.70450800182309	0.693308110103275	-0.979711950853549	0.200112774107109	0.010925703359142	-0.131042563781662	-0.68089893009638	0.720558459440408	0.868699429630136	-43.892548315204	77.8534473195756
17016	1654837477979	6.75636219718715	0.0388156753621071	7.0862259135871	0.0583309994754237	-0.0576785187328173	-0.0219874348715798	0.0135782209100322	-0.00510726634625394	-0.00160084054615626	0.509033203125	-0.4736328125	0.38720703125	0	0	0	0.240357948139164	-0.286301248979688	0.584988207472186	0.719755825761404	0.151640783902299	0.704467779150778	0.693347114219037	-0.979726902168529	0.200033707769619	0.0110323580070907	-0.130920853284548	-0.680963775757793	0.720519303198004	0.877225852749558	-43.8956494827961	77.8521111953213
17017	1654837477980	6.78986883402463	-0.00250627460462993	7.07755771648382	0.103694214059419	-0.0367272750770785	-0.00544276002627697	0.0159774892661233	-0.00662038101079915	-0.00593565247462897	0.509765625	-0.473876953125	0.3974609375	0	0	0	0.240350357704036	-0.286346480782854	0.585023053805191	0.719712043119514	0.151507438919447	0.704449316485402	0.693395021942991	-0.979743232819204	0.199959464135982	0.0109275087474461	-0.130953020954251	-0.681004679283264	0.720474796989634	0.868943829196407	-43.8994587859682	77.8621678774707
17018	1654837477982	6.78082948651323	0.0411992996312468	7.11057645687262	0.0566385516124171	-0.0578830469670334	0.0125395957906456	0.0193208954926993	-0.00736374612365998	-0.00627128019933016	0.506103515625	-0.475341796875	0.39013671875	0	0	0	0.240450144639438	-0.286311614744752	0.585018277428506	0.719696465379475	0.151558548673673	0.704383834540716	0.693450373106574	-0.979758511250023	0.199874686034915	0.0111071830624758	-0.130779455408979	-0.681097293725472	0.720418774410252	0.883297766349519	-43.9038602453689	77.8570995037595
17019	1654837477983	6.80564877329427	0.0522010158369602	7.08759367572912	0.0516815674584624	-0.0226820441709428	0.013317859561992	0.0179174510228372	-0.00447274927010146	-0.00385206145158675	0.50732421875	-0.47509765625	0.39453125	0	0	0	0.240432277438651	-0.286337518662054	0.585068035144106	0.719651679373249	0.151412439318146	0.704400824622026	0.69346503263794	-0.979779951534225	0.199775428436558	0.0110011256052257	-0.130788072052925	-0.681108843331813	0.720406290744243	0.874880031377512	-43.9050260085612	77.8687428455931
17020	1654837477984	6.82988467989919	0.0579352818565707	7.08866601990905	0.0508011852636492	-0.0058556912225995	0.0309528188635379	0.0133913117821592	-0.00277053362551814	-0.00331864664922662	0.51025390625	-0.484375	0.391357421875	0	0	0	0.240492864601917	-0.286307453712419	0.585070897885294	0.719641069194894	0.151440172792814	0.704372293617619	0.693487956671446	-0.97979189241834	0.199710453046519	0.0111167664021795	-0.130666451760844	-0.681157402461288	0.72038244804855	0.884104332660799	-43.9068490317327	77.8661097480303
17021	1654837477985	6.78167317263914	0.0452835880940545	7.10974694321999	0.0509166340196263	-0.0564299690125612	0.0125793671900212	0.0121917383566673	-0.00201343739615064	-0.00115064019884936	0.505615234375	-0.47705078125	0.4013671875	0	0	0	0.240424925229086	-0.286372352910817	0.585139687404842	0.719582015506694	0.151204843424174	0.704409888158944	0.693501120971679	-0.979814094303986	0.199614803104706	0.0108752464215349	-0.13077245860016	-0.681146562676032	0.720373461633823	0.864910249329768	-43.907895941863	77.8850351552375
17022	1654837477987	6.79147185687875	0.00449661045113501	7.07601852019763	0.0978791394895979	-0.0353495979453798	-0.0053779376122538	0.0169553294514702	-0.00544647683446899	-0.00587440698298951	0.499267578125	-0.46337890625	0.399169921875	0	0	0	0.240509299928944	-0.286339267958243	0.585135345677816	0.7195705160103	0.151252901727281	0.704357771492896	0.693543574302753	-0.979826799008109	0.199543807772384	0.0110323490345339	-0.130621604892145	-0.681221255186051	0.720330200545654	0.877455394470384	-43.9112722302355	77.8804282118838
17023	1654837477987	6.78725121634143	0.0292855057569465	7.08047088496052	0.0720340537525163	-0.0354282577772318	-0.0048200856609224	0.012395319294102	-0.00414771287583483	-0.00139828566014447	0.501708984375	-0.475341796875	0.39453125	0	0	0	0.240458534760228	-0.2863217159662	0.585181410924154	0.719557005619396	0.151165182549975	0.704445766994901	0.693473322448383	-0.979839768159968	0.199484818739562	0.0109469550407431	-0.130625863889402	-0.681147537950047	0.720399136054269	0.870581350307025	-43.9056852454617	77.888717729953
17024	1654837477988	6.8155651358793	0.00649647848722836	7.10073790543905	0.0971276871631203	-0.0343710734070651	0.0291536123785772	0.0186915197566461	-0.00116367403177225	-0.00354323402696014	0.51171875	-0.47119140625	0.39306640625	0	0	0	0.240533101366986	-0.286270278210082	0.585193568689642	0.719542661782179	0.151195629955607	0.704428520451393	0.693484203898682	-0.979858431839637	0.199384628622121	0.0111006045775784	-0.130450507990947	-0.681194707439716	0.720386309920603	0.882814472013445	-43.906550590391	77.8860625197036
17025	1654837477989	6.79158441869576	0.00371763722349482	7.09941585744901	0.0957336364008667	-0.0505283773958339	0.0115489942744098	0.016360307061881	0.0011573657357332	-0.00709602073645765	0.5	-0.46923828125	0.389404296875	0	0	0	0.240505842516489	-0.286270927297175	0.585230439875003	0.719521527227337	0.151108576856252	0.704472138642409	0.693458869636165	-0.979871460872744	0.199324543918288	0.0110293408180221	-0.130453509602432	-0.681167183640225	0.720411791799698	0.877116839206778	-43.9045359082151	77.8935589764074
17026	1654837477991	6.78727703694107	0.0337937351947982	7.08042606158253	0.0696694749979437	-0.0347760322092276	-0.00480066972681392	0.0183003494547749	0.00330655430106491	-0.00501498609708764	0.501953125	-0.47119140625	0.390625	0	0	0	0.240567825211945	-0.28620317241131	0.58524212066031	0.719518259517797	0.15115880861345	0.704482234596526	0.69343766534307	-0.979887333619518	0.199237563355637	0.0111895826615536	-0.130275968584361	-0.681182188908367	0.720429731148995	0.889836006301438	-43.902849710189	77.8898217414747
17027	1654837477992	6.81097206127208	0.0399193683802474	7.08201114031381	0.0670742765968016	-0.0172877558445869	0.0128415115417315	0.0192955759502833	0.00468274722575984	-0.00693124225714132	0.50244140625	-0.47265625	0.403076171875	0	0	0	0.240552669362379	-0.286172137535575	0.585267015444153	0.719515421373335	0.151136056662828	0.704538343303786	0.693385617958122	-0.979896229629068	0.199193867791456	0.0111884848400659	-0.130235446538748	-0.681136936194945	0.720479841921908	0.889686843804453	-43.8987110244927	77.8925265834871
17028	1654837477994	6.78665802432314	0.0373667676260726	7.08100144461087	0.0678410947463173	-0.0341869989410296	-0.00478578155991194	0.0192953349273644	0.00468257949443278	-0.00692940897615432	0.508056640625	-0.47021484375	0.3935546875	0	0	0	0.240616554903834	-0.286094697357783	0.585275024619239	0.719518341119195	0.151205939401417	0.704553988716092	0.693354484282016	-0.979910470534031	0.19911363812632	0.0113678867814248	-0.130047043901465	-0.681144210939465	0.720506995299938	0.903916132387853	-43.8962354852631	77.8873546180151
17029	1654837477995	6.81012553811089	0.043448796569777	7.08280439506706	0.0650757146577062	-0.0160209421021594	0.0128570987747452	0.0176873984935082	0.00970986986542972	-0.0042659969084808	0.509521484375	-0.46923828125	0.38720703125	0	0	0	0.240553441620596	-0.286033948850155	0.585339831414383	0.719510878020239	0.151123723729937	0.704703850449894	0.693220097290241	-0.979929653714831	0.199022646968535	0.0113075091849711	-0.129998053432843	-0.681015762779931	0.720637243659346	0.89895352535987	-43.8855511217196	77.8962449175449
17030	1654837477997	6.77082229533139	-0.0105488588104566	7.07111867949472	0.115387291093485	-0.0462350319305953	-0.0234374958358075	0.0204946923327902	0.00392339078177596	-0.00909071303452647	0.5078125	-0.4677734375	0.40283203125	0	0	0	0.240626803270803	-0.285952868518771	0.58534110972162	0.719517535438451	0.151213484511498	0.704710536039839	0.693193726526959	-0.979942234590992	0.198949053635074	0.0115104701259675	-0.129798686305768	-0.681030347673399	0.720659397067121	0.915058192660666	-43.8834547536751	77.8893794924239
17031	1654837477997	6.80842412121522	0.0373139136314979	7.13143438708033	0.0667223946651192	-0.0507373110036846	0.0466412834351999	0.0190734110664298	0.00661628827233735	-0.00470425390322758	0.505859375	-0.4814453125	0.39599609375	0	0	0	0.240619851917781	-0.28591341020346	0.585380015753828	0.719503888721209	0.151167518043753	0.704773510580194	0.693139726370493	-0.979959280278052	0.198864648038227	0.011517845178466	-0.129723515545234	-0.680989831454995	0.720711217457786	0.915578568834789	-43.8791621918238	77.894002202969
17032	1654837477998	6.80330874210022	0.0624058825775823	7.13668214234893	0.0422999070237248	-0.0525438702828671	0.0471597947646156	0.0167080089929741	0.00853433888567614	-0.00431575265917074	0.5068359375	-0.473876953125	0.395751953125	0	0	0	0.240659559492041	-0.285832673701938	0.58539825753421	0.719507845089551	0.151217125440625	0.704820546912154	0.693081075794114	-0.979974008278316	0.198783713002016	0.0116609838377202	-0.12955432865175	-0.680964780363555	0.720765318138997	0.926885433909818	-43.8745003107143	77.8909310209951
17033	1654837477998	6.73545607310139	0.0271675961866896	7.1284307314735	0.0659998434190021	-0.100315055205665	-0.00619910163525894	0.015934004918901	0.00522422067660789	-0.00461566988327878	0.5048828125	-0.4697265625	0.397216796875	0	0	0	0.240575907903	-0.28584532090225	0.585475018487679	0.719468336886197	0.151022910490284	0.704926480487725	0.693015683526884	-0.979996470871257	0.198684470526999	0.0114629076279939	-0.129610947018088	-0.680884085787439	0.720831370109875	0.911060340626012	-43.8693029916536	77.9077890539834
17034	1654837478000	6.77863683140089	0.0607543046374644	7.13599445940699	0.0398331293080489	-0.0683699463137543	0.0295564916237812	0.0162909803057318	0.000355746460784368	0.000805946269860742	0.50390625	-0.48046875	0.3974609375	0	0	0	0.240630058162863	-0.285801992515506	0.585501607970043	0.719445802856058	0.151010176277322	0.704928248674904	0.693016659886922	-0.980018449003178	0.198570084346063	0.0115655184148205	-0.129459515965796	-0.680915623130304	0.720828792365407	0.919217636004082	-43.8693805885455	77.9088080977644
17035	1654837478001	6.7250981339209	-0.0454135216158267	7.11301595793814	0.137192857834261	-0.110471727896457	-0.0252986735529017	0.0133736021915723	-0.00297113015094013	-0.00132678897823236	0.5	-0.47802734375	0.39453125	0	0	0	0.240560297354949	-0.285823935358608	0.585570427657892	0.719404403354031	0.150823904457343	0.705008106499925	0.692975987761216	-0.980039670024039	0.198476035178103	0.0113801862530078	-0.129516002962626	-0.680860362504215	0.720870842625233	0.904437306856372	-43.8661482286609	77.9246123553567
17036	1654837478002	6.79892520022137	0.0956381095394153	7.11766565178536	0.0102611893459	-0.0343167507345146	0.0308085517154524	0.0137651544892806	-0.00743986400538385	0.000152170201228413	0.503173828125	-0.4755859375	0.39404296875	0	0	0	0.240628531699796	-0.28581544016282	0.585582150076092	0.719375416183229	0.150806159353589	0.704956106433898	0.693032748362282	-0.980057505247939	0.198382910488523	0.0114676603232222	-0.129401656512604	-0.680941340225178	0.720814887793067	0.911458853974836	-43.870659245842	77.9251269022589
17037	1654837478003	6.75000312369245	-0.0389238711253939	7.11347178036438	0.133156051605706	-0.0922493682597953	-0.00762247918609127	0.0149647624591333	-0.00819979397572884	-0.00201099139985687	0.512939453125	-0.47900390625	0.393798828125	0	0	0	0.240567458485681	-0.285870285678104	0.585646027193508	0.719322047845415	0.150593821197561	0.704994023022417	0.693040351292611	-0.980078375351045	0.198292057500403	0.0112533595656637	-0.129490845955899	-0.680928547965883	0.72081095536812	0.894433729848075	-43.871263510428	77.9422601853619
17038	1654837478004	6.81420535138944	0.0322811137934744	7.07847600085836	0.0784606492192802	-0.0100783642793052	0.0124335691670829	0.0171082377001132	-0.00818277629393242	-0.000176785179660398	0.5078125	-0.4697265625	0.3974609375	0	0	0	0.240649375352887	-0.285854910690427	0.585661102205706	0.719288482835386	0.150576086794732	0.70493695992407	0.693102246871697	-0.980100182720897	0.198177903010926	0.0113644440539851	-0.129346333214551	-0.681020852317462	0.720749696352866	0.903338192879509	-43.8761830662061	77.9426912165143
17039	1654837478004	6.79079947510114	0.0291564746171896	7.07660516432321	0.076768274597499	-0.0264086349414729	-0.00516181873870991	0.0149813475147217	-0.00800117935475674	-0.0039799578049507	0.496337890625	-0.46875	0.394287109375	0	0	0	0.24063967365569	-0.285909998827998	0.585707959373092	0.719231677806301	0.150403317794366	0.70491685902309	0.693160200719479	-0.980122014274563	0.198077467579784	0.0112318285044654	-0.129381911915155	-0.681070876416105	0.720696040066114	0.892865008333398	-43.8807896953255	77.9557880439383
17040	1654837478006	6.77138260300591	-0.00218586526029159	7.09411219877276	0.10346688404818	-0.0590789596256937	-0.0063700567088798	0.0167499015827495	-0.00331673352313488	-0.00559736653293112	0.50927734375	-0.468017578125	0.397216796875	0	0	0	0.240713743661018	-0.285872242086091	0.585708655537532	0.719221332863386	0.150444864066176	0.704881564608028	0.693187076301808	-0.980135075013276	0.198004528882228	0.0113772259733377	-0.129234583625403	-0.681128612244315	0.720667909634738	0.904456650590066	-43.8829260995671	77.9519726216684
17041	1654837478006	6.78605482709648	0.046076990009043	7.12850711472991	0.0541946435556841	-0.0621573374844735	0.0291354368584678	0.0200929079831555	-0.00405971362922302	-0.00592645421135509	0.50732421875	-0.471923828125	0.392333984375	0	0	0	0.240719935324769	-0.2858391742447	0.585731565111299	0.71921374627896	0.150429000198754	0.704918011440132	0.693153455626165	-0.98014676159001	0.197944892739016	0.0114081191769729	-0.129164397741096	-0.681108226778851	0.720699758408694	0.906872090462175	-43.8802535237708	77.9538105981237
17042	1654837478008	6.79509422737143	-0.00406489486253311	7.14273112914724	0.104355552060495	-0.0761653556625907	0.0450628162408932	0.0179320671908478	-0.00427625160956005	-0.00578624691149562	0.503173828125	-0.46875	0.392822265625	0	0	0	0.240801217322743	-0.285801005754688	0.585732296179696	0.719201109605342	0.150470924643339	0.704876174492659	0.69318690082082	-0.980161094883831	0.197864901895892	0.0115632466833474	-0.129006701039556	-0.681174764087987	0.720665117690989	0.919245804018412	-43.8829121499157	77.9498571624059
17043	1654837478012	6.79663778833068	0.0121204684614269	7.07066840717857	0.097525024334904	-0.0230431558708117	-0.00561126714517712	0.0179151101277732	-0.00447469453920168	-0.00381319095771075	0.506103515625	-0.4716796875	0.389892578125	0	0	0	0.240803134658892	-0.285821992119787	0.585759820511719	0.71916971003596	0.15038244298951	0.70486777722247	0.69321464026228	-0.980175103850045	0.197798566025061	0.0115105634519937	-0.129003436516472	-0.681202718661548	0.720639278318255	0.915091153005471	-43.8851173042167	77.9565968089343
17044	1654837478008	6.79653753772173	0.00885846784622677	7.09429157010359	0.0989835450484637	-0.040609160334104	0.0112897738590512	0.0179316235724571	-0.00427670309845202	-0.00578321714989261	0.511474609375	-0.4755859375	0.392822265625	0	0	0	0.240884252161213	-0.285784397747114	0.585760441885843	0.719156978542762	0.150423965452043	0.70482549721168	0.69324861997554	-0.980189340934304	0.197718963564871	0.0116647917087231	-0.128846756018369	-0.681269572142439	0.720604110130106	0.927395440826074	-43.8878186418361	77.9526670767361
17045	1654837478008	6.79639082817204	0.00570543364355768	7.11796284653158	0.0977579100235671	-0.0581592332879975	0.0282179095580748	0.0189093519000665	-0.00310121052019051	-0.00572843181959541	0.498779296875	-0.473388671875	0.39306640625	0	0	0	0.240884222165124	-0.285838903497051	0.585795649787255	0.71910664678463	0.150279155875862	0.704790926972235	0.693315169722152	-0.980207254705911	0.197636496404461	0.0115565181119101	-0.128879451935286	-0.681329262946035	0.720541825519014	0.918868167114411	-43.8931096045445	77.963353248214
17046	1654837478012	6.79700376773994	0.0124223336848652	7.09383953980242	0.0959757346983914	-0.0406471608623956	0.0113194620325352	0.0189423482924065	-0.00270585633152535	-0.0096696160710399	0.4990234375	-0.473876953125	0.40087890625	0	0	0	0.240969706588645	-0.285789192228867	0.585785295908197	0.719106198839574	0.150360249405837	0.704750599358125	0.693338581144147	-0.980216750548508	0.197578375208658	0.011743406406593	-0.128712537628384	-0.681387832555198	0.720516276223509	0.933758301525821	-43.8949710150732	77.9563786045469
17047	1654837478014	6.79792293196994	0.0241725763730331	7.04588146701881	0.090106032256472	-0.00342257172544961	-0.0224547311975929	0.020897746058042	-0.000354617739755431	-0.00956146126782218	0.508544921875	-0.469970703125	0.3984375	0	0	0	0.240900069637475	-0.285751873380031	0.585843414783236	0.71909701477866	0.150266720429841	0.704881209004145	0.693226077065855	-0.980231793789299	0.197509299607555	0.0116493353092305	-0.128707199394105	-0.681272748435887	0.720626046616925	0.926138623877256	-43.8860264997348	77.9658168273025
17048	1654837478015	6.76877235399924	0.0356385955345313	7.09689159339615	0.0696701343236443	-0.0571835449562823	-0.00578696767475506	0.0181690860785219	-0.00601693555124178	-0.00996226409135298	0.5087890625	-0.473388671875	0.396728515625	0	0	0	0.240991845472082	-0.285715920049817	0.585827932828206	0.719093162646035	0.150344092296634	0.704819308260529	0.693272238456618	-0.980240135674766	0.197457127068382	0.0118304430270612	-0.128553219811161	-0.681351910302635	0.720578686892093	0.940596181919173	-43.8896963487893	77.9587746632556
17049	1654837478016	6.78812595062358	0.0604771280524082	7.12642725334806	0.0439669032910911	-0.0587735780338931	0.0292072308141158	0.0157705693806947	-0.00449325947452957	-0.0056367760282735	0.50830078125	-0.47216796875	0.401611328125	0	0	0	0.240980027066115	-0.285727686031589	0.585868488504309	0.719059406563828	0.15023560722542	0.70483916430985	0.693275569147365	-0.980257826363573	0.197373481465781	0.0117602154334701	-0.128545152279556	-0.681355605590114	0.720576631980497	0.935016297486032	-43.8899611487837	77.9675391309108
17050	1654837478018	6.79350958450622	0.0433365074643655	7.09744233833959	0.0665184326319351	-0.0394736997790215	0.0118408788444793	0.0202633159029257	-0.00658878290038816	-0.00221129554138604	0.507080078125	-0.475341796875	0.4033203125	0	0	0	0.24106994058461	-0.285697112264976	0.585883102685879	0.719029508279844	0.150236300061243	0.704788506709568	0.693326917805738	-0.980280450225218	0.197252547467401	0.0119025805548071	-0.12837169878969	-0.681443022803607	0.720524887579972	0.946401185360355	-43.8940436715235	77.9666456132646
17051	1654837478018	6.75981102174774	-0.0342595349408443	7.08039244399917	0.139161019616724	-0.0660523220314386	-0.0247127580201116	0.0172067815384132	-0.00699753094685173	-0.0119809257229639	0.501953125	-0.476318359375	0.39208984375	0	0	0	0.241043097044389	-0.285674963085323	0.585931064860344	0.719008225311138	0.150149205395646	0.704858554499546	0.693274573504514	-0.980298465900058	0.197166025197746	0.0118522682097278	-0.128336019390698	-0.681395609507819	0.720576081666897	0.942334517824574	-43.8898819920405	77.9745787917976
17052	1654837478020	6.8183439398262	0.0515865729264737	7.0978851785393	0.0632227012652401	-0.0207131351441822	0.029468030968312	0.0222507851440193	-0.00384303027421512	-0.00604475294323029	0.502197265625	-0.466796875	0.395751953125	0	0	0	0.241137308152497	-0.285623596983654	0.585938517683157	0.718990968620852	0.150190428682768	0.704819994119615	0.69330484710646	-0.980318015405503	0.197057704224465	0.0120353594545108	-0.128138299518537	-0.681466827582245	0.720543918926174	0.956931513564754	-43.892288885801	77.9707344597
17053	1654837478020	6.77055522199749	0.0446309485811352	7.09513985511871	0.0625668959120959	-0.0534786808810086	-0.00571817453569956	0.016574476534923	-0.000790168560361228	-0.00927805496570548	0.509765625	-0.47802734375	0.39501953125	0	0	0	0.241097176372569	-0.285630081836203	0.585964081037604	0.718981017572213	0.150123104168001	0.704864890054818	0.693273784563482	-0.980323314925915	0.197036494557861	0.0119506495645814	-0.128176642987828	-0.681426523243966	0.720575215790837	0.95015620636038	-43.8898192688177	77.9767133227677
17054	1654837478021	6.82354753704075	0.036611658811582	7.06907019508837	0.0832940780407631	-0.000379917848619432	0.0121259437659553	0.0208623814410872	-0.000748852570147615	-0.00560859520161749	0.509765625	-0.470947265625	0.402587890625	0	0	0	0.241176045194272	-0.285572666323005	0.585975252691247	0.718968268219849	0.150162510965198	0.704848652735498	0.693281758765929	-0.980341797852961	0.196934236915759	0.012118816478204	-0.127988982662773	-0.681472877719547	0.720564734947241	0.963538104610207	-43.8904532453188	77.9733801461429
17055	1654837478022	6.78481154416307	-0.0174874769695462	7.05717642144157	0.131151946496158	-0.0296931628003436	-0.0239371980128116	0.0196793697295416	0.000209986969920271	-0.00541720140893173	0.4990234375	-0.4765625	0.39013671875	0	0	0	0.241148521994218	-0.285571459520923	0.586049695801793	0.718917301153422	0.149989391115432	0.704912260520813	0.693254561845978	-0.980372802069622	0.196786288781261	0.0120135552546182	-0.127954490014924	-0.681449823182262	0.720592663694188	0.955133580203035	-43.8882910244496	77.9878949358038
17056	1654837478023	6.80372804744551	0.00752452385667764	7.08710305034399	0.107261531553334	-0.0321104617886063	0.0110219765814854	0.0206726576515504	0.00158168064603554	-0.00733397236598833	0.500244140625	-0.474365234375	0.394775390625	0	0	0	0.241222100622955	-0.285504456408772	0.586057275394789	0.718913050026648	0.150048150655138	0.704908477264472	0.693245693218254	-0.980388416113027	0.196697536255772	0.0121915045133775	-0.127765824993867	-0.681479359857357	0.720598207083562	0.969271240391671	-43.8875859640812	77.9832632411905
17057	1654837478024	6.77930024947309	0.000488765953038478	7.10980681329496	0.105990329611922	-0.0653191226067139	0.0103856808887119	0.0230702675368211	5.47434051822934E-05	-0.0116519658855861	0.502685546875	-0.468994140625	0.3876953125	0	0	0	0.241161263735957	-0.285526599435864	0.586109162509188	0.718882365558265	0.149901221274741	0.704971171339589	0.693213727100401	-0.980402993540323	0.19663458899211	0.0120336473721493	-0.127826421828644	-0.681432671649952	0.720631611775735	0.95667900147626	-43.8850447108702	77.9957253283836
17058	1654837478025	6.75078322878478	0.0217555849644258	7.11309798644015	0.0823088958729902	-0.0839856834129347	-0.00677680703416783	0.0199003777180077	-0.00172952583266491	-0.00762353850608426	0.502685546875	-0.4814453125	0.39599609375	0	0	0	0.241240810851462	-0.28547444056222	0.586111441202257	0.718874532486184	0.149955444555002	0.704945005520957	0.693228608641745	-0.980417347595347	0.196552499343085	0.0122040786662035	-0.12765261134194	-0.681483421803528	0.720614429930833	0.970248903557017	-43.8862277551723	77.9910763027273
17059	1654837478025	6.77502114433794	0.0282386546559181	7.1141217556179	0.0776318673209279	-0.0664153579912881	0.0108557443445658	0.0224715270800749	-0.00578267015856973	-0.00823984674171932	0.503173828125	-0.477783203125	0.39599609375	0	0	0	0.241211750914154	-0.285538696328501	0.586161237273765	0.718818160620359	0.149765313633416	0.704936107017878	0.693278757683201	-0.980437262598449	0.196463790277233	0.0120313431653521	-0.127722844239954	-0.681518205283162	0.720569088239896	0.956578829699192	-43.8902146481356	78.0057143746903
17060	1654837478027	6.77102044575315	0.0535198686289486	7.1181612294157	0.0529941554821959	-0.0681839590817304	0.0112804643952646	0.018498622924166	-0.0112674844954294	-0.000562995281763132	0.51025390625	-0.469482421875	0.40478515625	0	0	0	0.241303069310814	-0.285534702252077	0.586175823175283	0.718777202529252	0.149735676269194	0.704858836648072	0.69336371959552	-0.980460436840774	0.19634146613192	0.0121392119664577	-0.127579618443564	-0.68163336851734	0.720485525101996	0.965265483699241	-43.8969698041572	78.0067426673853
17061	1654837478029	6.76198532495282	-0.0150555833130725	7.07838284737978	0.122976993655829	-0.060616540438968	-0.0244608709119234	0.0216831925830249	-0.00928989081056165	-0.00655768277445895	0.504638671875	-0.469970703125	0.398193359375	0	0	0	0.241293143198592	-0.2855314002113	0.586242811242341	0.718727211677278	0.149582371520103	0.704903784102354	0.693351115444841	-0.980490860257873	0.196193970624042	0.0120664345002715	-0.127525633035867	-0.68162935753161	0.720498877077436	0.959461795051091	-43.8959676242998	78.0194086739504
17062	1654837478030	6.80184305052355	0.0475720524955197	7.0655114503626	0.0705510958888924	-0.0128248312819904	-0.00536144132985861	0.019728692612952	-0.0116425749751928	-0.00665914097367846	0.498046875	-0.47119140625	0.39306640625	0	0	0	0.241398264149925	-0.285517664828792	0.586237239173419	0.7187019135514	0.149611124954083	0.704812713830432	0.693437487963375	-0.980506588525673	0.196105554943462	0.0122246136161303	-0.127370880297344	-0.68174896387402	0.720413082272234	0.972152738818758	-43.9028356048841	78.0156687086511
17063	1654837478031	6.77188613960186	-0.0678813542793703	7.1156656852667	0.172227726229863	-0.090753716845199	0.00860832347193074	0.0183554033853309	-0.00835427556188397	-0.00820005676834367	0.51123046875	-0.46923828125	0.40478515625	0	0	0	0.241378487050929	-0.285530575583994	0.586262309698192	0.71868297643886	0.149537589268029	0.704831606733144	0.693434146509877	-0.980515360098125	0.196065860432692	0.0121575895814879	-0.127389709190146	-0.681740848506794	0.720417432791356	0.96681788250565	-43.9025698917775	78.0217007755743
17064	1654837478031	6.79809137211779	0.0701573708135398	7.09283935179939	0.0451808905476767	-0.0307561817523307	0.011993333799639	0.0214920282888383	-0.0069607548579731	-0.00828236235101545	0.4951171875	-0.477783203125	0.3896484375	0	0	0	0.24147787794129	-0.285493059035436	0.586259615166875	0.718666690011405	0.149586753733954	0.704769998112986	0.693486159102803	-0.980531030364364	0.195976196178719	0.0123381126562327	-0.127211247930106	-0.681830316347947	0.720364295415121	0.981243341373447	-43.9067060788997	78.0168592353664
17065	1654837478032	6.80288783427266	0.0439746588024934	7.11162003017772	0.0681470467645325	-0.0449657182347147	0.0285366336912496	0.0216976613250716	-0.0090962235290776	-0.00851905178432566	0.5048828125	-0.46630859375	0.400634765625	0	0	0	0.24145290183718	-0.285511449148284	0.586315330158503	0.718622322378576	0.149435092052746	0.704803432600146	0.693484877022015	-0.980553704218513	0.195869659631062	0.0122274109837441	-0.127214725588436	-0.681826369269379	0.720367417199304	0.972436782911237	-43.9066041207884	78.0292094214873
17066	1654837478032	6.76475472369155	-0.0100472056694763	7.09933451007722	0.118395895696091	-0.0751867850592276	-0.00743943228347987	0.0171717396152686	-0.00739618186140359	-0.00800606454779353	0.5078125	-0.475830078125	0.390380859375	0	0	0	0.241536834511702	-0.285488775439046	0.586307579433593	0.718609448150455	0.149479162794069	0.704740221990068	0.693539616316022	-0.980564442422746	0.195806759745575	0.0123728369466683	-0.127080109169587	-0.68190976847918	0.720312233344761	0.98407550992842	-43.9109574457901	78.0247379316757
17067	1654837478034	6.80866149360823	0.0243868351539651	7.10589317175107	0.0897929201300494	-0.0425965481371556	0.028161489070488	0.0195679267083079	-0.00892694905155139	-0.0123198087577839	0.5087890625	-0.477783203125	0.396240234375	0	0	0	0.241559794034294	-0.28551910149579	0.586317455696217	0.718581623570392	0.149421367653903	0.704694027783339	0.693599006699788	-0.980573769184058	0.195761414104049	0.0123511916896217	-0.12707611135303	-0.681970524256348	0.720255417174293	0.982431764925896	-43.9156810244108	78.0284724232211
17068	1654837478034	6.78952504247607	-0.00605535340714394	7.12342417653146	0.116300126708037	-0.0752145128735377	0.0271132212998175	0.0248334652614438	-0.00770206030093708	-0.00859636471523433	0.502685546875	-0.471923828125	0.391357421875	0	0	0	0.241672738157896	-0.285474858860457	0.586318151558756	0.718560656968214	0.149470260222652	0.704627330720806	0.693656230499118	-0.980593293984988	0.195650625567977	0.01255485987697	-0.126867778023594	-0.68207122613121	0.720196785179734	0.998709857896447	-43.9202326397476	78.0235674542441
17069	1654837478035	6.78613757147751	0.0294686610923288	7.07964346354232	0.0851395842193359	-0.0413971417206192	-0.00631596304007686	0.0258399481332319	-0.00613957945881976	-0.0124830679373716	0.501708984375	-0.468017578125	0.39404296875	0	0	0	0.241672987487622	-0.28552373853306	0.58636511296016	0.718502829608994	0.149304298074647	0.704603235911907	0.693716445328282	-0.980616735471584	0.195540242844052	0.0124431323043413	-0.126882010897886	-0.682127769095321	0.720140723705825	0.98990100635587	-43.9250225394048	78.0360846350407
17070	1654837478036	6.83480698594547	0.0457225422654514	7.0578357636971	0.0813074208537093	0.00997202494746331	0.0119251941178451	0.0256181411223137	-0.00419736543037411	-0.010271626018583	0.5126953125	-0.47119140625	0.397216796875	0	0	0	0.241780062427329	-0.285463720047059	0.586365379444682	0.718490436775762	0.149372212651176	0.704556963067359	0.69374882189521	-0.980634707282221	0.195436086402661	0.0126612402679971	-0.12666298970577	-0.682205410360334	0.720105731899062	1.00729775912753	-43.9275981525861	78.0300360623353
17071	1654837478037	6.80607092381842	0.0624763573366557	7.0848760996885	0.0574758604204684	-0.0258813168028719	0.011670138360234	0.0232516913815417	-0.00228014338194581	-0.00989597516981508	0.505126953125	-0.470703125	0.399658203125	0	0	0	0.241810594723952	-0.285455515124582	0.586386310359609	0.718466338938055	0.149332487815608	0.704545315455911	0.693769202654552	-0.98064998697394	0.195357462604186	0.0126911328440928	-0.126591512870388	-0.682239957986913	0.720085570328417	1.00970371259869	-43.9292195352507	78.0329354982293
17072	1654837478038	6.79182192708791	0.0177490141423719	7.05042923917619	0.10520910956482	-0.0216882459176313	-0.0236029843270966	0.0208554603243499	-0.000747634564477595	-0.00558069269794153	0.515380859375	-0.47412109375	0.397705078125	0	0	0	0.241883698927223	-0.285403139818603	0.586400646977174	0.718450837009547	0.149358658012869	0.704531336997847	0.693777764463968	-0.980668805576916	0.195253114836072	0.0128419202285657	-0.126414734287346	-0.682284263584349	0.720074647949935	1.02171328964261	-43.9299006795511	78.0306681467813
17073	1654837478039	6.78691561737288	0.03845229882809	7.0788544708029	0.0800542841344262	-0.0404045693388614	-0.00626899091001576	0.01989364499653	-0.00173237859969127	-0.00759988761751644	0.50244140625	-0.47265625	0.39794921875	0	0	0	0.241887033785194	-0.28540470811228	0.586456104038371	0.718403823423902	0.14922678124696	0.704553218275686	0.693783921964214	-0.980696011370119	0.195119801845472	0.0127904734284274	-0.126359412159964	-0.682299806203371	0.72006963094789	1.01762809282006	-43.9303905511754	78.0412928168544
17074	1654837478040	6.79124387099875	0.0123142193682886	7.09817862493655	0.105559293366617	-0.0561214970993929	0.0102954805272546	0.0230441326384658	-0.000145796553764962	-0.00965226744229756	0.5068359375	-0.47265625	0.4033203125	0	0	0	0.241971964895833	-0.285339148613394	0.586459578975562	0.718398427546191	0.14929346499278	0.704535129807516	0.693787944675862	-0.980711427614264	0.195029460864512	0.0129848042607452	-0.126160838049062	-0.68234431210497	0.720062276946067	1.03309655059343	-43.9307105878182	78.0358045660448
17075	1654837478041	6.79096340288428	0.00994510489157287	7.12204858818774	0.104593646171411	-0.0716691615379784	0.0272710811028691	0.027539839127725	-0.00222869309165449	-0.00621466633392165	0.506103515625	-0.470703125	0.4013671875	0	0	0	0.241945383779759	-0.285286271071807	0.586549862242361	0.718354671390864	0.149142005282822	0.704654274407805	0.693699514068611	-0.980749059774064	0.194843380742266	0.0129359473256793	-0.126047387963841	-0.682274439312901	0.720148349611217	1.02908724899962	-43.9236756721487	78.0495559381841
17076	1654837478042	6.81161749611509	0.0540763287247786	7.05574619731668	0.0742747770082632	-0.00395265455319605	-0.00559406395471207	0.0179255146696647	-0.00427839792161793	-0.00572425402546342	0.512451171875	-0.47265625	0.3896484375	0	0	0	0.242017766328713	-0.285255090755536	0.586555877444395	0.718337759424316	0.149163471666973	0.704616869764043	0.693732892087565	-0.98076406935824	0.194759206833392	0.0130648999037036	-0.125905118943281	-0.682337100118079	0.720113867958623	1.03939326936904	-43.9263308942675	78.047269113637
17077	1654837478044	6.78179751449045	0.0563306801126976	7.15463675065501	0.0543640895328529	-0.0927545613153038	0.0449603492447412	0.0211051533477478	-0.00230972526481097	-0.0117168801805994	0.50537109375	-0.483642578125	0.396728515625	0	0	0	0.242042223575398	-0.285284390129071	0.586581752120539	0.718296754019228	0.149069329655764	0.704577800753805	0.693792805988151	-0.980781273306573	0.19467482017175	0.0130310522305095	-0.125882599620117	-0.68240152188871	0.720056757510721	1.03678327367581	-43.9310973436796	78.0539527579218
17078	1654837478046	6.79199361632455	0.0205200135766111	7.09744222526828	0.0995887520360253	-0.0541335279341617	0.0103689827971163	0.0188720505175576	-0.00348342406051596	-0.00172991445202052	0.50634765625	-0.467041015625	0.39697265625	0	0	0	0.242109820193581	-0.285253259605956	0.586604176354511	0.718268023187344	0.149052236335247	0.704552813501527	0.693821853093821	-0.980803275072851	0.194556750498556	0.0131379770821909	-0.125731326445844	-0.682460990696556	0.720026825700018	1.04533204725109	-43.9334083232063	78.0548717704876
17079	1654837478044	6.7836036424162	0.0736676429213049	7.08204417937848	0.0455842520300892	-0.0390751056569613	-0.00583006602072089	0.0163574294858424	-0.0112854884371608	-0.00234955106767198	0.50927734375	-0.46826171875	0.391357421875	0	0	0	0.242058628684892	-0.285342447464702	0.586689068389668	0.718180510029412	0.148751249413834	0.704558105651752	0.69388107162412	-0.980836511807338	0.194407114622506	0.0128689894616844	-0.125828466188841	-0.682498168162059	0.719974615908087	1.02400870514903	-43.9381200109544	78.0783891412635
17080	1654837478044	6.79787029397445	-0.000243143052172581	7.09171740954779	0.119716682644225	-0.0512081560226984	0.0100689626141719	0.018309508867792	-0.00893175180731281	-0.00224738402463732	0.504638671875	-0.472900390625	0.39599609375	0	0	0	0.242139980411014	-0.285332716559683	0.586702762640555	0.718145764491559	0.148730218341224	0.704495291214856	0.693949354642157	-0.980857124808388	0.194296196392989	0.0129726165378762	-0.125692572830671	-0.682594588847078	0.719906941494451	1.03234973675727	-43.9435533728747	78.0789940432723
17081	1654837478044	6.77947198729529	-0.0219723025884459	7.06144945868173	0.140833248930768	-0.0488912923317684	-0.0247577035624999	0.0193143201055065	-0.0073739250287645	-0.0061357061806757	0.498046875	-0.473876953125	0.395263671875	0	0	0	0.242159434465074	-0.285397994162323	0.586727625538074	0.718092951266151	0.148597356717152	0.704426310696405	0.694047835797596	-0.980873578151663	0.194219003460017	0.0128841910475573	-0.125721315856252	-0.682687740840312	0.719813586455356	1.02544736723554	-43.951390511631	78.0882058404061
17082	1654837478045	6.77990316140917	-0.0200462622375024	7.06104121247789	0.14038601262892	-0.0488680445573609	-0.0247511626436676	0.0234254791138317	-0.00480182082167908	-0.00616766521139441	0.51318359375	-0.469482421875	0.39794921875	0	0	0	0.242252343407014	-0.285354619274893	0.58673937910805	0.718069247619051	0.148619284524761	0.704383358566455	0.69408673265089	-0.980894659451892	0.19410140623542	0.0130503316505229	-0.125530774418484	-0.682765500206383	0.719773086744581	1.03872598008515	-43.9544862112432	78.0857925930532
17083	1654837478047	6.79924737952985	0.00550531943143009	7.09039501041452	0.113773351058981	-0.0503392491876437	0.0101440911337818	0.0246226219247445	-0.00557063054680088	-0.00831900191835337	0.509521484375	-0.473388671875	0.39404296875	0	0	0	0.242253651022172	-0.285366221259006	0.586790374084869	0.718022524167678	0.148486353291391	0.704395393158637	0.694102970014619	-0.980919429072218	0.193980450895535	0.0129868525440356	-0.125494527987716	-0.682787459439067	0.719758576661568	1.03369536731765	-43.9557785485963	78.0963425756492
17084	1654837478049	6.79527470515974	0.035987622259945	7.07063287519709	0.0874485619980223	-0.0345845214046603	-0.00646184378312142	0.0222701549873532	-0.00346373764499261	-0.00991884903953777	0.49853515625	-0.46728515625	0.394775390625	0	0	0	0.242343294753864	-0.285317349928219	0.586788924922611	0.718012879345452	0.148545534836211	0.704354517839321	0.694131786679995	-0.980933504367504	0.193896970152017	0.0131690916602761	-0.125314341116701	-0.682853335764867	0.719727474635561	1.04824285811277	-43.9580721460898	78.0910622823426
17085	1654837478049	6.77192448948922	0.0385112402007988	7.04517861353596	0.084098016861727	-0.0333580457965996	-0.0409525955000163	0.0234672180818649	-0.00423298050541444	-0.0120696283574984	0.507080078125	-0.470458984375	0.3974609375	0	0	0	0.242344495272639	-0.28533796454609	0.586809347887424	0.717987591001182	0.14847407044126	0.704343490133243	0.694158266041344	-0.980943830133421	0.193847869685972	0.0131227109007667	-0.125318205101167	-0.682878650512031	0.719702783199488	1.04458765673504	-43.9601797891973	78.0964470750648
17086	1654837478050	6.83493476959562	0.101220318813777	7.05742984367702	0.0319102344437225	0.0138599788058067	0.0124174302582176	0.0214587212108822	-0.00734503504715537	-0.00428671635177763	0.498291015625	-0.47314453125	0.3896484375	0	0	0	0.242433997849764	-0.285312898531119	0.5868224954378	0.71795659023823	0.14847181755985	0.704287062541217	0.694215998755098	-0.98096524905723	0.193730231069467	0.0132581187148327	-0.125153104366454	-0.682970227101324	0.719644613236704	1.05544918573314	-43.9647753237735	78.0956960506388
17087	1654837478051	6.77663818629902	0.00972451836726186	7.08786640209821	0.107431238056725	-0.0657949140036072	-0.00733683165112175	0.0210716764746826	-0.00269535472623733	-0.00775908596052847	0.50146484375	-0.48193359375	0.39306640625	0	0	0	0.242390091069329	-0.285361343350454	0.586869508591014	0.717913732532516	0.148306167214732	0.704305834839431	0.694232361516811	-0.980980882848961	0.193662447275088	0.0130906073310518	-0.125226946984058	-0.682970092702862	0.719631894945253	1.04213535226188	-43.966077867258	78.108907305011
17088	1654837478052	6.80121904304958	0.0208297728485925	7.06484961530072	0.104409408692642	-0.0313364479995458	-0.00670802195934783	0.0212649201479653	-0.0050202822206135	-0.00601947722553127	0.510986328125	-0.471435546875	0.393310546875	0	0	0	0.242473636705398	-0.285327307779814	0.586879426605132	0.717890939882664	0.148321732125511	0.70426214638925	0.694273356065531	-0.980999546264177	0.193558148260982	0.013233800333206	-0.125062200559431	-0.683044707471618	0.719589725875965	1.05359403006969	-43.9693413282542	78.106978130953
17089	1654837478053	6.82077151008324	0.0507912823184447	7.07031241290157	0.0741122508385713	-0.015887485103845	0.0112159364193456	0.0198877826175884	-0.00173733683448138	-0.00757253747265113	0.508056640625	-0.4765625	0.40283203125	0	0	0	0.242408279817864	-0.285432794408894	0.586962451376754	0.717803194772401	0.148006401099444	0.704264500226816	0.694338259750867	-0.98102959101188	0.193426613099071	0.0129262099659678	-0.125200027127204	-0.683079540804213	0.719532691503348	1.02919245617579	-43.974508495241	78.1315833326484
17090	1654837478055	6.77268818315079	0.0391739719363348	7.09166540098916	0.0770964463477844	-0.0672126578718388	-0.00696983595644518	0.0222541156400789	-0.00365461950127218	-0.00793541646883207	0.498779296875	-0.470703125	0.396240234375	0	0	0	0.242492974652073	-0.285390242385679	0.586968899423343	0.717786234129063	0.148039841321585	0.704226134110365	0.694370043577234	-0.981046649361483	0.193329336708276	0.0130858451979649	-0.125026705779554	-0.683146631115098	0.719499133590865	1.04194850687994	-43.9770390600599	78.1283495058668
17091	1654837478057	6.82585742527916	0.0314602111187736	7.06538845494327	0.0947176703889252	-0.0120000445638761	0.010953382505317	0.024412729857496	-0.00343605118619854	-0.00806588806628641	0.50830078125	-0.466796875	0.390625	0	0	0	0.24243590508971	-0.28537079797396	0.587055702302317	0.71774225316709	0.147858220116077	0.704341109624128	0.694292120103316	-0.981077620396087	0.193180868635333	0.012955877093031	-0.124998598000366	-0.683070093977734	0.719576679174077	1.03149101529031	-43.9708351404733	78.1443823831015
17092	1654837478058	6.77776344992939	0.0200058903660118	7.08676881290881	0.0976923602249955	-0.0633129804342975	-0.0072186259377478	0.0220457524212207	-0.00151923011440485	-0.00769926863134835	0.504638671875	-0.477783203125	0.399169921875	0	0	0	0.242512272471982	-0.28532152881273	0.587066182584744	0.717727469281912	0.147889844922685	0.704319106379973	0.694307705672968	-0.981094995730193	0.193082189931703	0.013110197723577	-0.124824689552658	-0.683120680640906	0.719558845792884	1.04380051863798	-43.9720759421946	78.1415584540889
17093	1654837478059	6.82104539548575	0.0544449330765691	7.09362945209452	0.0679761001457427	-0.0309690812156061	0.0282284123379206	0.0184816782402391	0.00116827625648588	-0.00518220937369089	0.50537109375	-0.47265625	0.390380859375	0	0	0	0.242475738568846	-0.285367956576833	0.587126802221839	0.717671765974817	0.14769449494384	0.704339045933688	0.694329060702853	-0.981118270073089	0.1929752686365	0.0129416314064305	-0.124873040693631	-0.683130334612578	0.71954129112931	1.03040774332514	-43.9737761055199	78.1571056032175
17094	1654837478061	6.77772915511124	0.0239319967644984	7.08678945085009	0.093804570392567	-0.0629973990577452	-0.00717862991895757	0.0251933614960757	6.42466024960428E-05	-0.00974764299688846	0.509521484375	-0.471435546875	0.396484375	0	0	0	0.242561126956267	-0.285302186656755	0.587136441991482	0.717661173858641	0.147746921548913	0.704323616512486	0.694333558454142	-0.981136496186686	0.192869796350576	0.013130784675745	-0.124667650267954	-0.683176027739893	0.719533523957159	1.04547601874324	-43.9741341965338	78.1527683558159
17095	1654837478063	6.77772445045658	0.0259662346931695	7.08678676907075	0.0904037648531525	-0.0632703430762849	-0.00714844322457431	0.019650809708398	2.23227632568258E-05	-0.00339045457470305	0.5	-0.478515625	0.39453125	0	0	0	0.242545988803464	-0.285372629434876	0.587194875830553	0.717590470591073	0.147529280335534	0.704298921384372	0.694404882457266	-0.981162867719278	0.192747242227384	0.0129586890780088	-0.124717835342672	-0.68323607190381	0.71946781136955	1.03187092738896	-43.9798129860527	78.1693248633626
17096	1654837478064	6.8264438370713	0.0461393300761119	7.04112058475576	0.0847568316923921	0.00561617214959865	-0.00592297770624839	0.0244116671246228	-0.00343737831108903	-0.00805220563592825	0.502685546875	-0.473876953125	0.395751953125	0	0	0	0.242635995233187	-0.285324957393359	0.587205105472385	0.717570628309746	0.147559665591285	0.704262062957012	0.69443580824301	-0.981182482965029	0.192635875848732	0.0131283836999338	-0.124527427553807	-0.683305470500219	0.719434885011358	1.04542817811075	-43.9822754539572	78.1663550634484
17097	1654837478065	6.79258622858445	0.0816281784879731	7.09664526499212	0.0351320089735736	-0.0482514204524826	0.0109933171571868	0.0218227020805269	0.000428373455253041	-0.00548841776986515	0.506591796875	-0.46630859375	0.3955078125	0	0	0	0.242516755506007	-0.285380971228855	0.587313217485857	0.717500180575396	0.147241771653772	0.704375344749689	0.694388388719898	-0.981214013651988	0.1924976157305	0.0127955988929235	-0.124655204838042	-0.683227664579553	0.719486649118631	1.01886051103046	-43.9784997127924	78.1929780448776
17098	1654837478066	6.79229078651078	0.0789790820277765	7.12056087605156	0.0359417388913315	-0.0657138565257066	0.0279543129230042	0.0220306172925319	-0.00170781970482999	-0.0057159316477263	0.506103515625	-0.466796875	0.40234375	0	0	0	0.242588290115917	-0.285337916290182	0.587331516009632	0.717478142752544	0.147247927658008	0.704355776137106	0.694406932873453	-0.981234325009402	0.192385223600925	0.0129276897922827	-0.124487940073589	-0.683279493591251	0.719466390051625	1.02940508975517	-43.9799762474272	78.1921794349816
17099	1654837478067	6.77304207892618	0.0527823044318693	7.11486099965445	0.0605335267851057	-0.0800833058388127	0.0101459416006158	0.0218084663921989	0.000241509531147085	-0.0035150124745619	0.501953125	-0.476318359375	0.394287109375	0	0	0	0.242614430974996	-0.285278276735042	0.587361111089869	0.717468792272555	0.147246460004718	0.704401280443829	0.694361084829193	-0.981251787562228	0.192290326123906	0.0130138343732524	-0.124351957853552	-0.683259296744842	0.719509085411527	1.03620163499763	-43.9763257715069	78.1930351874183
17100	1654837478068	6.77311460304297	0.0544246271540969	7.11477958034104	0.0598870666390691	-0.0800421351277493	0.0101502397278246	0.017699241088357	-0.00233292622736515	-0.00347934479295568	0.513427734375	-0.482421875	0.396728515625	0	0	0	0.242669243741407	-0.285252549990066	0.58738047033293	0.717444634754213	0.147230331591263	0.704381892836739	0.694384172128988	-0.981269975162327	0.19219164242688	0.0130999399306043	-0.124227474032333	-0.683307047837933	0.719485241732278	1.04309067452507	-43.9781639817769	78.1939763245142
17101	1654837478069	6.78297402271334	0.0134887423929789	7.08175508781957	0.101677550989705	-0.0584168987170521	-0.00725914290863194	0.0167511807177459	-0.00313838842388865	-0.00746558683696283	0.5078125	-0.4755859375	0.390625	0	0	0	0.242581660602436	-0.28537597861436	0.587491793013171	0.717334010006099	0.146827887944131	0.704401729878989	0.694449259676583	-0.981309645032256	0.192015062163067	0.0127120599896899	-0.124390320718832	-0.683336241425846	0.719429377538521	1.01229060506235	-43.9833465571935	78.2256674534125
17102	1654837478070	6.78784671871806	-0.00819570102755585	7.07713498313903	0.125337774136297	-0.0565894516367207	-0.00749192585646341	0.0232131238846596	-0.00266695531369916	-0.00588825836122098	0.506103515625	-0.474609375	0.392333984375	0	0	0	0.24265944064106	-0.285333903439891	0.58751042619015	0.717309179178261	0.146832125331246	0.704375312328945	0.694475158916581	-0.981331173947562	0.191895789971272	0.0128504019392507	-0.12421535335621	-0.683396974805129	0.719401918831045	1.02334381308581	-43.9854089018315	78.2249078597835
17103	1654837478071	6.77400615569041	0.0647077240453001	7.09021943370223	0.047573627822018	-0.0624508045615025	-0.0067506779845008	0.0232534672666486	-0.00210999378752585	-0.0117938122357245	0.49755859375	-0.472900390625	0.38671875	0	0	0	0.242648393883047	-0.285442822175019	0.58756646750431	0.717223673953422	0.146576083066534	0.704308676338125	0.694596818526914	-0.981357645722976	0.191774806420968	0.0126330836797186	-0.124308579969088	-0.683499606479066	0.719288304429476	1.00620010168464	-43.9950975599607	78.2437879085035
17104	1654837478073	6.78317548620753	0.015357952916637	7.10521234200135	0.0969883990183781	-0.0763448960088832	0.00976204105536382	0.0232261250620446	-0.002481206978852	-0.00785252090696642	0.513427734375	-0.4755859375	0.396484375	0	0	0	0.242727663713074	-0.285399433733397	0.587578264733829	0.71720445293196	0.146597892074077	0.704278820275989	0.694622488370553	-0.981376171376555	0.191670128161551	0.0127817144714012	-0.124136490580856	-0.683559730587749	0.719260888986099	1.01807456844061	-43.9971420423093	78.2416028309077
17105	1654837478076	6.78330971544394	0.017559904247585	7.10507909406287	0.0924550686126952	-0.0765170738398331	0.00980441788824926	0.0220557546081754	-0.00133776111307145	-0.00964002665902617	0.5	-0.470458984375	0.394287109375	0	0	0	0.242697571549695	-0.285497312060238	0.587635330049165	0.71712892317091	0.146352007368777	0.70424157426871	0.694712095051367	-0.98139959155265	0.19156521528378	0.0125542818819213	-0.124241424812423	-0.68362751068459	0.71917834714052	1.00007782326556	-44.004279345329	78.260173474042
17106	1654837478073	6.75517148715707	0.0433747068556955	7.08413806341913	0.0670034900827192	-0.077715121216639	-0.0244952029587484	0.0244091540459398	-0.00343975888557022	-0.00802642405207071	0.51123046875	-0.473876953125	0.39111328125	0	0	0	0.242783294825203	-0.285455241165283	0.587647124203571	0.717106989549231	0.146372325413085	0.704204192359311	0.694745707303568	-0.981419248260233	0.191454258338183	0.0127092922106586	-0.124062087268775	-0.68369709844912	0.719143154090177	1.01247297271372	-44.0069568317885	78.2579829045029
17107	1654837478074	6.77879102622819	0.0411058236503395	7.13298064284452	0.0651137081656897	-0.0958404777982006	0.0270120574705963	0.0224725924909076	-0.00561088646954096	-0.0100895354301798	0.50634765625	-0.472900390625	0.393798828125	0	0	0	0.242786798380847	-0.285533360856256	0.587681314431442	0.717046681212766	0.146202745012527	0.704142411221216	0.694844027153126	-0.98143733327407	0.191370486400222	0.0125736943984538	-0.124118967956896	-0.683784177686582	0.719050540740219	1.00180191093675	-44.0147894931842	78.2702090350452
17108	1654837478076	6.76055225931916	0.0244592031520488	7.07905178863823	0.0869191807186381	-0.0759656163309083	-0.0246685080757558	0.0267756513118945	-0.00535657843364701	-0.00837827737917574	0.504150390625	-0.479736328125	0.39794921875	0	0	0	0.242886552561589	-0.285491942197452	0.587692920525919	0.717019877471182	0.146222764208084	0.704090704483448	0.694892209689639	-0.981459318981255	0.191246307496924	0.0127457857209411	-0.123921379964069	-0.683872158907492	0.719000947050146	1.01558036769774	-44.0186283378843	78.2678097711789
17109	1654837478080	6.79023215976199	0.0172224400215052	7.02749235568511	0.102801801011353	-0.0211578168382765	-0.0411889313786204	0.0301436347518915	-0.00572702827890387	-0.0126211480810029	0.512451171875	-0.4765625	0.39501953125	0	0	0	0.2428615181002	-0.285535304545494	0.587777705352336	0.716941588956117	0.14597391789771	0.704113488990324	0.69492144154247	-0.98149563912281	0.191071304233618	0.0125724731604424	-0.12392709823319	-0.683897617571765	0.718975745768357	1.00180881531522	-44.020957446897	78.2875924311533
17110	1654837478081	6.79471566562124	-0.0128562380604088	7.07065992249258	0.129175535367234	-0.0543461092645511	-0.00743786056222362	0.0214837784024258	-0.00697414181421577	-0.00815927520784361	0.513427734375	-0.477783203125	0.388427734375	0	0	0	0.242945676152351	-0.285516482410298	0.587781134581133	0.716917759956777	0.145987352205131	0.704051478953895	0.694981444341478	-0.981511458441139	0.190981472538786	0.0127017359311775	-0.12378590365984	-0.683986543822135	0.718915473421853	1.01219152763076	-44.0257385820959	78.2855411309978
17111	1654837478082	6.83858530938929	0.0269962324198626	7.05308840090987	0.0962596135817862	-0.00625693396048211	0.0109437310749545	0.030934050267289	-0.00204595799393118	-0.0162777620053134	0.508544921875	-0.47119140625	0.39404296875	0	0	0	0.243014680601071	-0.285620897300694	0.587859263429196	0.716788709759012	0.145684378851259	0.703921623645554	0.695176531194006	-0.981561908167632	0.190730702825685	0.0125705781067361	-0.123742806631498	-0.684190139335425	0.718729136075011	1.00200146093285	-44.0412861331962	78.3070854863851
17112	1654837478082	6.82019302478186	0.128409877594267	7.04649485043941	-0.00339140589617781	0.00405904996834606	-0.0053134349478583	0.0218301392517612	0.00061295072973681	-0.00742874456929939	0.50341796875	-0.468017578125	0.39404296875	0	0	0	0.243076292384754	-0.285576831288003	0.587874495933308	0.716772883515514	0.145698900925325	0.703911080509745	0.6951841633731	-0.981578909871641	0.190634986223281	0.0126943185264276	-0.123590751937002	-0.684227661501092	0.71871957902397	1.01187622803704	-44.0418944667183	78.3057816864324
17113	1654837478083	6.79078357945268	0.140358919238421	7.09774576264337	-0.0263717599960369	-0.049595122562856	0.0112264060917884	0.0194623696635005	0.00252917588905955	-0.00707199135738862	0.507568359375	-0.47265625	0.3974609375	0	0	0	0.243065556630398	-0.285597328215914	0.587904729229926	0.716743559890826	0.145604390930039	0.703916109899907	0.695198871953396	-0.981591604119729	0.190574329058086	0.0126233048650988	-0.123601310929735	-0.684239384519367	0.718706602591773	1.0062349922571	-44.0430668523266	78.3132398149853
17114	1654837478083	6.83289319845332	0.0479891303139355	7.10574844343695	0.0704333422318533	-0.0430007320904295	0.0450802938861408	0.0202139957946631	0.00566051061889076	-0.00482865917730048	0.505126953125	-0.473876953125	0.393310546875	0	0	0	0.243102559269609	-0.285543733364733	0.587933053005253	0.716729130980888	0.145599003040105	0.70394466758206	0.69517108347263	-0.981610317039522	0.190471741720976	0.0127161742417827	-0.123458964013543	-0.684238569936364	0.718731844025393	1.01360071121985	-44.0408519187559	78.314121426136
17115	1654837478084	6.77593701761054	0.0964690376547099	7.06438581386707	0.0176671524200189	-0.044900355957639	-0.0236196139178464	0.0160809585879559	0.00271828953610192	-0.000856023726000107	0.50390625	-0.469482421875	0.40185546875	0	0	0	0.243031778989538	-0.285595100710177	0.588019315695161	0.71666189882044	0.145337445639476	0.704004707865799	0.695165015084752	-0.981639449450961	0.19033767754115	0.0124723610377249	-0.12353549359033	-0.684214103779682	0.718741985703049	0.994156380323856	-44.040368237405	78.3355059699406
17116	1654837478085	6.76954870304441	-0.00986276441363309	7.0943435639783	0.118109431213723	-0.089659383961951	-0.00786158605560239	0.0184143326905473	0.0132099523158345	-0.00594352051378936	0.504150390625	-0.468017578125	0.39697265625	0	0	0	0.243041099595604	-0.285519175411406	0.58805047469388	0.716663424204175	0.145350879369387	0.704082744902776	0.695083167827216	-0.981654322293249	0.190255326239325	0.0125579600473029	-0.123401431877946	-0.684156706586832	0.718819648759501	1.00086986123557	-44.033844980788	78.3357148739702
17117	1654837478086	6.84098296292053	0.0101665602834826	7.07460615499352	0.111795060689809	-0.0197476697112567	0.0278570846117621	0.0221751969850269	0.0081988276491945	-0.00669541989809724	0.507080078125	-0.471435546875	0.3935546875	0	0	0	0.242994436358581	-0.285428076553832	0.588093538681751	0.716680198396978	0.145353605751112	0.704235118790611	0.694928216981528	-0.981664857123061	0.190199387319104	0.0125817865583213	-0.123314385149146	-0.684015416876997	0.718969034027111	1.00256013787813	-44.0214973072363	78.3379567645924
17118	1654837478087	6.8261690537708	0.0826881680504186	7.08829979809271	0.0378663280236186	-0.0251295472324026	0.0283161244087946	0.0174394385564658	0.0120312896689069	-0.00598771259387231	0.5078125	-0.4716796875	0.396484375	0	0	0	0.243003496399108	-0.285358809899157	0.588122140909224	0.716681238573396	0.145365393970576	0.704305831690953	0.694854083734056	-0.981678585826087	0.190123296220321	0.0126604251435556	-0.123191137531376	-0.683963761964357	0.719039300701492	1.00872647549363	-44.0155907101063	78.3381757756796
17119	1654837478087	6.81030335122745	0.0282548634326282	7.10338234338613	0.0861002463408721	-0.0560310296051789	0.0274608885846792	0.0182168857010415	0.0155278771084685	-0.00768189146541654	0.5087890625	-0.477294921875	0.393798828125	0	0	0	0.242950073974991	-0.285348982465991	0.588184406746334	0.716652163480745	0.145230123732173	0.704396142443196	0.69479082152248	-0.9816983680384	0.190028730432019	0.0125457483291103	-0.123193041002648	-0.683897036198827	0.71910243952234	0.999503649746623	-44.0105507324668	78.3501838629154
17120	1654837478089	6.75194570245596	0.0678209425599444	7.1106567097817	0.0387975798477356	-0.0934898872982136	-0.00735394650996213	0.0150575050314656	0.0137653932503885	-0.00366282551587766	0.5068359375	-0.472900390625	0.402587890625	0	0	0	0.242941871789107	-0.285284121792785	0.588219966167995	0.716651580746075	0.145220482508485	0.704482620081291	0.694705152898266	-0.981712454241493	0.189953036665857	0.012589719955711	-0.123092114479955	-0.683828985832583	0.719184433569049	1.00289176920297	-44.0037263620088	78.3523269947875
17121	1654837478089	6.7557859306645	0.0455714476622823	7.10714379228164	0.0595877084370462	-0.090890089233896	-0.00746420031780026	0.0164375961721758	0.0104889572426944	-0.00209238420861855	0.509765625	-0.472412109375	0.399658203125	0	0	0	0.242848061500808	-0.285292372963967	0.588334794027776	0.716585829534874	0.144940864129766	0.704619353374717	0.694624871966959	-0.981750152315776	0.189773978323188	0.0123481002320825	-0.123121014994469	-0.683737818173887	0.719266161907778	0.983536515430207	-43.9973318881298	78.3763378233076
17122	1654837478090	6.75443660513026	0.0379677390165749	7.15577265819082	0.0614322646021566	-0.125886603150572	0.0264851729535565	0.0166474306926826	0.0083523976223377	-0.00231474538252579	0.501953125	-0.4697265625	0.397216796875	0	0	0	0.242858934351792	-0.285244497909363	0.588371160235417	0.716571344822815	0.14490990843133	0.704671477505746	0.694578452896642	-0.981768176673664	0.189677831617483	0.0123922340099963	-0.12301368098424	-0.683710778752799	0.719310228835895	0.986990656026049	-43.9936348670876	78.3795890440237
17123	1654837478091	6.76865975836289	-0.022262889957719	7.0953736411286	0.129394995004017	-0.0845535633465301	-0.00780668950174679	0.0200030306298532	0.00779575727566032	-0.00458405597904081	0.50390625	-0.470947265625	0.395263671875	0	0	0	0.242810488515281	-0.285207645123408	0.588438016919719	0.716547532319887	0.144794598813497	0.70478480261265	0.694487513322368	-0.98179043317548	0.189567533821118	0.0123164705204985	-0.122971823925408	-0.683624554947544	0.719399331660262	0.980836112345299	-43.9863927027562	78.3904009452069
17124	1654837478092	6.73465897775292	0.0176532972420797	7.12708143858467	0.0823123382111264	-0.122577368210685	-0.00812555693963368	0.0196731582111813	0.000389117979628214	-0.00726973061831512	0.5048828125	-0.4716796875	0.393310546875	0	0	0	0.242862361643883	-0.285173541944842	0.588451504539906	0.716532449422991	0.144801755558709	0.704773356079095	0.694497637251651	-0.981805035579396	0.189485400202954	0.0124159260978552	-0.122846748829819	-0.68365912534752	0.719387848542778	0.988770583796811	-43.9871988994551	78.3896592521066
17125	1654837478093	6.75838865801043	0.0241183153558882	7.12847645876358	0.0778455356964936	-0.105352272562859	0.00945172347302936	0.0202263978967792	0.00584027695269005	-0.00677280087859807	0.49951171875	-0.47021484375	0.39453125	0	0	0	0.242814279130541	-0.285199878672314	0.588501003145033	0.716497609453725	0.144655197005175	0.7048179179332	0.694482956262933	-0.981820329724942	0.189415590295211	0.0122708716855279	-0.122897168877888	-0.683632530467521	0.719404510111226	0.977198470025797	-43.9860298149889	78.4018053325815
17126	1654837478096	6.7824048442982	0.0352000145314946	7.10591932936162	0.074363016471511	-0.0709285670938686	0.010030331941552	0.0206745743673308	0.00192878014205652	-0.0111537492785318	0.50732421875	-0.469482421875	0.3984375	0	0	0	0.242870232689166	-0.28515338826865	0.588503993578927	0.716494692774533	0.144701189401125	0.704809436630016	0.694481982360362	-0.981830515673661	0.189354199230328	0.0124026499520811	-0.122761574924292	-0.683658281066733	0.719403190464837	0.987692457514469	-43.9859522614648	78.3980818802133
17127	1654837478097	6.80643567771853	0.0461284126984461	7.08334680363915	0.0692975316709041	-0.0355922744404025	0.0106230379720351	0.0180538946556953	0.00543936108949607	-0.00467475524052013	0.5068359375	-0.46826171875	0.398193359375	0	0	0	0.242809409266692	-0.285146056969962	0.588547173210438	0.716482757553904	0.144607902200972	0.704895511929532	0.694414049312539	-0.981840094519945	0.189311631355126	0.0122936986593207	-0.122794883501306	-0.683581321786416	0.719470633932086	0.97892599660554	-43.9805428869102	78.4067364050475
17128	1654837478098	6.78168858928355	0.0389611303668167	7.10658328091649	0.0708760857314826	-0.0700228305840765	0.0100626092855141	0.0212131352927451	0.00719897201903549	-0.0086871041060545	0.5087890625	-0.46923828125	0.400634765625	0	0	0	0.242847840332924	-0.285082378576355	0.58856642638972	0.716479256920755	0.144635198304165	0.704927991747939	0.694375392609598	-0.981854551564903	0.189228976344939	0.0124110468023537	-0.122647050444756	-0.68357071394382	0.719505927741764	0.988219914373015	-43.9774649499428	78.4051271202234
17129	1654837478099	6.81014086156309	0.0266001924585584	7.08001120634349	0.0913976045671661	-0.0333078466965693	0.0105413015640039	0.0222004823518241	0.00855748830091688	-0.0106043889981199	0.506591796875	-0.469970703125	0.40087890625	0	0	0	0.242862547846237	-0.285004408228986	0.588597732896142	0.716479573311899	0.144650392239133	0.705002711575757	0.694296363735181	-0.98187029849536	0.189140983366311	0.012506212210649	-0.122502983464477	-0.683518006406601	0.719580540287359	0.995692633483237	-43.9711729828373	78.4051377947271
17130	1654837478100	6.79997920911584	0.0759677972091974	7.08924624153821	0.041747964119322	-0.0369008510269849	0.0107435844836186	0.020805235482714	0.0116517691569572	-0.0102053242538952	0.508056640625	-0.4736328125	0.39697265625	0	0	0	0.242888682946296	-0.284924075483835	0.588616273900823	0.716487432552314	0.144698306617587	0.705062658823501	0.694225501688565	-0.98188199255934	0.189071939591451	0.0126314823685464	-0.122352575574455	-0.683475272992274	0.719646717812591	1.00557162441409	-43.9655317930905	78.4023605766166
17131	1654837478101	6.75126724948991	0.0687527114416852	7.08761615352364	0.041605085716874	-0.0701357627951337	-0.0243274996309495	0.0186188237231714	0.0110713415480959	-0.00614148924232257	0.505615234375	-0.472900390625	0.392333984375	0	0	0	0.242838699817613	-0.284889705251731	0.588690009001792	0.716457462110587	0.144563858286103	0.705178208409059	0.694136143175405	-0.981907190868072	0.188946878344723	0.0125437508488037	-0.122309277648949	-0.683390643445442	0.719734443424946	0.998467191551833	-43.9584188992212	78.4146924436269
17132	1654837478102	6.76451450741881	0.113274811036381	7.14586667259983	-0.00653227471695199	-0.0917715466679326	0.0273549808793358	0.0170793347319653	0.00426126342668386	-0.00471292577803161	0.5	-0.470703125	0.399169921875	0	0	0	0.242865144170385	-0.2848537855847	0.588714043542596	0.7164430315949	0.144548191547585	0.705198036789281	0.694119261531378	-0.981922259603314	0.188864593365649	0.0126032324563579	-0.122206777290966	-0.683392928176295	0.719749685170327	1.00317964937566	-43.9570752242549	78.416230945432
17133	1654837478103	6.75479101386271	0.0435198097125756	7.10814416282887	0.0628626221469534	-0.084977350034014	-0.00740122946554145	0.0115365260781552	0.00423937183588877	0.00161498196377275	0.49951171875	-0.466796875	0.39453125	0	0	0	0.242750563146869	-0.284912579444384	0.58878558846786	0.716399690800311	0.144312705773806	0.705286248836606	0.694078633984819	-0.981937005267611	0.188807389808867	0.0123080152599213	-0.122366501291484	-0.683317698260152	0.719793972332451	0.979625611365977	-43.9538416461349	78.4360009531494
17134	1654837478104	6.76402611463229	-0.00297578637540516	7.09982529824913	0.110577469277864	-0.0813873687451939	-0.00754962246602631	0.00958973175245484	0.00188206640791652	0.00151833637762317	0.49755859375	-0.4697265625	0.400146484375	0	0	0	0.242747626293629	-0.284915411191489	0.588818739496407	0.716372312706358	0.144231400966894	0.705301804833353	0.694079726741779	-0.981951963878182	0.188732163893342	0.012268290342146	-0.12234232142194	-0.683322423465638	0.719793596788787	0.976464928689521	-43.9539286172111	78.442588737299
17135	1654837478105	6.78273323542438	0.021647141620717	7.12944313210784	0.0840022278972295	-0.0818480261246796	0.0270861375972693	0.0139337952974418	0.00268177705083556	-0.00266620544409715	0.500732421875	-0.478271484375	0.39404296875	0	0	0	0.242634804097848	-0.284906505500765	0.588843641434504	0.716393607527241	0.144182898130993	0.705431172816722	0.693958321734794	-0.981944109410244	0.188783035565106	0.0121132769037454	-0.122462475399898	-0.683174813573545	0.719913269927483	0.963969112787473	-43.9442669321151	78.4484326448089
17136	1654837478106	6.75897294067806	0.0227677287869074	7.10439045435618	0.0828691369514603	-0.0812944713411204	-0.00742749524643749	0.0172756546196242	0.00194439880295217	-0.00296248783751876	0.505615234375	-0.470947265625	0.400146484375	0	0	0	0.242664952733431	-0.284880947767896	0.588872406647539	0.716369914920276	0.144144268576002	0.705439708248488	0.693957670080083	-0.981962195147493	0.188686018808035	0.0121586844473358	-0.122362891179497	-0.683192801727786	0.719913132627495	0.967582123429821	-43.9442150761962	78.4515803682208
17137	1654837478107	6.7585066371772	0.0199101781046452	7.12850301477444	0.0801419813120412	-0.0976107185436981	0.00960426434357586	0.018474238562635	0.00116522704443322	-0.0051019193803563	0.502197265625	-0.475341796875	0.39990234375	0	0	0	0.2425715649176	-0.284928440089749	0.588954150000923	0.716315453636273	0.143897586449425	0.705522843053552	0.693924349294406	-0.981984993461956	0.188584090180234	0.0118959466381272	-0.122470229972652	-0.683135095614717	0.719949639842898	0.946629429627213	-43.9415636096375	78.4721363695934
17138	1654837478108	6.75800698590678	0.0169985747006521	7.15264807556615	0.0804520706658719	-0.115076866910381	0.0266015603454619	0.0139477916258993	0.00286033504838685	-0.00463141533019906	0.507080078125	-0.47607421875	0.39892578125	0	0	0	0.242588631633213	-0.284908033509164	0.588973797950776	0.716301635885124	0.143874555538759	0.705534889950635	0.693916876384246	-0.981996689911826	0.188521242259527	0.0119265342468497	-0.122403485533465	-0.683140000497167	0.719956336488533	0.94905419226809	-43.9409689768864	78.4741235715906
17139	1654837478109	6.74877869685667	0.0698097278429667	7.13723279879704	0.0266227795791228	-0.0997592433033969	0.00975217803659589	0.016287505430778	0.000587189077922156	-0.00103937239290848	0.505126953125	-0.47802734375	0.396484375	0	0	0	0.242487807019237	-0.284946978844784	0.589081823176455	0.716231448832942	0.143575649700668	0.705645519355989	0.693866293911043	-0.982030191423303	0.18836453810021	0.0116406150784052	-0.122485656083234	-0.683068958304438	0.720009765388463	0.926237456624173	-43.9369441958933	78.4991855227847
17140	1654837478110	6.75894392666761	0.0326931687567976	7.08072251071364	0.0716438114770667	-0.0611869241410284	-0.0243194534056403	0.0131854748208552	-0.000455465784823601	-0.00489911825884061	0.505126953125	-0.470458984375	0.397216796875	0	0	0	0.242511517192946	-0.284940824430885	0.589095920858158	0.716214274243191	0.143549445201852	0.705634951548215	0.693882462623021	-0.982040678119986	0.188308320114108	0.0116654658475319	-0.122432280465071	-0.683095375280312	0.719993781202846	0.928235076489135	-43.9382306894567	78.5010610398547
17141	1654837478111	6.78729885820379	0.0110025235048997	7.10165934855269	0.0924189081384269	-0.0593495626303432	0.010196550636719	0.0187281095665762	-0.000437131459275535	-0.0112211569977999	0.5048828125	-0.4697265625	0.3984375	0	0	0	0.242469412981022	-0.284986771894812	0.589149112631219	0.716166493700634	0.143371725861644	0.705656557942497	0.693897233353903	-0.982058859097263	0.188223813708972	0.0114975311016107	-0.122494675361977	-0.683096346195467	0.719982247227226	0.914889249237344	-43.9394059743904	78.5152609321449
17142	1654837478113	6.78269048018944	0.0364676119119262	7.10576610659571	0.0670152119235251	-0.0611210347840435	0.010240151452507	0.0167528568919816	-0.00315100379543946	-0.00738059098420501	0.500732421875	-0.473388671875	0.404541015625	0	0	0	0.242516801214778	-0.284977467751074	0.589156350340013	0.716148196155498	0.143365275456443	0.705622867304558	0.693932825949452	-0.98207016289367	0.188160791965175	0.0115633697960064	-0.12241157195012	-0.683148509113452	0.719946888005476	0.920172494849109	-43.9422381193537	78.5152301544344
17143	1654837478113	6.76383044791583	0.0146747909528549	7.07632574105551	0.0891381414432366	-0.0568425185226081	-0.0242847067412981	0.0237898338314135	0.00314169544010199	-0.00922789869093474	0.5068359375	-0.4736328125	0.39404296875	0	0	0	0.242467017677135	-0.284906184414631	0.589210109584362	0.716149187100451	0.14331982569176	0.705763976314842	0.693798700849134	-0.982085387725992	0.188082384204679	0.011545906935888	-0.122342628624581	-0.683024323496716	0.720076422842105	0.918617848022195	-43.9315663298925	78.521008956293
17144	1654837478115	6.77271302014706	0.0835008971222568	7.13834015415751	0.0164181340018128	-0.080189623225996	0.0273235059035901	0.0218435335544177	0.000783798132494561	-0.00932210871193438	0.500732421875	-0.472412109375	0.39404296875	0	0	0	0.242523345193596	-0.284865177357767	0.589222954625374	0.716135858275216	0.143336280942944	0.705754461168256	0.693804980600852	-0.982100284136147	0.187997473557305	0.0116611249787339	-0.122203692518453	-0.683057530869234	0.720068515530072	0.927793441966964	-43.9320659414977	78.5195753181502
17145	1654837478115	6.77741310477053	0.0618865927152956	7.13413987543899	0.0368332114895163	-0.0783233873600686	0.0273135840990157	0.0175140712658517	0.000164064587815353	-0.00710641747937285	0.505126953125	-0.476318359375	0.399658203125	0	0	0	0.24247398509805	-0.284946938383774	0.589270298295263	0.716081087868822	0.14313151570545	0.70574619312131	0.693855662300624	-0.982115071886919	0.187933764195364	0.0114405352983434	-0.122324792190348	-0.683083604817257	0.720023217712768	0.910302914204778	-43.9360982872553	78.5354105428901
17146	1654837478116	6.75849775400839	0.0398987801566076	7.1047669662171	0.0600384848347536	-0.0759762970296967	-0.00721847356196292	0.018501126025635	0.00152014914239979	-0.00902419125560104	0.50830078125	-0.4716796875	0.39599609375	0	0	0	0.242515185277759	-0.284914470297851	0.589280433060522	0.716071714799986	0.143144631653796	0.705741929294258	0.693857293443484	-0.982126271504649	0.187869912243395	0.0115274842891079	-0.122219479826563	-0.683105574058416	0.720020259049179	0.917223880619856	-43.9362280690543	78.5343203631811
17147	1654837478116	6.78243596551976	0.0461629419984652	7.10595266458957	0.0555620941729347	-0.0586548091545347	0.0103266470055168	0.0165122446569605	-0.00136921444719315	-0.00321641213760634	0.507568359375	-0.469482421875	0.40087890625	0	0	0	0.242481207406078	-0.284966820017309	0.58935915179987	0.715997601765433	0.142899403357922	0.705761281357498	0.693888156878739	-0.982157675711368	0.187717308489258	0.0113363192788614	-0.122254081981722	-0.683127532624892	0.719993551088227	0.902049168823535	-43.9386837701041	78.5537494622053
17148	1654837478117	6.7535629006169	0.0625817630866818	7.13281482528959	0.0326558743315498	-0.0948517796467448	0.00981292951990831	0.0201230666719729	-0.00353494941618531	-0.0115976664422243	0.50439453125	-0.475341796875	0.401611328125	0	0	0	0.242546397171847	-0.284945152925017	0.589356330876887	0.715986466561226	0.142930750159745	0.705717473312974	0.693926255822278	-0.982167154247149	0.187660720948581	0.0114514161183691	-0.122141237003847	-0.683188335434536	0.719955010086991	0.911254844081392	-43.9417153164031	78.5506129578284
17149	1654837478119	6.79226452441579	0.00269749281151558	7.09721211920348	0.101020611439125	-0.053833068060763	0.010356013058729	0.0186692566068018	-0.00114752189995754	-0.00333619238850317	0.49560546875	-0.47509765625	0.3916015625	0	0	0	0.242519084633638	-0.284927270584278	0.589428510936221	0.715943415753903	0.142780961945805	0.70579432122631	0.69387893254553	-0.982195524623349	0.187517048167943	0.011371370025007	-0.122088280828648	-0.683148397327458	0.720001888131713	0.904827274562754	-43.9379498099172	78.5635077982745
17150	1654837478120	6.7831876450129	0.0558696057326901	7.08151126733735	0.0499370857628919	-0.0399209014859068	-0.00664482624350349	0.0165545696589593	-0.00083929111733649	-0.00911493229987084	0.50390625	-0.476806640625	0.40087890625	0	0	0	0.242559758105814	-0.284909454300043	0.589433003159164	0.715933028561241	0.142790675274443	0.70577397353722	0.693897630297261	-0.982204246805531	0.187466997068837	0.0114430139025291	-0.12200672363378	-0.68318315500858	0.719982733196202	0.91055128776446	-43.9394375588994	78.5624292324468
17151	1654837478121	6.78788099030311	0.0340461634241902	7.07736183931547	0.0695046810275427	-0.0365043318484106	-0.00659872435829278	0.0194438211508276	0.00234509901798223	-0.00503422477412044	0.5078125	-0.47119140625	0.39599609375	0	0	0	0.242421592763715	-0.284967538024108	0.589518648850291	0.715886189482734	0.142522529860411	0.705891949401372	0.693832749481112	-0.982221087216408	0.187399068039261	0.0111051846195703	-0.122184550208308	-0.683079896548235	0.720050547268764	0.883590422928455	-43.9342752598657	78.585201194752
17152	1654837478122	6.78737014049193	0.0313478874298342	7.10153054465991	0.0696511998321276	-0.0539333321289589	0.010415604596183	0.0172863983323426	0.00212357071956537	-0.00491065525268196	0.5	-0.472900390625	0.396728515625	0	0	0	0.242449061944351	-0.28494276098414	0.589543538974782	0.715866252157572	0.142492077231649	0.705900437242301	0.693830368769873	-0.982236857676054	0.187313736030787	0.0111498751947732	-0.122093256770716	-0.683094530058115	0.720052150650079	0.88714371203634	-43.9340858450119	78.587709798846
17153	1654837478123	6.76321718560445	0.0284722738448998	7.10053943851483	0.0678682299576926	-0.070476154850856	-0.00707649950415501	0.0204302493362226	0.00370002579080866	-0.00695026643401887	0.507568359375	-0.472412109375	0.4013671875	0	0	0	0.242413051274401	-0.284960901049158	0.58959375819726	0.715829866476608	0.142352970336167	0.705941159377114	0.693817491372024	-0.98225412544603	0.187230225733332	0.0110306670741818	-0.122116603624267	-0.683075341429584	0.720066394890174	0.877643008930783	-43.9330613001215	78.5991995057263
17154	1654837478124	6.71480994467646	0.017024057996517	7.12235134609727	0.0705386928094316	-0.121825574740113	-0.0250914627798835	0.0218554446350111	0.000956925718621658	-0.0112702570195189	0.496826171875	-0.470703125	0.3994140625	0	0	0	0.242468991264408	-0.284919652270942	0.589601089135041	0.7158213015242	0.142382694881158	0.70592967665438	0.693823075298755	-0.982266399364544	0.187158687931988	0.0111510632224485	-0.121983149974876	-0.683106812402146	0.720059160050053	0.887229587343264	-43.9335055634546	78.5967006546634
17155	1654837478125	6.80607663096713	0.0656403727776733	7.10731110051274	0.0375036577873955	-0.0366536822491191	0.0279482091791721	0.0249419114853583	0.00183075016631021	-0.00543928115828336	0.509765625	-0.46875	0.39892578125	0	0	0	0.242425127003852	-0.284872034476761	0.589660178179185	0.715806437551333	0.142297596485527	0.706044824740903	0.693723359482027	-0.982285381292401	0.187061864133718	0.0111035438514449	-0.121929585145217	-0.683014322282781	0.720155963540475	0.883330594785488	-43.9255725632032	78.6051477465822
17156	1654837478127	6.74776425125898	0.0965988010576865	7.16151408193578	-0.00726661796759057	-0.109054435510683	0.0268752227356739	0.0127589358706534	0.00381714056487273	-0.00444462729034315	0.506103515625	-0.467041015625	0.396728515625	0	0	0	0.242429917469268	-0.284855542944434	0.589682883113279	0.7157926739866	0.142262834034085	0.706066363882198	0.693708566940587	-0.982296386948928	0.187003664958109	0.0111102420908118	-0.121881476195817	-0.683007993427901	0.720170109539351	0.883846022965819	-43.9243958165943	78.6081970840303
17157	1654837478126	6.76292045532696	0.0402183270217224	7.07709635664713	0.0609047671932148	-0.0517422235324536	-0.024040030867635	0.0163274293943666	0.00111936763171477	-0.00691817641872071	0.501953125	-0.473388671875	0.3935546875	0	0	0	0.242482310729915	-0.284847128574959	0.589695378702385	0.715767981026486	0.142242947359303	0.706029361385635	0.693750304351595	-0.982310921152185	0.186923378640263	0.0111760772569822	-0.121787512133567	-0.683068218686172	0.720128884651363	0.889133416580187	-43.9277160872845	78.6091665463266
17158	1654837478127	6.77190320506957	0.108260547376641	7.13877584220333	-0.0120488222233644	-0.0750614814620542	0.0273702806737379	0.0143254728698596	-0.00193949696667305	0.000855782685597658	0.496337890625	-0.47119140625	0.400634765625	0	0	0	0.242502449093585	-0.284853245902255	0.589731899534177	0.715728633739334	0.142149829941521	0.70602079392509	0.693778108902972	-0.982331232979306	0.186817697710848	0.011157801547562	-0.121732389120371	-0.683105984725215	0.720102380965125	0.887712357904384	-43.9299280819436	78.6162941172107
17159	1654837478128	6.74821120434392	-0.0137744686969021	7.09156029623214	0.107531950284803	-0.080979300185722	-0.0243958447923642	0.0107710597721537	0.000933356020364427	0.0013629216892934	0.498779296875	-0.482666015625	0.395751953125	0	0	0	0.242362498082503	-0.2849090251971	0.589790666701684	0.715705411713527	0.141947633665641	0.706130217727009	0.693708141014311	-0.982335270019089	0.186814777989582	0.0108469351074644	-0.12193558370405	-0.682993670788763	0.720174533768893	0.862897235422376	-43.9243619345057	78.633780332287
17160	1654837478129	6.71921127255224	0.0018898533803015	7.11851244629831	0.0845611932651986	-0.117154445138848	-0.0249323982717744	0.0176813942677871	-0.00250091484593503	-0.0013990942274885	0.508056640625	-0.473388671875	0.39501953125	0	0	0	0.242398768632229	-0.284904819003506	0.589823768795392	0.715667522553706	0.141874331745159	0.7061142761065	0.693739362491749	-0.982356585321852	0.186701517459158	0.0108665842489589	-0.121849141427655	-0.683041120619426	0.720144162148318	0.864496582812591	-43.9268456287729	78.6392473799454
17161	1654837478130	6.76764724280871	0.0169754723201562	7.09664798179157	0.0756265192281772	-0.0651730561575884	-0.00688383555651661	0.0188945371429916	-0.00310945183554326	-0.00550065661297138	0.502197265625	-0.478515625	0.397216796875	0	0	0	0.242315180173923	-0.28501711660355	0.589918421796926	0.715573093628388	0.141522997735245	0.706131552222322	0.693793537061368	-0.982387448072088	0.186559218163807	0.010514750996596	-0.122008782398813	-0.683062141444102	0.720097193400555	0.836564909216329	-43.9311555065568	78.6669219759803
17162	1654837478131	6.73415917027175	0.0569966193912071	7.12747310257238	0.02827909465418	-0.103144951953973	-0.00750596273445048	0.0202916252931579	-0.00620423948732951	-0.00588336092653491	0.505126953125	-0.465087890625	0.400634765625	0	0	0	0.242377218529598	-0.285014084556886	0.589935057052482	0.715539575427202	0.141487200129371	0.706081918392595	0.693851350592174	-0.982405602619225	0.186459824796681	0.0105813836121346	-0.121904077626254	-0.683140584547444	0.720040511084112	0.84193177422175	-43.9357552277548	78.6689386111005
17163	1654837478131	6.78273645037689	0.0721638324976219	7.10544935595516	0.0220501771721934	-0.0508336190494613	0.0105026232810292	0.0145801224874774	-0.00355308537242808	-0.00525679406645294	0.497314453125	-0.4658203125	0.390869140625	0	0	0	0.242340986003035	-0.285037922471669	0.58997298387747	0.715511081361306	0.141370522095497	0.706111672976168	0.693844853529406	-0.982417157696332	0.186405449595582	0.0104659746287011	-0.121946315017331	-0.683124669184085	0.720048458512223	0.832741107046449	-43.9352382950782	78.6785061389162
17164	1654837478132	6.76818363428628	0.0175031345524085	7.11982443974743	0.0720851385286096	-0.0816227600370539	0.010176649972415	0.0155521712492786	-0.00237379951476867	-0.00520809726253002	0.503662109375	-0.4755859375	0.3896484375	0	0	0	0.242373522910603	-0.285036132377748	0.589990106235093	0.715486654785218	0.141332155567677	0.706089671810629	0.693875058756944	-0.98243051805546	0.186333499873215	0.0104930461868555	-0.121883136634543	-0.683167038276406	0.720018957262077	0.834928995230491	-43.9376415836625	78.6811557828484
17165	1654837478133	6.75887531657676	0.0659656943353667	7.12787601470056	0.0194785473159943	-0.0856185363788338	0.0100237421150577	0.0145517398070708	-0.00390114356162832	-0.00132035214986209	0.5107421875	-0.472412109375	0.40380859375	0	0	0	0.242321698388989	-0.285173001320975	0.590007725732372	0.715435138488163	0.141134485787401	0.706017305907283	0.693988919710501	-0.98243172996642	0.186342156131979	0.0102223677918995	-0.122102223062127	-0.683239463590554	0.719913107614926	0.813513694902919	-43.9467018402156	78.6954499300103
17166	1654837478134	6.79772125667284	0.00540810179232996	7.09236246816604	0.0887642081572029	-0.0457670224842064	0.0107883479750903	0.0188654467920116	-0.00345772166231049	-0.00155965803965982	0.49658203125	-0.47265625	0.403076171875	0	0	0	0.242363614178166	-0.285170766897868	0.590041272889293	0.715394163043397	0.14105785998813	0.70599412971274	0.694028075042157	-0.982454200606046	0.186222349619361	0.0102459852518554	-0.122009933395219	-0.683296074416791	0.719875024458758	0.815436090176785	-43.9498178661538	78.7010681953087
17167	1654837478134	6.74527788883428	0.0211764630607672	7.09395412402593	0.0653497279306272	-0.0795344949070119	-0.0242855081538291	0.0155516244463276	-0.00237471600765084	-0.00520487633402364	0.501708984375	-0.465087890625	0.400146484375	0	0	0	0.242312146126511	-0.285128359680252	0.590095796007448	0.71538352922048	0.14097754008077	0.706109496740647	0.693927021959403	-0.982469755763261	0.186143550747801	0.0101861437983117	-0.121977506956217	-0.683198329277576	0.719973284691227	0.81056356680902	-43.9417762797883	78.7091342000417
17168	1654837478135	6.74985311631658	-0.00506432455483645	7.11371881382143	0.0896966504131193	-0.0951465946096391	-0.00715629669542395	0.0198652159752603	-0.00193125453745814	-0.00544356576557679	0.50244140625	-0.467041015625	0.40185546875	0	0	0	0.242358383473974	-0.285112616582066	0.59011915075013	0.71535487538952	0.140940367567348	0.706090357373929	0.693954047479759	-0.982488088825386	0.186043603755656	0.0102436720881487	-0.121872753748416	-0.683245332750372	0.719946419651221	0.815171184293052	-43.9439268058469	78.7117367735329
17169	1654837478136	6.79821661530404	0.0102551588654903	7.09188230847301	0.085543478722342	-0.0424479285380664	0.0108318249349129	0.0198650150435296	-0.00193139419062915	-0.00544180781975081	0.501220703125	-0.473388671875	0.39208984375	0	0	0	0.242373524992621	-0.28503637958088	0.590115166662564	0.715383412425037	0.141036704780479	0.706146659161364	0.693877181970923	-0.982487747441974	0.186038328914932	0.0103714174988833	-0.121764009588469	-0.683188580063942	0.720018673396152	0.825252703315845	-43.9378105215154	78.7050966765433
17170	1654837478136	6.74503563395127	0.0180201246783645	7.14158957963558	0.0650510697052971	-0.113039423177712	0.00979308853805527	0.0232203442699177	-0.00249429401372979	-0.00769360324195079	0.506591796875	-0.474365234375	0.39501953125	0	0	0	0.242436749796614	-0.285009463002978	0.590134684128833	0.715356612421365	0.141021321173834	0.706119961278067	0.693907477448577	-0.982507032764948	0.185930953872434	0.0104695252759213	-0.121626138398795	-0.683245402967885	0.719988056693616	0.833093454697909	-43.9402210953041	78.7058809731153
17171	1654837478137	6.76479320620742	0.0527487037535295	7.12257920458007	0.0341894619922769	-0.0806648827025804	0.0101771831369462	0.0213039393689274	-0.00450790798933277	-0.0117195225830835	0.505615234375	-0.466552734375	0.403076171875	0	0	0	0.24243282821719	-0.285102157484874	0.590163371904746	0.715297335422204	0.140847908518982	0.706048330034734	0.694015577866226	-0.982520819514257	0.185867036529271	0.010309410888067	-0.121715676421983	-0.683336813282432	0.719886167200169	0.820470491307575	-43.9488233088951	78.7182978037475
17172	1654837478137	6.76032660550428	0.0783315671923516	7.12637439255557	0.00860923619963381	-0.0824023858937722	0.0100667889667001	0.0200635407666146	-0.00424090294562541	-0.00368295482434679	0.502197265625	-0.4736328125	0.39453125	0	0	0	0.242483764120892	-0.285096606758605	0.590190588051713	0.715259826026645	0.140789989179805	0.706016637975022	0.694059569380898	-0.982541831354703	0.185753387825873	0.0103551218899721	-0.121613028022889	-0.683400457867609	0.719843097904985	0.824157183970782	-43.9523243400911	78.7223248977878
17173	1654837478138	6.76533188483734	0.0567220203873631	7.12203700854041	0.0311411660008996	-0.0799348044640655	0.010193288274472	0.0210902201268875	-0.00237186376879728	-0.0115016043586136	0.499755859375	-0.47119140625	0.390869140625	0	0	0	0.24250036513249	-0.285077185412147	0.590201498854445	0.715252935693425	0.140786378214909	0.706024066305827	0.694052745478407	-0.98254935251938	0.18571152732115	0.010392231896571	-0.121556429582622	-0.683404160374395	0.719849142536194	0.82710339049672	-43.9517812514932	78.7227223459612
17174	1654837478138	6.77065182709507	0.039222653613501	7.09369334632215	0.0530567285516167	-0.0606344035913277	-0.00670662830856727	0.0167217315658209	-0.00350498657023245	-0.00339377260719042	0.49658203125	-0.47509765625	0.3984375	0	0	0	0.242536668947957	-0.285079263002492	0.5902259250396	0.715219641391883	0.140726342434209	0.705997999224504	0.694091436077472	-0.982566698563556	0.185618643253555	0.0104116353481722	-0.121485716934148	-0.683456322209186	0.71981155604317	0.828690732847304	-43.954860555688	78.7270026171159
17175	1654837478139	6.75138054893282	0.0083783675791714	7.11226606729074	0.0758552946247641	-0.0921007638520473	-0.00701037059397613	0.0189056005237063	-0.00293893208244017	-0.00744517806605356	0.508056640625	-0.470458984375	0.398681640625	0	0	0	0.242443448080741	-0.285150190530798	0.590256426002214	0.715197801231285	0.140573440806686	0.706034605252506	0.694085184920199	-0.982565786905173	0.185637052091629	0.010166577307436	-0.121669972233034	-0.683413506653672	0.719821086645942	0.809177800788998	-43.9543630282933	78.7395067009447
17176	1654837478140	6.75162122323169	0.0102871184469107	7.11203509572185	0.0746025725487906	-0.0920416620660256	-0.00700020480252306	0.0222333200958516	-0.00384625491320701	-0.00576135054675792	0.506591796875	-0.461669921875	0.396240234375	0	0	0	0.242503088124185	-0.285134904959599	0.590280274077734	0.715163992562985	0.140534568016792	0.706002205111813	0.69412601274523	-0.982586585050608	0.185522900569898	0.01023993372613	-0.121546855454667	-0.683477973120853	0.719780676447828	0.815061347831392	-43.9576125756811	78.7420375961987
17177	1654837478141	6.77104553489915	0.0405681433160808	7.11700870511832	0.0484466103514823	-0.0774694340181585	0.0103553108480554	0.022246657388415	-0.00367482548340888	-0.00772585652351314	0.50390625	-0.467529296875	0.3935546875	0	0	0	0.242611528814418	-0.285110058996292	0.590271345421495	0.715144488281746	0.140583986066859	0.705916623950746	0.694203041545868	-0.982600573124583	0.185438769721259	0.0104199990165919	-0.121376507433659	-0.683589191484364	0.719703800690923	0.829480482685757	-43.9637438966093	78.7368495535035
17178	1654837478142	6.7951599227587	0.0473819110864915	7.11797777046566	0.0458525169937878	-0.0604431084889565	0.0278560544858841	0.0220465555932482	-0.00136635371367924	-0.00947812079089722	0.49951171875	-0.470458984375	0.39794921875	0	0	0	0.2426689295122	-0.285081993566957	0.590284172314167	0.715125613797095	0.140585705718537	0.705893577677563	0.694226127671087	-0.982615746485952	0.185352773129564	0.010518757105104	-0.121251614857192	-0.68363631156248	0.719680095186585	0.837368549898872	-43.9655816239966	78.7363569757915
17179	1654837478144	6.76684923337666	0.0724821744431948	7.09676513584144	0.019373573871677	-0.0613313072276308	-0.00679930904294323	0.0186777540999735	-0.000973712818557602	-0.00525888938444056	0.503173828125	-0.47705078125	0.392333984375	0	0	0	0.242649838483447	-0.28510498586093	0.590295807577736	0.715113321423497	0.140532013186775	0.7058954336186	0.694235111519204	-0.98261814869852	0.185343830880212	0.0104517081351114	-0.121294382054431	-0.683636819627979	0.719672405842393	0.832040612096815	-43.9662967816219	78.740577717189
