// Start Time : 10/05/2022 11:22:07																																
// Update Rate : 100Hz																																
// Filter Profile : 46.1 human																																
// Firmware Version : 4.4.0																																
PacketCounter	Time_Of_Arrival	Acc_X	Acc_Y	Acc_Z	FreeAcc_X	FreeAcc_Y	FreeAcc_Z	Gyr_X	Gyr_Y	Gyr_Z	Mag_X	Mag_Y	Mag_Z	VelInc_X	VelInc_Y	VelInc_Z	OriInc_q0	OriInc_q1	OriInc_q2	OriInc_q3	Mat[1][1]	Mat[2][1]	Mat[3][1]	Mat[1][2]	Mat[2][2]	Mat[3][2]	Mat[1][3]	Mat[2][3]	Mat[3][3]	Euler_X	Euler_Y	Euler_Z
18376	1652181763058	6.62530130359638	2.15582679017258	7.19836912847218	-1.56125112837913E-15	-2.16840434497101E-16	0.205232811180025	-0.000818126372677703	-0.00480817278542783	-0.0079409451986903	0.53173828125	-0.25732421875	0.36376953125	0	0	0	0.286294368960327	-0.24239099563482	0.487431634764951	0.788474819488319	0.407314013331057	0.62986478619451	0.66133625763018	-0.907445494742253	0.360891871463953	0.215173723263863	-0.103140528484853	-0.6877698802822	0.718564279073539	16.670303526094	-41.4018631857433	57.1105046592853
18377	1652181763059	6.63600039034406	2.17910311972414	7.22187471519387	-0.0104239078227408	0.000578894317760009	0.234220467588567	0.00258988568049221	-0.00423328402474896	-0.00901539100992919	0.53466796875	-0.259765625	0.36572265625	0	0	0	0.28638407232274	-0.242112271738271	0.48701058662422	0.788787994019629	0.408404672779333	0.62962201069985	0.660894656427395	-0.906970404058714	0.361609703271553	0.215970156876897	-0.103006356180471	-0.68761511482961	0.718731621987153	16.7248873028413	-41.3681401152065	57.0305188266794
18378	1652181763060	6.62196361742094	2.19102967041504	7.19213354667227	-0.0233555747615499	0.0159614043587244	0.206144797150777	0.00123840341052476	-0.00407270019462655	-0.00790613473048136	0.537841796875	-0.258544921875	0.358642578125	0	0	0	0.286408444324568	-0.242113997446184	0.486975072193608	0.788800541532674	0.408472182605318	0.629565414602935	0.660906850300012	-0.90693938803399	0.361650964163221	0.216031309194622	-0.10301175889275	-0.687645234736377	0.71870203052042	16.7300087303547	-41.3690710709439	57.0238432788006
18379	1652181763061	6.64067801653125	2.17703420897404	7.19756600055568	-0.00321792759347145	0.0184409879849632	0.219395588548849	0.00171809487963453	-0.0024077720383236	-0.00928113256408755	0.537841796875	-0.2587890625	0.371826171875	0	0	0	0.28642910230576	-0.242116447472599	0.486937461999127	0.788815506514301	0.408543067930194	0.629509248049187	0.660916536535993	-0.906906034861331	0.361700554908331	0.216088297950404	-0.103024296058173	-0.687670571712613	0.71867599043113	16.7347478158628	-41.3698105876675	57.0169692160475
18380	1652181763062	6.62564976738795	2.15858760212819	7.19722094836696	0.00805412855296554	0.00206096342346965	0.205229361533403	0.00259080053678361	-0.00423450969482648	-0.00901592810181244	0.543212890625	-0.25048828125	0.368408203125	0	0	0	0.286460544467523	-0.24211392849735	0.486898973778763	0.788828619805429	0.408620469921535	0.62944751538012	0.660927482363154	-0.906871866502206	0.361739491593115	0.216166505196246	-0.103018101845784	-0.687706598487864	0.718642404181902	16.7412043017495	-41.3706462807325	57.0094462889255
18381	1652181763063	6.62217958119404	2.19317642521643	7.19128033721654	-0.0235649257198181	0.0158940369827207	0.206144414030566	0.000535204271006918	-0.00497162479332075	-0.00905101178540152	0.530029296875	-0.260498046875	0.36181640625	0	0	0	0.286485922253816	-0.242119407639647	0.486856739665905	0.788843789248855	0.408697414972223	0.629380227092408	0.66094398608364	-0.906835434265176	0.361792662784531	0.216230350127749	-0.103033577808948	-0.687740211780864	0.718608017589214	16.7466285108063	-41.3719063286672	57.001721419768
18382	1652181763064	6.62145756375208	2.16346560404041	7.22024017302976	0.000638137860763977	-0.0158687406350172	0.220054015584211	0.00416802693819378	-0.00516385135219096	-0.00760654467089495	0.53369140625	-0.25048828125	0.359619140625	0	0	0	0.286524140239662	-0.242118732699402	0.486824386113475	0.788850082982309	0.408761072722547	0.629317191321628	0.660964642120719	-0.906808638212079	0.36181186829032	0.216310576783067	-0.103016887405259	-0.687787790434902	0.718564872671916	16.7534433683831	-41.3734834375656	56.9950239001743
18383	1652181763065	6.62621666904118	2.16058005838687	7.19610110310082	0.00806348070803153	0.00205044729917517	0.205229356168102	-0.000591288280854623	-0.0055789137270052	-0.00542213171232789	0.533935546875	-0.256591796875	0.365966796875	0	0	0	0.286542385994859	-0.242134158304863	0.486794092768376	0.788857415288836	0.408805121255618	0.629258860695205	0.660992934207131	-0.906785658501334	0.361849944548375	0.2163432161327	-0.103044370886919	-0.687821127813701	0.718529020820737	16.7566188258917	-41.3756436284508	56.9897773178235
18384	1652181763066	6.5890797331775	2.19046849274425	7.18437968571056	-0.0326301781161359	-0.00303269327144865	0.178727023603463	0.00188772007910062	-0.00513409556764487	-0.0101611762971449	0.5322265625	-0.24169921875	0.373779296875	0	0	0	0.286574629300477	-0.242135255571788	0.486748943089163	0.788873225716314	0.408891968821536	0.629186775485387	0.661007836101472	-0.906746059909631	0.361900896485755	0.216423944981064	-0.103048244388769	-0.687860263917832	0.718490999700959	16.7633581935612	-41.37678146438	56.9812178903413
18385	1652181763067	6.65144604139483	2.17335831109449	7.24846861501119	0.0023308304089394	-0.0148811244972268	0.262296066326867	0.00228216385465423	-0.00862625908671737	-0.00852110408650993	0.53173828125	-0.25537109375	0.370849609375	0	0	0	0.286615699000534	-0.242150678351742	0.486705337357271	0.788880475514619	0.408961927123472	0.629096304061338	0.66105066551651	-0.90671304781829	0.36193871134876	0.216499002638039	-0.10306110362073	-0.687923113031946	0.718428980120453	16.7702119034468	-41.3800518203238	56.9729742107337
18386	1652181763068	6.62346645774812	2.19657950676459	7.1890561775614	-0.0235313712025595	0.0158844505227873	0.206144508100255	0.0027613790333517	-0.00696168706372722	-0.00989645475588207	0.537353515625	-0.257568359375	0.36181640625	0	0	0	0.286655514062317	-0.242157235288595	0.486659667522364	0.788892171124847	0.409044482808812	0.629012589890104	0.66107924853486	-0.906675416952351	0.361981968529381	0.216584262479696	-0.103064539866781	-0.687976900934426	0.718376979310105	16.7775913709412	-41.3822344455774	56.9642045534866
18387	1652181763069	6.64598917090196	2.14887863361357	7.1998823589998	0.0284740259361139	0.00458246688141765	0.218480346158419	0.00188856958144763	-0.00513599980375997	-0.0101619091751662	0.538818359375	-0.256591796875	0.376220703125	0	0	0	0.286688927324049	-0.242156897466043	0.486613880417558	0.788908377027633	0.409133936789175	0.628940130921349	0.66109283272777	-0.906634935635987	0.362032780669506	0.216668777642362	-0.103065587136159	-0.688016407825672	0.718338991918813	16.7846078624221	-41.3832717725724	56.9554614083671
18388	1652181763071	6.60883446971683	2.17910790365876	7.1880650901723	-0.0122198008060083	-0.000500648446238157	0.191978267233862	0.00411426938734056	-0.00712412146127586	-0.0110069901754612	0.528564453125	-0.262451171875	0.365966796875	0	0	0	0.286735816136069	-0.242159210074459	0.486565231191784	0.788920632583647	0.409226385542799	0.62885126249893	0.66112015173422	-0.906594137441193	0.362073695080136	0.216771098830713	-0.103057437057375	-0.68807610697111	0.718282977441792	16.7933240758447	-41.3853579784797	56.9458428215773
18389	1652181763073	6.63835942341413	2.18789006945626	7.21704837056291	-0.0105365690603532	0.000487826165542403	0.234220354902705	5.89207860532816E-05	-0.00664140221658784	-0.00767705940677881	0.533203125	-0.253662109375	0.371337890625	0	0	0	0.286762423835768	-0.242173527391073	0.486525050508619	0.7889313469082	0.409290715717103	0.628777191397645	0.661150779781639	-0.906562262211732	0.362121375006843	0.216824755267242	-0.103082368818956	-0.688118705850409	0.718238589813601	16.798226378565	-41.3876969576765	56.938639780846
18390	1652181763073	6.59423490945462	2.16128957115344	7.1871590537414	-0.000924008553828022	-0.0168893148245145	0.17781191288716	0.00101587867628074	-0.0033114586413424	-0.010427742850333	0.533935546875	-0.2578125	0.36865234375	0	0	0	0.286787112846311	-0.24216916689465	0.486480398007906	0.788951246190091	0.409381833919241	0.628716640122552	0.661151949622723	-0.906520624899005	0.362179948518692	0.216900994750407	-0.103086714418676	-0.688143205535015	0.718214493021657	16.8043320761216	-41.38778629687	56.9302852029271
18391	1652181763074	6.6582502077914	2.20511581694577	7.19261520591516	-0.014357426597812	0.0348008935308176	0.233562075594946	0.00504457643965982	-0.00699349234542748	-0.00734381025613939	0.533935546875	-0.254638671875	0.369384765625	0	0	0	0.286833430018	-0.24217235254807	0.486447106784129	0.78895395771033	0.409443527925367	0.628642487154373	0.66118425630409	-0.906494993301938	0.362191591450919	0.21698865915243	-0.103067087659195	-0.688204820112889	0.718158270170884	16.8119826162645	-41.3902535632763	56.9232466224315
18392	1652181763075	6.60889117601483	2.15181488379452	7.21562748126755	0.0120425704296736	-0.0322634545025258	0.205887574434545	0.00481953575738493	-0.00622777914828617	-0.00986378365221681	0.5380859375	-0.255126953125	0.3671875	0	0	0	0.286879532570342	-0.24217105059732	0.486405099533528	0.788963494207806	0.409526522800738	0.628563898262079	0.661207571738493	-0.906459569451791	0.362220425880002	0.217088488926942	-0.103048901362456	-0.688261424806656	0.718106632089624	16.8204217833121	-41.3920342248924	56.914659501304
18393	1652181763076	6.60995945919803	2.18315592898962	7.18580198294534	-0.0121237727542347	-0.000495278940535751	0.191978384329907	0.00118698097663996	-0.0060388486825172	-0.0113075786897493	0.539794921875	-0.26171875	0.373291015625	0	0	0	0.286913277100035	-0.242174181327228	0.486352800026417	0.788982503753201	0.409625239609902	0.628481723757219	0.66122453522059	-0.906413675731671	0.362283450660365	0.217174929087638	-0.103060232491161	-0.688303293818047	0.718064874644411	16.8276640957338	-41.3933298017033	56.9049164093548
18394	1652181763077	6.66244484683297	2.17395539540206	7.19688947969436	0.0172984933634109	0.0209678478144929	0.232646511267871	0.00377566690909417	-0.0016771003964977	-0.00925014155220616	0.527587890625	-0.2529296875	0.36865234375	0	0	0	0.286943450685835	-0.242158345686044	0.486318474057407	0.788997549751315	0.409707354810147	0.628436666213132	0.661216484952845	-0.906379671507239	0.362315595797961	0.217263204708017	-0.103032880639636	-0.688327513325229	0.718045583446208	16.8345439358911	-41.3927149636199	56.8977833317729
18395	1652181763078	6.60113464321636	2.19178990891637	7.23260733689016	-0.0269258921757573	-0.0363644209676309	0.221627911098222	0.00206221143194758	-0.00786662869104764	-0.0110429122910148	0.531005859375	-0.25927734375	0.3662109375	0	0	0	0.286985594630145	-0.242167868882425	0.486265477118821	0.789011962848557	0.409801218086701	0.628341177430946	0.66124906532966	-0.906335936837097	0.362370308474376	0.217354386046861	-0.103044316933436	-0.688385883266703	0.717987983511453	16.8424837680737	-41.3952033212435	56.8877947879677
18396	1652181763079	6.62904731890263	2.17108520473675	7.19032998779718	0.00825221171991842	0.00202590636233294	0.205229207472538	0.00259498409656349	-0.0042423736406272	-0.00901949470752497	0.53125	-0.245361328125	0.368408203125	0	0	0	0.287017066461137	-0.242165352780663	0.486226949749528	0.789025030534476	0.409878590499774	0.628279289438349	0.661259915247221	-0.906301646052877	0.362409113794626	0.217432657621708	-0.103038184241397	-0.688421940891948	0.717954290945321	16.8489512040822	-41.3960320152797	56.8802626930219
18397	1652181763080	6.64415919942784	2.19119087765773	7.19005353987535	-0.00296469188838557	0.0184320071499631	0.219395683086059	0.00166642089080388	-0.00437676442348929	-0.0126840300943983	0.5322265625	-0.2548828125	0.36572265625	0	0	0	0.287049934450733	-0.242157585373734	0.486172139458868	0.789049231538679	0.409992709319901	0.628204868054514	0.661259874827695	-0.906250144087627	0.362477971891635	0.217532517648476	-0.103037151773932	-0.688453603117842	0.717924077955586	16.8569197985645	-41.3960289281011	56.869856813843
18398	1652181763081	6.59101004874686	2.17168910781904	7.20764469633871	-0.00818381863631218	-0.0347939676015192	0.192636793000243	0.00417356214875569	-0.00517010012316464	-0.00761055960820694	0.53662109375	-0.251220703125	0.3603515625	0	0	0	0.287088185067978	-0.242156912683629	0.486139743866037	0.789055481615692	0.410056358146795	0.628141682329474	0.661280432240124	-0.906223236585506	0.362497046856477	0.217612813255157	-0.103020525216475	-0.688501211284796	0.717880807267816	16.8637476730972	-41.3975990892146	56.8631479394274
18399	1652181763082	6.64437393190564	2.19276272875012	7.18937587327722	-0.00290095927752074	0.0184749406362845	0.219395622744122	0.000369075037065288	-0.00225625777298131	-0.00817442285526752	0.530029296875	-0.258544921875	0.361572265625	0	0	0	0.287104808264753	-0.242149743664418	0.486104062878915	0.789073615556323	0.410132683391737	0.628099069412704	0.661273575017774	-0.906188492317231	0.362547338247742	0.217673709761424	-0.103022319939501	-0.688513606642869	0.717868661429033	16.8684680302327	-41.3970753350413	56.8564871613744
18400	1652181763083	6.62481568507998	2.17771465985972	7.21287237128285	0.000955149496246165	-0.01582978555122	0.220054051951541	0.00307367701008192	-0.00257925659083116	-0.0103959786512785	0.534423828125	-0.256103515625	0.3603515625	0	0	0	0.287135798448987	-0.242137543405069	0.486063051685702	0.789091346492156	0.410224239719481	0.628043582149333	0.661269485208268	-0.906149009589695	0.36259148607009	0.217764521098128	-0.103005075438967	-0.688540974198716	0.717844886645642	16.8756326258207	-41.3967629576806	56.848314775546
18401	1652181763084	6.61439765727184	2.15599555630083	7.18867369158575	0.0196877861298128	-0.0142433597360535	0.191062537477791	0.0041208670401741	-0.00713222587696153	-0.0110105768548901	0.532958984375	-0.244873046875	0.3662109375	0	0	0	0.287182134127563	-0.242137077989893	0.486014200196366	0.789104717073686	0.410319665340007	0.627957310262395	0.661292211297912	-0.906107081496593	0.36263323809085	0.217869436804411	-0.10299383038314	-0.688597669992981	0.71779211460091	16.8844712562735	-41.3984987826935	56.8386089118246
18402	1652181763085	6.66328072788332	2.18081579913469	7.19403947570535	0.0174909648389312	0.0210582190223484	0.232645988939538	0.00307421880951001	-0.00258050130827226	-0.010396507164263	0.5302734375	-0.256103515625	0.364501953125	0	0	0	0.287213106326439	-0.242124914520758	0.48597319560327	0.789122430601094	0.410411157846922	0.627901801005806	0.661288144312609	-0.906067596279928	0.362677369418926	0.217960172239978	-0.102976659910203	-0.688625046019264	0.717768314645266	16.8916309428382	-41.3981881418253	56.8304395948201
18403	1652181763086	6.6101466544473	2.16129287976805	7.21164364717049	0.0123051363523039	-0.0321322619330437	0.205887677012077	0.00276973764082189	-0.00697224111239901	-0.00990021922085196	0.5361328125	-0.259765625	0.3681640625	0	0	0	0.287252441028479	-0.242129176727039	0.485927556849028	0.789134910136031	0.410495742544442	0.627820403695241	0.661312925971383	-0.906029191931473	0.36272088923583	0.218047379897055	-0.102977418499829	-0.688676337052402	0.717718993801333	16.8990993790763	-41.4000810155707	56.821629864431
18404	1652181763087	6.62977544034394	2.17787017993183	7.18760625861897	0.0084490511919999	0.00217191806555282	0.205229012801352	0.00242525013620422	-0.00151996310009935	-0.00814172711626293	0.539794921875	-0.25927734375	0.361328125	0	0	0	0.287275569087766	-0.242117586628782	0.485896175480949	0.789149370083599	0.410567961796082	0.627780386643763	0.661306082606246	-0.905998256583522	0.362755308116574	0.21811865005283	-0.102961681290811	-0.68869468749124	0.71770364330071	16.9046489352553	-41.3995582998452	56.8153401715151
18405	1652181763089	6.62541186899486	2.18211741101332	7.21099390116314	0.00096847364593807	-0.0156759595571818	0.220054292203512	0.00206787782651824	-0.00787370617337042	-0.0110449494461637	0.53076171875	-0.251708984375	0.3681640625	0	0	0	0.28731160573187	-0.24212855876562	0.485845646279396	0.789163994511416	0.41065553804288	0.62769109184267	0.66133646678228	-0.905956471892645	0.362812098406262	0.218197736665341	-0.102980095700795	-0.688746161130065	0.717651604483717	16.9115848031304	-41.4018791618809	56.8060083315195
18406	1652181763089	6.6549235902764	2.19103737464918	7.23994925838758	0.00262741928712795	-0.014678165907429	0.262296291079105	0.00417663549354822	-0.00517317582759223	-0.00761225175825816	0.537353515625	-0.248046875	0.361083984375	0	0	0	0.287349842528831	-0.242127953868674	0.485813241771219	0.789170207289761	0.410719096150217	0.627627814593425	0.661357052133135	-0.90592953225739	0.36283112423679	0.218277937201571	-0.102963618047612	-0.688793801971061	0.717608243908051	16.9184096598314	-41.4034515984803	56.7992992855166
18407	1652181763090	6.6408759550981	2.2030160108836	7.21012850099823	-0.0102822740868522	0.000816285743623251	0.234220597055776	0.00189583950113092	-0.00514847090030526	-0.0101660000192421	0.53173828125	-0.251953125	0.376708984375	0	0	0	0.287378196056325	-0.242125565706905	0.485768578341863	0.789188108855075	0.410808197453674	0.627562354781732	0.661363830100855	-0.905888787949601	0.362885321454276	0.218356926476423	-0.102966639121935	-0.688824893811072	0.717577965725048	16.9248553991787	-41.4039693499628	56.790866061393
18408	1652181763091	6.63045272127755	2.181033011071	7.18602228962797	0.00840521897874889	0.00235897278018751	0.205229007372853	-0.00103460575886883	-0.00406201588397346	-0.0104642946631433	0.53369140625	-0.252197265625	0.3603515625	0	0	0	0.287396685076644	-0.242129070623487	0.48572015814836	0.789210102909419	0.410898882254677	0.627496327479135	0.661370144141732	-0.90584469651065	0.362958146750577	0.218418793859217	-0.102992690834764	-0.688846675761439	0.717553317131926	16.9299247841645	-41.4044516669812	56.7823077599975
18409	1652181763092	6.62987192645453	2.1513537582868	7.2149800979881	0.0326357291112992	-0.0292458374868218	0.219139094995622	0.00505361913900371	-0.00700038761335068	-0.00734809806475753	0.53955078125	-0.255615234375	0.35986328125	0	0	0	0.287437415138704	-0.242128347517431	0.485690183640301	0.789213938816535	0.410957817687859	0.627433433066144	0.661393195574362	-0.905820418435008	0.362969555787663	0.218500505989194	-0.10297107179912	-0.688897952270247	0.717507191413718	16.936922351959	-41.4062125504446	56.7759093018334
18410	1652181763093	6.63087513449973	2.1826710622231	7.18513511826916	0.00843465101963026	0.00251704854780556	0.205228944165473	0.00395181465799109	-0.00441085388404097	-0.0101336556267532	0.52978515625	-0.2548828125	0.36572265625	0	0	0	0.287476027064102	-0.242121462423296	0.485648636699737	0.789227554618521	0.411045198211382	0.627366339723906	0.661402540673073	-0.905782804061504	0.363005871070252	0.218596087419257	-0.102953178162921	-0.688939919985739	0.717469462594888	16.9447468582561	-41.4069264298563	56.767517099558
18411	1652181763093	6.60699202664853	2.1711906619465	7.23223592744444	0.00472770359321393	-0.0495816912155945	0.220715265523539	0.00259973347332568	-0.00424990501693345	-0.00902253711363099	0.537109375	-0.25634765625	0.36279296875	0	0	0	0.287498692634	-0.242121903304537	0.485613287169502	0.789240914422434	0.411113438529239	0.627312288326462	0.661411395105409	-0.905751210958904	0.363048474116343	0.21865623542052	-0.102958654357684	-0.688966688858331	0.717442971347858	16.9497320173819	-41.4076028341159	56.7608937556381
18412	1652181763094	6.62667467910435	2.18771520471803	7.20813684039069	0.000872219489645756	-0.0152771152024082	0.220054916291804	0.00212379979197636	-0.00591503049965333	-0.00764645952738436	0.53662109375	-0.255615234375	0.35595703125	0	0	0	0.287530703740655	-0.242129055523539	0.485577179766192	0.78924927454385	0.41117664592318	0.627243798269544	0.661437059273034	-0.905721949192518	0.363081793793429	0.218722110831646	-0.10296366639873	-0.689011486513934	0.717399229755365	16.9555201037705	-41.4095634007481	56.7539871146676
18413	1652181763095	6.62609127401716	2.15802700327469	7.23712067641016	0.0248682343178062	-0.0468802838219623	0.233967083801383	0.00260021811864996	-0.0042508177401645	-0.00902292995118874	0.536376953125	-0.255859375	0.366943359375	0	0	0	0.287550182719463	-0.242131983753991	0.485540917414806	0.789263588655494	0.411244239918691	0.627189341494409	0.661446675892704	-0.905689726177154	0.363129819867984	0.218775807208653	-0.102977157811092	-0.689035749318172	0.717373989722721	16.9600062574964	-41.410298059865	56.7473876712407
18414	1652181763095	6.63526076383555	2.15194507532389	7.1891920528754	0.0396972636545846	-0.0110362141619511	0.204315065118868	0.00277464292658232	-0.00697880295690914	-0.00990257975865332	0.533447265625	-0.25048828125	0.363525390625	0	0	0	0.287590066834064	-0.242138737773367	0.485495105383721	0.789275166070964	0.41132666863594	0.627105068298037	0.661475324546407	-0.905651851415471	0.363172912213656	0.218861051496107	-0.102981045326746	-0.689089739547156	0.717321570255798	16.9674036879731	-41.4124867154323	56.7385911152697
18415	1652181763096	6.64600334617364	2.17548930865847	7.21252177767599	0.0208390184009243	-0.012231008350538	0.23330689807875	0.00189847267434593	-0.00515325337781281	-0.0101676442877905	0.534912109375	-0.264404296875	0.3662109375	0	0	0	0.287604776720312	-0.242137919099034	0.485456979730242	0.789293507748063	0.411401497931163	0.627056040468128	0.661475267574253	-0.905616129100123	0.363230026477703	0.218914080357381	-0.102996282523721	-0.689104251893312	0.717305441084099	16.9716382236613	-41.4124823628885	56.7317565490389
18416	1652181763097	6.65515940092814	2.16949349414334	7.16457072752645	0.0356695424337678	0.0236125360815127	0.203653906432383	0.00483040829042948	-0.0062401966874682	-0.00987048680232793	0.529296875	-0.25244140625	0.3623046875	0	0	0	0.287650950175336	-0.242136757272247	0.485414847306251	0.789302950492114	0.41148443358466	0.626977005779532	0.661498597988873	-0.905580478986479	0.363258713755752	0.219013933253428	-0.102978429761438	-0.689161041487583	0.717253443281815	16.980094333544	-41.4142647782052	56.7231463884018
18417	1652181763098	6.62303733164377	2.19531164301559	7.22985161541046	-0.00735473893262346	-0.0323223677276801	0.234883101367101	0.000145490230722667	-0.00150221487741134	-0.0106976189734442	0.5380859375	-0.253662109375	0.362548828125	0	0	0	0.287643750461467	-0.242133640739318	0.485384670534531	0.789325087940874	0.411546043264816	0.626956138439348	0.661480048638124	-0.905549052579935	0.363325588861093	0.21903294238612	-0.1030085804419	-0.689144772128441	0.717264745685569	16.9812311157917	-41.4128476263721	56.7183365826656
18418	1652181763099	6.62750956691457	2.19261185097558	7.20588107346657	5.60379891888924E-05	-0.0143990255926979	0.22005625271284	0.00260185273629246	-0.00425331777590046	-0.00902400561806886	0.531494140625	-0.255859375	0.36376953125	0	0	0	0.287675088971136	-0.242131324411846	0.485346214699492	0.78933802442356	0.41162294723088	0.626894143958947	0.661490953515574	-0.905514745130454	0.363364190124647	0.219110729281768	-0.103002891533653	-0.689180816335625	0.717230929848029	16.9876693959225	-41.4136807443505	56.7108257665857
18419	1652181763100	6.65075968466354	2.17541308355123	7.18749824093103	0.0275284992876433	0.00639048998406108	0.218481996640135	0.0030777416021159	-0.00258930731111653	-0.0104007618448465	0.533935546875	-0.257568359375	0.362060546875	0	0	0	0.287686281549563	-0.242122816323588	0.485313081395485	0.789356927029933	0.411695509683906	0.626859659742654	0.661478476062096	-0.905481310568418	0.363415632869209	0.219163578172955	-0.103006812965985	-0.689185058437569	0.717226290447439	16.9916343345814	-41.412727484559	56.7047457876245
18420	1652181763100	6.64183482021199	2.18316850442703	7.23470865817254	0.0126873361671677	-0.0294520292959799	0.248136432083038	0.0026025847022364	-0.00425429710658444	-0.00902435874796171	0.531005859375	-0.244140625	0.363525390625	0	0	0	0.287717601694294	-0.242120558889708	0.485274627521166	0.789369845207183	0.411772341694258	0.626797622169455	0.661489440171455	-0.905447008267971	0.363454235118955	0.219241269364774	-0.103001232197528	-0.689221125486453	0.717192433276438	16.9980666669538	-41.4135651262556	56.6972375983816
18421	1652181763102	6.60203347159116	2.15314630607193	7.18128036297021	0.0295373108899334	-0.0285978159320527	0.17690633724122	0.00220103609958564	-0.000764253074982813	-0.0106659780931342	0.5361328125	-0.25537109375	0.371826171875	0	0	0	0.287723586733189	-0.242102828574958	0.485239295236547	0.789394821614465	0.411858093508687	0.626773385415491	0.661459019249261	-0.90540816219884	0.363515927991456	0.219299407022065	-0.102999857451884	-0.689210630672014	0.717202716066787	17.002084486678	-41.411241039501	56.6907456539989
18422	1652181763102	6.61270015655697	2.17674670555511	7.20465129322012	0.0108415752225966	-0.0301354673591349	0.205895572966765	0.00593749791331362	-0.00883138141211966	-0.00708613543175764	0.534423828125	-0.24658203125	0.36279296875	0	0	0	0.287776891596566	-0.242113256656245	0.485205895054269	0.789392722932579	0.411912820711785	0.626686804529946	0.66150697438599	-0.905385206189369	0.363519400135207	0.219388409308178	-0.102982797333801	-0.689287526909768	0.717131263228651	17.0101833793995	-41.4149047366951	56.6836187693964
18423	1652181763105	6.6174809649883	2.17431643846232	7.18031311047168	0.0181103837501579	-0.0117296123804596	0.191068780755332	0.00460716929951119	-0.00548174411582581	-0.0123931645367044	0.53271484375	-0.26318359375	0.3583984375	0	0	0	0.287801211499699	-0.242099196142811	0.485164169036489	0.78941381478249	0.412007416620275	0.626637711043735	0.661494571215634	-0.905343478855752	0.363572383484878	0.21947279389594	-0.10297122871585	-0.689304215180057	0.717116883772621	17.0166696628811	-41.4139571341325	56.6755193345344
18424	1652181763105	6.61742827290808	2.17539656417027	7.18003450290944	0.0181107716160048	-0.0117279030804275	0.191068782057194	0.00425599528571326	-2.56428218688179E-05	-0.0106346074261707	0.5458984375	-0.251708984375	0.361572265625	0	0	0	0.28783090177555	-0.242073595335884	0.485127370597908	0.789433455536939	0.412103617475838	0.626599030610157	0.66147128683091	-0.905304075576466	0.363609612559667	0.219573633205013	-0.10293269261012	-0.689319740390931	0.717107492848465	17.0242462035009	-41.4121782438203	56.6677548350594
18425	1652181763106	6.60843454566522	2.18321596267058	7.22729617242098	0.00260807208977976	-0.0473516795105982	0.22072681253146	0.00190272546541298	-0.00515963391569474	-0.0101694334298755	0.533203125	-0.2578125	0.361328125	0	0	0	0.287837347725462	-0.242097548790571	0.485090426830559	0.789446461719422	0.412152109333886	0.62653640948127	0.661500390299164	-0.905275274820125	0.363673878103436	0.219585944870237	-0.102991822835483	-0.689342757980039	0.717076876247937	17.025830433515	-41.4144017105558	56.6620305852902
18426	1652181763107	6.61304755279623	2.18047250322519	7.2032056388818	0.0100194620400937	-0.0294343727372823	0.205898513213903	0.00125187996820085	-0.00409576826744752	-0.00791328216909134	0.542724609375	-0.263671875	0.3603515625	0	0	0	0.287861708928164	-0.242099678629176	0.485054793967751	0.78945882032536	0.412219184913105	0.626479116435575	0.661512857214187	-0.90524402532019	0.363714966763719	0.219646710820275	-0.102998049552765	-0.689373149768809	0.717046764281213	17.0309431670248	-41.4153541897676	56.6553435959308
18427	1652181763108	6.62747217329756	2.17015873358911	7.2322268707654	0.0221093803056556	-0.0443836684185178	0.233984873556919	0.00255471208280803	-0.00622526205736387	-0.0124263030886006	0.53369140625	-0.25732421875	0.35986328125	0	0	0	0.287864909179379	-0.242123088260299	0.485017477667733	0.789473400787686	0.412268912976252	0.626419313447057	0.661538500114617	-0.905214276696184	0.363783680839957	0.219655518528301	-0.103060451477684	-0.689391236740829	0.717020408388887	17.0321763784811	-41.4173133654726	56.6496581163481
18428	1652181763109	6.63726315362639	2.19463052304955	7.15491609282446	0.0127313130418104	0.0232097760552553	0.19040159749817	0.00395834942661374	-0.00442044637505222	-0.0101382191166737	0.538818359375	-0.254150390625	0.365234375	0	0	0	0.287903187852504	-0.242117231146513	0.484975980678053	0.789486731346178	0.412355089094614	0.626351558171641	0.661548944579107	-0.905176848896052	0.363820105179454	0.219749410214967	-0.103044421102684	-0.689433576672307	0.716982001612623	17.0398949999705	-41.4181113631665	56.6413121649735
18429	1652181763110	6.64714732220279	2.18775532120432	7.20775580211102	0.0177147817788839	-0.00962986869767077	0.233315723203772	-0.00102841063809432	-0.00407717665727662	-0.010466909459226	0.537353515625	-0.256103515625	0.368896484375	0	0	0	0.287891234415616	-0.242130391654765	0.484940464321838	0.789508870530967	0.41241123900086	0.62631516183694	0.66154840185654	-0.905144031209048	0.363902766419945	0.219747717527498	-0.103107966289756	-0.689423015749459	0.716983021167526	17.0397485216096	-41.4180698968108	56.6361997638941
18430	1652181763110	6.61733068308318	2.14990809125125	7.20738249328489	0.0402456114100469	-0.0424048697564155	0.20500272210097	0.00418593260625851	-0.00518241858661533	-0.00761746180956435	0.535400390625	-0.248046875	0.3603515625	0	0	0	0.287929135372587	-0.242130773072439	0.484908124067128	0.789514795902292	0.412473599890085	0.626251268932757	0.661570009563483	-0.905117285484129	0.363921848434588	0.219826267197063	-0.103093301972319	-0.689470982994981	0.716939003469876	17.0464722870493	-41.4197208397007	56.6295354854801
18431	1652181763112	6.64750134758939	2.18930639263834	7.20695830236629	0.0174147959745772	-0.00911699144398408	0.233316726250042	0.000502245319749664	-0.00696952322649374	-0.012459160477048	0.539794921875	-0.25927734375	0.359619140625	0	0	0	0.287936070692731	-0.242137537735154	0.484859344690448	0.789540149631378	0.412561657371814	0.626191576748789	0.661571604647213	-0.905072101479481	0.364008470120762	0.219868880935568	-0.103137626451934	-0.689479472420469	0.716924464027176	17.0499108651106	-41.4198427141824	56.6214078864786
18432	1652181763113	6.62891904880129	2.20488456140218	7.20083802186262	-0.00294602645278617	-0.0116686836589188	0.220059367405131	0.00461146823654686	-0.00548762163166449	-0.0123961513143247	0.53076171875	-0.26025390625	0.365966796875	0	0	0	0.287982272654148	-0.242131078828179	0.484808149927516	0.789556716814133	0.412667196858721	0.626108145560728	0.66158474491124	-0.905025979005287	0.364054536801621	0.219982434661677	-0.103120133641723	-0.68953091612825	0.716877502604908	17.0592579805956	-41.420846722135	56.6111667994998
18433	1652181763114	6.63733476832184	2.16857293858007	7.18227776918123	0.0352193244789313	-0.00697541422675071	0.204335461097164	0.00120469533620098	-0.00606809560415873	-0.0113155059959378	0.541748046875	-0.257080078125	0.365966796875	0	0	0	0.287971396877202	-0.242153760918286	0.484781945115327	0.789569817270089	0.412696043526659	0.62607167005968	0.661601269350449	-0.905005097222508	0.364117880541586	0.219963503952773	-0.103187933687617	-0.689530588892608	0.716868061307444	17.0580867757704	-41.4221093267426	56.6077926671334
18434	1652181763115	6.64807265706444	2.19216369121003	7.205562637466	0.0164894162467765	-0.00850735603459553	0.23331882254087	0.00278527004940795	-0.00699125241102742	-0.00990697523453597	0.533447265625	-0.2568359375	0.359375	0	0	0	0.288010665554711	-0.242161547577507	0.484736477542973	0.789581021011036	0.412776664428195	0.625987228740234	0.661630875003317	-0.904967662698461	0.364160807731926	0.220046439603363	-0.103193772940124	-0.689584581879665	0.716815282803198	17.0653282563823	-41.4243715062786	56.5990980862878
18435	1652181763116	6.64826413841473	2.19307312436932	7.20510921779307	0.0157695368701386	-0.0080643169259635	0.233320343764895	0.0039608473219629	-0.0044242117701852	-0.0101403808724701	0.535400390625	-0.252197265625	0.36279296875	0	0	0	0.288014818186955	-0.242172166571894	0.484711941649097	0.789591311923689	0.412813950721274	0.625950330773288	0.66164252092403	-0.904947020873869	0.364203596254995	0.220060514146539	-0.103225633935586	-0.689595478436265	0.71680021248522	17.0666943192511	-41.4252613972419	56.5951674008584
18436	1652181763117	6.62896273446947	2.1780391474359	7.22849087464901	0.0195908511688129	-0.0423701893516225	0.23399879359553	0.000553933565609424	-0.00500467026832449	-0.00905921441544366	0.535400390625	-0.247314453125	0.35986328125	0	0	0	0.288039310634296	-0.242178983962656	0.48467003583318	0.789606010375807	0.412888592184558	0.625882611504438	0.661660008660217	-0.904910881867309	0.364256623789566	0.220121348132241	-0.103243916634261	-0.689628935473136	0.71676539051227	17.0719191348316	-41.4265976973563	56.5875570120464
18437	1652181763118	6.62978052326217	2.20915935279695	7.19873440320687	-0.0047633791423772	-0.0103283141293004	0.220060138549684	0.00190737799988558	-0.00516711466072562	-0.010172252685629	0.537109375	-0.257080078125	0.36181640625	0	0	0	0.288054584412611	-0.242182008674424	0.484622926950822	0.789628425113305	0.412976986696079	0.62582080144211	0.661663307840008	-0.9048673528858	0.364330350144993	0.220178267875537	-0.10327188456144	-0.689646083470052	0.716744862146599	17.0765375011175	-41.4268498025009	56.5793178438965
18438	1652181763119	6.63390338811103	2.17616534900034	7.20382487373428	0.0268259945312864	-0.0241732632646544	0.219169818625273	0.00594798515173915	-0.00883764871222489	-0.00709051442928956	0.53125	-0.2548828125	0.3662109375	0	0	0	0.288107513711883	-0.242193658341975	0.484589574494517	0.789626010648656	0.413030352300307	0.625733439536688	0.661712619438583	-0.904844690503454	0.36433400966796	0.220265329698017	-0.103257029525325	-0.68972341706285	0.716672584803377	17.0845192993009	-41.4306180398748	56.5722369346535
18439	1652181763122	6.63421997881258	2.17702092874685	7.20327478920029	0.0262050827178317	-0.0234665345563187	0.219173137852351	0.00190786660530884	-0.00516852135471045	-0.0101726468173964	0.537841796875	-0.25244140625	0.36181640625	0	0	0	0.288098804484647	-0.242199834471551	0.484568362957515	0.789640310937293	0.413065483605255	0.625714460077028	0.661708637320438	-0.904824391107561	0.364385160950382	0.220264104510918	-0.103294373083867	-0.68971361370476	0.716676638072941	17.0843388058972	-41.430313730804	56.5691973477958
18440	1652181763123	6.62387636090381	2.15508020216339	7.17913620642913	0.0448768380663572	-0.0219410161559163	0.190192722610361	0.00190825089798461	-0.00516911781797871	-0.0101728828057925	0.53466796875	-0.256103515625	0.361328125	0	0	0	0.288130387090348	-0.242202332225523	0.484523481804586	0.78965556154544	0.413150051688956	0.625641620736056	0.661724714055758	-0.904785027689355	0.364435751230254	0.220342090610064	-0.103300960588884	-0.68975295985447	0.716637820599368	17.0909070115126	-41.4315423059075	56.5607371935253
18441	1652181763124	6.63457006713272	2.17865583670181	7.20245800561479	0.0255501401744896	-0.0230619521080257	0.219175765545367	0.00348925709581366	-0.00609136014499152	-0.00876448659911398	0.535888671875	-0.249267578125	0.367431640625	0	0	0	0.288137943077936	-0.24222083766539	0.484496192948143	0.789663871896296	0.413185009638866	0.62559225141385	0.661749561979969	-0.904764307155931	0.364479929555144	0.220354100139132	-0.103342616119294	-0.689774394945498	0.716611183118986	17.092382547437	-41.4334412160917	56.5564287681487
18442	1652181763125	6.63472907387418	2.179453023562	7.20207033854766	0.0255132552460711	-0.0230642941093709	0.219175854035503	0.00331045676505881	-0.00336146812294787	-0.00788503877122545	0.5302734375	-0.25439453125	0.36083984375	0	0	0	0.288167877523769	-0.242216273744163	0.484464629816629	0.789673713348479	0.413250598380259	0.625540067413444	0.661757936861163	-0.904735865439731	0.364506593640166	0.220426761033829	-0.103329360422778	-0.689807630613947	0.716581102193878	17.0983659298252	-41.4340812477525	56.5500483094806
18443	1652181763126	6.64970232069197	2.19950460368106	7.20182082029455	0.0139560926828385	-0.00597123437806602	0.233324488860287	0.00172995012377318	-0.00244040290995678	-0.00929378640821523	0.54052734375	-0.2529296875	0.3623046875	0	0	0	0.288158575866086	-0.242200668063528	0.484442407039372	0.789695527280172	0.41330878130296	0.625539604961664	0.661722036751284	-0.904708403293668	0.364560378833457	0.220450527771265	-0.103337100344868	-0.689779626264224	0.71660694308882	17.0995213012395	-41.4313377061864	56.5463189520038
18444	1652181763127	6.63479250085109	2.1809685526535	7.20155310861955	0.0252054679394044	-0.0223596664352404	0.219178227351026	0.00261034241308282	-0.00426677978909298	-0.00902948150836664	0.537841796875	-0.257568359375	0.365234375	0	0	0	0.288189296624578	-0.242199418687899	0.484404284479776	0.789708085355539	0.41338386152976	0.625477399839994	0.661733938464807	-0.904674520298182	0.364598836977334	0.220525963092851	-0.103333418360173	-0.689815707536568	0.716572741796551	17.1057998226293	-41.4322472405754	56.5389112222665
18445	1652181763127	6.63482157335942	2.18190404504097	7.20124294851977	0.0245050719047311	-0.0219007496100628	0.219180975040699	0.0044370550699229	-0.00276559527193782	-0.0115207707130091	0.53271484375	-0.25341796875	0.3583984375	0	0	0	0.288193069151149	-0.242198924941854	0.484377735195521	0.789723144714088	0.413435780807736	0.625448513487986	0.661728805571864	-0.904648719584393	0.364645929080198	0.22055394024945	-0.103351581033946	-0.689817007169951	0.716568871300502	17.1079302737571	-41.4318549809871	56.5343839718473
18446	1652181763128	6.65372214052492	2.16833515551216	7.20648261968813	0.0448059867801177	-0.0193479728569819	0.232446057106063	0.00279096870352904	-0.00699867481988072	-0.00990948278042174	0.540771484375	-0.249755859375	0.36279296875	0	0	0	0.288232153672868	-0.242206912464851	0.484332403767756	0.789734233653253	0.413515868429582	0.625364119417534	0.661758524464975	-0.904611399474333	0.364688696499295	0.220636285743603	-0.103357837138825	-0.689870910236674	0.716516074286688	17.1151318869556	-41.4341261543033	56.5257215227193
18447	1652181763128	6.6350885172579	2.18341813460113	7.20053804194465	0.023998571835207	-0.021695371473736	0.219182645755719	-0.00232917415342679	-0.00195603332848535	-0.00595426501421745	0.541015625	-0.248779296875	0.366943359375	0	0	0	0.288212893636883	-0.242228664907375	0.484303364681748	0.789752399677635	0.413551049710256	0.62533263998922	0.661766287028629	-0.904586337728234	0.364767157798785	0.220609333861507	-0.103436390496609	-0.689857963609546	0.716517203677291	17.1131379339641	-41.4347193970046	56.5221518569726
18448	1652181763129	6.63084991414904	2.18744208527904	7.22391918567874	0.0165352256834289	-0.039612230469317	0.234015539994214	0.00367228917479597	-0.00882540127284725	-0.00964557305984174	0.53369140625	-0.25390625	0.366943359375	0	0	0	0.288259723179724	-0.24224226900787	0.484257296401932	0.789759384863364	0.413627107974821	0.625236110230698	0.661809959136287	-0.904550867857245	0.364802405747681	0.220696470790564	-0.103442462301957	-0.689926815846646	0.716450030196536	17.1210134724918	-41.4380570757404	56.5132336954162
18449	1652181763130	6.62116677187927	2.19596917373915	7.17031886127776	0.0109389589680573	-0.00559122564450116	0.191084507194819	0.00308448339543557	-0.0026053960836089	-0.0104084765014098	0.529541015625	-0.26220703125	0.36181640625	0	0	0	0.288260623636384	-0.242213688992444	0.484233556896713	0.789782377684253	0.413700782479659	0.625236921756316	0.661763140593675	-0.90451959792524	0.364847350471841	0.220750329156808	-0.10342127220683	-0.689902313756349	0.716476683450869	17.1243474654899	-41.43447893461	56.5085720257177
18450	1652181763130	6.64988831872366	2.17468100485868	7.2287934360898	0.0367283468635371	-0.0363084839224507	0.247284771212215	0.00191188538737477	-0.00517492498012445	-0.0101748205687041	0.53076171875	-0.253662109375	0.36279296875	0	0	0	0.288292425749511	-0.242215887993941	0.484188533723574	0.789797698571846	0.413785854827843	0.62516396740982	0.661778875604838	-0.904479991029201	0.364897882132155	0.220829077440638	-0.103427327975765	-0.689941700049997	0.716437881717537	17.1309721592653	-41.4356814722623	56.5000731987545
18451	1652181763131	6.65442643592763	2.17201435822267	7.20472413190558	0.0429515621075654	-0.0173397306277844	0.232457824865188	0.00103133713198408	-0.00334963153351625	-0.0104394341166726	0.526611328125	-0.25732421875	0.358642578125	0	0	0	0.288251180607242	-0.242227498161761	0.484191332817112	0.789807476058321	0.413769184718166	0.625191144361863	0.661763624558776	-0.904480593644527	0.36494002020664	0.220756964492679	-0.10348873126147	-0.689894785212268	0.716474192025652	17.1248881452813	-41.4345159209855	56.5022819126259
18452	1652181763132	6.63569689094224	2.18732242600718	7.19879225353584	0.0225780543242285	-0.0198843076736233	0.219189696600429	0.00261293560993094	-0.00427053788870529	-0.00903116305704278	0.5322265625	-0.25634765625	0.365478515625	0	0	0	0.288281474082934	-0.242226209430073	0.484153662281454	0.789819907615125	0.413843389529188	0.625129744197279	0.661775227598342	-0.904447059061371	0.364978046000052	0.220831481662421	-0.103485101817747	-0.689930307246919	0.716440510331418	17.1310885754489	-41.4354026738339	56.4949629511915
18453	1652181763133	6.62083143445977	2.1686995233512	7.19853221344985	0.0327597842545402	-0.0352294786088845	0.205057802640805	-0.000321564189040124	-0.0031885482869295	-0.00932608006600076	0.52978515625	-0.261962890625	0.36865234375	0	0	0	0.288235504506886	-0.242238637382787	0.484157155541174	0.789830732017229	0.413824582594421	0.625160849430753	0.661757604549863	-0.904447952859105	0.365024285359882	0.220751379761218	-0.103552476597748	-0.689877658310898	0.716481473001183	17.1243164195804	-41.4340558514806	56.4974736290143
18454	1652181763134	6.63151100805915	2.19229564556642	7.22184072338835	0.0139895289153117	-0.0367211729726465	0.234030390179878	0.00572965230514232	-0.00808523160627629	-0.00961671977401599	0.542724609375	-0.258544921875	0.366455078125	0	0	0	0.28828740117922	-0.242244078343481	0.484116100336711	0.789835288033919	0.413898815804585	0.625072127509214	0.661794987656047	-0.904415790696003	0.365043951432214	0.220850608019264	-0.103536697915691	-0.689947642168492	0.716416361657698	17.1330291196344	-41.4369128480334	56.4890000420884
18455	1652181763135	6.61684351295341	2.17391058663741	7.22133273897991	0.0240050572225451	-0.051791939745855	0.219904183849183	0.0019137587879665	-0.0051778717782218	-0.0101758980951864	0.53466796875	-0.26513671875	0.37109375	0	0	0	0.288246059823228	-0.242251970246998	0.484137651764825	0.789834746039621	0.413849434110177	0.625121126643557	0.661779587861832	-0.904433830276	0.365049886280049	0.220766906893234	-0.103576505728708	-0.689900106936369	0.716456383815663	17.1260150586869	-41.4357359065514	56.4942142010811
18456	1652181763136	6.65514510977449	2.17586350335835	7.20289864762928	0.0404114895101946	-0.0148911398568379	0.232472292958988	0.000607020733883642	-0.00304211493288923	-0.00566008398337752	0.537109375	-0.2490234375	0.36669921875	0	0	0	0.288260043011393	-0.242255564968669	0.484113997901352	0.789843038761975	0.413891756555362	0.625082943263989	0.661789186898627	-0.904413341574459	0.365079569278079	0.220801756509887	-0.103586299468782	-0.689918996793218	0.716436777689561	17.1290016220818	-41.4364695180432	56.4899062405008
18457	1652181763138	6.60276821413498	2.1861288214641	7.19134149364013	0.0103044929843608	-0.0350342783295274	0.191799939102902	-0.000139173237315428	-0.0059225263196522	-0.0102064242125661	0.52880859375	-0.252197265625	0.362548828125	0	0	0	0.288222650490103	-0.242249361964509	0.484122485471636	0.789853384770246	0.413881331377109	0.625128061216417	0.661753088861182	-0.904415073956206	0.365106245610452	0.220750545677768	-0.103612825163217	-0.689863998550471	0.716485900744497	17.1241558678345	-41.4337107493718	56.4924741422395
18458	1652181763139	6.63227139096659	2.19513748344152	7.22027904232725	0.011845266921023	-0.033928940869965	0.234042964830373	0.0034963241152012	-0.00609900915611422	-0.00876822862862648	0.535888671875	-0.25390625	0.36865234375	0	0	0	0.288258765286585	-0.242253126009057	0.484086226767542	0.789861274040105	0.413947895985609	0.625058753659383	0.66177692153993	-0.904385101620128	0.365134818578835	0.220826067820247	-0.103608529458917	-0.689911674589711	0.716440614348587	17.1306908385284	-41.4355321329534	56.4853082835174
18459	1652181763140	6.64079894610585	2.15866342538518	7.2017441636786	0.0505845120297088	-0.0287388519089421	0.218353094696885	0.00191498353730282	-0.00517993533021985	-0.0101767716193251	0.534423828125	-0.254150390625	0.357421875	0	0	0	0.288243629120737	-0.242234426528855	0.484072715489131	0.789880813157607	0.413992177446431	0.625074439874617	0.661734404144591	-0.904364560677247	0.365178432780572	0.220838071045224	-0.103610899060923	-0.689874377584325	0.716476185751088	17.1307667299194	-41.4322828282964	56.4831487582107
18460	1652181763140	6.6227146326293	2.20428552437953	7.16633649778024	0.00600242569083111	0.000489424714119431	0.191090237730544	0.00056174660939203	-0.00501825329333974	-0.00906285773744735	0.532470703125	-0.264892578125	0.35888671875	0	0	0	0.288265671349129	-0.242240109520516	0.484033660751433	0.789894959675456	0.41406228919811	0.625012482284397	0.661749059427149	-0.90433051347887	0.365228635962405	0.22089446770819	-0.103627906738796	-0.689903935676364	0.716445264122249	17.1355815444145	-41.4334028098114	56.4760670280198
18461	1652181763142	6.64117243331868	2.16004397820974	7.20098577542736	0.0486052150920589	-0.0282030126420385	0.218364401474243	0.00214387898470853	-0.00593813624642404	-0.00765477233945866	0.5341796875	-0.249755859375	0.3662109375	0	0	0	0.288234994258636	-0.242309024511545	0.484040628141012	0.789880747349777	0.413982013898237	0.624984865629554	0.66182536208789	-0.904352626785157	0.365250516787158	0.220767720497132	-0.103755571395207	-0.689917370212347	0.716413849449975	17.1270317816556	-41.4392343006316	56.480016099027
18462	1652181763142	6.63301815837768	2.19815167317354	7.21867585941846	0.00946212291556385	-0.0322151475279955	0.234051133448645	0.00396926703784216	-0.00443732106324994	-0.0101476274192897	0.52978515625	-0.253662109375	0.35888671875	0	0	0	0.288269723249182	-0.242303563734186	0.484002683810467	0.789893000173959	0.414060770131956	0.624923101494708	0.661834417249486	-0.904318226534485	0.36528393744421	0.220853322824853	-0.103741138393868	-0.689955623401599	0.716379099319107	17.1340663891495	-41.4399263832544	56.4723909485598
18463	1652181763143	6.65639585963871	2.18107012184129	7.20016768410474	0.0369213021502527	-0.010978079373467	0.232490766204959	0.00191633560712671	-0.00518224823949736	-0.0101776313521958	0.53564453125	-0.25439453125	0.36962890625	0	0	0	0.288265130396488	-0.242297429031735	0.483972020931653	0.789915345741199	0.414126077679885	0.624902052537454	0.661813430295843	-0.904285652435721	0.365348595105653	0.220879747494483	-0.103764399407383	-0.689940453074613	0.716390340964214	17.1357432230865	-41.4383223694859	56.4673415077964
18464	1652181763144	6.61835068959702	2.18032538213525	7.21801684455581	0.0203796334773293	-0.0477827268285192	0.219932099297015	0.000608512405359199	-0.00304471377654142	-0.00566094313484495	0.53759765625	-0.25634765625	0.359130859375	0	0	0	0.288277703409419	-0.242300793548171	0.483949884780805	0.789923287530861	0.414165668933144	0.624866735375778	0.661822001521541	-0.904266400569163	0.365376949475272	0.220911660158159	-0.103774156122088	-0.689957424637899	0.716372582325836	17.1384739048415	-41.438977455677	56.4633280912171
18465	1652181763144	6.62737941921773	2.17403523598314	7.1701825797628	0.0344222205927296	-0.011167994134703	0.190251991635805	0.00121738496845703	-0.00608998552795883	-0.011322107809909	0.5380859375	-0.258544921875	0.362060546875	0	0	0	0.288263310550056	-0.242313364456384	0.483934076307445	0.789934368783261	0.414184086388575	0.624852212943825	0.661824187047939	-0.904252423458704	0.365424147158364	0.220890804115164	-0.10382243135047	-0.689945580935762	0.716376994393099	17.1368513075071	-41.4391444933075	56.4615415788571
18466	1652181763145	6.63357777191895	2.20111002439403	7.21726003516595	0.00816649277270258	-0.0305008962924784	0.234057620687238	0.00191734133437347	-0.00518377481546457	-0.0101783054501473	0.535888671875	-0.254150390625	0.354736328125	0	0	0	0.288291485131886	-0.242315512328467	0.483892817644963	0.789948702839028	0.414261867033222	0.624786009384187	0.661838007370333	-0.904216005062857	0.365471521264141	0.220961497399531	-0.103829291196256	-0.68998044147835	0.716342424170889	17.142793084003	-41.4402007768947	56.4537908842473
18467	1652181763146	6.62328628957433	2.17905820445979	7.193143723176	0.0253905513411548	-0.0289383308643725	0.205099339473582	-0.000135440850136223	-0.00592910634882474	-0.0102080962794401	0.532958984375	-0.260009765625	0.37158203125	0	0	0	0.288277320564713	-0.242385005570915	0.483862233708165	0.789951286038172	0.414253695730664	0.624706987664042	0.661917710245921	-0.904203387468228	0.365547050477949	0.220888179805649	-0.103971677222534	-0.690011980657285	0.716291391044834	17.1385876361749	-41.4462927821242	56.4509735613754
18468	1652181763146	6.65714216404729	2.18469303884776	7.19837911910992	0.0343049185156773	-0.00990186335898759	0.232501160562139	0.00467057683602183	-0.00353287101778614	-0.00900524918631107	0.535400390625	-0.25341796875	0.37060546875	0	0	0	0.288310737199604	-0.242376556727206	0.483831295144415	0.789960632818726	0.414321765175882	0.624655824679727	0.661923391031947	-0.904174879679417	0.365568393308597	0.22096953810533	-0.103948361498644	-0.690046991521202	0.716261047128968	17.1452138539314	-41.4467270088485	56.4444759288185
18469	1652181763147	6.62350602456833	2.18056115467686	7.19248590682014	0.0248222843468008	-0.026809928057807	0.205106685856494	-0.00307071442693455	-0.00484965344879855	-0.0105018800298679	0.537109375	-0.252197265625	0.365966796875	0	0	0	0.28824505788576	-0.242337707328628	0.483861120969147	0.789978251489001	0.414301702442369	0.624774231659744	0.661824190255487	-0.904184817567115	0.36558640443783	0.220899064215631	-0.103941882965805	-0.689930243100123	0.716374444422278	17.1375120176482	-41.4391447384575	56.4507559666483
18470	1652181763148	6.61903943919862	2.18468944442903	7.21606546333926	0.0172876352910786	-0.0446216232425309	0.219952461199313	0.0022057011964552	-0.000789332584321143	-0.0106778676096531	0.532470703125	-0.2685546875	0.363525390625	0	0	0	0.288263507374591	-0.242321029341454	0.483825445075641	0.789998485917761	0.414386914872512	0.624738118459309	0.661804932080718	-0.904147357773664	0.365634178026914	0.220973308997908	-0.103928053062411	-0.689937628487174	0.716369338109994	17.1430494101291	-41.4376728699135	56.4438029799754
18471	1652181763149	6.62356200427586	2.18209109443658	7.19197034410903	0.0229830660065856	-0.0253542574302655	0.205114864218025	0.00508421664589959	-0.00702288159425441	-0.00736325928478225	0.533935546875	-0.26171875	0.361328125	0	0	0	0.288225442142716	-0.242346709535427	0.483876277184576	0.78997336363765	0.414263641510693	0.624797765528566	0.661825798464227	-0.904199715559289	0.365579685759262	0.220849196834992	-0.103963982728644	-0.689912491226728	0.716388333757975	17.1335571092814	-41.439267652543	56.4541743782867
18472	1652181763149	6.60499742977408	2.19724503123076	7.18590446589782	0.0025465090421688	-0.0278345004676653	0.191827543633277	-0.000788099909453059	-0.00486240044817581	-0.00795001292139241	0.5380859375	-0.253173828125	0.36083984375	0	0	0	0.28823774255942	-0.242357568898911	0.483842699829828	0.78998611024691	0.414318101237585	0.624744827716635	0.661841681392306	-0.90417122192308	0.365630491171265	0.220881745221247	-0.103994771181087	-0.689933507062218	0.716363625123318	17.1364907541251	-41.4404815843155	56.4484693797962
18473	1652181763150	6.62790855843836	2.14964706276861	7.19682327303771	0.0529871680669791	-0.0385205210957201	0.204304602204408	0.00327375728627146	-0.00534982678981465	-0.0112947388141661	0.5322265625	-0.255615234375	0.3671875	0	0	0	0.28822322141955	-0.2423958830004	0.483837656890772	0.789982741782022	0.414290715357807	0.624718553021499	0.661883624724951	-0.904175042050346	0.365656992817969	0.220822229262758	-0.104070632272371	-0.689943253546292	0.716343221077987	17.1326031635948	-41.4436874212855	56.4491038942059
18474	1652181763150	6.61531532448544	2.19113367913222	7.23826633471273	0.00634825176509778	-0.0603929916128397	0.234813597100546	0.000795134211094954	-0.00578139217015397	-0.0065422385977366	0.53662109375	-0.257568359375	0.36474609375	0	0	0	0.288241863396688	-0.242409169582111	0.483810506369258	0.789988491444552	0.414330376858467	0.624664522653766	0.661909792154537	-0.904154405632932	0.365688044224654	0.220855303503688	-0.104092024607457	-0.689975715839977	0.716308845376232	17.1357931110858	-41.4456875455727	56.4442948660152
18475	1652181763151	6.62835259076619	2.15104927549374	7.19599531013269	0.0519923181339112	-0.0369800792709779	0.204315620631736	0.00122150583430917	-0.00609649316343079	-0.0113244217781676	0.536376953125	-0.260009765625	0.367919921875	0	0	0	0.288207111246554	-0.242401427881208	0.483820900595331	0.789997180333697	0.414317767816549	0.624710663930277	0.661874137312605	-0.904157925097008	0.365707994348079	0.220807856187635	-0.104111640827459	-0.689923364759955	0.716356417576136	17.1312561926609	-41.4429622600576	56.4470474087379
18476	1652181763152	6.61579107353849	2.19264596417672	7.23737351346285	0.00534759567311099	-0.0588387568075936	0.234823401407056	0.00280471315926117	-0.00701495261496066	-0.00991675263807199	0.53125	-0.257080078125	0.364013671875	0	0	0	0.288240246611532	-0.24240959356313	0.483781686266709	0.790006600741298	0.414385737962996	0.624637048877635	0.661901063107095	-0.904125852996188	0.365745680532526	0.220876750962423	-0.104119652884459	-0.689970038727218	0.716310298363762	17.1373269746318	-41.445020328372	56.4396077188943
18477	1652181763153	6.65867342773826	2.19136690936872	7.19493340097084	0.0279353208906768	-0.00237794809727452	0.232525492457396	0.0014512244010603	-0.00685325415497575	-0.00880190825494097	0.5244140625	-0.258056640625	0.37060546875	0	0	0	0.288189079277062	-0.242414546535296	0.483821922377121	0.789999107367111	0.414303070110787	0.624715323666384	0.661878939439216	-0.904160223543878	0.365726804025492	0.220767286929888	-0.104150162063533	-0.689909174597428	0.716364484427052	17.1281112769068	-41.4433293049687	56.4481804804874
18478	1652181763154	6.63951162089224	2.17620654439507	7.21836457883766	0.0316681371792873	-0.0365444658109543	0.233278906099354	0.0010374055456375	-0.00336474454641268	-0.0104449093914633	0.53369140625	-0.253662109375	0.36376953125	0	0	0	0.288206267796642	-0.242411675407535	0.483784576121675	0.790016588899002	0.414378127065768	0.624666552700116	0.661877984032722	-0.904124809658263	0.365779262219004	0.220825405900073	-0.104158995626288	-0.68992552443599	0.716347453657685	17.1327398905546	-41.4432562794293	56.4413391285632
18479	1652181763156	6.62095143247632	2.19144811808163	7.21226102972305	0.010781143227548	-0.0369171427553672	0.219992871375375	0.0039192813902952	-0.00959744690589849	-0.00713068798699682	0.5302734375	-0.25830078125	0.358642578125	0	0	0	0.288164669557408	-0.242382687056534	0.483826390924594	0.790015050286389	0.414325312920273	0.624768007268185	0.661815285534913	-0.904152514956516	0.365746293327503	0.220766570419977	-0.104128597279157	-0.689851133224649	0.716423512468249	17.1267302910565	-41.4384641621224	56.4489891605855
18480	1652181763157	6.62581932277612	2.18879352103658	7.18785321384266	0.0180651300201111	-0.0188681684903184	0.20513925591503	0.00508811753990112	-0.00702635604565329	-0.00736594518313581	0.535400390625	-0.25830078125	0.36767578125	0	0	0	0.288202186491483	-0.242388094221469	0.483801890880208	0.790014709902257	0.414367484320838	0.62470766347952	0.66184584544105	-0.904134778416044	0.365750460164526	0.220832296886137	-0.10411479431949	-0.689903570130924	0.716375022962425	17.1326224660145	-41.4407998462078	56.4437539268543
18481	1652181763158	6.64046602119199	2.17851217244494	7.2167910045345	0.0293681345006383	-0.0328417270762735	0.233298680311748	0.0012669188802348	-0.00412139895292578	-0.00792227328505348	0.532470703125	-0.256591796875	0.3662109375	0	0	0	0.288147748466319	-0.242406682022147	0.483842765379855	0.790003831607404	0.414270357801177	0.62477739781547	0.661840822121314	-0.904173156366961	0.365734106886731	0.220702211962576	-0.104168008297622	-0.68984908946718	0.716419751129609	17.122114121652	-41.4404159096754	56.4528862987374
18482	1652181763159	6.64500381345711	2.175841514397	7.19269041941197	0.0366362686271207	-0.0147816188226117	0.218444012173212	0.00397514606813443	-0.00444673806049747	-0.0101533011035147	0.53076171875	-0.255615234375	0.361572265625	0	0	0	0.288177244770773	-0.242400801063214	0.483810345198694	0.790014732216406	0.414338803045265	0.624725810650095	0.661846672423907	-0.904143390572597	0.365762850950093	0.22077650723922	-0.104154143340082	-0.689880568194555	0.716391454480476	17.1281776532394	-41.4408630534176	56.4463474113388
18483	1652181763160	6.62638126250578	2.19115155658019	7.18661664462396	0.0153239824124478	-0.0159488404516631	0.205148897061283	0.000754927055593765	-0.00776561054140782	-0.00994691975007128	0.532470703125	-0.2568359375	0.35888671875	0	0	0	0.288138923956387	-0.242409195723119	0.483823409027721	0.790018133467151	0.414305381411331	0.624763483430002	0.66183203360522	-0.904153582681173	0.3657817387561	0.220703462857662	-0.104198607756586	-0.689836436675372	0.716427484660252	17.1220314728999	-41.4397442014967	56.4500676289663
18484	1652181763161	6.6410542462778	2.18081865725988	7.21555300413573	0.028017397070506	-0.0310483728012362	0.23330824086046	0.00056914776990254	-0.00503165601311761	-0.00906681945878601	0.528564453125	-0.24951171875	0.36376953125	0	0	0	0.288154465103695	-0.242415269101519	0.483790970418788	0.790030466810293	0.414362268495371	0.624713127995286	0.661843953026479	-0.904125296798952	0.365826602364101	0.220744976592773	-0.104217839814385	-0.689858249724596	0.716403683094483	17.1255993593546	-41.4406552071113	56.4443170020274
18485	1652181763162	6.62685128724495	2.19266514877659	7.18572154935409	0.014510838178762	-0.0148317524306485	0.205151824072352	0.00416246160020874	-0.00718294638391058	-0.0110346466811482	0.536376953125	-0.25048828125	0.360595703125	0	0	0	0.288150463953695	-0.242418589156835	0.483767154235611	0.790045491245447	0.414405136227977	0.624690060159885	0.661838886591979	-0.904102175906053	0.365877301212099	0.220755647673373	-0.10424796683778	-0.689852251714227	0.71640507550896	17.126347454415	-41.4402679761543	56.4406120776244
18486	1652181763163	6.6266024528974	2.16312253620924	7.21471271880109	0.0385320603070203	-0.0463316040059824	0.219232066234431	0.00126825933688113	-0.00412380800132134	-0.00792314446504982	0.5341796875	-0.251953125	0.3642578125	0	0	0	0.288164893032504	-0.242420925765907	0.48374171490965	0.790055088225269	0.414452096014143	0.624650806218026	0.661846530851868	-0.904079606786719	0.365909895359673	0.220794051256471	-0.104257012722671	-0.689870508696409	0.716386178348732	17.1295778550519	-41.4408522329064	56.4359626322071
18487	1652181763164	6.65622375597837	2.17226647554815	7.24350390035053	0.0400113007701401	-0.0448043309918314	0.261477447431202	0.00229772063308956	-0.0106659269129735	-0.0119439800211628	0.535400390625	-0.250732421875	0.363525390625	0	0	0	0.288194361022087	-0.242436585658213	0.483676688810239	0.790079345959014	0.414562725271904	0.624548210117339	0.661874066612645	-0.90402363768592	0.366001741953269	0.220870974535565	-0.104302489520862	-0.689914674526061	0.716337024418918	17.1363031359041	-41.4429568562047	56.4245812073329
18488	1652181763165	6.64662609797535	2.18088948171049	7.18966202981774	0.0344094628916811	-0.0114520160424438	0.218456251693711	0.00780002656725332	-0.00735481898803278	-0.0096000729089179	0.53369140625	-0.24853515625	0.36962890625	0	0	0	0.288244665300969	-0.242433302182933	0.483647696432555	0.790079750818672	0.414621999456325	0.624480290871859	0.661901022721252	-0.904000715053971	0.365999837322033	0.220967930392976	-0.104265549194107	-0.689977162950228	0.716282213836423	17.1446194800789	-41.4450172414384	56.4179353651809
18489	1652181763165	6.61756867942913	2.17335974739003	7.15986449991448	0.0337001088516827	-0.0114605667231237	0.176211496585871	-0.000783447603200395	-0.0048724448930688	-0.00795170146199869	0.538330078125	-0.25732421875	0.368896484375	0	0	0	0.2882391262326	-0.242381635949194	0.483611469035276	0.790119798309599	0.414742179144269	0.624494250827074	0.66181255316184	-0.90394973467037	0.36607630625242	0.221049802510547	-0.104229564078672	-0.689923958624801	0.716338697326519	17.1493261929408	-41.4382553317953	56.4108734616888
18490	1652181763166	6.63825502977059	2.1893014805103	7.23630549796774	0.0202099072744346	-0.0458948248403146	0.248181050647489	0.00350886773665544	-0.00611430716642477	-0.00877633495395145	0.531494140625	-0.251953125	0.36474609375	0	0	0	0.288268746832796	-0.242384008800008	0.483582317690312	0.790126106324018	0.414796268590607	0.624438558589405	0.661831203638884	-0.903925496465756	0.366098543233432	0.221112083526648	-0.104224528794544	-0.689962566512956	0.716302243754974	17.1546962067676	-41.4396807673501	56.4050748333359
18491	1652181763167	6.63697248412061	2.1604221276	7.16450730323461	0.0534271914115545	-0.00712080321914951	0.189516751764527	0.00369672771606287	-0.00885040761787008	-0.00965706670924457	0.527587890625	-0.25341796875	0.360595703125	0	0	0	0.288256952833275	-0.242361661819006	0.483598813619018	0.790127167922913	0.414786024693216	0.62448425379224	0.661794507747494	-0.903933990270462	0.366080233219107	0.221107675307679	-0.104191626117074	-0.689930923797299	0.71633750804721	17.1535793565204	-41.4368761703196	56.4076593333269
18492	1652181763168	6.60959682049944	2.18267307033278	7.20587136369385	0.0181004791402527	-0.0452929236602525	0.205947017019213	0.00122739789795157	-0.00610930690934394	-0.0113282507787213	0.52294921875	-0.255126953125	0.356201171875	0	0	0	0.288280310678389	-0.242365325768807	0.483557308036114	0.790142924530125	0.414862757419694	0.624420468278539	0.661806596598235	-0.903897073919741	0.366133584640077	0.22117024654763	-0.10420639263241	-0.68996034450787	0.716307022680305	17.1588359728199	-41.4378000847521	56.4000770149135
18493	1652181763169	6.64809488261578	2.18492400720754	7.18707861275776	0.0329579707637792	-0.00704918059024348	0.21846518591652	0.0039278842605436	-0.0096050966140366	-0.00713416797469387	0.5400390625	-0.255859375	0.363525390625	0	0	0	0.288243055902208	-0.242405578371342	0.483578296071153	0.790131323178326	0.41478313428675	0.624437268515046	0.661840652423775	-0.903924167225037	0.366135944586152	0.22105558122004	-0.104288309113647	-0.689943887407864	0.716310952597224	17.150373497024	-41.4404029395901	56.4058564633067
18494	1652181763169	6.629140256017	2.1698037669559	7.21037376942042	0.0366918630427159	-0.0411246032812829	0.21926166229135	-0.000356207558097727	-0.00519505284901771	-0.0127360735882258	0.529296875	-0.25732421875	0.3671875	0	0	0	0.288258848430583	-0.242407611703951	0.483531404581861	0.790153634980283	0.414871861142159	0.624375915913781	0.66184292279911	-0.903880471916135	0.366208434169134	0.22111416786822	-0.104314099339952	-0.689960939742402	0.716290772178922	17.155107036422	-41.4405764659614	56.397613073719
18495	1652181763171	6.61059378866039	2.18503983736933	7.20423935470042	0.0152422899005715	-0.0422378843590921	0.205965118771449	0.00392917183031813	-0.00960616536066344	-0.00713481812767139	0.53125	-0.251220703125	0.3623046875	0	0	0	0.288233717517673	-0.242416864056175	0.483578798707718	0.790130959744973	0.41477121892314	0.624435732838726	0.661849568638657	-0.903926588502277	0.366145739052684	0.221029455892647	-0.104314709181632	-0.689940079519756	0.716310776214224	17.1484694663026	-41.4410844147832	56.4065501190477
18496	1652181763171	6.64916344791388	2.18730828867319	7.18536466356448	0.0314616843118053	-0.00508618891480025	0.218471177842673	0.00509539869311286	-0.00703338893183773	-0.00737090762798443	0.5341796875	-0.26123046875	0.358154296875	0	0	0	0.288268431815544	-0.242420583513609	0.48355767247532	0.790130083782271	0.414808476158345	0.624382525634416	0.66187641579798	-0.903911331431524	0.366146577217716	0.221090454116501	-0.104298768050639	-0.689987786612299	0.716267143815057	17.1539078424744	-41.443136413154	56.4019278566763
18497	1652181763172	6.6009902467968	2.16362931039009	7.17933735553648	0.0320594338941176	-0.0397469449648718	0.177039421825549	-0.000362720924451283	-0.00836640415400538	-0.00630939036257239	0.536376953125	-0.261962890625	0.363525390625	0	0	0	0.288227490147663	-0.242488134878984	0.483581918576782	0.79010945215944	0.414696064937021	0.624381796508309	0.661947540153151	-0.903948782535339	0.366146883897556	0.220936773681951	-0.104421129464442	-0.689988283669489	0.716248836732182	17.1430957843307	-41.4485729467189	56.4090542495927
18498	1652181763172	6.64520552578225	2.16159140543837	7.23743278110484	0.0462394867359868	-0.053595851786195	0.247464548259089	0.00304386747755126	-0.00778194445191011	-0.0073988563302529	0.533447265625	-0.2578125	0.361572265625	0	0	0	0.288255386107234	-0.242500264163519	0.483557542227903	0.790110471779297	0.414731450470266	0.624323741089129	0.661980128329623	-0.903931770199375	0.366161871469358	0.220981534763163	-0.104427864169745	-0.690032861677277	0.716204908521586	17.1473552473202	-41.4510640419138	56.4043456422733
18499	1652181763173	6.65041446749449	2.18920893320856	7.1836278514242	0.0270267830671217	-0.00275774363667788	0.218485017448129	0.00234632431946501	-0.00869308370463189	-0.00854296755104438	0.530517578125	-0.255859375	0.373291015625	0	0	0	0.288204671924022	-0.2425597668618	0.483627940762199	0.790067618305694	0.414537548828129	0.62438383454741	0.662044898603893	-0.9040112666689	0.366084163990564	0.220784996344909	-0.104509570601254	-0.690019718581435	0.716205653162232	17.1329811733425	-41.4560154749907	56.419235180325
18500	1652181763173	6.63158124753966	2.17401823439474	7.20685879611309	0.0307243609193901	-0.0368046900285657	0.219298492267679	0.00304463767454711	-0.00778307520170546	-0.00739936576145131	0.542236328125	-0.25244140625	0.3642578125	0	0	0	0.288231684622383	-0.242572526807255	0.483604305925325	0.790068313823919	0.414570889057655	0.62432670099129	0.662077902044221	-0.903995053170344	0.366098742540455	0.220827205194117	-0.104517566894242	-0.690063679046818	0.716162130436173	17.1370451420498	-41.4585386037534	56.4146956746702
18501	1652181763174	6.63211858373543	2.17477485353386	7.20613601947504	0.0308400320420567	-0.0350216191388343	0.219304520492992	0.00481903317671694	-0.011435851702565	-0.00687340135348691	0.5322265625	-0.2568359375	0.35986328125	0	0	0	0.288232526684626	-0.242532071697202	0.483630456093998	0.790064419334	0.414559552273149	0.624387167277602	0.662027977473866	-0.904009694586968	0.366047184998615	0.220852734751841	-0.104435864107422	-0.690036320561201	0.71620040951852	17.1380478933058	-41.4547218845864	56.4179747259141
18502	1652181763175	6.65193978726834	2.19147282465311	7.18152500428122	0.0267142944303168	-0.000466456923252746	0.218486222743067	0.00164963573152563	-0.00960624662173885	-0.00968750390333953	0.54296875	-0.2548828125	0.36962890625	0	0	0	0.288261029700688	-0.242551237594786	0.483593892526056	0.790070517744229	0.41461168850547	0.624310415083518	0.662067710565083	-0.903982693100515	0.366085051734793	0.220900487711265	-0.104462616898983	-0.690085676213165	0.716148951794273	17.1426958045051	-41.4577594498344	56.4114084692354
18503	1652181763176	6.62252134007283	2.15340268438749	7.18122146381637	0.0484443357262807	-0.0323584852355111	0.190386154286417	-0.0010116746774262	-0.00412859462665197	-0.010476853307108	0.5380859375	-0.25634765625	0.35986328125	0	0	0	0.288229588104702	-0.242557898890636	0.483607246980111	0.790071769458365	0.414579392708156	0.624344140111349	0.662056131948309	-0.903993593266509	0.366095470418624	0.220838605936714	-0.104496461542204	-0.690049636799837	0.716178740453507	17.1375038651463	-41.4568742585133	56.4148916051605
18504	1652181763176	6.6524994011222	2.19302875834426	7.18053160400077	0.0255149745392168	0.000745322978900079	0.218489328145774	0.00664212110544986	-0.00993724303536686	-0.00937168256286867	0.529052734375	-0.251708984375	0.366943359375	0	0	0	0.288277985238723	-0.242566799660177	0.48357774787273	0.790069435361007	0.414627818929915	0.624266659846228	0.662098866615745	-0.903973333013592	0.366096729978081	0.220919436672404	-0.104479591163626	-0.690119063425862	0.716114301858644	17.1448609992251	-41.4601414062325	56.4085304654674
18505	1652181763177	6.65255105339417	2.16357310041385	7.20932532809084	0.0490234192169203	-0.0297533146884158	0.232638274551658	0.00146153816754222	-0.00687120682258177	-0.0088074264062324	0.52978515625	-0.248779296875	0.367431640625	0	0	0	0.28825582893987	-0.242568951451222	0.483583022489487	0.790073630261114	0.414615528303575	0.624288559870528	0.662085914141307	-0.903976216573116	0.366112074884243	0.220882205019125	-0.104503414105488	-0.690091111838674	0.716137761748087	17.1416123044425	-41.4591511472064	56.4102395430013
18506	1652181763178	6.63394666516602	2.17876738552633	7.20324670936696	0.0285202175607752	-0.0321239868756657	0.219321080901468	0.00351375162607647	-0.00612334176198483	-0.0087810923734318	0.532958984375	-0.255126953125	0.37158203125	0	0	0	0.288281644049796	-0.242571020415257	0.483557901891679	0.790078951293328	0.414662111145636	0.624240294904066	0.662102248748884	-0.903955385160654	0.366130898444128	0.220936250632507	-0.104498780946472	-0.690124785399409	0.716105987517295	17.1462767591908	-41.4603999838604	56.4052312845375
18507	1652181763179	6.62371286347188	2.15663873340064	7.17915113473583	0.0481438683117886	-0.0281030747757456	0.190400465395777	0.00355512073841077	-0.00413795059723954	-0.00537647393678986	0.532470703125	-0.255615234375	0.362060546875	0	0	0	0.28824409430016	-0.242458963844901	0.483599112262578	0.790101823546297	0.414691098940207	0.62441035205121	0.66192371517498	-0.903959809804924	0.366094481439855	0.220978489715017	-0.104345362701028	-0.689990248417011	0.716257985904676	17.145936670573	-41.446751785713	56.4105780697968
18508	1652181763179	6.63437723821352	2.18021581306863	7.20241185312564	0.0291521974420906	-0.0292526697611668	0.21932804780101	0.00351434827667272	-0.00612435183033712	-0.00878143502571713	0.53515625	-0.25830078125	0.358154296875	0	0	0	0.288269613129006	-0.242459513742543	0.483574721518355	0.790107273128547	0.41473774580835	0.624364388693507	0.661937846276515	-0.903939229597547	0.366112237709797	0.221033252235308	-0.104338254712262	-0.690022419585413	0.716228028684364	17.1506117233264	-41.4478319488906	56.4056640442621
18509	1652181763180	6.63466756872093	2.18107719430531	7.20188359922994	0.0269621435347048	-0.0285637863280812	0.219336157944285	0.002119657519587	-0.00794830480555343	-0.0110691659490583	0.54150390625	-0.2568359375	0.364501953125	0	0	0	0.288241170456156	-0.242527277149772	0.483598144389686	0.790082516092614	0.41462670916234	0.624352184927855	0.662018913041782	-0.903977569860635	0.366099724793835	0.220897136003933	-0.104447332364549	-0.690040100777986	0.716195094984766	17.1414112238252	-41.4540289354281	56.4122184575614
18510	1652181763180	6.63928152087564	2.17836297278718	7.17768034711879	0.0341802557116202	-0.0103954151484886	0.20445510114409	0.00127272832971495	-0.00413620980292544	-0.0079273545179413	0.524658203125	-0.25439453125	0.3564453125	0	0	0	0.288251411279788	-0.242527341304078	0.483577673314721	0.790091289970157	0.414666245182993	0.62432331861032	0.662021373480672	-0.903958712229661	0.366127515533464	0.220928243901469	-0.104453586295215	-0.690051473593594	0.716183225230372	17.1439511311649	-41.4542170280088	56.4084798764945
18511	1652181763180	6.62677039305974	2.2199690638394	7.21897602329214	-0.0140679854632177	-0.0315826580293988	0.234937619275904	0.00664634546325599	-0.00994147139597365	-0.00937416270930547	0.53466796875	-0.260009765625	0.3583984375	0	0	0	0.288248752265099	-0.242576475242887	0.483596510612115	0.79006564625994	0.414582137165048	0.624301246736369	0.662094860927855	-0.903990712006881	0.366094143482801	0.220852599515803	-0.104510497793063	-0.690089147451987	0.716138620952701	17.1394300434206	-41.4598351566795	56.4129027550201
18512	1652181763180	6.63546300834926	2.18352453385821	7.20040901990593	0.024792496596736	-0.0271772368024107	0.219345606531405	0.000384721773877033	-0.00231108335646486	-0.00819045145382757	0.537353515625	-0.25048828125	0.35400390625	0	0	0	0.288250923943649	-0.242571548413998	0.483576908448897	0.79007836469598	0.414624835030085	0.624284360158531	0.662084045901824	-0.903970251969638	0.366129556921279	0.220877638303602	-0.104518083268991	-0.690085636142415	0.716140897491335	17.1412080181866	-41.4590083154364	56.4094691959287
18513	1652181763181	6.63998449809902	2.18077337593319	7.17629799543495	0.0299506338027777	-0.00993738079597296	0.204469105254502	0.00281889382128883	-0.00703913056379285	-0.00992639541371483	0.532470703125	-0.2587890625	0.36328125	0	0	0	0.288258240030009	-0.242687446544302	0.483547774343449	0.790057934756753	0.414568706434608	0.624148199471545	0.662247546421702	-0.903974824344493	0.366177473964598	0.220779470314267	-0.104701024811021	-0.690183368864634	0.716019980689217	17.1367599202657	-41.4715095468305	56.407284098336
18514	1652181763181	6.63588543429041	2.18518844913911	7.19951490149223	0.0222583078372156	-0.0275148659312013	0.219350628940514	0.00417368975969692	-0.00720299427332638	-0.0110444283300022	0.53857421875	-0.261962890625	0.3583984375	0	0	0	0.288290536065875	-0.242689856723352	0.48351422036708	0.790065945957212	0.414631264292827	0.624085862011111	0.662267130022909	-0.903946617581213	0.366205131035331	0.220849076445614	-0.104696834882513	-0.690225063903974	0.715980400516899	17.1427381421616	-41.4730070684428	56.4006618353839
18515	1652181763182	6.65507249284029	2.17163699999348	7.20457206366199	0.0394758887638614	-0.0238220543725566	0.232696148033868	0.00146551669409775	-0.00687746493387347	-0.00880910927916231	0.5302734375	-0.251220703125	0.354736328125	0	0	0	0.28823024477146	-0.242771789699526	0.483599119520576	0.790010807346328	0.414387499450026	0.624148716951449	0.662360460344227	-0.904045406426247	0.366110435195816	0.220601569260811	-0.104808889981514	-0.690218464233312	0.715970368250148	17.1248765095323	-41.4801443401525	56.4188497986465
18516	1652181763182	6.64054796655311	2.15301556895187	7.20416245442931	0.0505772734117907	-0.0399467805360396	0.218671275286784	0.00282025035677429	-0.00704122597942569	-0.00992723312841521	0.537841796875	-0.259521484375	0.36572265625	0	0	0	0.288254546234431	-0.242779400491041	0.483569236589957	0.790017893908866	0.414437912242035	0.624092167852607	0.662382203053115	-0.904021231547055	0.366140219997978	0.220651200341121	-0.104818079588443	-0.690253797762002	0.715934958544786	17.1293013996857	-41.4818071883552	56.4132455896337
18517	1652181763183	6.6323965337406	2.19098455644682	7.22175553816324	0.00988599227732551	-0.0433913742815199	0.234245979612591	0.000111950219454437	-0.00671551302214632	-0.00769157691841708	0.524658203125	-0.254150390625	0.36181640625	0	0	0	0.288222608333554	-0.242833575750687	0.483582657858528	0.79000468071526	0.414359335013235	0.624084873254273	0.662438232941448	-0.90404537962958	0.36615108212777	0.220534207385323	-0.104920412970018	-0.690254631300553	0.715919165067076	17.1211059509801	-41.486092462823	56.4179435202793
18518	1652181763184	6.65582871905817	2.17392417766422	7.20318356996008	0.0373060000012571	-0.0225591740100766	0.232707356265704	0.00375145969329032	-0.00371622610507112	-0.0126891497517942	0.53955078125	-0.25	0.358642578125	0	0	0	0.288245546969873	-0.24282225099144	0.483548032446412	0.79002098667864	0.414437309481307	0.624041322292693	0.662430482829016	-0.904011052506627	0.366191609938485	0.220607619443487	-0.104908214434128	-0.690272506247966	0.715903718150978	17.1268197649786	-41.4854997023119	56.411132680989
18519	1652181763185	6.66044354194557	2.17173591185477	7.17880851119483	0.0441933536752419	-0.00399825945489658	0.217829443768936	0.00936073173775499	-0.0102726570849935	-0.0116134396864886	0.533935546875	-0.25537109375	0.358154296875	0	0	0	0.288278956024491	-0.242830527037192	0.483509727481326	0.790029696962844	0.414503357139548	0.623968225311001	0.662458014309047	-0.903979948611636	0.366227173888727	0.220676028633789	-0.104915296445035	-0.690319716441387	0.715857157304538	17.1328688485943	-41.4876054478555	56.4038313781989
18520	1652181763185	6.63744178527864	2.19071427515137	7.19640023330017	0.0161826379302458	-0.0242300077900372	0.219370740938846	0.00332672714922404	-0.00339206152480131	-0.00790360102586316	0.536376953125	-0.25732421875	0.35888671875	0	0	0	0.288293538626197	-0.242825804122678	0.483494049848592	0.790035422116988	0.414538265226365	0.623944630845811	0.662458394393037	-0.903965072206926	0.366240678694786	0.220714552078266	-0.104905552250792	-0.690333877850325	0.71584492887712	17.1359601405894	-41.4876345190625	56.4006088087987
18521	1652181763186	6.64185825805893	2.18801028181992	7.172360101133	0.021391744162674	-0.00611812197821662	0.204494100034426	0.00104352490924698	-0.00339233435559155	-0.0104536256983384	0.5361328125	-0.25634765625	0.358154296875	0	0	0	0.288261157090474	-0.242896852540126	0.48350586999831	0.790018163092558	0.414446385406556	0.623921382987366	0.662537773620926	-0.903992294054769	0.366255157980078	0.220578991616573	-0.105033927437931	-0.690347207645632	0.715813248677923	17.1267649813375	-41.4937062260553	56.4054787059236
18522	1652181763187	6.62727346509129	2.16935521300834	7.17203026821036	0.032471126555338	-0.0222444875277118	0.190478362218325	0.00235846149092243	-0.00870835632442521	-0.00854771097495438	0.538330078125	-0.24853515625	0.35888671875	0	0	0	0.288285164871809	-0.242915401909203	0.483478964113582	0.790020165875392	0.414480397549895	0.623858449473957	0.662575757983064	-0.903974076231142	0.366279509948983	0.22061321377829	-0.105056506456922	-0.690391161307475	0.715767542460248	17.130296420088	-41.4966118463926	56.4006476904081
18523	1652181763188	6.65259607369709	2.1820942207953	7.22447904254244	0.0255155139219861	-0.0394136751821402	0.247604014680391	0.00352040369245897	-0.00613277591080247	-0.00878530575855571	0.537109375	-0.25146484375	0.369140625	0	0	0	0.288315548426208	-0.242977615617019	0.483421253223614	0.790025262112848	0.414531540481558	0.623721555573986	0.662672636418883	-0.90393845358164	0.366356072934811	0.220632046539519	-0.105161181442679	-0.690474220326979	0.715672045689525	17.1338252774982	-41.5040231693348	56.3915930185368
18524	1652181763189	6.66160723606967	2.17600365313556	7.17643599942842	0.0400930337922616	-0.00339577097342752	0.21784689330174	0.00282399099375628	-0.00704677565550757	-0.00992914001001364	0.533935546875	-0.25634765625	0.3681640625	0	0	0	0.288339305186832	-0.242987058569505	0.483391427315988	0.790031937613618	0.414580034730305	0.623663892621877	0.662696569964525	-0.90391477117117	0.366386346163574	0.220678797811382	-0.105173576822273	-0.690510242056288	0.715635468904229	17.1380677962664	-41.5058542465325	56.3860611070882
18525	1652181763189	6.60490652861567	2.18954190789549	7.18867054047939	0.00391008280973288	-0.0407582560858561	0.192021108942979	0.000115360337022063	-0.00672065231281057	-0.00769239105292433	0.532958984375	-0.253173828125	0.362060546875	0	0	0	0.288302297786781	-0.242910599774004	0.483429192723016	0.790045847550299	0.414581312281214	0.623799084447602	0.662568515513317	-0.903925820734044	0.366356001428071	0.220683916106091	-0.105073527196301	-0.690404216716533	0.715752451216592	17.1358049788877	-41.4960578223622	56.3917048063758
18526	1652181763190	6.65785727468012	2.18068761758488	7.19926341856662	0.0327374234118176	-0.0186778387069018	0.232731250441109	0.000115663162842175	-0.00672111972881693	-0.00769257820277588	0.5380859375	-0.255126953125	0.35791015625	0	0	0	0.288311593234461	-0.242927460730416	0.483405944942617	0.790051496058209	0.414609882434416	0.623753573523516	0.662593483898207	-0.90390878649787	0.366390235201484	0.22069685371783	-0.105107331236542	-0.690427168545419	0.715725348059357	17.1373616395659	-41.4979678379395	56.3879575089596
18527	1652181763192	6.64354042020408	2.19227637606504	7.16949890337049	0.0186332818723571	-0.00316504929279779	0.204500979282727	0.0019347255607144	-0.00522203123570075	-0.0101924737189398	0.53173828125	-0.25537109375	0.357177734375	0	0	0	0.288302784100421	-0.242968937869264	0.483391066802054	0.790051059392114	0.414598343533309	0.623710006380031	0.662641714262586	-0.903904491330555	0.366429162431838	0.220649811855696	-0.105189752789368	-0.690445868161237	0.715695199821256	17.1346022072228	-41.5016574930866	56.3868476314882
18528	1652181763191	6.62466304649931	2.17719354478363	7.19285484879303	0.0222710459705035	-0.0371517430764245	0.205377157471169	0.00371600635352095	-0.00887533520767772	-0.00966791165871787	0.5380859375	-0.2578125	0.36669921875	0	0	0	0.288333775447576	-0.242983153403231	0.483361306332402	0.79005358592883	0.414642069405712	0.623642166752493	0.662678204053223	-0.903883166716138	0.366450962953562	0.220700957582006	-0.105200642612848	-0.690495575365015	0.715645642196737	17.1394585251617	-41.5044491261831	56.3811885101567
18529	1652181763192	6.62511131619706	2.17811416945475	7.19216322200528	0.0205462183365151	-0.0359631485464338	0.205385180792254	0.00302000722767717	-0.00979016695184167	-0.0108118360930249	0.541259765625	-0.256591796875	0.361572265625	0	0	0	0.288308334942924	-0.24302117354122	0.483396110432431	0.790029881480368	0.414537819258891	0.62366468386692	0.6627222332933	-0.903924803465098	0.366413008842471	0.220593419284421	-0.105253722426659	-0.690495379454622	0.715638026426174	17.1317678651316	-41.507817721307	56.3887844473455
18530	1652181763193	6.65486233588799	2.18734585559431	7.22080276057167	0.0216253537780925	-0.0344059903900081	0.247631501478001	0.00011723224128783	-0.00672368391719203	-0.0076932013256753	0.538818359375	-0.25732421875	0.365966796875	0	0	0	0.28831699396499	-0.243038691778145	0.483373340596125	0.790035264333626	0.41456481579942	0.623619599758059	0.66274777125147	-0.903908339880692	0.366447049183869	0.220604336400186	-0.105288777157511	-0.690518033755842	0.71561101057952	17.1331749889381	-41.5097716632186	56.3851547293309
18531	1652181763194	6.62135786057573	2.18296468217356	7.21495597147057	0.0113466109186945	-0.0528112328875489	0.220277631416158	0.00263227834352964	-0.00431043763863003	-0.00904998729150194	0.5341796875	-0.2490234375	0.3623046875	0	0	0	0.288301011313128	-0.243058746097995	0.483411121327576	0.790011810416726	0.414472267444171	0.623652825654051	0.6627743904025	-0.903949154888262	0.366392429305286	0.220527805785502	-0.105302729767486	-0.690517009784328	0.715609945642196	17.1276031274228	-41.5118083913554	56.3924593197622
18532	1652181763195	6.6406644022932	2.19972976364114	7.19067480078799	0.00704753853336282	-0.0182141533642429	0.219394043601067	0.00123977943694631	-0.00613956505157235	-0.0113373204734793	0.535888671875	-0.245849609375	0.36328125	0	0	0	0.288316888817992	-0.243066292391585	0.483376318248427	0.790024989530026	0.414532224919208	0.62359850712882	0.662788002614892	-0.903918975924284	0.366441413157819	0.220570115126447	-0.105325777792165	-0.690540073152607	0.715584298250645	17.1312748393127	-41.5128499360363	56.3863379684109
18533	1652181763196	6.64054042642488	2.17029099231401	7.21977708876391	0.0328104678079274	-0.0494361886010696	0.233635388907977	0.00240012407665487	-0.00356297301213722	-0.0115753577910133	0.53662109375	-0.254638671875	0.366455078125	0	0	0	0.28835794613135	-0.243003512974092	0.483265187141317	0.79009730190808	0.414808103159037	0.623509053125091	0.662699553511736	-0.90379702874074	0.366608907600356	0.220791394097427	-0.105286126308326	-0.690531946791115	0.715597975170319	17.1471451123594	-41.5060825115889	56.3649716116405
18534	1652181763197	6.664164899768	2.18340852573463	7.17181077884164	0.0359836307021282	0.00301857194862443	0.217862597795115	-0.00282306660354949	-0.00565066659008105	-0.0079804978636217	0.53759765625	-0.254150390625	0.3583984375	0	0	0	0.288353104635282	-0.243022991863946	0.483239010250986	0.790109088319036	0.414839768794287	0.623470199255752	0.66271628685788	-0.903775936062647	0.366665092037682	0.220784437121559	-0.105342411310868	-0.690537197347827	0.71558462494538	17.1469376381791	-41.5073627603755	56.3613079158211
18535	1652181763198	6.64503465023753	2.16795380884136	7.19554033652043	0.0390208304244318	-0.0305512916071026	0.218755899520408	0.0015471723273509	0.000255164580287778	-0.00843175834567561	0.535400390625	-0.259765625	0.37158203125	0	0	0	0.288325615864137	-0.243016662302649	0.483253855975933	0.790111986850117	0.414817225055346	0.623513470948932	0.662689687065219	-0.903785186243565	0.366668099841917	0.220741572172082	-0.105351824493299	-0.690496528668706	0.715622482159693	17.1429500174362	-41.5053276531427	56.3645777757522
18536	1652181763198	6.6598250976398	2.18832346997808	7.19512514903002	0.0272920692627883	-0.0138121103312405	0.232755389232626	0.00325497907787403	-0.0073835662425679	-0.0147203340005377	0.533203125	-0.2568359375	0.36669921875	0	0	0	0.288357028418621	-0.243018678754916	0.483206048124757	0.790129141972028	0.41490767366374	0.623438072289042	0.662704000557916	-0.903742648512991	0.366724278434476	0.220822392128692	-0.105360559953276	-0.690534773655343	0.715584291875594	17.1497199587161	-41.5064227474328	56.3556209734853
18537	1652181763200	6.64531777216937	2.20019039922636	7.16542625660149	0.0134704084706528	0.0046070137577857	0.204508693033603	0.00243898378743175	-0.00157200856036152	-0.00817000384330505	0.524658203125	-0.256103515625	0.36328125	0	0	0	0.288262308602536	-0.242926207042928	0.483344151993741	0.790107669943992	0.414730577330377	0.623734904901155	0.66253552103654	-0.903840781950162	0.366566544345176	0.220682598884812	-0.105215916623538	-0.690350445045691	0.715783398741746	17.1350112044334	-41.4935339183178	56.3794782602603
18538	1652181763200	6.62186700115227	2.18846770711088	7.21282128662649	0.00967666245639906	-0.0471973153050305	0.220307360745764	0.00193883402607464	-0.00522851992527085	-0.0101951640704499	0.53271484375	-0.258056640625	0.359375	0	0	0	0.288276896374262	-0.242928641003151	0.483316897353772	0.79011827160844	0.41478090422537	0.623693593815021	0.66254290617596	-0.903816452490244	0.366602415498292	0.220722652119731	-0.105226525638428	-0.690368720311777	0.71576421279437	17.1383714328216	-41.4940988341223	56.3745228394589
18539	1652181763201	6.64530790794674	2.17153179723119	7.1942089540412	0.0352133138415065	-0.024299574634165	0.218787079423354	0.00329401609687345	-0.00539262379892676	-0.0113147830868322	0.54052734375	-0.255126953125	0.3603515625	0	0	0	0.288194535681506	-0.242927391786243	0.483403944007905	0.790095449196397	0.414613818475071	0.623849818808161	0.662500403850855	-0.903891206328783	0.366529073041847	0.220538263656406	-0.105242903090988	-0.690266500844499	0.715860383846509	17.122726107278	-41.4908477462293	56.3917820299542
18540	1652181763202	6.66457317268289	2.18829883818113	7.16994066148258	0.0308933656091871	0.0103404897151349	0.217874691226863	0.00128075386306789	-0.00415113606095292	-0.00793260803528843	0.535400390625	-0.25927734375	0.361328125	0	0	0	0.288200177920618	-0.242930449861518	0.483387400374064	0.790102572541191	0.414642835379369	0.623826059394244	0.662504616353129	-0.903876454883945	0.366554557212256	0.220556366703296	-0.105255277183568	-0.690274441224341	0.715850907953209	17.124262841964	-41.4911699616731	56.3889275902757
18541	1652181763204	6.62660687395359	2.18750468514639	7.18793417128772	0.0124658106063109	-0.026255670115096	0.205428639082344	0.0010111514431354	-0.00539825236530244	-0.0138646645413265	0.52880859375	-0.255859375	0.360107421875	0	0	0	0.288179775322358	-0.242989431899925	0.483406668569803	0.790080088258369	0.414548257534394	0.623810686955372	0.662578273878238	-0.903909246517883	0.366540819754801	0.220444781097108	-0.105346173327137	-0.690295628186755	0.715817106160214	17.1168666365592	-41.4968043048309	56.3943019967427
18542	1652181763205	6.66042821175056	2.19338627180156	7.19302498518814	0.020927689913368	-0.00675956399011253	0.232777885554157	0.00128145406221133	-0.00415205328920241	-0.00793300932917054	0.532470703125	-0.25439453125	0.362548828125	0	0	0	0.288185080142606	-0.242993174787866	0.483390286051034	0.79008702554922	0.414576296716027	0.623786771470201	0.662583246045362	-0.90389480167159	0.366566381869399	0.220461505016759	-0.105359772742265	-0.690303666093381	0.715807353179427	17.1183088964769	-41.4971846623915	56.3915029894683
18543	1652181763206	6.6165268292162	2.16613794225046	7.16351444727701	0.0295791539314244	-0.0227523283743036	0.176563231090743	0.00511684299602837	-0.0070528092155611	-0.00738500584089406	0.537841796875	-0.25927734375	0.36376953125	0	0	0	0.288142153783787	-0.242995599625808	0.483444028884768	0.790069053128268	0.414470018996315	0.623873781410681	0.662567814054934	-0.903942883155334	0.366511940297007	0.220354853843852	-0.105365399187859	-0.690253940581335	0.715854475550668	17.1094508931685	-41.4960041634597	56.4019579935076
18544	1652181763207	6.64600544361666	2.17547973770564	7.19237161954984	0.0305796491571347	-0.0210877447568596	0.218809540646568	0.000156284956319575	-0.00157979056059784	-0.0107206628989672	0.53857421875	-0.247314453125	0.362060546875	0	0	0	0.288139585946812	-0.242987821786371	0.483419605747327	0.790087325713439	0.414524806485228	0.623858586285416	0.662547846669466	-0.903916227723987	0.366562127578998	0.22038071576705	-0.105378546515043	-0.690241023804527	0.71586499494783	17.1111049006838	-41.4944767529424	56.397823999204
18545	1652181763208	6.66508717733122	2.19236578499506	7.16822026206824	0.0262237344043882	0.0135819687666011	0.217884120985355	0.00604266587103016	-0.00372827873809836	-0.0101489663165071	0.53369140625	-0.2607421875	0.359130859375	0	0	0	0.288163896540242	-0.242974840934193	0.483401102130522	0.790093772828735	0.414573202264	0.623831247294061	0.662543307915874	-0.903897554993431	0.366569886379483	0.220444388625863	-0.10534832718876	-0.690261612216172	0.715849590807497	17.1161065908327	-41.4941295647907	56.3935832594085
18546	1652181763208	6.6417699055935	2.2111905108393	7.18613720057344	-0.00182906096419209	-0.00662202913227202	0.219410701468828	0.00379550434749028	-0.0017391907890044	-0.00929155282552259	0.533203125	-0.256591796875	0.3603515625	0	0	0	0.288174466550917	-0.242960933952094	0.483386402189582	0.790103187931445	0.414615141502676	0.623819999676685	0.662527654094602	-0.903880549814115	0.366586126012613	0.2204871059332	-0.105329179738802	-0.690263152876094	0.71585092280244	17.1191994408421	-41.4929321531298	56.3904352188419
18547	1652181763209	6.64157445346066	2.18169867015393	7.21538640845417	0.0194619887037308	-0.0369679935256459	0.233723732386034	0.00104983008283445	-0.0034079177451038	-0.0104590862450883	0.5341796875	-0.255859375	0.36328125	0	0	0	0.288101817966336	-0.243018470933058	0.483469844186803	0.7900609312147	0.414397865094693	0.623913144074476	0.662575880979727	-0.903969397175329	0.366508504492961	0.220251776621222	-0.10542171681125	-0.690220185727305	0.715878730539701	17.1013688995251	-41.4966212552553	56.4082216917485
18548	1652181763210	6.64590057531177	2.17897110771103	7.19141157311506	0.0265227566758739	-0.018747293321975	0.2188257341436	0.00244100124768738	-0.00157635828231256	-0.0081721403418136	0.532958984375	-0.25634765625	0.364501953125	0	0	0	0.288104493051726	-0.243009494985397	0.48345878089339	0.790069486569015	0.414427985048038	0.623907806876398	0.662562067830408	-0.903956316314493	0.366526816520969	0.220274989424891	-0.105415479907624	-0.690215286189524	0.7158843728607	17.1029391467072	-41.4955646007792	56.4060765346843
18549	1652181763211	6.62695648657779	2.19397403306968	7.18563975358344	0.0051098289205128	-0.0196075520811073	0.205450309310928	0.00197905435239618	-0.00323912626040775	-0.00679030007710547	0.541259765625	-0.252197265625	0.3642578125	0	0	0	0.288044966985144	-0.242986415354586	0.483531715990279	0.79005365550648	0.414309363169248	0.624049971565582	0.662502365715993	-0.904014027520183	0.366454353252047	0.220158681476252	-0.105386857041234	-0.690125234991172	0.715975397895312	17.0923885343971	-41.4909978096275	56.4196512474708
18550	1652181763212	6.64161293842277	2.18378176359401	7.21472079270602	0.0175078121221014	-0.0343389006320698	0.233736658285547	0.00105070530866014	-0.00340941390959718	-0.0104595760183282	0.53271484375	-0.255615234375	0.36865234375	0	0	0	0.288048828753738	-0.242984547209173	0.483507891305297	0.790067402894626	0.414357257726118	0.624024819467546	0.662496103881516	-0.903990476382984	0.36649598259821	0.220186087998851	-0.105400576746794	-0.690125872162369	0.715972764142306	17.0944514712405	-41.4905188420589	56.4155350881618
18551	1652181763212	6.63115366515714	2.16160756687581	7.19091162955379	0.0365622774203494	-0.031420922376359	0.204878816974411	0.000157959589186132	-0.00158394265108268	-0.010721880143286	0.53466796875	-0.254638671875	0.369873046875	0	0	0	0.288022601845446	-0.242917985032941	0.483518257245335	0.790091088599378	0.414401894915939	0.624115192280801	0.662383043453241	-0.903978672617763	0.366506151473227	0.220217620513235	-0.105326297486933	-0.690038743619938	0.716067666747432	17.0946230182506	-41.4818714616925	56.416514421738
18552	1652181763213	6.66068192792471	2.20127810261041	7.19037876180595	0.0132728683548623	0.00184216366300797	0.23279302159178	0.0019447174993434	-0.00523643190184164	-0.010197943455808	0.532958984375	-0.246826171875	0.359130859375	0	0	0	0.288034011659854	-0.242920972221299	0.483494163647554	0.790100755031244	0.414445589947623	0.624079203211839	0.662389614269007	-0.90395721179269	0.366539603691767	0.220250035581083	-0.105338559990882	-0.690053524767434	0.71605161876438	17.0973533803365	-41.4823739962493	56.4122079131161
18553	1652181763214	6.61232073906129	2.17759187944881	7.18473711470897	0.0167382180129065	-0.0324874056089758	0.191501944346612	0.00469050649144162	-0.00356761579914601	-0.00903103308462928	0.54345703125	-0.260009765625	0.353271484375	0	0	0	0.288040052720962	-0.242848787363987	0.483460178878918	0.79014153791755	0.414581443828412	0.624103583491476	0.662281619483924	-0.903904293553653	0.366598366933741	0.220369384118543	-0.105258037832848	-0.690000256836629	0.716114789008694	17.1046564737511	-41.4741150728835	56.4045850378873
18554	1652181763214	6.62716454497185	2.19782078838157	7.18427218878479	0.00491503710950726	-0.0156519041237626	0.20545736784379	0.00128533630315291	-0.00415739805403633	-0.00793461143503281	0.537841796875	-0.261962890625	0.35888671875	0	0	0	0.288043601357257	-0.24285163126644	0.483445873104155	0.790148123257236	0.414606345939581	0.624083981728469	0.66228450205072	-0.903891415590348	0.366621942991406	0.220382984232639	-0.105270540649823	-0.690005459882128	0.716107937816743	17.1058045747822	-41.4743355041014	56.4021694279353
18555	1652181763215	6.64624585881032	2.18418928676282	7.18950924060026	0.0207224558377362	-0.013793505960368	0.218847427589603	0.00264081494553905	-0.00432145105845966	-0.00905491517666274	0.537353515625	-0.258056640625	0.373291015625	0	0	0	0.288022050324126	-0.243024455837437	0.483521668634948	0.790056458965105	0.414291819650788	0.624026030610845	0.662535886794454	-0.904011638807658	0.366500188975126	0.220092181554661	-0.105476277288933	-0.690122543177131	0.71596482478401	17.0877641190657	-41.4935618963367	56.4197563351837
18556	1652181763216	6.64197159179284	2.18835719457608	7.21300405331902	0.0128666177457768	-0.0312514266365821	0.233753753013486	-0.00030273874156575	-0.00324911566484255	-0.0093405262011866	0.535400390625	-0.250244140625	0.364501953125	0	0	0	0.288018352330654	-0.243027400022929	0.483501171319003	0.790069445613475	0.414328600342496	0.624006302103327	0.662531467836479	-0.903991707406553	0.366544092107776	0.220100934757377	-0.105502624983518	-0.690117065052168	0.715966223117662	17.0883726902368	-41.4932238766005	56.416577722318
18557	1652181763217	6.61695255913779	2.17695886893716	7.15984000985192	0.0195701191804202	-0.0124781144051412	0.17660597203788	0.00174771229208873	-0.00249630945417003	-0.00931734634547808	0.5341796875	-0.25537109375	0.3623046875	0	0	0	0.287983758154852	-0.242921402312123	0.48353713462488	0.79009264442626	0.414362063474945	0.624163429999952	0.662362508754444	-0.903993103496319	0.366514388955538	0.220144660438635	-0.105359143807639	-0.689990735690882	0.716109094675439	17.0883583906369	-41.4803009975259	56.4210927987427
18558	1652181763218	6.6568525767949	2.20929257307666	7.21228169523814	0.00158551608334372	-0.0121393173212527	0.247706128617835	0.00284089888427224	-0.00706558652113364	-0.00993712166418909	0.5322265625	-0.257080078125	0.361572265625	0	0	0	0.288002237075574	-0.242930009341441	0.483513067049724	0.790097991386512	0.414400249107073	0.624116633883988	0.662382714787544	-0.903974178456489	0.366539650863267	0.22018031026627	-0.105371334925172	-0.690019645846663	0.716079444001664	17.0916308487128	-41.481846325514	56.416680268701
18559	1652181763219	6.61708777496485	2.17842925197493	7.15926779801486	0.0175510193272183	-0.0106252296262213	0.176611866302927	-0.00139514780102829	0.00131815377472589	-0.00872137956656772	0.531494140625	-0.251953125	0.362060546875	0	0	0	0.287923324907665	-0.242925441370893	0.48357366357165	0.790091071211898	0.414287483669299	0.624246666154035	0.662330718501363	-0.904022269290712	0.366513341748016	0.220026605089411	-0.105402170288044	-0.689915987723341	0.716174777817744	17.0782526892012	-41.4778697998524	56.4293651467155
18560	1652181763220	6.65078768868384	2.18413458059175	7.16451463509573	0.0259001186930643	0.00897585320075225	0.203945768114739	0.00218125726651394	-0.00598552124994535	-0.00767356219365474	0.526611328125	-0.25439453125	0.362548828125	0	0	0	0.287933330257571	-0.24293474089774	0.483559788464887	0.790093057792262	0.414305285289484	0.624216445823311	0.662348065102415	-0.904012481751096	0.366528656613158	0.22004130684846	-0.10541614401705	-0.689935194525593	0.716154217983465	17.0797892087337	-41.4791963906353	56.426952841088
18561	1652181763221	6.64204792043535	2.19162546804472	7.2119413847776	0.0104912773762608	-0.0247063140843454	0.233774742148697	-5.72058420756044E-06	0.00315195814516142	-0.0064343745982017	0.538330078125	-0.25537109375	0.36865234375	0	0	0	0.28784981998964	-0.242875725381471	0.483596678658193	0.790119051499912	0.414291268822377	0.624374430438019	0.66220790934022	-0.904021365761658	0.366553467045393	0.219963465246912	-0.105395041742825	-0.689779041731627	0.716307726304712	17.0706522260724	-41.4684786786861	56.4345260873741
18562	1652181763222	6.64619564684707	2.18873969430493	7.18817166863891	0.0175267640645285	-0.00644482517466447	0.218860932879462	0.00174897206127841	-0.00249811657123815	-0.00931815066102701	0.538330078125	-0.2509765625	0.361083984375	0	0	0	0.28785126088263	-0.24286947099865	0.483581361048351	0.790129824086992	0.414326974606921	0.624363544560045	0.662195833826741	-0.90400467838748	0.36658143770981	0.219985433563583	-0.105397815758316	-0.689774030934063	0.716312143330232	17.0721588334782	-41.4675553470066	56.4317909671229
18563	1652181763222	6.62709180713311	2.17349163729175	7.21188989917288	0.0216810754815503	-0.040039023480896	0.219844441857548	0.00174925221833168	-0.00249854771908914	-0.00931832422300878	0.53515625	-0.251708984375	0.3662109375	0	0	0	0.287856807975169	-0.242834187831262	0.483565824713732	0.790148156038857	0.41439130077852	0.62437434108923	0.66214540097208	-0.903980237794628	0.36660510254255	0.220046423434995	-0.10535454198018	-0.689751680664249	0.716340030645357	17.0759905559619	-41.4636992347014	56.4281493726871
18564	1652181763223	6.66502750702823	2.17595944381333	7.19339473737058	0.0374718891141979	-0.00257440925716976	0.23225704732889	0.00290511630104183	8.05695144270024E-05	-0.00955734495531802	0.53857421875	-0.257568359375	0.35888671875	0	0	0	0.287857002815646	-0.242814326874913	0.48355461611551	0.790161048032398	0.41443227179533	0.624380435751648	0.662114010986888	-0.903963653251293	0.36662655832675	0.220078804817863	-0.105335681016164	-0.689734759295242	0.716359097188552	17.0779290926515	-41.4612992621053	56.4257971112846
18565	1652181763223	6.5974216112114	2.16643292036879	7.18251865325648	0.0190574527171607	-0.0403824749260724	0.177607115526255	0.000855461222169506	-0.000673778824383913	-0.00958064667405446	0.5380859375	-0.25048828125	0.369140625	0	0	0	0.287836039687683	-0.242813188191283	0.483564747253771	0.790162834554177	0.414413781707562	0.624409009815189	0.662098637660924	-0.903970555706866	0.366631098940614	0.220042886057736	-0.10534919053252	-0.689706477968137	0.716384339794589	17.0747372968327	-41.4601239017565	56.4281830305358
18566	1652181763224	6.6648238256442	2.17739333586237	7.19314956259437	0.0361415683545696	-0.00154450707862113	0.232262133049694	0.00128927841207172	-0.00416176222821667	-0.00793622780820995	0.53466796875	-0.253662109375	0.352783203125	0	0	0	0.287838048605064	-0.242816440192224	0.483551936642559	0.790168943148764	0.414435401883213	0.624391824840463	0.662101311536457	-0.903959066097095	0.366653564688918	0.220052653521328	-0.105362728166882	-0.689710093135736	0.71637886829521	17.0755739700328	-41.4603283301125	56.4260792617908
18567	1652181763224	6.63106503971259	2.17305721350199	7.18754165896028	0.0270441935022851	-0.0207319418603291	0.2049368584831	0.00426127636489654	-8.42285694544348E-05	-0.0106785134437992	0.53662109375	-0.26025390625	0.37109375	0	0	0	0.287854659040196	-0.242809625836301	0.48350619854501	0.79019297443007	0.414530483139578	0.624338638253742	0.662091944771668	-0.903914166480886	0.366722902474812	0.22012154014456	-0.105373897067689	-0.689721376777544	0.716366361740176	17.0808891757749	-41.4596122067369	56.4177739960211
18568	1652181763225	6.63102962148371	2.17397273305242	7.18729747594715	0.0266419929826367	-0.0203118617295804	0.204938796781738	0.00195145228144721	-0.0052442903218533	-0.010200745035868	0.536865234375	-0.25390625	0.369140625	0	0	0	0.287864827209388	-0.242812385003517	0.483483472402817	0.790202327798347	0.414571755204436	0.624305240182794	0.66209759617976	-0.903893821196143	0.366755146338046	0.220151363016435	-0.105386051212432	-0.689734463192076	0.716351973889225	17.0833917694493	-41.4600442765783	56.4137328774505
18569	1652181763225	6.65606397204715	2.18693653199831	7.23997616359403	0.020210649094826	-0.0340274694713401	0.262111268091381	0.00151775164417556	-0.00175750333183523	-0.0118457060481169	0.535400390625	-0.250244140625	0.372802734375	0	0	0	0.287805046942264	-0.242707342327039	0.483573412277563	0.790201338820266	0.414499801837559	0.624535919495899	0.66192507093782	-0.903945511702561	0.36665001978559	0.220114231398203	-0.10522559645552	-0.689581502253823	0.716522801870214	17.0768428284423	-41.4468554176962	56.4280689343853
18570	1652181763226	6.63095809804886	2.17573344755175	7.18683066202348	0.0259561307612486	-0.0171422604325434	0.204946522646031	0.00310723077238843	-0.0026655409930388	-0.0104402731331805	0.54248046875	-0.250732421875	0.365234375	0	0	0	0.287813351820529	-0.242696029474263	0.483555565971474	0.790212709597402	0.414545303790871	0.624521192621403	0.661910470586222	-0.90392582348749	0.36667497826368	0.220153505417908	-0.10521547765133	-0.689581568983735	0.71652422358252	17.0796805481661	-41.4457394027543	56.4245485885334
18571	1652181763227	6.65427870672183	2.15879819838251	7.16836880188977	0.0554182809570484	0.00465754508398578	0.203412333816839	0.00105784226517919	-0.00342057309481452	-0.010463400864705	0.533447265625	-0.262451171875	0.3662109375	0	0	0	0.287835976794383	-0.242590456603049	0.483500690733123	0.790270461860078	0.414753904851435	0.624540106275996	0.661761931560932	-0.903845150425332	0.366755065046833	0.220351233976813	-0.105086357169222	-0.689521847308163	0.716600641655896	17.0924099609887	-41.4343865360169	56.4120657408561
18572	1652181763227	6.64555205582522	2.1664758255026	7.21573260587599	0.040164270363632	-0.0305589063799595	0.233268521504108	0.00313997517056767	-0.000666101091727926	-0.00703258020360561	0.54052734375	-0.248291015625	0.355712890625	0	0	0	0.287835807661966	-0.242575078962126	0.483499117473012	0.790276206333532	0.414771868938673	0.624552109100909	0.661739344269877	-0.903839284187824	0.366758302460804	0.220369907053825	-0.105065908343108	-0.689509253450362	0.716615757788204	17.0934344279991	-41.4326603588789	56.4114295621103
18573	1652181763228	6.64130559081198	2.2010134550708	7.20976568048209	0.00679909745583355	-0.0166479556433275	0.233794504643619	0.00195382091416121	-0.00524705718452843	-0.0102016869415077	0.53466796875	-0.255859375	0.363525390625	0	0	0	0.28782807219878	-0.242625223619566	0.48351093498822	0.790256399825213	0.414700353220746	0.624526520757391	0.66180831205815	-0.903863922282262	0.366744353202302	0.220292054760834	-0.105136230839393	-0.689539849656924	0.716576003435778	17.0886402513895	-41.4379311932495	56.4149008107215
18574	1652181763229	6.60750605361758	2.19655475918742	7.20423220213232	-0.0023192645984646	-0.0354342157339708	0.206478754862005	0.000655596378837736	0.00206566034184705	-0.0087006241812962	0.53662109375	-0.2587890625	0.361083984375	0	0	0	0.28781335098744	-0.242603116236431	0.483503719659522	0.79027296300782	0.414735762135558	0.62455100263326	0.661763018546388	-0.903848666009271	0.366775256137574	0.220303201153496	-0.105127715465993	-0.68950123755872	0.716614405971506	17.0885920798515	-41.4344696073152	56.4136814588412
18575	1652181763229	6.65993281971941	2.18808542469577	7.21524132444799	0.0245548305028284	-0.012336132312752	0.247202060847862	0.00155129338283871	0.000239964741384604	-0.00843871978263673	0.53076171875	-0.258544921875	0.3671875	0	0	0	0.287756548245666	-0.242618049590257	0.483581717016279	0.790241339036593	0.414570409961215	0.624662662192742	0.661761236131935	-0.903922392161494	0.366689783818655	0.220142934004411	-0.105146013398668	-0.6894455460044	0.71666530190952	17.0757416775832	-41.434333388913	56.4289291927395
18576	1652181763230	6.6348754853479	2.17687239223418	7.16205214768015	0.030310923917491	0.00453554176701143	0.190032149765264	0.00466718563796159	-0.00557599180418207	-0.0124440255812168	0.53125	-0.2607421875	0.358642578125	0	0	0	0.287780242707542	-0.242611401511786	0.483553952007661	0.79025174170099	0.41463056670852	0.624621169539544	0.661762712544325	-0.903896241582259	0.366716214809922	0.220206272047255	-0.105133617860502	-0.68946908005982	0.71664447952735	17.0808360836086	-41.4344462215375	56.4233451611661
18577	1652181763231	6.62624514211146	2.18477060912277	7.20925934736488	0.0126331478648696	-0.0287087799713842	0.219898735182323	0.00175367680355456	-0.00250507191113489	-0.0093207362307791	0.53857421875	-0.257568359375	0.362548828125	0	0	0	0.287674499722601	-0.242616633469634	0.483695146490978	0.790202225151438	0.414352348849865	0.624844724788726	0.661725925822996	-0.90402319941976	0.366564774940845	0.219937083465767	-0.105138888682827	-0.689347035734737	0.716761102746425	17.0585542496271	-41.431634909423	56.4505075238044
18578	1652181763232	6.64961459141607	2.1676737254604	7.1908123118759	0.0398593798181307	-0.0076209693382487	0.218380298828899	0.00198729972114277	-0.00324805067196613	-0.00679412969522754	0.53369140625	-0.26171875	0.357421875	0	0	0	0.287674175573737	-0.242615599753139	0.483690734506828	0.790205361166729	0.41436188821734	0.624841537827313	0.661722961819037	-0.90401850838856	0.366573684120433	0.21994151632035	-0.10514162869141	-0.689345186909992	0.716762478928791	17.0588472539887	-41.4314083998303	56.4497653717577
18579	1652181763233	6.63064830712176	2.18263482277288	7.18502362764961	0.0163957694468779	-0.00977492244718205	0.204976629882561	0.00175411035271806	-0.00250587292960911	-0.00932104964376967	0.542236328125	-0.25146484375	0.364013671875	0	0	0	0.287620010755294	-0.242690768109943	0.483792247940188	0.790139849216777	0.414092503814372	0.624921625011426	0.661815956953157	-0.904132510347395	0.36643958049221	0.219696239343351	-0.105222630729619	-0.689343888376311	0.716751840974662	17.0411643972209	-41.4385154775061	56.4703067969841
18580	1652181763234	6.64532898383494	2.20286761599878	7.18465635409901	0.00443968184760859	0.00712930040085136	0.218874798403037	0.00175439139685063	-0.00250630471495016	-0.00932122387041421	0.533447265625	-0.248046875	0.36328125	0	0	0	0.287619462900513	-0.242684586127737	0.483778999986731	0.790150058779133	0.414124141655695	0.624914389918665	0.661802992264704	-0.904117631183837	0.366465847465319	0.219713658255586	-0.105225967709781	-0.689336483811867	0.716758472433658	17.0422886963499	-41.4375246150259	56.467985722942
18581	1652181763235	6.61163398457104	2.16804400119632	7.20850104330934	0.0210615581563978	-0.0435907475998567	0.206008274016284	0.00129467022068479	-0.00416810457936481	-0.00793820524913044	0.527587890625	-0.255126953125	0.369140625	0	0	0	0.287658408695198	-0.242659125407981	0.483689961021735	0.79019820954617	0.414321140926053	0.624816006609206	0.661772581833562	-0.90402775809012	0.366593323027478	0.219870753203383	-0.105222643876143	-0.689357884844002	0.71673837752636	17.0542174914563	-41.4352004723493	56.4512822883972
18582	1652181763236	6.64960169957929	2.17066534244058	7.18992173749708	0.0367648139114688	-0.00605815491492498	0.218393183618083	0.00631369121529566	0.000664958347644977	-0.0106598332928015	0.54443359375	-0.260986328125	0.36376953125	0	0	0	0.287670297075475	-0.242627102318836	0.483681123422385	0.790209124375145	0.414369320130449	0.624825252827536	0.661733685075527	-0.904011695238021	0.366596742050735	0.219931088276912	-0.105170915216659	-0.689347685966083	0.716755778801746	17.0582356001518	-41.4322278763179	56.4486042342449
18583	1652181763237	6.6304310551462	2.15534304494821	7.21377123388839	0.0394571120353175	-0.0383027173842183	0.219440581194608	-0.00231320974746198	-0.00201610143493162	-0.00595801363622504	0.5361328125	-0.250244140625	0.364501953125	0	0	0	0.287588091565792	-0.242604569729857	0.483788705443927	0.790180106571044	0.41418302246216	0.625020051223601	0.661666350566929	-0.904100792078599	0.36648315614887	0.219754076235263	-0.105138868488113	-0.689231479132817	0.716872224671474	17.0426940742378	-41.4270823117976	56.4686953042753
18584	1652181763238	6.63059185717268	2.18626461579882	7.18397208991192	0.014740059151591	-0.00637835243071936	0.204981941380982	0.00490438088286341	-0.00632212265309459	-0.00991901962520509	0.53955078125	-0.2626953125	0.363037109375	0	0	0	0.287609899996792	-0.242604479600011	0.483771610856496	0.790182662699679	0.414216190014638	0.624984978977132	0.66167871658586	-0.904086779443263	0.366491147906293	0.219798393402308	-0.105128698106965	-0.689259032990704	0.716847223803687	17.0464918292359	-41.4280272669351	56.465102101119
18585	1652181763239	6.63071281710618	2.18724065331108	7.18356333341047	0.0134135417725129	-0.00558234398140584	0.204984280600289	0.00241870437096443	-0.00359206275974164	-0.0115870710461696	0.53955078125	-0.25	0.3564453125	0	0	0	0.287595734111074	-0.242609240248184	0.483808117671523	0.790164005471301	0.414140923642674	0.625028755175109	0.661684479618985	-0.904122285380334	0.366436797992501	0.219742954734947	-0.105119876536431	-0.689248234151715	0.716858900534623	17.0421799419337	-41.4284676565132	56.4717443935744
18586	1652181763240	6.61169899824223	2.17198822598515	7.2072539516648	0.0170585537833279	-0.0393802887552329	0.206033324207416	-0.000293369852919471	-0.0032648618366289	-0.00934458339140656	0.53857421875	-0.25439453125	0.371337890625	0	0	0	0.287588716762058	-0.24261064610598	0.483791541898359	0.790176276772974	0.414171636767295	0.625017029850138	0.661676331520791	-0.904105367395869	0.366476947957522	0.219745605784783	-0.105144376661244	-0.689237520027059	0.716865608774383	17.0422233933876	-41.4278450099985	56.4692930249665
18587	1652181763241	6.62638938750752	2.19224226525796	7.20685820565407	0.00574206251157776	-0.0228458098946697	0.219920109915604	0.00311248929687565	-0.00267338098347922	-0.010443893598583	0.536865234375	-0.262939453125	0.360595703125	0	0	0	0.287620862806094	-0.242589388668565	0.483744793672372	0.790199723094715	0.414282726200572	0.624962465463926	0.661658325371239	-0.904057542569748	0.366530427747104	0.219853144754113	-0.105117945635225	-0.68925855982844	0.71684925556818	17.0504462915124	-41.426469070063	56.4599136786176
18588	1652181763242	6.64976282404476	2.17524916035647	7.18838721643518	0.0329404558347356	-0.00173554687208569	0.218408150440645	0.00198999127621158	-0.00325125621898433	-0.00679545758623199	0.537353515625	-0.245361328125	0.359375	0	0	0	0.287620019051583	-0.242588769633183	0.483740817724383	0.790202654232425	0.414291020230407	0.624959783165551	0.66165566572207	-0.904053329339936	0.366539091816223	0.219856025343668	-0.105121492882408	-0.6892563845161	0.716850826977251	17.0506215255488	-41.4262658354407	56.4592721763356
18589	1652181763243	6.62059320333397	2.16719120328492	7.15885489069072	0.0303914790826807	-0.00335234562759098	0.176168452149426	0.00150128021855282	-0.00691651873537817	-0.00882098190257886	0.533935546875	-0.247314453125	0.367919921875	0	0	0	0.287631485812542	-0.242652921833072	0.48372402314536	0.790189064292344	0.414261257915881	0.624877625562717	0.661751889503198	-0.904056107337122	0.366558395602674	0.219812414116318	-0.105214851501116	-0.689320604424599	0.716775375790285	17.0491258732393	-41.4336190912424	56.4576988015628
18590	1652181763244	6.62677021451442	2.19437200503109	7.20585981462456	0.00354663642519789	-0.0220947965739679	0.219922808298802	0.00106391483075557	-0.0034308815877812	-0.0104667245391102	0.533935546875	-0.255615234375	0.3662109375	0	0	0	0.28763189683275	-0.242650408534675	0.483704009599711	0.790201937646012	0.414302420670235	0.624859696717534	0.661743049562937	-0.904035685813815	0.366596646043113	0.219832613333613	-0.10522824241585	-0.689316515490535	0.716777342324699	17.0505576332659	-41.4329435234719	56.4543198201173
18591	1652181763244	6.63121964795471	2.19196000396659	7.18165675394117	0.0119798531969716	-0.00246171896262366	0.204987350610819	0.00762056271761272	-0.00665335977355655	-0.0121642392941237	0.53759765625	-0.25244140625	0.361083984375	0	0	0	0.28764776672038	-0.242554335984888	0.483670860214657	0.790245946130014	0.414459786148288	0.624897446982904	0.661608846993572	-0.903978299200495	0.366642522559983	0.219992034459054	-0.105101475919687	-0.689257891797476	0.716852312791416	17.0605238701955	-41.4226883299189	56.4458922310134
18592	1652181763245	6.60797007516313	2.18036857028149	7.22899258932756	0.00820553085168918	-0.0540790503183587	0.220986819043501	0.000400903956454257	-0.0023481231823861	-0.00820174651168267	0.526123046875	-0.257080078125	0.367431640625	0	0	0	0.28764019505371	-0.242551584437572	0.483660768228285	0.790255723391556	0.414481980327296	0.624896210428299	0.661596111064987	-0.903966550661138	0.366670758932576	0.219993249509188	-0.105115000212941	-0.689243992165445	0.716863694152573	17.0603574903944	-41.4217151881907	56.4444267669601
18593	1652181763245	6.6312810050568	2.1633595036081	7.21058964221804	0.0350348789069289	-0.0314876833110597	0.219480704451788	0.00380668264680879	-0.00175610794476817	-0.00930167432975793	0.53369140625	-0.26123046875	0.36669921875	0	0	0	0.287588290818425	-0.242504265072004	0.483706511906916	0.790261138323826	0.414439383521464	0.625026143211941	0.661500051162474	-0.903991691644885	0.366641970645963	0.219937915780487	-0.105066735094264	-0.689141484502603	0.716969312812048	17.0539486697399	-41.4143758005199	56.4526258443809
18594	1652181763246	6.65032004669144	2.18014741208646	7.18638753775694	0.0305076172281737	0.00326069404849499	0.218415464640048	0.00129889097797484	-0.00417395290298263	-0.00794000872481388	0.534423828125	-0.25146484375	0.366455078125	0	0	0	0.287587984856325	-0.242506639297681	0.483696393822525	0.790266714132581	0.414456656999258	0.625014328148013	0.66150039234961	-0.903982310987612	0.366661899138726	0.21994324982022	-0.105079307622845	-0.689141597445454	0.716967361725645	17.0543819872737	-41.4144018672098	56.4510271336186
18595	1652181763246	6.63150031185784	2.19523792408477	7.18039625761521	0.00945380678907571	0.00260388197240482	0.204990017011616	0.00421721079493337	-0.007248075051884	-0.0110655683003729	0.544921875	-0.254150390625	0.360107421875	0	0	0	0.287551044392423	-0.242463716710731	0.483759546529148	0.790254670400345	0.414376094441463	0.625145092055945	0.661427294745086	-0.904027871925703	0.366582196021479	0.219888836327709	-0.105005043388039	-0.689065386910729	0.717051485895289	17.0485231743741	-41.4088174507174	56.4616770310431
18596	1652181763247	6.6317141177787	2.1658594368756	7.20944074471333	0.0333147831408665	-0.0283276814653035	0.219495984518463	0.00265596617287821	-0.00433906674410659	-0.00906225045554194	0.534423828125	-0.249267578125	0.3603515625	0	0	0	0.287557432896897	-0.242461508922787	0.483746943556147	0.790260738033162	0.414402622581942	0.625129215107645	0.661425680493363	-0.904015651436223	0.366599234771666	0.219910670553226	-0.105005563450461	-0.689070726038865	0.717046278953264	17.0502344861641	-41.4086941326141	56.4593177337578
18597	1652181763248	6.60861164593422	2.1844323395652	7.22717905005013	0.00524686271369274	-0.0499378595737361	0.221010267805857	0.00445204161760407	-0.00798959811719126	-0.00853861534080525	0.5341796875	-0.255126953125	0.364013671875	0	0	0	0.287624207425463	-0.242520003857998	0.483675892865188	0.790261977886229	0.414483356779561	0.624952087714108	0.6615424665239	-0.903970583292016	0.366659891927875	0.219994791288639	-0.105074885179289	-0.689199108903382	0.716912726063182	17.0593710416326	-41.417616413408	56.446698927669
18598	1652181763249	6.65126950105011	2.18358560379974	7.18446471727891	0.0283380204721923	0.00546438700370747	0.218420870021569	0.00424689469281684	-0.00524429523068889	-0.00765713964140222	0.538330078125	-0.25341796875	0.36865234375	0	0	0	0.287637744320756	-0.242519910392366	0.483668969676879	0.790261316829473	0.414496841669969	0.624933993816546	0.661551110359676	-0.903965513729074	0.366657711627547	0.22001925482235	-0.10506530461647	-0.689216675564768	0.716897242210693	17.0615049864691	-41.4182768384496	56.4450761978727
18599	1652181763250	6.63249598735365	2.16839207662256	7.20796003704528	0.0322682076672208	-0.0273258279660733	0.219502184274297	0.000579597616112755	-0.00710393974834974	-0.0124937564810869	0.538818359375	-0.25439453125	0.3720703125	0	0	0	0.28762285165107	-0.242484509581698	0.483672344904492	0.790275534605254	0.414524650775027	0.624980669632151	0.661489589098718	-0.903957014140547	0.366668315965394	0.220036503001682	-0.105028712673959	-0.689168708411265	0.716948715642061	17.0616109432314	-41.413576504152	56.4452767081586
18600	1652181763251	6.62392170006909	2.20635763513321	7.22567770999289	-0.00732490412277409	-0.0310447609932351	0.234887151909408	0.000402211989503259	-0.00235206003921709	-0.00820286591709157	0.535400390625	-0.26025390625	0.362548828125	0	0	0	0.287614736683511	-0.242481149369208	0.483662992862678	0.790285242667596	0.414546003071411	0.624981147514554	0.66147575661464	-0.903945755220713	0.366695745155185	0.220037047116023	-0.105041339271609	-0.689153680782796	0.716961310886125	17.0613683592608	-41.4125197244777	56.4439374572369
18601	1652181763253	6.63268750878421	2.20019513435839	7.17778197754135	0.00651550467173946	0.00644469147577218	0.204990624378668	0.00491239706334958	-0.00633077459276149	-0.00992376082594643	0.534912109375	-0.25537109375	0.369873046875	0	0	0	0.287589152250926	-0.242444344410989	0.483743627333021	0.790256491517413	0.414425685755634	0.625114356505824	0.661425273387917	-0.904011810414576	0.36656916504457	0.219976575729072	-0.104947594621952	-0.689100202096063	0.717026438741439	17.0554923172665	-41.4086630325006	56.4572220517877
