// Start Time : 05/07/2022 10:09:08																																
// Update Rate : 100Hz																																
// Filter Profile : 46.1 human																																
// Firmware Version : 4.4.0																																
PacketCounter	Time_Of_Arrival	Acc_X	Acc_Y	Acc_Z	FreeAcc_X	FreeAcc_Y	FreeAcc_Z	Gyr_X	Gyr_Y	Gyr_Z	Mag_X	Mag_Y	Mag_Z	VelInc_X	VelInc_Y	VelInc_Z	OriInc_q0	OriInc_q1	OriInc_q2	OriInc_q3	Mat[1][1]	Mat[2][1]	Mat[3][1]	Mat[1][2]	Mat[2][2]	Mat[3][2]	Mat[1][3]	Mat[2][3]	Mat[3][3]	Euler_X	Euler_Y	Euler_Z
16676	1657015775387	9.74404009897206	-0.0398787819859994	1.2892950462948	-3.46944695195361E-16	-6.93889390390723E-16	0.0163608363884649	-0.0108623152103728	0.0345387075545103	0.005822796061731	0.58447265625	0.35205078125	0.298828125	0	0	0	-0.579769421904261	-0.313635063638545	-0.659962932907273	0.360484939310472	-0.0678360519102496	-0.112141356563227	0.991374089942535	0.83948543470173	-0.543367310773542	-0.00402125681554166	0.539131222417027	0.831971322661357	0.131000928562489	-1.75822202712717	-82.4689978788767	-121.170396515079
16677	1657015775388	9.68950240320425	-0.0494881057234761	1.31463654217329	1.04083408558608E-15	6.93889390390723E-16	-0.0342838571186981	0.0103729662255891	0.00592879194933214	0.00282528518207953	0.580810546875	0.34423828125	0.30078125	0	0	0	-0.58034597018781	-0.309825665213916	-0.662563525966912	0.358072878224275	-0.0699647375339063	-0.114879904963485	0.990912479958443	0.834104210034101	-0.551583742109875	-0.00505393346366367	0.547151809194852	0.82617067418037	0.134413224123048	-2.15330533697212	-82.2698172950437	-121.342460864184
16678	1657015775389	9.70391916941693	0.0015660319942271	1.340904676965	0.0626198197365233	0.0123616719584711	-0.0167698406999222	0.0211513764458409	-0.0338535309306896	0.00238932994788814	0.57666015625	0.359130859375	0.29443359375	0	0	0	-0.580221466169789	-0.31183992099246	-0.661119741735828	0.359192985675317	-0.0686468984748629	-0.11306671550894	0.991213156275583	0.836811580183006	-0.547472525434135	-0.00449590551396106	0.543170307179435	0.829150017631786	0.132197827742393	-1.9478169325396	-82.398967289705	-121.263453916176
16679	1657015775390	9.78693704612999	0.0160860635132639	1.20236586026597	-0.00378472500683	-0.11623697805302	0.047158044125986	0.0146466167494519	-0.0541440041820784	0.00291488352270314	0.580078125	0.35693359375	0.2958984375	0	0	0	-0.580378661713733	-0.311977108874106	-0.660934566073633	0.359160677044396	-0.0683284341847753	-0.112633698598754	0.991284457167478	0.836893126333447	-0.54734778320713	-0.00450547600922152	0.543084818585169	0.829291296323678	0.131661785131861	-1.95990102096271	-82.4299145416802	-121.24279716458
16680	1657015775391	9.77984582650419	0.00173093644849528	1.09935637053539	-0.0693538341321576	-0.189816488817121	0.0266790418718141	0.00361463262529911	-0.0203105659488202	0.0017658127356946	0.584228515625	0.3515625	0.289306640625	0	0	0	-0.580436505256556	-0.312033957090091	-0.660867888441371	0.359140511520628	-0.0682231127005145	-0.112457063855289	0.99131176512866	0.836920662154276	-0.547305805214802	-0.00449008211790264	0.543055625284096	0.829342971494438	0.131456545976509	-1.95625692939878	-82.4418005802641	-121.243479723469
16681	1657015775392	9.7599034850087	-0.0071972822295722	1.1265818669416	-0.0609061599442979	-0.160494974287061	0.0105242129953602	-0.00326652469643869	0.0294534945091029	-0.00126887864209906	0.58203125	0.3515625	0.2998046875	0	0	0	-0.58034306055958	-0.311973952781058	-0.66096073545423	0.359172787157248	-0.0683936820520683	-0.112694381965543	0.991273060528109	0.836902056252858	-0.547334323503713	-0.00448180259164188	0.543062843964765	0.829291935682566	0.131748369693005	-1.94833066326543	-82.4249595345575	-121.253363633413
16682	1657015775393	9.74705865988108	-0.00184657616138619	1.25650641716122	0.0129310816269315	-0.0573229674091992	0.0148509516916508	-0.00109917774893422	0.0481336827594568	0.00028234713109078	0.5703125	0.351806640625	0.2978515625	0	0	0	-0.580188921893821	-0.311885382189047	-0.661099385158116	0.359243547237859	-0.0686497773592918	-0.113086489108527	0.991210701137567	0.836896263695348	-0.547343164289506	-0.00448378392852528	0.543039457020654	0.829232721548455	0.132216646576956	-1.94229309607089	-82.3979038986175	-121.26007525143
16683	1657015775394	9.74236880850664	0.000151884892281159	1.30270320211565	0.0375338071807891	-0.0229606813879978	0.0162926742560483	-0.00234228147075423	0.0370711240549678	-0.00531432825713555	0.573486328125	0.357421875	0.295166015625	0	0	0	-0.580062293140444	-0.311826463078021	-0.661220113098838	0.359276989291635	-0.068895562084377	-0.113364796516629	0.991161855821652	0.836879889456271	-0.547368603779581	-0.0044342101948816	0.54303356447713	0.82917792692952	0.132583986001804	-1.91551691172308	-82.3767782348553	-121.288443491771
16684	1657015775395	9.74482233750309	-0.0207358679436526	1.27847076378043	0.00492691362384348	-0.0341578555068736	0.0156028445605632	0.00016289120362219	0.0234668903329958	0.000691143300262913	0.5791015625	0.35498046875	0.29345703125	0	0	0	-0.579987821585999	-0.311786582955299	-0.661284651704214	0.359313043071668	-0.069016527781009	-0.113551558984886	0.991132061001537	0.836881243176831	-0.547366527535272	-0.0044350144058633	0.543016117359195	0.82915374206843	0.132806507001971	-1.91265636346351	-82.3639204651208	-121.291193746483
16685	1657015775396	9.69586823463232	-0.0122858192886144	1.24616335921685	-0.00291382797148743	-0.0610191025168218	-0.0372485965908833	-0.00430797979237268	0.00202604269544701	-0.00276296839370379	0.582275390625	0.3564453125	0.297607421875	0	0	0	-0.579984554693472	-0.311776711393017	-0.661302206555763	0.35929457295435	-0.0690506523251327	-0.113553233554296	0.991129492328241	0.836855942038593	-0.547405384157013	-0.00441335140361582	0.543050770819978	0.829127860191223	0.13282639709994	-1.90303600328528	-82.3628129776637	-121.303390572128
16686	1657015775397	9.71173654986504	-0.00161388011462357	1.26056518733663	0.0132466859074818	-0.0558104170071856	-0.0196508870065397	-0.00865896842493964	-0.0203086765497053	0.00129462041125614	0.5830078125	0.36181640625	0.29833984375	0	0	0	-0.580072533490237	-0.311786363128934	-0.661251656029478	0.359237201658352	-0.0689289776697897	-0.113374977872147	0.991158367986614	0.836809800143777	-0.547475793423019	-0.00442876948697501	0.543137325563922	0.829105765272638	0.132610239314102	-1.9127898743051	-82.3752719673913	-121.298491135579
16687	1657015775398	9.71490239062507	-0.0228968010461273	1.23088618337501	-0.019366973792617	-0.0671226300852042	-0.0203407473326163	-0.00690670741539995	-0.0310407519425819	0.000571403105280877	0.578369140625	0.34912109375	0.30029296875	0	0	0	-0.580188451427637	-0.311817621579778	-0.661171358946087	0.359170663907444	-0.0687555900365713	-0.113120745914066	0.991199458072172	0.836772677882947	-0.547532410121232	-0.00444358137491602	0.543216489428776	0.82910310378787	0.132302263404661	-1.92364652646107	-82.3930360906293	-121.291530331585
16688	1657015775399	9.74682777782868	-0.00169957681328291	1.25829596897841	0.0129531366850517	-0.0567835629924775	0.0148540541307867	-0.00338457221289891	-0.033835281646549	0.00144660123018328	0.578857421875	0.353515625	0.291748046875	0	0	0	-0.580313647435619	-0.311871427426019	-0.661071520254474	0.359105455909073	-0.0685586842726097	-0.112822288177883	0.991247112531035	0.836755270500066	-0.547558968583188	-0.00444895656034733	0.543268188007699	0.829126231170153	0.131944566710451	-1.9311890049383	-82.4136899208154	-121.285781555791
16689	1657015775400	9.73690467747422	0.00499227720127726	1.18293204139736	-0.0197938016251595	-0.1192379322068	-0.00493249342534341	-0.000398320583200663	-0.0314538283227788	0.00201957540465015	0.58203125	0.35302734375	0.30078125	0	0	0	-0.580421470859549	-0.31192072333957	-0.660977241491834	0.359061923275641	-0.0683709028376697	-0.112572549078316	0.991288475086426	0.836754489207628	-0.547559995209834	-0.00446950072035962	0.543293055759085	0.829159497828866	0.131632757033114	-1.94469210440409	-82.431662213059	-121.272389735268
16690	1657015775400	9.75323203113244	-0.044166617531667	1.1979230272979	-0.0522584375368408	-0.0790006159147781	0.0134783565706922	0.00336206162400392	-0.0262570180703918	0.000178953301255994	0.574462890625	0.358154296875	0.30224609375	0	0	0	-0.580510462316424	-0.311991856952136	-0.660888542369332	0.359019524401766	-0.0682251684790033	-0.11231470609154	0.991327762741256	0.836772854564516	-0.547532124587776	-0.00444549303778774	0.543283090340537	0.82921286732658	0.13133736867346	-1.93860123008495	-82.4487723267058	-121.276439163139
16691	1657015775401	9.73339294439684	0.00661896336568425	1.22005937577284	0.00482464799679317	-0.0844688593318404	-0.00348920917648243	0.00156290094469205	-0.0171232572053358	0.00144660826922491	0.577880859375	0.35205078125	0.29931640625	0	0	0	-0.580566494176991	-0.312023559574518	-0.660833803794969	0.359002127948229	-0.0681200359353616	-0.112180635399426	0.991350173120248	0.83678233173064	-0.547517540798181	-0.00445778215541603	0.543281685691316	0.829240645144516	0.131167688218969	-1.94646898900631	-82.4585495268304	-121.267599362835
16692	1657015775401	9.7720340092383	0.00493682488882039	1.17995464293917	-0.0200173059895418	-0.119492735543539	0.0295830413304259	0.000347390870628157	-0.011567298513692	0.00247288902321636	0.57958984375	0.353759765625	0.297119140625	0	0	0	-0.580620420992946	-0.312056097790372	-0.660784393836369	0.358977580665037	-0.0680300466117023	-0.112041280336262	0.991372111902801	0.836785851826108	-0.547512176823446	-0.00445582918281934	0.543287539836562	0.829263026868232	0.131001837115641	-1.94807818404544	-82.4681332017569	-121.265593743764
16693	1657015775402	9.79473897894592	-0.00724549930472326	1.12582533787902	-0.061078436192981	-0.160123911387791	0.0450545981191777	-0.00841616051625428	0.00839901872815438	-0.00339077010224386	0.585205078125	0.348876953125	0.298095703125	0	0	0	-0.580602485856099	-0.312023059655834	-0.660827993274511	0.358955048669765	-0.0681040529044094	-0.112092360815184	0.991361256366655	0.836737817137596	-0.547585766554997	-0.00443324240105003	0.543352246107259	0.829207531872	0.13108472732146	-1.93698617074386	-82.4633895860571	-121.281646447147
16694	1657015775402	9.75858526711929	0.0329417916680649	1.13722802218905	-0.019995485412751	-0.169767797041513	0.0105064604498288	-0.0143518526093706	0.040972731902966	0.000113322329910551	0.577880859375	0.35107421875	0.294677734375	0	0	0	-0.580514138291476	-0.311928145756192	-0.660950735866827	0.358954442632917	-0.0683100867155936	-0.11234500851676	0.991318481172563	0.836659803486815	-0.54770507999839	-0.00441798295162976	0.543446506366829	0.82909453285215	0.131408334257618	-1.92557397261364	-82.4447266477521	-121.301210444393
16695	1657015775403	9.75000094735628	-0.0235555547451574	1.2284015625778	-0.0194254357339906	-0.0662543288901036	0.0141775770299759	-0.01316309665442	0.0524899073571476	0.00195377431189519	0.57763671875	0.351318359375	0.299072265625	0	0	0	-0.580367323406494	-0.311784755646656	-0.661120089834976	0.359004544379219	-0.0685790140741039	-0.112790865035113	0.991249282266199	0.836589601489503	-0.547812006522849	-0.00445468169968327	0.543520705684944	0.828963344348857	0.131928072136675	-1.93391384764087	-82.4146316323851	-121.300405447157
16696	1657015775403	9.73213837566928	0.00595039530932694	1.23003059688706	0.00524237871123955	-0.0819036106570588	-0.00346766913920149	-0.0107281614094508	0.0413824340659095	-0.000100797414219612	0.580810546875	0.34716796875	0.2998046875	0	0	0	-0.580277082777395	-0.311709842177325	-0.66123319105173	0.359007170603444	-0.0687847173173331	-0.113018758273816	0.991209071256826	0.836531069840456	-0.547901651490195	-0.00442148005757831	0.543584797299517	0.828873054558153	0.132230962986288	-1.91511722901273	-82.3971980319208	-121.3252491302
16697	1657015775404	9.71049129858441	-0.0224086682029547	1.27484419811882	0.00567837178434214	-0.0295376275546613	-0.018890042372556	-0.00340424884554298	0.0246657409901318	0.000365624507720956	0.58349609375	0.351318359375	0.308349609375	0	0	0	-0.580202210457056	-0.311653249266052	-0.661309399527484	0.359036941413076	-0.068915739362979	-0.113225200027559	0.99117640959961	0.836512816508706	-0.547929453845311	-0.00442960782137086	0.543596292007889	0.828826500353059	0.132475294405318	-1.9150990490672	-82.383066671057	-121.327235268334
16698	1657015775404	9.67465489918766	-0.0420396170314106	1.28749384189558	-0.00185092873338961	-0.00403010038559498	-0.0526496840462425	0.0101196872655396	-1.96013898086624E-05	0.00124256335934077	0.577880859375	0.350341796875	0.29248046875	0	0	0	-0.580214928278185	-0.311721803395265	-0.661266216679544	0.359036411759958	-0.0688869840673487	-0.113106011709951	0.991192016483776	0.836568586908873	-0.547844744637075	-0.00437437662169793	0.543514105450259	0.828898766972546	0.132360308582287	-1.89287959925843	-82.3898158760395	-121.343418599536
16699	1657015775405	9.76063956734466	-0.011415478162686	1.29327802397991	0.0217137789462897	-0.0244584620612345	0.0332109057829424	0.0263276082955297	-0.0298708890525966	0.00165336878535882	0.586669921875	0.35205078125	0.300537109375	0	0	0	-0.580268995230823	-0.311857667464049	-0.661135544435323	0.359071692426322	-0.0687108257438156	-0.112867447018395	0.991231437066618	0.836712788435962	-0.547624629883959	-0.00435596282975892	0.543314395256854	0.829076717890454	0.132065376835388	-1.889123744407	-82.4068898828337	-121.331989862143
16700	1657015775405	9.78928856871168	-0.00579221007665126	1.17912551484639	-0.0358021997922623	-0.121255956683457	0.0465496898315774	0.0346824602609532	-0.0378207492935918	0.00129279089431875	0.5859375	0.35009765625	0.300537109375	0	0	0	-0.58036091271706	-0.3120756745966	-0.660945681194123	0.359083264475156	-0.0684808403281729	-0.112436018996532	0.991296381583307	0.836902112379232	-0.547335964997885	-0.00426564356371489	0.543051773593573	0.829325920885176	0.131579968630596	-1.85680092147869	-82.435102468557	-121.344130018478
16701	1657015775407	9.79760368103584	0.0505152236661705	1.09049877963373	-0.0363722780407097	-0.224770441298046	0.0429167578899907	0.0136418860393644	-0.00281438560677145	0.00211441414190174	0.58349609375	0.35302734375	0.296142578125	0	0	0	-0.580349026358492	-0.31211968662252	-0.660912417740144	0.35912544452362	-0.0684478454009261	-0.112424219146825	0.99129999869323	0.836977644101614	-0.547220432636744	-0.00426865071971466	0.542939513881688	0.829403757559659	0.131552617654821	-1.8584950421688	-82.4366768552034	-121.334535184967
16702	1657015775407	9.73507424685323	-0.0148708547259489	1.20204284922852	-0.0268078445375765	-0.0890276647813583	-0.00411186679701636	0.00921314388235405	0.0337993824086073	0.00132294447785192	0.58251953125	0.353759765625	0.2939453125	0	0	0	-0.580262314589228	-0.312138815596311	-0.660959122534931	0.359162977495648	-0.0685952037280262	-0.112539309683002	0.99127675338504	0.837028876127224	-0.547142630789186	-0.00419548594150604	0.542841927778895	0.829439476604027	0.131730012131369	-1.82420394509347	-82.4265647542291	-121.363233528997
16703	1657015775408	9.74627321295835	-0.00239188094792447	1.26258307181278	0.013952182642819	-0.0496091681318311	0.0148915214065717	0.0113152620018824	0.0322133632302148	0.00109692712542577	0.57080078125	0.356201171875	0.2978515625	0	0	0	-0.580137251385304	-0.312115185990046	-0.66103292827871	0.359249701406664	-0.0687608431886547	-0.112812471976442	0.991234226916399	0.837091056439955	-0.547047525427245	-0.00419143795959792	0.542725077430762	0.829465099380615	0.132049760459007	-1.81803511825732	-82.4080996805664	-121.36291542808
16704	1657015775408	9.75148304842826	0.0152690047271622	1.20786141071671	-0.00244412534336145	-0.105276926501364	0.0127640086223693	0.0163333727916245	0.0127358007684478	-0.000328231557199046	0.580322265625	0.356201171875	0.30419921875	0	0	0	-0.580103868901874	-0.312202299184365	-0.661011570812657	0.359267211029418	-0.0688131447284412	-0.112740043734255	0.991238837844533	0.837179090281897	-0.54691359092628	-0.00408593378514255	0.542582640624778	0.829563262565864	0.132018451338147	-1.77272231796305	-82.410099595718	-121.398640442393
16705	1657015775409	9.7327802911506	0.0258454471669432	1.22053828398452	0.0140113242934996	-0.0990209485769687	-0.0041506509658884	0.0116869729551523	0.00357155777615926	0.000713605294962254	0.582275390625	0.34375	0.29248046875	0	0	0	-0.580072158313196	-0.312232507064239	-0.661002408125788	0.35930901621607	-0.0688266440314215	-0.112773481423673	0.991234096951349	0.837243018496846	-0.54681578479644	-0.00407743494646517	0.542482277175634	0.829623191204921	0.132054305364501	-1.768557353356	-82.4080433179272	-121.396082559427
16706	1657015775409	9.73142974801066	0.00648271475940166	1.23562118042793	0.00624825591769469	-0.0739241508824852	-0.00340487825045521	0.0109102984980214	0.000755968398721383	0.00312786347580628	0.590087890625	0.349365234375	0.29345703125	0	0	0	-0.580101268736465	-0.312321589330657	-0.660942596056767	0.359294625016933	-0.0687797808885712	-0.112589943966861	0.991258213715508	0.837302544864874	-0.546725194543828	-0.00400125153147035	0.542396340422504	0.82970781975859	0.131875485696632	-1.73788565540263	-82.4185092973944	-121.420233266372
16707	1657015775410	9.75413685284818	-0.00577039753986114	1.18229783190374	-0.034811218373969	-0.114539043518821	0.0121137090084193	0.0177551073291141	0.0115298251554311	0.00077263552313447	0.585205078125	0.357177734375	0.2958984375	0	0	0	-0.580032464826673	-0.312357334691946	-0.660946921833869	0.359366667527153	-0.0688358760350469	-0.112689795927416	0.99124297327362	0.837399374919654	-0.546576987469145	-0.00398543013089708	0.542239715489986	0.829791905638391	0.131990470422477	-1.729510972057	-82.4118937166218	-121.418417775791
16708	1657015775411	9.72991350851389	-0.0127268315060101	1.25198751159512	-0.00147762439711569	-0.0484408348592438	-0.00266682932866757	0.00963633775769752	0.00676007390381008	0.000393570673265385	0.585693359375	0.35009765625	0.30078125	0	0	0	-0.580046268045415	-0.312455174536059	-0.660901959182123	0.359342025348358	-0.0688392714902542	-0.112502781296164	0.991263980431711	0.837456612980644	-0.546490145448361	-0.00386552749544461	0.542150879438261	0.82987447552534	0.131836181664456	-1.67947047974872	-82.4210140143472	-121.462026343146
16709	1657015775412	9.73248596685762	0.0258187785181914	1.22288356423381	0.014545719785038	-0.0945412496995236	-0.00410722768337912	-0.00693197788903457	0.00674665477943567	0.0014544733045322	0.580810546875	0.34912109375	0.29296875	0	0	0	-0.580038764271288	-0.312415991666468	-0.660929650700341	0.359337274602592	-0.068863510047636	-0.112566547283794	0.99125505770035	0.837420090263022	-0.546545942464477	-0.00388911294356148	0.542204213749571	0.829829081924839	0.131902560187388	-1.68886198046229	-82.4171388612332	-121.456552742171
16710	1657015775413	9.78976721942248	-0.0461269530960732	1.17552132754887	-0.0751789015298683	-0.0992021604232604	0.0467257719101877	0.00020507521098842	0.00435084634054336	0.00212423548202026	0.58642578125	0.35546875	0.2978515625	0	0	0	-0.580079948858113	-0.312474587067947	-0.660894188238659	0.359285064150806	-0.0688429912218409	-0.112378336664774	0.991277837948619	0.837419306608113	-0.546547750229734	-0.00380284614520476	0.542208029707803	0.829853400407129	0.131733770738971	-1.65353605590977	-82.4270362591201	-121.491643893957
16711	1657015775414	9.73379660077533	-0.0149675589281552	1.21234395530522	-0.0258108785311649	-0.0804711625700019	-0.00403526187606395	0.0224645106074925	0.0202526279398626	0.00348614562888161	0.588134765625	0.3583984375	0.298095703125	0	0	0	-0.579978212736505	-0.31250233506175	-0.660911446883305	0.359393409386621	-0.0689233000808594	-0.112565344865876	0.991251038759199	0.837543527926268	-0.546357335740828	-0.00380795365051867	0.542005920202708	0.829953435330808	0.131935126663847	-1.653230075119	-82.4153940731375	-121.478965127362
16712	1657015775414	9.73349235133819	-0.015075181974095	1.2147830791245	-0.0254592106179003	-0.0777658640214902	-0.00401252134444086	0.0141635811465311	0.0298082431406209	0.00329096024219232	0.585693359375	0.35693359375	0.296630859375	0	0	0	-0.579916706406683	-0.312578363755314	-0.660911726105913	0.359426029160631	-0.0690190863844929	-0.112558924273951	0.991245103029993	0.837636585085837	-0.546215392147743	-0.00370090618955826	0.541849902685593	0.830047729921104	0.131982760284952	-1.60620034224534	-82.4128178579342	-121.515868841472
16713	1657015775415	9.73315594571384	-0.0151715358666594	1.21747423373338	-0.0254570677760593	-0.0777632994621205	-0.00401249545056181	0.0118111140855786	0.0254491303785959	0.00193439773930802	0.580078125	0.35791015625	0.29248046875	0	0	0	-0.579814493575092	-0.312566140630168	-0.660963443028345	0.359506450222994	-0.0691405305766439	-0.112780485184172	0.991211455337963	0.83770199933698	-0.546115039959248	-0.00370451577605246	0.541733280626552	0.830083685716044	0.132235121543643	-1.60469938723032	-82.3982305488259	-121.510547148537
16714	1657015775416	9.74726210539532	-0.0239868235505153	1.24993918847343	-0.0170186475152791	-0.0470497013477587	0.0142927542323861	0.00232977536769555	0.0214420791393425	0.00420582001413537	0.578369140625	0.357177734375	0.288818359375	0	0	0	-0.579800410287153	-0.312609907131462	-0.66096163580453	0.35949443137371	-0.0691904760842839	-0.112721350017473	0.991214696859095	0.837726759676075	-0.546077599549103	-0.00362372644022091	0.541688613635042	0.830116348785475	0.132213060388216	-1.56998305657945	-82.3996346363842	-121.542381941455
16715	1657015775416	9.73393971402741	0.00350812281058083	1.20709190312537	-0.0171544359149659	-0.0982270112343995	-0.00469458974011694	-0.00333754459197852	0.0242306862738371	0.00409089160149609	0.591064453125	0.3564453125	0.296630859375	0	0	0	-0.579732780166673	-0.312543749455289	-0.661029573288573	0.359536105995736	-0.0692873841712855	-0.112944283865532	0.99118254985487	0.837711711047254	-0.546100386323705	-0.00366840992553558	0.541699499325024	0.830071055271296	0.1324526165533	-1.58645932741761	-82.3857213179371	-121.527665763234
16716	1657015775417	9.73362275425041	0.00318673917191233	1.20964606597328	-0.0167975610201373	-0.0954526682998807	-0.00466657943801252	-0.00612459086563344	0.0282464740484399	0.00133785348965339	0.57861328125	0.3525390625	0.30029296875	0	0	0	-0.579712508898956	-0.312561391478775	-0.661060482718939	0.359496622752332	-0.06939117051149	-0.112906525066752	0.991179591220681	0.837689518823189	-0.546135109573038	-0.00356540957238782	0.541720532663124	0.830053346893436	0.13247756716586	-1.54164681643662	-82.3844420821701	-121.574449314857
16717	1657015775418	9.74768860039206	-0.00563084199137015	1.24227704690853	-0.00864881705188117	-0.0673059529984851	0.0136095873972604	-0.00202302354031251	0.0218708764911713	0.00198262221917532	0.57958984375	0.360107421875	0.2939453125	0	0	0	-0.579647050530158	-0.31251014848489	-0.661123179743611	0.359531424372524	-0.0694929034007038	-0.113097945337809	0.991150639982292	0.837680288657843	-0.546149123965231	-0.00358725328392273	0.541721764719725	0.830018065557838	0.132693407811279	-1.54856542803897	-82.3719355803693	-121.568597923694
16718	1657015775419	9.76180691425065	-0.0144532775259615	1.27438986470496	-0.000219842846989511	-0.0367735394676306	0.0318949077209538	0.00359562990100332	0.0174846017268555	0.00264350896787067	0.578125	0.366943359375	0.30126953125	0	0	0	-0.579639512034988	-0.312559196732871	-0.661116776155472	0.359512715924401	-0.0695372863530046	-0.113016454925098	0.991156822466972	0.837703096030255	-0.546114711252727	-0.00349929345402639	0.541680799648637	0.830051807461146	0.132649569251087	-1.51111125652879	-82.3746046089648	-121.603346402005
16719	1657015775420	9.73291917048316	0.00258194886100156	1.2152953805095	-0.0165202065094886	-0.0930457852619866	-0.00464297967119265	0.00832726224777224	0.00912627981685483	0.00250813293616697	0.5771484375	0.352783203125	0.299072265625	0	0	0	-0.579598263483745	-0.312563668854407	-0.66112551233315	0.359559261904251	-0.0695659802909945	-0.11310488308891	0.991144721928941	0.8377503218734	-0.546042180182286	-0.00351221622220493	0.54160407364344	0.8300874790546	0.1327396117578	-1.51566078579841	-82.3693815782731	-121.593896357782
16720	1657015775420	9.74857080902858	0.0133500434451293	1.23116725446185	-0.000227089340502917	-0.0856363008069891	0.0129551215163772	0.009435212547485	0.00240985580213735	-0.00172186281259198	0.58203125	0.3544921875	0.30712890625	0	0	0	-0.579613370111471	-0.312678393183255	-0.661075975876722	0.35952624068766	-0.0695784468900443	-0.112883166363796	0.991169123046139	0.837813475299739	-0.545946209386674	-0.00336408419859346	0.541504774064405	0.830180779835336	0.132561127248722	-1.45371775632882	-82.3799176322388	-121.648673687644
16721	1657015775421	9.72721830847937	-0.0146678990375682	1.27273735990768	0.000187216488333787	-0.0332997725886033	-0.00260363965672994	0.00204982552401018	-0.00318888086632634	0.000323505517149741	0.580322265625	0.355224609375	0.296142578125	0	0	0	-0.579620409100372	-0.312690754246138	-0.661063014152817	0.359527975104151	-0.0695596329436532	-0.112857407993118	0.991173376824569	0.837825179585319	-0.54592825465298	-0.00336291902645286	0.541489081992954	0.830196089025133	0.132529347126598	-1.45356279459621	-82.3817558357126	-121.647593089084
16722	1657015775422	9.75013706997185	-0.0269078229513363	1.21872186019503	-0.0404548421869709	-0.0714028675317425	0.0130159168583184	-0.0079725567398923	2.42396036200278E-05	-0.00201902927707001	0.58251953125	0.3505859375	0.2958984375	0	0	0	-0.579690205815811	-0.312747194339752	-0.661027100665438	0.359432371802654	-0.0695352707630842	-0.112596106325764	0.991204803741478	0.837782048146276	-0.545995125065865	-0.00325010894297728	0.541558940396828	0.830187593405604	0.132296915427673	-1.40728962530776	-82.3953501702854	-121.697973327256
16723	1657015775422	9.75150797796007	-0.00724950866443392	1.20378018304673	-0.0324569451767878	-0.0944469362229159	0.0123354583934052	-0.0139004670003106	-0.00109703018547627	-0.00801585439267839	0.579833984375	0.345458984375	0.299560546875	0	0	0	-0.579705841327363	-0.312727114854038	-0.66106030131347	0.359363558521656	-0.0695979406751724	-0.112542494110135	0.991206493962406	0.837701434999491	-0.546119168883444	-0.00318734652177871	0.541675578601776	0.830113269618988	0.132285778332006	-1.38024040411848	-82.3960819934438	-121.733258791242
16724	1657015775423	9.71711450281936	-0.00708519502016446	1.20065562567897	-0.0314331268601602	-0.0908880750544523	-0.0221465367954874	-0.00840445068759666	0.00840237867133678	-0.00341568744755556	0.585205078125	0.364990234375	0.29833984375	0	0	0	-0.579766712632329	-0.312745801829031	-0.661053457359427	0.359261671870195	-0.0696032200970703	-0.112343129741082	0.991228738965985	0.837621551404999	-0.546242229126697	-0.0030925298024998	0.541798420424055	0.830059304097409	0.132121244723638	-1.34086351901748	-82.4057200536886	-121.780666142874
16725	1657015775424	9.75131559212479	-0.00671204254452814	1.20534081564501	-0.0317300641070982	-0.0919950498206971	0.0123610965137537	0.00134056303678852	0.0163214728589268	0.000198096154360077	0.578857421875	0.3525390625	0.299560546875	0	0	0	-0.579710385123485	-0.312720698067416	-0.661098501238303	0.359291533494289	-0.0696909266786064	-0.112479315975878	0.991207131842924	0.837629061226866	-0.5462307179191	-0.00309169691003353	0.541775535186738	0.830048436104293	0.132283268760418	-1.33886123923266	-82.3963581978668	-121.781892304599
16726	1657015775425	9.73380703785456	0.0229284918130067	1.20424234890352	-0.00692992093962192	-0.106026062339171	-0.00521904470761747	0.00961795120550226	0.0238502219962721	0.00325205829612784	0.580078125	0.350830078125	0.296875	0	0	0	-0.57967524692754	-0.312801282286646	-0.66108455534226	0.359303738621311	-0.069754863024488	-0.112413983461037	0.991210046058279	0.837706625656088	-0.546112362425157	-0.00298277359268156	0.541647365373751	0.830135160036506	0.132263931798651	-1.29189698625115	-82.3976201898746	-121.820332497294
16727	1657015775425	9.72780036783328	0.00532759076103989	1.26388255713014	0.00964398810079422	-0.0485985577777348	-0.0032494657463733	0.00918830753205202	0.0322310669136016	0.00185444377239948	0.574462890625	0.357177734375	0.293212890625	0	0	0	-0.579554669000145	-0.312768931126788	-0.66116053146108	0.359386606595239	-0.0699153052801815	-0.112691090927575	0.991167275545925	0.837757868338435	-0.54603372544353	-0.00298742620017656	0.541547416321619	0.830149317113381	0.132583962723877	-1.29078925298923	-82.3791194013556	-121.816107921408
16728	1657015775426	9.70723626514404	0.0560791624755067	1.29078304999702	0.0669842249134016	-0.0517953171287347	-0.0202141565605558	-0.0192257016333528	0.0258894729256154	-0.000504474964434847	0.578857421875	0.353759765625	0.294189453125	0	0	0	-0.579559456445613	-0.312725236896302	-0.661227002205503	0.359294606426177	-0.0700364444750481	-0.112664854406682	0.991161705791146	0.837636327656467	-0.54622062400242	-0.00290043179449662	0.541719742150387	0.830029915422286	0.132627525305235	-1.25280190038809	-82.3767134361173	-121.866540736131
16729	1657015775427	9.62974854342584	0.0585663872919672	1.36907621349796	0.116742544981588	0.0191365200711925	-0.0866469765527604	-0.0938070226358076	-0.000368105090288354	-0.00172820867719879	0.58154296875	0.35205078125	0.2998046875	0	0	0	-0.579725965287418	-0.31242146513604	-0.661375895701306	0.359016096963796	-0.0700504945849076	-0.112651514496235	0.991162229148244	0.837126856306235	-0.547000540486265	-0.00300585405079068	0.542504889064837	0.829517959413441	0.132621266587644	-1.29838354128531	-82.3769394783866	-121.874736396431
16730	1657015775428	9.79951210685602	-0.136649555921423	1.25092828155441	-0.120377939856578	0.0122542612330627	0.0665479165501121	-0.0800584478272259	-0.039832790248845	0.0027524575862101	0.584716796875	0.357177734375	0.287841796875	0	0	0	-0.580059337078754	-0.312292151957486	-0.661340289038912	0.358655544202857	-0.0697947321606178	-0.112090765258337	0.991243842707953	0.836682679815765	-0.54767962487663	-0.00302023033956261	0.543222595865579	0.829145758500153	0.132009554587037	-1.31063443336719	-82.4122709670013	-121.908979510818
16731	1657015775428	9.75674992100995	-0.0513183480030322	1.15426358502046	-0.0962162172387986	-0.107032436091265	0.0111821743137082	0.00953018120937983	-0.0322077738616942	-0.00368790046054482	0.580810546875	0.353271484375	0.293701171875	0	0	0	-0.580142571789013	-0.31239285593515	-0.66123878825655	0.358620363147048	-0.0696520630686186	-0.111802599041491	0.991286421251625	0.836732178444421	-0.54760427739392	-0.00296933250695386	0.543164663491597	0.8292344265812	0.131690599917421	-1.29167456102154	-82.4307688078585	-121.922553220305
16732	1657015775429	9.76977049124164	-0.0194474367135755	1.19491741405491	-0.0470237533548306	-0.087703878367365	0.0294017477739974	0.00126766960872322	-0.00600869243980606	0.00273339906827597	0.582763671875	0.354248046875	0.302001953125	0	0	0	-0.580227802737045	-0.312496730743147	-0.661151842590463	0.358552271286938	-0.0695519313718381	-0.111476406769497	0.991330186959022	0.836753572535922	-0.547572124059646	-0.00286841440173868	0.543144536648229	0.829299571739049	0.131362980411572	-1.25089980140627	-82.4498293572421	-121.960705564035
16733	1657015775430	9.77106711604197	-0.000270221550699143	1.18064734345978	-0.0390217417111557	-0.110736703523252	0.0287502991266724	-0.000757861555960836	0.0179121080601915	0.000433492632374266	0.578369140625	0.350341796875	0.301513671875	0	0	0	-0.580170457882916	-0.312462081349621	-0.661203953018439	0.358579168429206	-0.0696464395370932	-0.111625389655594	0.991306786945416	0.836750464886228	-0.547576855374565	-0.00287175395621914	0.543137213761392	0.829276407383172	0.131539375037181	-1.25067682097064	-82.4396323960446	-121.961280201453
16734	1657015775431	9.75082300486254	-0.0093334724810478	1.20930191212734	-0.0299676120907054	-0.0793310421547892	0.0124770450865039	-0.000552372430175807	0.0222650865853791	0.00255984438112639	0.57861328125	0.354736328125	0.29736328125	0	0	0	-0.580165684367206	-0.312466908202901	-0.661216762896009	0.358559064069191	-0.0696863525131135	-0.111605372022424	0.991306235836916	0.836735682580989	-0.547599657703891	-0.00283061447544131	0.543154867205611	0.829264044691628	0.131544419921702	-1.23271848201041	-82.4393924057714	-121.980640234433
16735	1657015775432	9.74490757575008	-0.0271177454176812	1.26810201383102	-0.0133875416890092	-0.02189464067201	0.0143866130967734	0.00212846570175136	0.0170944836764062	0.00209833419888462	0.575439453125	0.354248046875	0.29833984375	0	0	0	-0.580108364726403	-0.312438127757748	-0.661259227675991	0.358598571261856	-0.0697626997268288	-0.111757285813204	0.991283750898042	0.83674917130011	-0.547578962024378	-0.00284687142063716	0.543124286011411	0.829257251651122	0.131713402995383	-1.23820598335407	-82.4296073776106	-121.973812826583
16736	1657015775433	9.74613511698653	-0.00787007860773282	1.25439427811285	-0.00515745795538099	-0.0429784697470521	0.0137485576427352	0.00602119579435033	0.0063610574447154	0.000615190758177509	0.58544921875	0.35498046875	0.29248046875	0	0	0	-0.580123954145372	-0.312501088300003	-0.661233315905778	0.358566269431888	-0.0697728565048736	-0.111613192578164	0.991299270522106	0.836770660655484	-0.547546600474024	-0.00275350241041267	0.543089872821557	0.829298025773515	0.131598535276104	-1.19865354156456	-82.4363598845668	-122.0107765223
16737	1657015775434	9.73039732515137	-0.0184089822091322	1.23928480983241	-0.0213412029788512	-0.0480920911373604	-0.00381232280477661	0.00639755327246987	-0.00157243624209681	-0.00175053169485269	0.576416015625	0.35302734375	0.298095703125	0	0	0	-0.580114500778409	-0.312531195025881	-0.661222011661638	0.358576169615953	-0.0697805931403367	-0.111589156054532	0.991301431993327	0.836804668775008	-0.547494765438492	-0.0027254602915277	0.543036476801819	0.829335482219643	0.131582836244623	-1.18659127894452	-82.4373008048846	-122.019179277757
16738	1657015775435	9.73044671787989	-0.0182396030283159	1.23889945078547	-0.020825136229608	-0.0456616166355166	-0.0037995982834147	0.00624660082509608	-0.0063720506021153	-0.000120672060717271	0.576416015625	0.355712890625	0.295654296875	0	0	0	-0.580185578998359	-0.312637276083924	-0.66113921059493	0.358521368594784	-0.0696942443665245	-0.111289791145896	0.991341159585782	0.836840347310781	-0.547440723727495	-0.00262433181754823	0.542992583204367	0.829411379468247	0.131285255050327	-1.14516374651095	-82.4546155877797	-122.056490980052
16739	1657015775436	9.76627027093517	0.00128994979308492	1.22675560358822	-0.0131081624837994	-0.0697466867813655	0.0300728948801971	0.000379914449719147	-0.00998038903548715	0.00193420939208352	0.58056640625	0.353271484375	0.2978515625	0	0	0	-0.580220572491015	-0.312652080160251	-0.661106117631875	0.358512852293158	-0.069625243997645	-0.111215741919144	0.99135431816664	0.836844417683495	-0.547434423024184	-0.00264065903729954	0.542995162032077	0.829425470574393	0.131185528059333	-1.15316217083865	-82.4603593090394	-122.048116810894
16740	1657015775437	9.74931246866555	-0.0286555694276485	1.22526129133288	-0.0369932536725091	-0.049781809389688	0.0131628891768312	-0.00407667577709306	-0.0107043019243629	-0.00350519295245497	0.5927734375	0.3564453125	0.2880859375	0	0	0	-0.580306387335533	-0.312728674630001	-0.661048319953812	0.358413715652719	-0.0695682104991883	-0.110900674379736	0.991393617343818	0.836814463942796	-0.54748076899235	-0.00252200707278027	0.543048632282663	0.829437066934957	0.130890545763491	-1.10384200782269	-82.4775393588795	-122.100129245413
16741	1657015775438	9.75364930865775	-0.0302293724691143	1.18292261113574	-0.0616148750493432	-0.0841299775885242	0.0119256224881781	-0.00346622461599398	0.00439989705130111	-0.0014260007335468	0.589599609375	0.35888671875	0.299072265625	0	0	0	-0.580295398700285	-0.312714916576076	-0.66106901339033	0.358405344175043	-0.0696057190280929	-0.110927280147153	0.991388007995728	0.836795388923315	-0.547509980435175	-0.00250966144196674	0.543073218779255	0.82941422693551	0.13093326239619	-1.09808157521987	-82.4750847873034	-122.107845230014
16742	1657015775439	9.7492640618654	-0.0284220719993465	1.2256518279527	-0.0359079497311251	-0.0460920431325229	0.0131849163588651	-0.00467875528393762	0.00996191792936288	-0.000404075336256572	0.58056640625	0.3515625	0.295166015625	0	0	0	-0.580352091852714	-0.312828576833336	-0.660988595491197	0.358362676110646	-0.0695352837059901	-0.110645846004617	0.991424400083965	0.836848721830753	-0.547428947774493	-0.00240081418434729	0.54300005625245	0.829505300706653	0.130659461997217	-1.05266806034328	-82.4910236527699	-122.147271429966
16743	1657015775440	9.74624196353199	-0.00732874634848187	1.25356712166623	-0.00330126632969059	-0.0347370246581581	0.0137819465481073	-0.0106492443445529	0.00520102778597185	-0.00156217670183899	0.58203125	0.355712890625	0.297607421875	0	0	0	-0.580351615421745	-0.312790503182416	-0.661022371486875	0.358334380139738	-0.0695769489744806	-0.110677135869507	0.991417984387577	0.836791031111489	-0.547517146257522	-0.0023968323660673	0.543083620101706	0.82944291313492	0.130708207192524	-1.05053073826399	-82.4882112895267	-122.155435631277
16744	1657015775441	9.74915697341859	-0.0283313193223954	1.22650541706593	-0.0352818538737296	-0.0439751560138327	0.0131968864712793	-0.0124216363224128	-0.0027411305008913	-0.00316374892399287	0.585205078125	0.347412109375	0.30224609375	0	0	0	-0.580438246003189	-0.312820366282141	-0.660988669434939	0.358230149337655	-0.0695252053645276	-0.11042633008659	0.991449580887817	0.836717948962114	-0.547629157089257	-0.00231952373205158	0.543202834771372	0.829402394455983	0.130469722031698	-1.0185115695032	-82.502071962513	-122.194810987491
16745	1657015775442	9.73193570303106	0.00144528582094764	1.22314775816829	-0.0108298130621225	-0.0608200683490254	-0.00438227521029688	-0.0167698117877318	-0.00435902915236879	-0.00109146189075892	0.583251953125	0.355712890625	0.29248046875	0	0	0	-0.580481138492302	-0.312777897193673	-0.661003314484093	0.358170703886887	-0.0695107894637054	-0.110380705124244	0.99145567227406	0.83662738455709	-0.547767467808552	-0.00232822244893349	0.543344153881586	0.829317129418465	0.13042326976357	-1.02269444104863	-82.5047470466656	-122.200129978694
16746	1657015775443	9.75061747852801	-0.00909065495019372	1.21095964079264	-0.026204317507799	-0.0648233657692169	0.0125942300612465	-0.0188681176541532	-0.00276747574105563	-0.000869894605903512	0.57958984375	0.35302734375	0.297119140625	0	0	0	-0.580600995956664	-0.312771549975795	-0.660962924385504	0.358056494994341	-0.0693960597729961	-0.110133189207654	0.991491234213866	0.836515082899078	-0.547939007836213	-0.00231511853175653	0.543531694540744	0.829236711878109	0.130152882039739	-1.0190518385364	-82.5203833634559	-122.215452678203
16747	1657015775444	9.73629438364766	-0.000456164015048243	1.18065708802019	-0.0343580960308426	-0.0929943097010596	-0.0055699835995	-0.0166181639023683	0.000442597352946876	-0.00272036717273389	0.5771484375	0.363037109375	0.2919921875	0	0	0	-0.580625481641372	-0.312725484719829	-0.660993944425699	0.357999757972024	-0.069420446721393	-0.110118573876784	0.991491150371169	0.836424114624712	-0.54807788899744	-0.00230826046520588	0.543668559005639	0.829146867134799	0.130153642550945	-1.0160278034016	-82.5203464602311	-122.227963451655
16748	1657015775445	9.75194149183732	0.0100816740335475	1.19651242666533	-0.0182451980207761	-0.0857724601440207	0.011996683780648	-0.0111252490454616	0.00993530004306175	0.00189351799248951	0.582275390625	0.353271484375	0.29541015625	0	0	0	-0.580641797164875	-0.31275375496046	-0.660995386509451	0.357945933286716	-0.0694596244572915	-0.110005416344069	0.991500967697571	0.836397025745287	-0.548119595203268	-0.00221916169817221	0.543705228864584	0.829134318267658	0.130080384286553	-0.977366933981319	-82.5246687714776	-122.269135349637
16749	1657015775446	9.73177434060163	0.00082386939106807	1.22443160120467	-0.00982354291506927	-0.0565089113444349	-0.00435543031798424	-0.0101884188323921	0.0155069587337303	0.00215305926329268	0.58056640625	0.345703125	0.303466796875	0	0	0	-0.580612371577118	-0.312688546878866	-0.661051342084853	0.35794730024152	-0.0695260084428039	-0.110141408903932	0.991481217267714	0.836344763977295	-0.548199205801181	-0.00225089464803807	0.543777132580779	0.829063628923384	0.130230293244757	-0.990199133001547	-82.5159757015776	-122.261888107029
16750	1657015775447	9.71880568549728	-0.0310741188292781	1.1834848819499	-0.0576073766706292	-0.0714418679487995	-0.0224696307168219	-0.0123397871817045	0.0175481587880656	-0.00138124378359696	0.580078125	0.35205078125	0.295166015625	0	0	0	-0.580650370694865	-0.312627972108394	-0.661085317894941	0.357875817192296	-0.0695400929617233	-0.110117800962315	0.991482851784184	0.836227992539607	-0.548377301048679	-0.00225392718261269	0.543954887802337	0.828948976479126	0.130217796134617	-0.991628059240881	-82.516694746129	-122.272671671014
16751	1657015775448	9.74999373222098	-0.00993013224171293	1.21596504895607	-0.0252558097975732	-0.0610869052367451	0.0126206551760148	-0.0122354225237281	0.0187002195949744	0.00183195506536686	0.5869140625	0.354736328125	0.301025390625	0	0	0	-0.580613712873549	-0.312550663862327	-0.661154331920327	0.357875325113924	-0.0696259361955906	-0.110279240160535	0.99145888376599	0.836164045785329	-0.548474668387644	-0.00228619180614409	0.544042201988778	0.828863093234751	0.130399597884821	-1.00441815149108	-82.5061577829482	-122.266688836817
16752	1657015775449	9.73108539764309	0.000190472002692816	1.22989530617745	-0.00794753084609225	-0.0528173638664628	-0.00433315734683681	-0.00914858335523291	0.02428227411563	0.00132838868383625	0.581787109375	0.358642578125	0.306640625	0	0	0	-0.580616753155436	-0.312533919155729	-0.661173826206503	0.357849000098998	-0.0696565581667738	-0.110275926416966	0.99145710142055	0.836125643981537	-0.548533285010615	-0.00226775481978475	0.544097299552955	0.828824743409813	0.1304134706648	-0.996213701493512	-82.5053748060188	-122.278840081963
16753	1657015775449	9.71079976685716	-0.00892603970271099	1.25852941636498	0.000484285097202346	-0.0235678329214471	-0.0206981775113331	-0.000804833224009694	0.0163170323188392	0.000984682913448988	0.5791015625	0.35791015625	0.29150390625	0	0	0	-0.580566350282075	-0.312501073724516	-0.661219412141569	0.357875230839372	-0.0697360641436352	-0.110412883848332	0.991436269478805	0.83612331517422	-0.548536796145381	-0.00227708072607069	0.544090693891953	0.828804185773006	0.130571583682352	-0.999098637081279	-82.4962294440089	-122.276241984961
16754	1657015775450	9.69361461045662	-0.0389740185474449	1.25877831616912	-0.0237554160637874	-0.00373099335098173	-0.0376360679470977	0.020231308047717	-4.73268919097109E-05	0.00252801953486316	0.5771484375	0.358642578125	0.29736328125	0	0	0	-0.580553811141838	-0.312654089439082	-0.6611376103267	0.357913052202914	-0.0697110388629625	-0.11023451369046	0.991457877598476	0.836284606462221	-0.548291334839625	-0.00216081792636835	0.543845959859017	0.82899032812887	0.130409385451411	-0.949275381509414	-82.5057157677519	-122.308789868928
16755	1657015775451	9.74226336883327	0.0125717955654225	1.28871431614299	0.0327817128419193	-0.011236621620403	0.0143893476666346	0.0357267806789013	-0.0275021867464466	-3.43087904328039E-06	0.583251953125	0.3505859375	0.297119140625	0	0	0	-0.580580999516521	-0.312823748487392	-0.66100082647923	0.357973340873966	-0.0695615804478569	-0.110002299211816	0.991494165738614	0.836480397489076	-0.547992779211656	-0.00211152750475768	0.543563916335618	0.829218552674745	0.130134010765389	-0.929587877252747	-82.5216737830979	-122.307819270807
16756	1657015775453	9.7641613951557	0.041077537722762	1.24347129704161	0.0327086349155573	-0.0618080976570692	0.0301711629545363	0.0162033415901104	-0.0490182246137898	0.00187402586579242	0.57958984375	0.3525390625	0.2978515625	0	0	0	-0.580756943682975	-0.31301385699955	-0.660791021247076	0.357909100093197	-0.0692448968689754	-0.109436297685454	0.991578963576026	0.836576181371369	-0.547846802793486	-0.00204289771046096	0.543456932074387	0.829389882635336	0.129487395380551	-0.903869495512466	-82.5590970145027	-122.323238756685
16757	1657015775454	9.82782954969701	-0.0130779531623109	1.13463793652082	-0.073812850668015	-0.125922590682025	0.0793550014215807	0.00161649984587335	-0.0346763012742927	0.00233866180139575	0.577880859375	0.35791015625	0.2939453125	0	0	0	-0.580872461603341	-0.313077003778974	-0.660682478818455	0.35786678420602	-0.0690370962258351	-0.109157008439062	0.99162423672142	0.836588247865027	-0.547828308933644	-0.00206093790015	0.543464794516471	0.829438901571139	0.129139946111312	-0.91430284604593	-82.5791539319561	-122.311586618402
16758	1657015775455	9.777921856319	-0.0241144422049557	1.11447652254333	-0.0896371428728157	-0.128445472539675	0.0273259585139662	0.00392170049928432	0.00795077029952094	0.000838477937675257	0.583740234375	0.359130859375	0.29248046875	0	0	0	-0.580872315692108	-0.313130573022834	-0.66066719485172	0.357848368373589	-0.0690637962296961	-0.109059593299747	0.991633096038872	0.836615117562828	-0.547787578981504	-0.0019782262050041	0.543420037462439	0.829478615410233	0.129073194201759	-0.878068755098772	-82.5830850981283	-122.344713877915
16759	1657015775456	9.7475512139579	0.0108357447412527	1.23923860174534	0.00859145792355652	-0.0421625722722092	0.013234088216139	0.00678258819376517	0.0262644294506216	0.00107172844126729	0.579345703125	0.35400390625	0.294189453125	0	0	0	-0.580775143718936	-0.313105783308138	-0.6607298242154	0.357912140461223	-0.0691982642974303	-0.109278338702975	0.991599639425379	0.83665456390303	-0.547727336338927	-0.00197629129821614	0.543342195046965	0.829489607962259	0.129330001794494	-0.875468464332698	-82.5682501554191	-122.343195930584
16760	1657015775457	9.7459027237533	-0.00864660385474948	1.25619353815069	0.000968763591570679	-0.016767828681441	0.0138295454549393	0.0100976702294412	0.0170644104216732	0.00412563170656243	0.57763671875	0.35791015625	0.291748046875	0	0	0	-0.580750089948857	-0.313192998977262	-0.660692071680304	0.357946175890751	-0.0692077363791658	-0.109210676343811	0.991606432712999	0.836758125653399	-0.547569361113634	-0.00190628503069623	0.543181487514333	0.829602810350914	0.129278956832048	-0.844794655326942	-82.5712599725527	-122.362783558359
16761	1657015775458	9.77009903337732	-0.00151369709228895	1.18863079757406	-0.0320512965012809	-0.0802835845174099	0.0290710079319485	0.0103198576110663	0.00637901059757219	-0.000911543895267139	0.57861328125	0.356689453125	0.293212890625	0	0	0	-0.580709275931009	-0.313221929432185	-0.660694578844947	0.357982448250415	-0.0692506071846454	-0.109252366068828	0.991598847272888	0.836815885453937	-0.547481179334837	-0.00187939513661856	0.54308703469748	0.829655518141415	0.129337519540927	-0.83250267826497	-82.5678992652134	-122.368938902451
16762	1657015775459	9.73427551369261	-0.0208774946388885	1.20073511660072	-0.0398913224110836	-0.0541468354555832	-0.00484370534194944	0.00827195919011484	0.00957054517392288	-0.00123355432752644	0.583251953125	0.3544921875	0.296875	0	0	0	-0.580685688286627	-0.313329894868747	-0.660667524376888	0.357976159310003	-0.0693144015694919	-0.109114074589303	0.991609616967072	0.836898817239842	-0.547354892694399	-0.00172949300585346	0.542951087518588	0.829757036830676	0.129257016801254	-0.766586909188077	-82.572671197739	-122.425636457156
16763	1657015775460	9.7384395860512	-0.0224022478032996	1.16004830039491	-0.0644983856528945	-0.0884498178333901	-0.00598374571687721	0.00569414244198941	0.01794388777675	-0.00185960346379973	0.586181640625	0.35400390625	0.292236328125	0	0	0	-0.580613352750075	-0.313326526945603	-0.660712312724615	0.358013773386742	-0.0694285453474066	-0.109245085772393	0.991587206616506	0.836931347034088	-0.547305251155186	-0.00169776608116162	0.542886357760674	0.829772543105966	0.129429244241045	-0.751524533893046	-82.5627448428611	-122.437188806227
16764	1657015775461	9.73523977985823	-0.00124459119725779	1.18932126735881	-0.0307093324712815	-0.0748451910691443	-0.00540257830998669	-0.00191476813263005	0.0250808178989862	0.000910362382261004	0.58251953125	0.353271484375	0.296630859375	0	0	0	-0.580608230755088	-0.313344153711674	-0.660704884897152	0.358020360855639	-0.0694310071844885	-0.109231213211953	0.991588562510476	0.836951992027895	-0.547273725095025	-0.00168311055884762	0.542854214575042	0.829795162603916	0.129419047428323	-0.745096623327381	-82.5633450428904	-122.441402492854
16765	1657015775462	9.76491124866025	0.000718757467276486	1.23752752262024	-0.00638136061518485	-0.0413248174248523	0.0302399178473198	-0.00684509438137868	0.0290937709501794	-0.00107978274242722	0.58056640625	0.35546875	0.30224609375	0	0	0	-0.580523161120064	-0.313277328902759	-0.660799727837695	0.358041749364998	-0.0695979302296397	-0.109458290506087	0.99155181949671	0.836917271633606	-0.547326841814409	-0.0016759089553261	0.542886367989759	0.82973020366198	0.129700349197441	-0.740299984308196	-82.5470973766524	-122.449821865386
16766	1657015775463	9.72885468884205	-0.0188793132933937	1.25133058885895	-0.0136250488590462	-0.0159420450530037	-0.00369362971711773	-0.0063654223387085	0.0223126143160417	-0.000232986603141748	0.583251953125	0.357421875	0.3017578125	0	0	0	-0.580503254624557	-0.313253663854873	-0.660837605467892	0.358024821278159	-0.069668397438078	-0.109502988401415	0.991541935537559	0.836882073964698	-0.547380738860481	-0.00164954572489667	0.542931587472082	0.82968875022849	0.129776226903589	-0.728229823429446	-82.5427327234197	-122.465485539462
16767	1657015775464	9.73004063762936	0.000491893146835368	1.23813331114322	-0.00561070806780872	-0.0389103569132285	-0.00426651330118233	-0.0024742590097198	0.0115758873862672	-0.00171356265296631	0.578369140625	0.35205078125	0.29541015625	0	0	0	-0.580467175923191	-0.313234284836785	-0.660876021730327	0.358029362455707	-0.069745666590631	-0.109581600001687	0.991527818537079	0.836870482887804	-0.547398516844695	-0.00163052977953193	0.542939533339545	0.829666641909447	0.129884280957086	-0.719236899600459	-82.536503204548	-122.475628557584
16768	1657015775465	9.74857163255914	-0.00986137240940655	1.22731456287672	-0.021637730627887	-0.0436401418121901	0.0127222704244492	-0.00110926298720336	0.0087652912804304	-6.50261773555441E-05	0.58251953125	0.35791015625	0.2998046875	0	0	0	-0.580477898753154	-0.313257759138001	-0.660867392170176	0.358007367752609	-0.0697522673879411	-0.109512379423655	0.991535001876994	0.836869202593849	-0.547400601949373	-0.00158705242515766	0.542940658768688	0.829674405859572	0.129829970797922	-0.700353519571238	-82.5396724066203	-122.494487106297
16769	1657015775466	9.74845673118208	-0.00987348208522313	1.22822679117667	-0.0216460313396151	-0.043557362064784	0.0127226194633909	0.00544207049600919	0.00994554742366763	0.000859255665987949	0.587890625	0.3515625	0.305419921875	0	0	0	-0.580437002864934	-0.31325997953068	-0.660884144189773	0.358040806177399	-0.0697993336340219	-0.109591616278497	0.991522935017498	0.836902350823771	-0.547349932672553	-0.00158315791982971	0.542883512560377	0.829697371843987	0.129922141859221	-0.698139490389225	-82.5343494190493	-122.493221616585
16770	1657015775468	9.74831979724027	-0.00995077064916281	1.22931254485239	-0.0208203680524065	-0.0422994353202963	0.0127298997934631	0.00627805006623094	0.0123181056339587	0.00220368722074044	0.5810546875	0.351318359375	0.29931640625	0	0	0	-0.580433518780563	-0.313289565095339	-0.66085539847922	0.358073625081853	-0.0697604185935093	-0.109582247045695	0.991526709236859	0.836957305707773	-0.547265854846228	-0.00159766761662117	0.542803788140838	0.829754069138467	0.129893157356776	-0.704694516181127	-82.5360139140707	-122.480964422826
16771	1657015775469	9.7481680891745	-0.0101387650066399	1.23051344308918	-0.0208259629014114	-0.0422255704978572	0.0127302056542469	0.004128480059893	0.0123094435403302	0.00296622739338834	0.5830078125	0.350341796875	0.300537109375	0	0	0	-0.580390489818897	-0.31327656324316	-0.660877465397282	0.358114018128863	-0.0698024586947631	-0.109693493269523	0.991511449401617	0.836984445227435	-0.54722428988431	-0.00161709861662684	0.542756534007181	0.82976678295467	0.130009348500672	-0.712626815914793	-82.5292863354086	-122.470265982949
16772	1657015775470	9.73514765533685	0.0176773046350646	1.18668398030157	-0.019891674386154	-0.0926547862948122	-0.00592181457455965	0.00124602933421347	0.0131297813388989	0.00129761494962499	0.584228515625	0.356689453125	0.292236328125	0	0	0	-0.580414338361398	-0.313234718061923	-0.660882532746406	0.358102618163934	-0.0697634213772727	-0.109715687279139	0.991511741232853	0.836939373822059	-0.547293052529608	-0.00167308074046807	0.542831050681589	0.829718496007948	0.130006414450336	-0.73731110970071	-82.5294149380681	-122.450501666281
16773	1657015775471	9.72919141525544	-0.000117229923500193	1.24478896262934	-0.00331836702656598	-0.035153774345105	-0.00425128677885667	0.0019789617603696	0.0123011947871882	0.00372859207982059	0.578125	0.3515625	0.30078125	0	0	0	-0.580376619756321	-0.313211754098601	-0.660906563428843	0.358139485049306	-0.0697981769776902	-0.109831914360837	0.991496427163722	0.836955030807613	-0.547269012686191	-0.00170415941471963	0.54280244186667	0.829718975522023	0.13012275266941	-0.750334266631465	-82.5226693847544	-122.435956751115
16774	1657015775472	9.74914095338863	0.00850355646691746	1.21913281282906	-0.0111007472625902	-0.0627358576634887	0.0121814608983648	-0.000375272111138095	0.00793773878667612	0.00236457198076469	0.581787109375	0.35107421875	0.300048828125	0	0	0	-0.580402155947427	-0.313237665283543	-0.660878341403637	0.358127519583278	-0.0697560341774145	-0.109749809797377	0.991508484555366	0.836965074815405	-0.547253689529687	-0.00169199154500665	0.542792372123156	0.82973994633595	0.130031004838587	-0.745502995466039	-82.5279799272645	-122.439688213705
16775	1657015775473	9.7476136416225	-0.0109384184155993	1.23489102111784	-0.0191138152138632	-0.0396139642800823	0.0127445620532782	0.000411301748924808	0.0107581590236715	-4.71529020251847E-05	0.57861328125	0.35888671875	0.3037109375	0	0	0	-0.580366595712024	-0.3132234402468	-0.660906855643279	0.358144969565831	-0.0698135907126524	-0.109832087973935	0.991495322733845	0.83696977482691	-0.547246514509298	-0.00168771550205005	0.542777724835865	0.829733791531182	0.130131382123192	-0.743045624826486	-82.522183138516	-122.44164305647
16776	1657015775473	9.7474611015613	-0.010975416768011	1.23609419814352	-0.0191178684360372	-0.0387961472993983	0.0127478173884654	0.00633155743618241	0.0139210498667759	0.00166102678829682	0.591796875	0.350830078125	0.293701171875	0	0	0	-0.580328470752358	-0.313237941808953	-0.660924332776105	0.358161812858353	-0.0698779636884967	-0.109873922875363	0.991486152834586	0.836997505881785	-0.547204215242619	-0.00164983889547476	0.542726676457332	0.829756149656445	0.130201715691042	-0.725979271839156	-82.5181471296293	-122.455673001854
16777	1657015775474	9.72866340984649	-0.000572485078755281	1.24890872782424	-0.00269220671071067	-0.0326054457616368	-0.00424229267124687	0.0111081289630537	0.00715451676398933	0.000985749385237153	0.58447265625	0.35400390625	0.300048828125	0	0	0	-0.580286961852741	-0.313262268379066	-0.660924226302734	0.35820798455625	-0.0699081634077303	-0.10993265013503	0.991477514179342	0.837060690058174	-0.547107582020303	-0.00164160142253283	0.542625331005005	0.829812090855626	0.130267586227436	-0.721989694215051	-82.5143469200191	-122.453019676753
16778	1657015775475	9.7645285366741	-0.0406807192100074	1.24059726482449	-0.0415480027065053	-0.0198976716670046	0.0303117685565777	0.0188189169630317	0.00116911830232321	0.00143698891723993	0.577392578125	0.351806640625	0.29052734375	0	0	0	-0.580345543296956	-0.313363061190994	-0.660794023292743	0.358265126738508	-0.0696902986768033	-0.109761197013876	0.991511846575934	0.837196620998216	-0.5468993816881	-0.00169826333136969	0.542443619244901	0.829972015154279	0.130005284512739	-0.748414094209927	-82.5294613606454	-122.412548354866
16779	1657015775475	9.72704735114413	0.0401372217938351	1.26150387657322	0.0399728865442388	-0.0423483636453718	-0.00426944854979538	0.0171479622689131	-0.0035762954809664	-0.00125151413337807	0.578857421875	0.36279296875	0.29931640625	0	0	0	-0.580326011632887	-0.31343282064839	-0.6607564727858	0.358304996943009	-0.0696784987758733	-0.109718254479727	0.991517428713314	0.837291129366631	-0.546754792212129	-0.00166188959427233	0.542299245336274	0.830072949702009	0.129963174325322	-0.732623458707202	-82.5319217067838	-122.418303818026
16780	1657015775476	9.70693698956041	0.0909704151172441	1.28456636150407	0.0966678163135271	-0.0461369985557285	-0.0212861072954738	-0.0483224175236446	-0.0178792911849654	-0.00246325633449281	0.585205078125	0.34912109375	0.295166015625	0	0	0	-0.580473640524252	-0.313407250815853	-0.660750074713918	0.358099967269088	-0.0696295321967977	-0.109379864560652	0.991558255209823	0.837078455951754	-0.547080617155854	-0.00156745455969004	0.542633750173616	0.829902912129523	0.12965249558514	-0.692652735755818	-82.5499406871833	-122.480200618913
16781	1657015775477	9.77243328354973	-0.123554189866952	1.17116709545227	-0.147719317514398	-0.0289147427949658	0.0292988717504823	-0.0618460932269623	-0.0138946424032325	-0.00141107087778132	0.582763671875	0.352783203125	0.298095703125	0	0	0	-0.580629163847775	-0.313235861981889	-0.66080649830751	0.357893616389652	-0.0695638668739414	-0.109249101566752	0.991577280010188	0.836744608085477	-0.547590908232	-0.00163035626038632	0.543156818299676	0.829583528662733	0.129506137715794	-0.72126001249625	-82.5583521974932	-122.486759836655
16782	1657015775478	9.75210758609123	-0.0129866554543026	1.19213373624086	-0.0404228120708791	-0.0679848556803482	0.0117056421441291	0.00425040410883695	0.00046657861009307	-0.00528031219153275	0.572265625	0.3564453125	0.290283203125	0	0	0	-0.580695430401315	-0.313266601771954	-0.660749847400782	0.357863790407925	-0.0694526492518079	-0.109091921511959	0.991602381084643	0.836741858097247	-0.54759508745825	-0.00163801695879262	0.543175287011358	0.829601454225111	0.129313706650567	-0.725726930601291	-82.5694647222557	-122.482598956547
16783	1657015775479	9.76779164878893	-0.00205120412203548	1.20744467834174	-0.0242007128181556	-0.0626885587301125	0.0292212446564974	-0.0015185480042154	-0.00199103367428328	-2.00659467019773E-05	0.58056640625	0.348388671875	0.2998046875	0	0	0	-0.580706444696433	-0.313268863749888	-0.660743260310196	0.35785609963718	-0.069438074080986	-0.109067515787744	0.99160608654234	0.836736508196898	-0.547603261914638	-0.00163810589093605	0.543185391665116	0.829599267442021	0.129285288185765	-0.725925843081425	-82.5711065697194	-122.48295877631
16784	1657015775480	9.73340210338236	-0.00223204512874106	1.20426670303117	-0.0238501467915849	-0.0606862047813072	-0.00528566485452409	0.00109379922375546	0.0103769343510676	-0.00136934113064332	0.58203125	0.351806640625	0.30224609375	0	0	0	-0.580703574528633	-0.313271721149404	-0.660765873749517	0.357816499543825	-0.069501422367745	-0.109029847385746	0.991605790961258	0.836701880466531	-0.547656362764588	-0.00157211552824216	0.543230628290261	0.829569165713447	0.129288374515517	-0.696668558861673	-82.5709755877569	-122.515602957629
16785	1657015775481	9.77474495110097	0.0348046665738865	1.13806898214729	-0.0325932443551526	-0.141993340482038	0.027070060116829	-0.00893651780170454	0.0286474555702198	0.00343770723152221	0.580322265625	0.355712890625	0.2978515625	0	0	0	-0.580632029895262	-0.3131849104037	-0.66085358192924	0.35784661659212	-0.0696244897065595	-0.109278056191791	0.991569834589599	0.836658817232856	-0.547722021777997	-0.00161567507312188	0.543281192366918	0.829493154459015	0.129563315510267	-0.714450416813282	-82.555059198733	-122.502494932173
16786	1657015775482	9.7170278269771	-0.0134014054211624	1.19458682236311	-0.0396396183835225	-0.064945282858548	-0.0227917603887739	-0.017542285848858	0.0498114796912221	0.000751110628245193	0.577880859375	0.34814453125	0.296630859375	0	0	0	-0.580531578389353	-0.313052034909116	-0.6610032887841	0.357849356781079	-0.0698538486882688	-0.109606019555561	0.991517503779244	0.836552387330712	-0.547884522581259	-0.00162885456450867	0.543415626454303	0.82934255310643	0.129963019864057	-0.718062768342995	-82.5319547978408	-122.510080430651
16787	1657015775483	9.73064604215725	-0.0224320204367	1.22977517858994	-0.0314398530640782	-0.0365938743861399	-0.00473177406844272	-0.00658720106461319	0.0521670379892952	0.00337015027289746	0.583251953125	0.353515625	0.294189453125	0	0	0	-0.580377886459224	-0.312930858964694	-0.661155811183699	0.357922868443423	-0.0701054583087125	-0.110049267786219	0.991450645960273	0.836521869921413	-0.547930995505702	-0.00166892399880614	0.543430203299843	0.829253147611661	0.130471572833487	-0.732857622511151	-82.5025396296934	-122.498645511207
16788	1657015775484	9.72557777877595	-0.0210361342689721	1.2765162780093	-0.00557296593906298	-0.000826179604154071	-0.00367282993819629	-0.00327496599336223	0.0450132810618821	0.00212973304786161	0.578857421875	0.3515625	0.302734375	0	0	0	-0.580314324301333	-0.312843033945443	-0.661235639806207	0.357955234313697	-0.0702066704762275	-0.110290929053938	0.991416630074895	0.836480104479654	-0.547994572678473	-0.00172717244209614	0.543481423997499	0.829179027281417	0.130729042244995	-0.756939180647129	-82.4876177513532	-122.479153914881
16789	1657015775485	9.74528813596444	-0.0124670579585914	1.25309663021591	-0.0139253557622208	-0.0299058554181497	0.012787630211923	0.00375587445645003	0.020254617806177	0.00534103210198032	0.5791015625	0.353515625	0.299560546875	0	0	0	-0.580251172550602	-0.312807436828621	-0.661275264255132	0.358015515170314	-0.070266935301973	-0.110479844798662	0.991391326216108	0.836507372808084	-0.547952796724087	-0.00177420403813106	0.543431663634892	0.829181485837398	0.13092016843672	-0.776413460900999	-82.476536697532	-122.457008013805
16790	1657015775486	9.72494025593931	-0.0215737389631319	1.28135458731534	-0.00531897940704885	-0.00024617931527332	-0.00367265722074705	0.000521331571006982	0.0139669632744106	-0.00112916801589063	0.583740234375	0.353759765625	0.29443359375	0	0	0	-0.580231112313685	-0.312775998698335	-0.661317963355327	0.357996623287211	-0.0703405480363584	-0.110534464341248	0.991380017699943	0.836463926860283	-0.548019184706427	-0.00175278497773984	0.543489012182786	0.829130330760187	0.131006061882967	-0.766538497281586	-82.4715897205817	-122.471352547135
16791	1657015775487	9.76360017574231	-0.0232025963076524	1.24426469134259	-0.0300930323650373	-0.0354420046180165	0.0297950241718983	-0.00163675154506687	0.0119073712673899	0.00392934818379329	0.577880859375	0.356201171875	0.296875	0	0	0	-0.580202861089671	-0.312741271416114	-0.661344606058965	0.358023531591297	-0.070367581620511	-0.110647102007271	0.991365534136765	0.836460623833074	-0.548024095959856	-0.00179304884725784	0.543490596269767	0.829112060619538	0.131115074272785	-0.783492885046507	-82.4652585171752	-122.454894688935
16792	1657015775488	9.72753660032116	0.0167936356449898	1.25398328265917	0.0113451963388265	-0.0443188848825597	-0.0047501952275617	0.00251375556164357	0.00917078793674585	-0.00026038831167744	0.58251953125	0.353271484375	0.288818359375	0	0	0	-0.580205101393466	-0.312823234815569	-0.661298337260271	0.358033759879321	-0.0703477342073501	-0.110530986833677	0.991379895520111	0.836537533531274	-0.547906901092401	-0.00172705782629995	0.543374779765592	0.829204997985961	0.131007328153043	-0.755281357838868	-82.4715362899435	-122.474820275448
16793	1657015775489	9.74774005653646	-0.0340905128149091	1.23056742607568	-0.0456545064253768	-0.0386173497769336	0.0122970607494572	0.00528741434791412	0.00514528087660784	0.0024975781864874	0.58251953125	0.35595703125	0.3017578125	0	0	0	-0.580184811212502	-0.312828337002831	-0.661296585524006	0.358065416342668	-0.0703494849153317	-0.110578375151459	0.991374486720841	0.836571373735092	-0.547855178374791	-0.00174360973474291	0.54332245179003	0.829232854195243	0.131048032812714	-0.762282213176357	-82.4691713377959	-122.464342448572
16794	1657015775490	9.76031451554061	-0.00245960346098258	1.27327153935312	0.00418509074850623	-0.0199766821296333	0.0303075742908554	0.00204447005899413	-0.003195081511169	0.000326308090712048	0.5771484375	0.358154296875	0.2998046875	0	0	0	-0.580244302826605	-0.312930311527992	-0.661195381098841	0.358066805467665	-0.070209423718896	-0.11035217490833	0.991409619841396	0.836656296691819	-0.54772556589835	-0.00171629463161022	0.543209791910079	0.82934860098413	0.130782338328521	-0.751866004540538	-82.4845462064323	-122.465764103857
16795	1657015775491	9.77746792143711	0.0274410952258961	1.27338296056949	0.0284605662078583	-0.0376884291144672	0.0472774286916824	-0.0117925377397184	-0.00677323455196427	0.00032387193028829	0.577392578125	0.346435546875	0.293701171875	0	0	0	-0.580291032914712	-0.312907197284373	-0.661188955629687	0.358023138860798	-0.0701634983180766	-0.110287409112074	0.991420077916074	0.836596371986459	-0.547817035855801	-0.00173366815086501	0.54330801014053	0.829296800076733	0.130702806012829	-0.75993810933254	-82.4891288866026	-122.464018752522
16796	1657015775492	9.75380497001498	-0.016834750381796	1.17279242964299	-0.060849119944901	-0.09284750382633	0.0107597719976091	-0.0290331927778368	-0.00434097545620106	-0.00165507172099887	0.576416015625	0.34912109375	0.28955078125	0	0	0	-0.580390535711682	-0.312839529397588	-0.661208748717663	0.357884402456751	-0.0701311610689632	-0.110134391750281	0.991439375857603	0.836410799985705	-0.548100366648941	-0.00172097256465437	0.543597823684377	0.82912990769426	0.130556509805206	-0.755218978899799	-82.49759246192	-122.488088573328
16797	1657015775493	9.74927718206705	-0.0152822513381291	1.21503695065892	-0.0362072216260265	-0.0583462201043425	0.0117840538022449	-0.022013328696252	0.00920458234050023	-0.00130518392649163	0.576904296875	0.351806640625	0.29931640625	0	0	0	-0.580400220084517	-0.312758952314832	-0.661267453825458	0.357830653779087	-0.0701856154837509	-0.110192801136529	0.991429032234205	0.836294260164254	-0.54827812192592	-0.00173534829604405	0.543770070705891	0.829004612529431	0.130634844545546	-0.761070186365719	-82.4930548378953	-122.494473676113
16798	1657015775494	9.74912916332023	-0.0153981501327392	1.21622262824123	-0.0354240853070235	-0.0570823535568733	0.011794333402884	-0.0174544399733128	0.0151811074205652	-0.00123796400077297	0.57861328125	0.344482421875	0.304443359375	0	0	0	-0.580440186261842	-0.312685446851341	-0.661309953970496	0.357751514712707	-0.0702060877861648	-0.110178877431552	0.991429130198263	0.83615967347859	-0.548483330096282	-0.00174271474159093	0.543974361239516	0.828870708599608	0.130634002999392	-0.764305422574004	-82.4930978007655	-122.505326817948
16799	1657015775495	9.7474527072114	-0.0347365027906884	1.23282359199931	-0.0433815042421928	-0.0339111455878414	0.0123247306248651	-0.0172406970567621	0.0215913329056828	-0.00340743105048253	0.578125	0.359375	0.296630859375	0	0	0	-0.580397381858657	-0.312604846500459	-0.661400457236399	0.357724089548807	-0.0703447097761872	-0.110327683853723	0.991402755686092	0.836067821714498	-0.548623371401804	-0.0017302731843622	0.544097619274408	0.828758226823234	0.130834178152081	-0.757688649907281	-82.481539874806	-122.521502580297
16800	1657015775496	9.76279880225195	-0.0240753432579681	1.25052055738264	-0.0269382266948125	-0.0282624958749075	0.0298273985508732	-0.0134723387903771	0.0247448855678953	-0.000929991195076786	0.576171875	0.35400390625	0.292236328125	0	0	0	-0.580368744716495	-0.312500214061752	-0.661498319246082	0.357681017111848	-0.0704728203080661	-0.110480069374123	0.991376687172396	0.835941497208744	-0.548815812418385	-0.00173703308846496	0.544275109519285	0.828610498552025	0.131031472735116	-0.759503295676883	-82.4701333776892	-122.532912758762
16801	1657015775497	9.72819389093046	-0.0245024070184384	1.24898516952387	-0.0266629599820911	-0.0272841635743461	-0.00468730837927111	-0.0172476079312311	0.0195412261324018	0.000888885162382728	0.580810546875	0.356201171875	0.295654296875	0	0	0	-0.580339333752921	-0.312410487495642	-0.66157539208862	0.357664571330093	-0.070564624228952	-0.110635969686537	0.991352770722383	0.835852346369122	-0.548951483435992	-0.00176745655040861	0.544400118365767	0.828499819580513	0.131211890003901	-0.771741619935555	-82.4596836238435	-122.53009983709
16802	1657015775499	9.76534164611012	-0.0455424697184223	1.22747284096275	-0.0591642998525307	-0.0371494468391353	0.0293541075395964	-0.0135765572989122	0.0215433816440178	0.00015375372022973	0.572021484375	0.350341796875	0.3046875	0	0	0	-0.58031944423835	-0.312449897350315	-0.661581469061406	0.35765117653829	-0.0706299571193402	-0.110589280006156	0.991353327681428	0.835872283136812	-0.54892139513311	-0.00168173980557135	0.544361034094996	0.828525988193998	0.131208808569342	-0.734335736280156	-82.4599268107944	-122.565113942214
16803	1657015775500	9.72916487908529	-0.0053788003682007	1.23802331747884	-0.0182577736906494	-0.0478722973640697	-0.00520274100927054	-0.00444957779718067	0.0163903880004111	-0.00257794672645917	0.586181640625	0.35595703125	0.290771484375	0	0	0	-0.580272320328696	-0.312419275890609	-0.661635005099543	0.357655351335985	-0.0707333678421683	-0.110698084137216	0.99133381100518	0.835851116683036	-0.548953691425441	-0.00165994280125692	0.544380107474021	0.828490059589571	0.131356460624677	-0.724004393299557	-82.4514098228227	-122.577582553019
16804	1657015775501	9.72442267780055	-0.00370554095973751	1.28150499401303	0.00686509993561932	-0.0121622264895739	-0.00419767236074975	0.00418428952846484	0.0139185706415201	0.00244333135816147	0.575439453125	0.35009765625	0.30517578125	0	0	0	-0.580259436156202	-0.312446314197197	-0.661621002119841	0.357678538705093	-0.0707300994029518	-0.11069542221935	0.991334341450012	0.835895110639946	-0.548886727388752	-0.00165060737278305	0.544312977106629	0.828534781403984	0.131352574992547	-0.719954356153336	-82.4516411802039	-122.577006420949
16805	1657015775502	9.70710285206538	0.0258662827193496	1.27906979368252	0.0313638868317667	-0.0289780388776313	-0.0217368994575065	-0.00073869888839762	-0.00122208439667406	0.00186581942627623	0.576904296875	0.349853515625	0.305908203125	0	0	0	-0.580271013642959	-0.312446864705675	-0.66160944011639	0.357680662337571	-0.070700189031058	-0.110682087714587	0.991337963930623	0.835897523283893	-0.5488830010507	-0.0016678505421292	0.54431315787773	0.828539031438301	0.131325014922733	-0.727627251123644	-82.4532213400453	-122.569143018016
16806	1657015775503	9.7304478181773	0.0137546451675066	1.22467435321622	-0.00990006569779271	-0.0705348161738922	-0.00572259614556714	0.00529487307826974	-0.0119633961457654	-0.00037084412640543	0.574951171875	0.355712890625	0.2939453125	0	0	0	-0.580317704955859	-0.312369435676773	-0.661644807388541	0.357607110982876	-0.0706970309784902	-0.110670748113471	0.991339455142804	0.835764804154679	-0.549084979658911	-0.00169624563810411	0.544517329335915	0.828406706047807	0.131313393939477	-0.740079195549816	-82.4538719162964	-122.570645117331
16807	1657015775504	9.72914055556754	-0.00546297654064294	1.23821405931336	-0.0178602245875856	-0.0473644024855536	-0.00519954299764258	0.00592637921758761	-0.013946339630331	-0.00115309928303771	0.588623046875	0.352783203125	0.291748046875	0	0	0	-0.580354311011095	-0.312422443209517	-0.661592201844673	0.357598726407339	-0.0706240491253733	-0.11053763401484	0.991359508529341	0.835800481107889	-0.54903073570169	-0.00167542074779858	0.544472037358172	0.828460429182506	0.131162181339667	-0.73183684704719	-82.4626260994045	-122.575081500024
16808	1657015775505	9.74947246470561	0.00372854492395364	1.21036281047199	-0.0248379941720075	-0.073753960763645	0.0113214260513423	0.00451455750589549	-0.0127325513874788	-0.00226101714038362	0.583984375	0.354248046875	0.297607421875	0	0	0	-0.580445700534999	-0.312604200316801	-0.661423531918856	0.357603571149272	-0.070404949263442	-0.110155306026558	0.991417647449049	0.835954362198833	-0.548796599691161	-0.00161136220669761	0.544264133890847	0.82866645927153	0.130722805349454	-0.706223966434419	-82.4880636192125	-122.584379115479
16809	1657015775507	9.76829741942769	-0.00643368704682966	1.19762083477965	-0.0411716566808298	-0.0797057621703699	0.0283452753577453	0.00184009004436911	-0.00755243693652542	-0.00180451354322017	0.58251953125	0.353759765625	0.300048828125	0	0	0	-0.58046807790893	-0.312635170070716	-0.661395928519395	0.357591228501951	-0.0703706476543564	-0.11006929269552	0.991429635805898	0.835968237726238	-0.54877552746664	-0.0015893289777611	0.544247257651883	0.828691843364721	0.130632121927135	-0.697051756283303	-82.4933195426613	-122.592018682961
16810	1657015775508	9.77284554117541	-0.00788437574916667	1.15553736037502	-0.0646844512244716	-0.11272036121355	0.0273811710795844	-0.00125189877762421	0.00602088897150677	-0.00273354078912895	0.576904296875	0.347412109375	0.297119140625	0	0	0	-0.580491594434812	-0.312684552412526	-0.661348752565554	0.357597129397166	-0.0703076036748726	-0.109971322125513	0.991444980407619	0.836014339665843	-0.54870532745897	-0.0015771782490604	0.544184587009392	0.82875133298723	0.130515758946217	-0.692339834607775	-82.5000522512636	-122.591867636014
16811	1657015775509	9.74943015317427	0.00436982731379165	1.210701552188	-0.0236191119783648	-0.0720893057135352	0.0113367885171396	-0.000577214674063017	0.0227464832537187	-0.00118337635078913	0.584716796875	0.351806640625	0.296630859375	0	0	0	-0.580419384819798	-0.312651670879638	-0.661411362997881	0.357627291071112	-0.0704321168130894	-0.110139327115485	0.991417493059193	0.836015689014852	-0.548703306754617	-0.00156488899639901	0.544166412637026	0.828730360116665	0.130724540843154	-0.685848669209302	-82.4879959556127	-122.598182921852
16812	1657015775510	9.73348313634944	-0.0060106992630938	1.19789037154591	-0.0380273471170811	-0.0763520878166411	-0.0061387894703433	-0.00533637771214269	0.0315768146460498	-0.004809390833034	0.57861328125	0.349609375	0.2939453125	0	0	0	-0.58040637150823	-0.31257300447465	-0.661461914162952	0.357623680561318	-0.0704674940288525	-0.110270161871064	0.991400435589083	0.835947615305295	-0.548806839950933	-0.00162384988909192	0.544266402371747	0.828644401310961	0.130853121572681	-0.710987773612946	-82.4805239994623	-122.580371040363
16813	1657015775511	9.72851541651704	-0.00413270598871536	1.24312162285789	-0.013346298245359	-0.0418123253857844	-0.00516711986469431	-0.00587014006249366	0.0347138634399516	-0.000814174801291281	0.578369140625	0.35205078125	0.294677734375	0	0	0	-0.58030521746362	-0.312499897782522	-0.661566282058789	0.357658668164671	-0.0706522633423502	-0.110539188407509	0.991357324838433	0.835920472967689	-0.548848181945174	-0.00162359137462714	0.544284135868462	0.828581173453565	0.13117933694083	-0.709106982456368	-82.4616723321197	-122.585099836565
16814	1657015775512	9.74521028566133	0.0259012923412625	1.24682156628847	0.0122330896639858	-0.0578966138305201	0.0118154819809764	-0.00471354775494496	0.027543062737698	-0.00129471384934774	0.578857421875	0.353515625	0.30322265625	0	0	0	-0.58029308858673	-0.312480655453464	-0.661583089685804	0.357664069690588	-0.0706726891816807	-0.110588271237602	0.99135039479919	0.835909729944388	-0.54886450643948	-0.00163614035060516	0.544297983082916	0.828563810358397	0.131231542611694	-0.714302965289818	-82.4586463038662	-122.581073389335
16815	1657015775513	9.70458705025511	0.00805893091793227	1.30169135637398	0.0290883382509443	0.000536594184528255	-0.0212304398940599	-0.00397733304564292	0.00960107271224009	-0.00173734273946776	0.581787109375	0.3525390625	0.302978515625	0	0	0	-0.580270680953291	-0.312461773024016	-0.661612574116549	0.357662381297737	-0.0707271156608741	-0.110643045901063	0.991340401428304	0.835892669119137	-0.548890522806242	-0.00162471116714624	0.544317114211174	0.828539263020906	0.131307154449386	-0.708905337118047	-82.4542847844383	-122.588213985565
16816	1657015775514	9.74653307695339	-0.0142010395585643	1.23686909948959	-0.0281075357149118	-0.0458637632088171	0.0118767670529554	-0.00423404717536801	0.00364107950584201	-0.00332579290685231	0.578857421875	0.357421875	0.300048828125	0	0	0	-0.580280638297626	-0.312432990427804	-0.661640085219012	0.35762047612045	-0.0707639517525647	-0.110634454371432	0.991338731533423	0.835829714814162	-0.548986443103444	-0.001604095479185	0.544408992363313	0.828476857126718	0.131320014618479	-0.699842521111488	-82.4535562177867	-122.603773309723
16817	1657015775516	9.76811907721364	0.0142566864992145	1.19626983240744	-0.0283471391110545	-0.0979024165244778	0.0278932371818801	-0.00822494915561015	0.0111869837552172	-0.000765352191678914	0.576904296875	0.35400390625	0.296630859375	0	0	0	-0.580261956719595	-0.312393975903312	-0.66167938128182	0.357612166725038	-0.0708191995883419	-0.110708514984809	0.991326518196464	0.835789873885087	-0.54904708405909	-0.00160816583746681	0.544462971817934	0.828426776604951	0.131412130806537	-0.701126413985452	-82.4482297255662	-122.60666635339
16818	1657015775517	9.78971071868076	-0.0172696088949683	1.15942042933644	-0.0777729872264151	-0.113710462935298	0.0444932904795827	-0.0081250554369176	0.0315058034446853	0.00102637641557979	0.585205078125	0.35546875	0.296875	0	0	0	-0.580168213095801	-0.312408759513425	-0.661745352729614	0.35762927681227	-0.0710122897599169	-0.110819760336386	0.99130027510439	0.835818287385904	-0.549004134692031	-0.00150018743777108	0.544394200165972	0.828440366477902	0.131611222985018	-0.653065022529956	-82.4367971795841	-122.65137756955
16819	1657015775518	9.76902289152266	-0.0262331169473002	1.18991629309009	-0.0693019635120773	-0.0844164249121759	0.0279663921846858	-0.00674437918965573	0.049917301440636	-0.00304347263080246	0.57666015625	0.352783203125	0.298583984375	0	0	0	-0.580014945349352	-0.312312667957622	-0.661898711277303	0.357678006891711	-0.071298213114724	-0.111201193553014	0.991237034900852	0.835785253702416	-0.549054481638331	-0.00147847436646881	0.544407544492392	0.828355884113374	0.132086921209162	-0.641295921579535	-82.409317535826	-122.666535021256
16820	1657015775519	9.74796164106217	0.0246728278482721	1.21954376092219	-0.0113682007402647	-0.0882351746437478	0.0108931485590134	-0.0091005582979847	0.0626725661461061	-0.00154430028293651	0.57763671875	0.351806640625	0.29248046875	0	0	0	-0.579862784665419	-0.312260309939118	-0.662017112538562	0.357751299792042	-0.0715463169143394	-0.111538699266923	0.991181236253913	0.835811230714059	-0.54901501266766	-0.00144999233759074	0.544335109237171	0.828336667322757	0.132505299593583	-0.626957001945036	-82.3851533249926	-122.678076047386
16821	1657015775519	9.70982608934287	-0.0141979962595159	1.25176863310118	-0.0271388137812115	-0.0411508024690768	-0.0226201928841103	-0.00594279803324329	0.0698776573420281	-0.00257815576411242	0.585693359375	0.35546875	0.29345703125	0	0	0	-0.579642946031311	-0.312130225596733	-0.662225685443179	0.357835044293298	-0.0719362723835121	-0.112086947944823	0.991091160699145	0.835783281986055	-0.549057606689092	-0.0014318133481625	0.54432662829241	0.828234423721484	0.13317755477015	-0.615972424557608	-82.3463051626365	-122.691938186735
16822	1657015775520	9.68879899969561	-0.0229789486476258	1.28415411013213	-0.0168299991541665	-0.00894693381148503	-0.0391495980894891	-0.00520661811276394	0.0519336013438768	-0.00302347142126297	0.580810546875	0.35009765625	0.3017578125	0	0	0	-0.579555566677709	-0.31217827136449	-0.662232485445918	0.357922068669815	-0.072014275783999	-0.112205932332084	0.991072032111085	0.835904552192543	-0.548873039293998	-0.00140226957295236	0.544130061388903	0.828340639764619	0.133320144041517	-0.602618353214479	-82.3380805108655	-122.692531463175
16823	1657015775521	9.69763301763041	-0.0299133958737393	1.36012949771865	0.0160316543934596	0.0539821170012347	-0.0202534630128515	-0.00412187409976229	0.0239752835974142	-0.00153948041433421	0.58544921875	0.348876953125	0.30078125	0	0	0	-0.579486852442001	-0.312134334293866	-0.662302003976172	0.357943013245033	-0.0721435742318569	-0.112377264124847	0.991043215609121	0.835888235800974	-0.548897913247982	-0.00139214997274817	0.544137998991605	0.828300930423131	0.133534290403576	-0.597310458570724	-82.3257069228412	-122.699513621775
16824	1657015775521	9.71928479471533	-0.00158545146192183	1.31991121395207	0.0180898880776244	0.00230609571236912	-0.00420468224867498	-0.008753517152934	-0.00279082859458475	0.000341877449639935	0.58154296875	0.351806640625	0.2900390625	0	0	0	-0.579616288876084	-0.312056306971189	-0.662244474151034	0.357907914700751	-0.0718937645281525	-0.112299240396951	0.991070213066783	0.835790914665017	-0.549045571748126	-0.0015833847251574	0.544320524677681	0.828213644387752	0.133331637898039	-0.680386134385403	-82.3372988396997	-122.627296003069
16825	1657015775522	9.74587253883203	0.0251141395089556	1.236117521325	-0.00664385677067812	-0.0840849412879055	0.0109338802549814	-0.00685854900546473	-0.0087455947029256	-0.00200129309578285	0.576416015625	0.353271484375	0.289306640625	0	0	0	-0.579660813325182	-0.312062543175287	-0.662223744278525	0.357868723355215	-0.071846636678594	-0.112197476710308	0.991085156289718	0.835759187051555	-0.549093891982162	-0.00157449890622158	0.544375460557232	0.828195402068692	0.13322062128432	-0.677131973308981	-82.3437225220907	-122.633823016099
16826	1657015775523	9.74759215793329	-0.0152743376730765	1.22337675706826	-0.0452249273809274	-0.0687889913465321	0.0110420545415444	0.000833033795761266	0.00237436261204834	0.00135011833911493	0.582763671875	0.356201171875	0.29443359375	0	0	0	-0.579740694967034	-0.312233181286179	-0.662052434853222	0.357907446985912	-0.0716059719823352	-0.111878430437013	0.991138638929699	0.835935556479481	-0.548825399791878	-0.00155754827401422	0.544136315815997	0.828416499923943	0.132822334206106	-0.671851257477728	-82.3667572772637	-122.620615100897
16827	1657015775525	9.7490168416258	0.00393129947714579	1.20935340785943	-0.0370138904639024	-0.0916119210395971	0.0105563785228622	-0.000894624610000585	0.0131429123486857	0.00206868108564353	0.584716796875	0.349365234375	0.3076171875	0	0	0	-0.579709343064993	-0.312209599820061	-0.662077037073745	0.35793329032517	-0.0716416744803042	-0.111977180636545	0.991124907110274	0.835940468677634	-0.54881785091439	-0.00158093160129907	0.544124069771478	0.828408158780683	0.132924486686703	-0.681412733372194	-82.3608364505971	-122.610631660487
16828	1657015775525	9.78152326847545	-0.0153291665177258	1.23024317545398	-0.0436021283686357	-0.0682735879164682	0.0455765516336868	0.00420345042153929	0.0331129569201666	0.00103253578873811	0.572998046875	0.353759765625	0.30419921875	0	0	0	-0.579657423765171	-0.31218785714279	-0.662087529357674	0.358016921940248	-0.0716423093567106	-0.112153060626998	0.991104974511799	0.836001096635634	-0.548725250914046	-0.00166295921016879	0.544030831786264	0.828445707334714	0.133072025853036	-0.715970048568284	-82.352250106464	-122.57005360802
16829	1657015775526	9.73880644213462	0.00678529279230831	1.29911920838035	0.0138843130731741	-0.0214778794932979	0.0123547411225076	-0.000528457194865005	0.0394434839897027	0.00545004799443793	0.585693359375	0.361083984375	0.301513671875	0	0	0	-0.579544067506049	-0.312108439926336	-0.66218128869862	0.358096267004737	-0.0717914747516322	-0.112488105570972	0.991056209434177	0.836010484682475	-0.548710770568042	-0.00172039634904159	0.543996740481005	0.828409872205588	0.133433991090586	-0.738687253528289	-82.3312839162599	-122.546585668583
16830	1657015775527	9.7368016884593	-0.0129108338103882	1.31741191304432	0.0049657937951161	0.00278210668649484	0.0128413616401524	0.000591729589296153	0.0327203491810324	0.0012151044095556	0.58349609375	0.355712890625	0.30078125	0	0	0	-0.5794002611384	-0.312158621695269	-0.662246960190903	0.35816378378051	-0.0720280827615637	-0.112656180264546	0.991019949517615	0.836115327971914	-0.548551397778675	-0.00158818307534186	0.543804297173269	0.828492576335638	0.133704664588127	-0.68054400560389	-82.3157310897635	-122.593303612469
16831	1657015775528	9.73797579966334	0.00636034613388552	1.3053327877866	0.0131814607166339	-0.0200320414324329	0.0123587634895035	0.00524745436644125	0.0227297773046307	0.00163762535597801	0.572021484375	0.3544921875	0.294677734375	0	0	0	-0.579325504132065	-0.312139762791279	-0.662290355920387	0.358220900006656	-0.0721194941210986	-0.112831443849618	0.990993362160679	0.836153545604502	-0.548493110566051	-0.00159869778211408	0.543733415140855	0.828507316165879	0.133901457493465	-0.684042469051383	-82.304346930732	-122.585861263522
16832	1657015775529	9.71901598928594	0.0165088614543519	1.31840056278647	0.0296765879371188	-0.0119044329131346	-0.00469562418747138	0.00752335918905702	0.00630877443273926	0.00498056509516744	0.57666015625	0.351318359375	0.291259765625	0	0	0	-0.579310125398044	-0.312262500780717	-0.662217100442158	0.358274226116611	-0.0720787150236925	-0.112716981395433	0.991009354620649	0.836304295332968	-0.548263419013433	-0.00153263802935538	0.543506931370854	0.828674909404648	0.133783818434951	-0.656356279298023	-82.311192564978	-122.597546035389
16833	1657015775530	9.75656513826334	-0.004612354132321	1.2950274257399	-0.00290826750819865	-0.0238143565932637	0.0294214044217576	0.00118153430798393	-0.00763529030698278	0.00327903331246373	0.5849609375	0.352294921875	0.307373046875	0	0	0	-0.579345800210306	-0.312280626355822	-0.662175587408231	0.358277470156943	-0.0719913963132415	-0.112648249780039	0.991023516713081	0.836322127245196	-0.548236129561512	-0.00156388090404302	0.543491065553924	0.82870230967755	0.133678508362991	-0.670262475992081	-82.3172597651966	-122.581887557635
16834	1657015775531	9.76145805376621	-0.00646539524306497	1.25214473585621	-0.0259407515950456	-0.0570371550894559	0.0285547000429496	-0.00258015333455013	-0.0107894414140815	0.000788862945018344	0.58056640625	0.359619140625	0.30126953125	0	0	0	-0.579456047518208	-0.312310326770164	-0.662078066752125	0.35825351681883	-0.0717702133630345	-0.112443376546402	0.991062825225863	0.836323806743839	-0.548233354959308	-0.00163669898124447	0.543517733608866	0.828731968480102	0.13338589757458	-0.703007137172031	-82.3341249857594	-122.54922340471
16835	1657015775532	9.76150330965062	-0.00668687005398139	1.25179068623654	-0.0257630386673237	-0.0567884997943038	0.0285566048726409	0.00307402538002416	0.00353508577568992	0.00381214650889905	0.57666015625	0.35205078125	0.29736328125	0	0	0	-0.579452636294201	-0.312313175082175	-0.662064501382079	0.358281619639482	-0.0717378466404199	-0.112469698420397	0.991062181851684	0.836352469023512	-0.548189523397201	-0.00167152500003992	0.543477901038922	0.828757391143376	0.133390245923582	-0.717940916365515	-82.3338486507748	-122.531422867386
16836	1657015775533	9.72544974306713	0.0334210173604778	1.26078742951935	0.0148828872843129	-0.0659487103276818	-0.00603126286760158	-0.00123818552189116	0.00603019532402182	-0.00273714215841409	0.5830078125	0.3505859375	0.300048828125	0	0	0	-0.579426282556802	-0.312424329495459	-0.662031305080208	0.358288672044644	-0.0717888211337817	-0.112342898658629	0.991072872336439	0.836450369938051	-0.548040531647597	-0.00153437346070634	0.543320479818974	0.828873119839458	0.133312442843435	-0.659422631146344	-82.3384415953203	-122.579196630992
16837	1657015775534	9.75982446763202	-0.0258966669206912	1.26762606467003	-0.0338052961386535	-0.0317595436036301	0.0290385344340915	0.00671554858715822	0.00599218470263199	-0.000667918992737963	0.587646484375	0.348388671875	0.299560546875	0	0	0	-0.579401126076164	-0.312448469683345	-0.662027042589634	0.358316178499148	-0.0718077026548805	-0.112364009577012	0.991069111208298	0.836495990278228	-0.547970940036606	-0.00151892193518521	0.543247744668926	0.828916267319671	0.133340577788419	-0.652644931815814	-82.3368253927961	-122.58114860334
16838	1657015775535	9.77838799354497	0.0235787076907537	1.25407893729892	0.00166561954311646	-0.0716639996128455	0.0455580790906787	0.00157766276552064	0.00359949305452047	-0.000513797384532935	0.582763671875	0.36083984375	0.30224609375	0	0	0	-0.579514935759642	-0.312405970756452	-0.661938122994377	0.358333462006966	-0.0715191384752004	-0.112301306346229	0.991097083753502	0.836477010641644	-0.547999278883642	-0.00173234264147021	0.543315031542276	0.828906030220518	0.133129897334434	-0.745514887894258	-82.3488536594579	-122.491041076195
16839	1657015775536	9.77996152277737	-0.0166187978207725	1.24258055722625	-0.0387827920985384	-0.0597558908613904	0.0456519985516444	0.00128616210002095	0.0152154005598794	-0.00298496426174503	0.588134765625	0.349853515625	0.296875	0	0	0	-0.579466319302349	-0.312401786764254	-0.66197238369309	0.35835244055033	-0.0716046262916198	-0.112386211507157	0.991081286755384	0.836491465586196	-0.547977303956248	-0.00170362856879991	0.543281515878366	0.828909050386055	0.133247816841378	-0.732510377883154	-82.3420586013149	-122.502434371321
16840	1657015775537	9.77046542172313	-0.00909690949807328	1.17269171249464	-0.0698702158223778	-0.120618965598952	0.0269189004943833	-0.00664257680360653	0.03444244859631	-0.00648042303593568	0.583740234375	0.349365234375	0.299072265625	0	0	0	-0.579402482834421	-0.312449507964955	-0.661969350899664	0.358419651145475	-0.0716562331161296	-0.112457606286333	0.99106945823386	0.836593688987485	-0.547821317290427	-0.00167447558770928	0.543117283652361	0.829002467493632	0.133336135715533	-0.719499934647841	-82.3369744997129	-122.504651767677
16841	1657015775538	9.7293081526508	-0.0265856891629862	1.22961472358636	-0.0530682795304004	-0.0621260332742512	-0.00629054865224532	-0.0175793463769735	0.0492306496348935	-0.00627871699756491	0.590576171875	0.3544921875	0.296875	0	0	0	-0.579270410603326	-0.312331813325525	-0.662136838986489	0.358426333074488	-0.0719527103164595	-0.112805402883804	0.99100845029613	0.836503713882036	-0.547958804287132	-0.00163873908164491	0.543216664085037	0.828864337442768	0.133789259568487	-0.701761398911612	-82.3108053037816	-122.531689100304
16842	1657015775538	9.72541064949198	-0.00512991182935377	1.26175838765285	-0.0172640144251925	-0.0488013309336378	-0.00590445374047022	-0.00735522588467624	0.0524191661045664	-0.00604143785495144	0.57958984375	0.350341796875	0.29541015625	0	0	0	-0.579220897505739	-0.312282455766352	-0.662156532059022	0.358512965964626	-0.0719432102557871	-0.113022355874096	0.990984420448052	0.836544453091226	-0.547896242111568	-0.00175666796070523	0.543155182706005	0.828876139693194	0.133965639426366	-0.751266462098897	-82.3005220330563	-122.478369536235
16843	1657015775539	9.68717729774044	0.0161391744691602	1.28998137770349	0.015681830933079	-0.0363770793486963	-0.0400651342240579	0.00987344901745715	0.0499826101385473	-0.00399302297220772	0.578857421875	0.35498046875	0.30126953125	0	0	0	-0.579041697553702	-0.31224767775799	-0.662278048282343	0.358608263976447	-0.0722216510038529	-0.113387911556106	0.99092240596286	0.836605613100856	-0.547803001485083	-0.00170871064690514	0.54302401535698	0.828887841071926	0.134424200457741	-0.728266455922495	-82.2740465748613	-122.494818380917
16844	1657015775539	9.72395644988036	0.0556834557730056	1.26936310872423	0.0327694098410046	-0.0815774420971908	-0.00646579362473609	0.00491239403841642	0.0524122197012441	-0.00547146532967238	0.58056640625	0.346923828125	0.29541015625	0	0	0	-0.578902921449759	-0.312245952688634	-0.662359137336835	0.358684047251765	-0.0724343235680566	-0.113635123783701	0.990878563403156	0.836675500672954	-0.547696438553322	-0.00164856594341728	0.542887995209786	0.828924405382463	0.134747745133005	-0.700947970260647	-82.2553834250491	-122.514618132635
16845	1657015775540	9.70444124108749	0.0664158457240022	1.28636697459139	0.049367838680644	-0.0752172004740509	-0.0235488251617308	0.00017918310299074	0.0587521030407263	-0.00106508045370756	0.582763671875	0.35302734375	0.30419921875	0	0	0	-0.578716892081022	-0.312155182868001	-0.66251537082211	0.358774698178633	-0.0727349495338271	-0.11408854985811	0.990804435752881	0.836686458963521	-0.547679715510951	-0.00164274311081536	0.542830909679429	0.828873170038165	0.135291801257455	-0.695663898445003	-82.223929617497	-122.518760032591
16846	1657015775541	9.72259514154723	-0.00393904030974307	1.28327804438022	-0.0134066179083046	-0.0455964380226048	-0.00588299700616446	-0.0123613165252681	0.0678904812322545	0.00392911103320369	0.581298828125	0.35302734375	0.29931640625	0	0	0	-0.57862554374253	-0.311958848042226	-0.662648007756571	0.358847843901947	-0.0728414101111702	-0.11456490155128	0.990741647608276	0.836594333846185	-0.547819804110183	-0.00183923928276597	0.542958607583925	0.828714875911629	0.135748314513658	-0.776246844580141	-82.1973859606741	-122.448573126894
16847	1657015775541	9.75265714511319	0.0166200666165703	1.32111245425278	0.0193411943660366	-0.0346224831005493	0.0289770881689613	-0.0289168576168371	0.0679045004404732	0.0048330037473804	0.577880859375	0.355712890625	0.298828125	0	0	0	-0.578471185359571	-0.311737903849104	-0.662864785109527	0.358888344299673	-0.0731404880690636	-0.115126100922836	0.990654556286562	0.836451679967232	-0.548037271259213	-0.0019329745866713	0.54313815561514	0.828493289168393	0.13638113402492	-0.812017522674912	-82.1607160196828	-122.428105774056
16848	1657015775542	9.69720941191533	-0.0531294620418392	1.35212007380607	-0.0201905097559889	0.0319616786768666	-0.0215950143455093	-0.0190056333832683	0.0635214088773559	0.00403948782320904	0.58154296875	0.357421875	0.303955078125	0	0	0	-0.578333821458629	-0.311668234237275	-0.66297385090062	0.358968767090509	-0.0733428304211565	-0.115477249874672	0.990598725007859	0.836470373609498	-0.548008672041878	-0.00195177880012781	0.543082077866136	0.828463336622859	0.136785805448954	-0.817490520207512	-82.1372975696576	-122.420771925514
16849	1657015775542	9.74941572293743	-0.00411440874308341	1.3477977183255	0.0123728564031096	-0.00917303097720742	0.0294385932803411	-0.0152464327495188	0.0495389639582727	0.00366293545745645	0.58203125	0.35498046875	0.298583984375	0	0	0	-0.578214172287044	-0.311529522042249	-0.663117676011754	0.359016260945526	-0.073551390686204	-0.115878487755978	0.9905364046836	0.836401626678529	-0.548113362545643	-0.00201511498899626	0.543159747972579	0.828338045651831	0.137235455725072	-0.841249709602496	-82.1112388813265	-122.404464435016
16850	1657015775544	9.73504351641685	0.00416249593880548	1.32140702440896	0.00493561249633872	-0.035389097579229	0.011564695632412	-0.0159398946796007	0.0327745990836573	0.0021066704664582	0.577880859375	0.340576171875	0.302734375	0	0	0	-0.578152052766401	-0.311563974146694	-0.663120763338153	0.359080697233561	-0.0736025135125136	-0.115965029657092	0.99052247925086	0.836490434540968	-0.547977885776356	-0.00199740369909818	0.543016042973044	0.828415565158396	0.13733618779183	-0.833245305803503	-82.1054277689499	-122.403123354646
16851	1657015775545	9.76567810679079	-0.0346361947133868	1.35783631280065	-0.0110542991739104	0.0102846315763863	0.0469860362520897	-0.0119483818239417	0.0252132171989724	-0.000433971416339492	0.585205078125	0.3564453125	0.289794921875	0	0	0	-0.578100950930381	-0.311492354862349	-0.663195968529499	0.359086216279485	-0.0737127596229441	-0.116141008875198	0.990493662335212	0.836437115089068	-0.548059204280782	-0.002015218249386	0.543083217905182	0.828337114139265	0.137543606791396	-0.839408259051986	-82.0934158875449	-122.402614438021
16852	1657015775545	9.75661160423202	-0.0274042708393776	1.28770126746445	-0.0402311846672837	-0.0504100227087821	0.0283611332611429	-0.0114548747741859	0.0204676565178521	-0.00388631690114078	0.575439453125	0.3447265625	0.30126953125	0	0	0	-0.578201421611044	-0.311445342000535	-0.663138211092394	0.359071898068224	-0.0735009761293002	-0.116072313279331	0.990517452949732	0.836384871274719	-0.548138341927705	-0.00216914995266015	0.543192372563175	0.828294377741833	0.137369829986275	-0.904658681485523	-82.1033313265928	-122.343395680343
16853	1657015775546	9.75632312584219	-0.0271563446962402	1.28989041689902	-0.0399234779643673	-0.0500779286653943	0.0283640819087569	-0.00840838118951453	0.0244637499531055	-0.00381959066454631	0.579345703125	0.347900390625	0.30322265625	0	0	0	-0.578142305968017	-0.311396800101209	-0.663210515004135	0.359075646242767	-0.0736323086506453	-0.116222160377068	0.990490127441997	0.836348816703366	-0.548193426324134	-0.00215037993997386	0.543230098504911	0.828236908603024	0.137567013873423	-0.895546525940743	-82.0919436708468	-122.356218003996
16854	1657015775547	9.77307524223278	0.0031070698305691	1.29319930898196	-0.0134693133510321	-0.0677182497901198	0.0453350626334146	-0.00840716793808068	0.0244654173311969	-0.00382002404742261	0.58154296875	0.34814453125	0.3076171875	0	0	0	-0.578192270686419	-0.311206294295097	-0.663294036992797	0.359006073763934	-0.0736166742381759	-0.116379028042852	0.990472870454265	0.836127323844403	-0.548530562783437	-0.00230651539844395	0.543573071072241	0.827991632520696	0.137688681019194	-0.959710248045485	-82.084760365736	-122.315793065078
16855	1657015775547	9.73333761418623	0.00483882544316987	1.33391218354175	0.0114360829748028	-0.0322365516639195	0.0115701295937534	-0.00511895088782715	0.034895106329663	-0.00591737269346626	0.5771484375	0.349365234375	0.302978515625	0	0	0	-0.578089926088724	-0.311155342801678	-0.663394788538237	0.359028890955884	-0.0738205856274425	-0.116604252144926	0.990431203829597	0.83610732863426	-0.548561216209916	-0.00226430439188435	0.543576173265259	0.827939635753731	0.137988780001408	-0.940101380974292	-82.0674430732732	-122.337351311746
16856	1657015775548	9.73791320832919	0.00371473223953291	1.29572928088503	-0.0115049757058977	-0.0667977893591361	0.0108194481343613	-0.00479679290222949	0.0424824751175249	-0.00486826299367632	0.579833984375	0.35107421875	0.305419921875	0	0	0	-0.578033596215656	-0.310984680434831	-0.663525936352106	0.359025099357835	-0.0739562793541853	-0.116925744051187	0.990383177927696	0.835964116850075	-0.548779013131885	-0.00236433607362202	0.543777954760177	0.827749941180349	0.138331380361684	-0.979194229299601	-82.0475292506959	-122.313614260402
16857	1657015775549	9.68092694062638	-0.0245155778042927	1.33662128510464	-0.0109206543320353	-0.0136527543266214	-0.039909000679442	-0.00269941415156464	0.0408873636622565	-0.00507188588360104	0.5830078125	0.347412109375	0.29833984375	0	0	0	-0.577908647011816	-0.310927888925802	-0.66363858556707	0.359067223989681	-0.0741846487306335	-0.117205898089312	0.99033298205492	0.835957560518713	-0.548789153088977	-0.00232861836418224	0.543756926304682	0.827703596044479	0.138690887194234	-0.961905082485789	-82.026768472012	-122.331477337882
16858	1657015775550	9.69585543597701	-0.0134531815672496	1.35574783532887	0.00787817586893891	-0.00718004526138252	-0.0225018958888938	0.00695944134440515	0.0300561630260855	-0.00368117863401503	0.585693359375	0.3486328125	0.308349609375	0	0	0	-0.577899694744086	-0.310895479124717	-0.66362977466232	0.359125975189966	-0.0741209535170969	-0.117320575014426	0.990324172646513	0.835986184948387	-0.548745070007336	-0.00243858936376717	0.54372160415525	0.827716576384047	0.138751887749011	-1.00687996002397	-82.0231304793613	-122.283934344522
16859	1657015775551	9.70927817428289	-0.0220142985837256	1.3884355619846	0.0164211177671989	0.0215371686489878	-0.00465051010659678	-0.00870383533366259	0.0164316504187797	-0.00112188188519222	0.5810546875	0.349853515625	0.302490234375	0	0	0	-0.577873521237971	-0.310851060380649	-0.663673286899352	0.359126133786535	-0.0741812269671277	-0.117419649557687	0.990307917500108	0.835950036928578	-0.548800076583524	-0.00245187704165917	0.54376895950832	0.827666056957556	0.138867623424509	-1.0115216748751	-82.016421968084	-122.283125229517
16860	1657015775552	9.7245692211159	-0.0112081472236726	1.40487542225855	0.0352444578604097	0.0272392385318718	0.0127420408494032	-0.00801792618464799	-0.0011094791898543	-0.00531934036037445	0.580322265625	0.356201171875	0.30810546875	0	0	0	-0.577989639696683	-0.310781980255632	-0.663625909267845	0.359086604735004	-0.0739695734063716	-0.117340819561991	0.990333092587842	0.835855878730688	-0.548942742096551	-0.00261072611896973	0.543942508176579	0.82758262304379	0.138685074303373	-1.0784572386268	-82.0268141289084	-122.226604773534
16861	1657015775553	9.75211240516266	-0.0439008449134198	1.32382785774629	-0.0377933468446024	-0.024358093809447	0.0288634382911788	-0.0175897919833845	-0.00674197547614614	-0.00262077209537728	0.575927734375	0.3544921875	0.30859375	0	0	0	-0.578054625528366	-0.310753421893484	-0.66361848125116	0.359020433998755	-0.0739143557532119	-0.11724028444818	0.990349122136279	0.835770096145365	-0.549073277505672	-0.00262341730325388	0.544081808557091	0.827510272825474	0.138570321373501	-1.08459577446682	-82.0334380710761	-122.229457732239
16862	1657015775554	9.73846583034725	-0.0350178064507719	1.29271410181654	-0.046884502707098	-0.052379342659823	0.0110141262827224	-0.00679934125901785	-0.00715428938528512	-0.00257879859951423	0.57177734375	0.35009765625	0.31689453125	0	0	0	-0.57805009617343	-0.31080390215862	-0.663619357953003	0.358982406904444	-0.0739794356939609	-0.117134897704966	0.990356733118956	0.835775799840437	-0.549065131872135	-0.00250865767178399	0.544064201630177	0.827530601670949	0.138518041433726	-1.03755282340472	-82.036585098736	-122.275469587117
16863	1657015775555	9.73335901694267	-0.0332670535689534	1.33446657247162	-0.0220108488106543	-0.0176139630375799	0.0117409034754292	0.0022767153011879	0.00322683157596337	-0.00182476918654207	0.573486328125	0.349609375	0.311767578125	0	0	0	-0.578047163535663	-0.310821114023712	-0.663608873819339	0.358991607692522	-0.0739730046694261	-0.117121506326054	0.990358797273035	0.83579855963966	-0.549030521366794	-0.00250086224644364	0.544030111560423	0.827555459992635	0.138503423610867	-1.03443856466441	-82.0374388086404	-122.276178307364
16864	1657015775556	9.73148677645888	0.0072298582521474	1.3473374134917	0.0169858859056996	-0.0316819316668576	0.0115639059225945	0.00812455679970224	0.00478497804555856	0.000481141730069806	0.580810546875	0.361083984375	0.296142578125	0	0	0	-0.577994277452591	-0.310639795255895	-0.663787462990129	0.358903520200848	-0.0742217568389935	-0.117375266250791	0.99031014216976	0.8355673622786	-0.549382361581629	-0.00249075847399333	0.544351278042513	0.82728596486073	0.138851065670866	-1.02768130255079	-82.0173397601064	-122.307042240464
16865	1657015775558	9.76568205444427	0.00772230887542219	1.35206975202089	0.017277599422731	-0.0320919656567282	0.0460838485078323	0.0146509237828196	0.00642181807301403	-0.00228838814142222	0.581298828125	0.35400390625	0.306396484375	0	0	0	-0.57795701900859	-0.310692477841593	-0.663769158092069	0.358951769959562	-0.0742386220432046	-0.117388431639994	0.99030731751019	0.835656024926871	-0.549247622111098	-0.00246122098246548	0.544212858172744	0.827373558752276	0.138871736782712	-1.01534564241995	-82.0161744589615	-122.31001981292
16866	1657015775559	9.70900997632965	0.0390945292300606	1.38692921171961	0.0665830184878938	-0.0111127781929399	-0.00527083427047259	0.0057722699407662	0.000408204563520715	-0.000909001508838719	0.579833984375	0.3505859375	0.302001953125	0	0	0	-0.5779340401692	-0.310938174458714	-0.66362446354975	0.359043546462395	-0.0741599539148232	-0.117136651008694	0.990343024525249	0.835943672639734	-0.548810366815976	-0.00231461636277441	0.543781644972451	0.827699333251985	0.138619393755977	-0.956615248036322	-82.0309176908781	-122.338159217708
16867	1657015775560	9.69367363703908	0.0287379594959951	1.37080803016039	0.0506631502333529	-0.0161720549914639	-0.022670980861708	-0.00401189641820103	-0.00913530954229528	-0.00409885384671217	0.5849609375	0.352783203125	0.31884765625	0	0	0	-0.577979203680851	-0.310963128444878	-0.663592911444082	0.359007549699711	-0.0741072387421169	-0.11700928756592	0.99036202662932	0.835930172976628	-0.548831024012768	-0.00229193986871201	0.543809583469512	0.827703650894698	0.138483945720446	-0.948171232812299	-82.0387746149673	-122.34791761555
16868	1657015775561	9.74884635726708	-0.0216400710481654	1.34953579442593	-0.00544612747290767	-0.0119319357682987	0.0291390973419166	-0.0116712766980577	-0.0211940269545451	2.19545353210945E-05	0.58544921875	0.35205078125	0.30126953125	0	0	0	-0.578108407453142	-0.310888765470662	-0.663554426597332	0.358935046602036	-0.0739126031055722	-0.116891059864766	0.990390532681856	0.835800696270037	-0.549027615649844	-0.00242350332557023	0.54403503859281	0.82758996935532	0.13827768947224	-1.00408314374188	-82.0505756674406	-122.306003027723
16869	1657015775562	9.74211018375351	0.00498526102333286	1.26071258676147	-0.0297285246322316	-0.0975248752153511	0.0101297933583311	-0.00419374538679429	-0.0139602886457796	-0.00247602855054809	0.57373046875	0.350341796875	0.3017578125	0	0	0	-0.578172492577283	-0.31091630926099	-0.663506503244037	0.358896555591394	-0.0738196624232091	-0.116733882236839	0.9904160025856	0.835786912270262	-0.549048622040315	-0.00241824592875434	0.544068832701768	0.827598218565958	0.138095234924992	-1.0032288626367	-82.0611345461637	-122.308263119703
16870	1657015775563	9.7248922229403	0.0348589819051205	1.25748055401621	-0.0038123024764131	-0.113097490587177	-0.00742369818030752	-0.00305567277389398	0.013621043161624	-0.000946154868147915	0.572509765625	0.354736328125	0.301025390625	0	0	0	-0.57819485863039	-0.31093086957231	-0.663468462569682	0.358918234387463	-0.0737368129551388	-0.116704597962177	0.990425625289302	0.83581911866692	-0.548999390742388	-0.0024637035818677	0.544030590395496	0.827635007584245	0.138025399600781	-1.0226003971773	-82.0651273962327	-122.285696572772
16871	1657015775565	9.76071130846616	-0.00529790770654537	1.25130715409658	-0.0441497237480989	-0.101860800781237	0.0272799835757613	-0.00597353368272814	0.0300025685600654	0.00078138415268288	0.581298828125	0.35546875	0.305908203125	0	0	0	-0.578121755052188	-0.310864380411597	-0.663544041038487	0.358953867410572	-0.0738547148127432	-0.116928477082483	0.99039043429705	0.835798321829536	-0.549030916124615	-0.00249366523386796	0.544046547941314	0.827582494006814	0.138277146653385	-1.03314980961643	-82.0505349077617	-122.277448351377
16872	1657015775566	9.75165289709499	0.0170101372579414	1.32377965381331	0.0124620932625389	-0.0544980347850832	0.0282622686448004	-0.0041905554897963	0.0379807367774338	0.00240841890406512	0.5771484375	0.353759765625	0.297119140625	0	0	0	-0.577988008793599	-0.310889860508064	-0.663612822492626	0.35902002471653	-0.0740689670867048	-0.117119361008666	0.990351878572273	0.835881806725368	-0.548904232971638	-0.00239754277368237	0.543889136957379	0.827639534038061	0.138554712648174	-0.991343934299689	-82.0345776735085	-122.31019813596
16873	1657015775567	9.71515867537168	-0.00271485460345411	1.33841581573329	0.00477932276486109	-0.0304814590082907	-0.00581636944805019	0.00189024224698719	0.0464385214817122	-0.0012053445560913	0.57421875	0.357177734375	0.301025390625	0	0	0	-0.57784295302343	-0.310826219882702	-0.663727206679201	0.359097170398789	-0.0742934877054898	-0.117467642122127	0.990293810310264	0.835902605218648	-0.548872566490026	-0.00239590136038709	0.543826546127744	0.82761117610199	0.138969165349185	-0.987711462080329	-82.0106044561958	-122.311682216024
16874	1657015775568	9.72994955886759	0.00792298152941753	1.35839074409109	0.020904163682451	-0.0223838373433836	0.0115819350092909	-0.00190739123344586	0.0412166471376957	0.000581130351111347	0.57958984375	0.354736328125	0.3134765625	0	0	0	-0.577702124413281	-0.310938018675838	-0.663748265628925	0.359188034133822	-0.0744884231669243	-0.117561761482199	0.990267997590202	0.836079977281751	-0.548603009354049	-0.00223823953751451	0.543527134927642	0.827776521994242	0.139155607980652	-0.921490865655495	-81.999970707948	-122.358795999675
16875	1657015775569	9.74488784449861	0.0183393654749379	1.37722799099819	0.0375220263023121	-0.0166710088895891	0.0289713459038534	-0.00913512656711427	0.0227968994542759	0.00178457859188012	0.579833984375	0.36279296875	0.311767578125	0	0	0	-0.577659954853083	-0.310872661109432	-0.663805676015014	0.359206332939893	-0.0745595738700185	-0.117729030569014	0.990242770892876	0.836043780095144	-0.54865799790123	-0.00228015421333366	0.543573056459336	0.827716302062665	0.139334330267748	-0.937540321601854	-81.9895919267526	-122.346698258627
16876	1657015775570	9.76707203914836	-0.0132213054618971	1.3401712180481	-0.0131958586025861	-0.0341136101979486	0.0458415318143537	-0.00386726211744859	0.0107890322346751	0.00145146585470938	0.58251953125	0.34912109375	0.30078125	0	0	0	-0.577543406585757	-0.310923665514024	-0.663861549286293	0.359246337645694	-0.0747713647949489	-0.117835834631595	0.990214097598785	0.836123486507995	-0.548537086222958	-0.00214017469887617	0.543421345105633	0.82778123989053	0.139540175465284	-0.878695784829816	-81.9778113434318	-122.396696552284
16877	1657015775571	9.75326637842268	-0.0045345242754279	1.31057739900631	-0.0210344751460371	-0.0622122037336706	0.0280202287338849	-0.00260250077423934	0.0068094297732339	-0.000104126335010747	0.574462890625	0.353759765625	0.303466796875	0	0	0	-0.577538943009896	-0.310914171126651	-0.663866753985005	0.359252112663312	-0.074773377707918	-0.117860984273529	0.990210952460244	0.836121151310664	-0.548540595479149	-0.0021530077357072	0.543424661123397	0.827775333950858	0.13956229499928	-0.883823757601843	-81.9765201914843	-122.391863026627
16878	1657015775572	9.75470733158458	0.0147591526820363	1.2976679335209	-0.0115507087799801	-0.0837833938212531	0.0276033450768036	-0.00450123242863571	0.0304070033331578	0.00135337653708144	0.575439453125	0.349609375	0.308349609375	0	0	0	-0.577510745779547	-0.310885570109268	-0.663882107558979	0.35929381858033	-0.074778580878233	-0.117977960132239	0.990196629344331	0.836136989915852	-0.548516228455601	-0.00220934725698335	0.543399574840003	0.827774817232247	0.139663001613973	-0.906293823252733	-81.97064283044	-122.367960662347
16879	1657015775574	9.75249884586079	-0.00474504087916589	1.31627671703585	-0.0193044859760925	-0.0604270095750169	0.0280348984390457	-0.00589914658546448	0.0492591910354113	-0.000642048437106894	0.5849609375	0.35693359375	0.3046875	0	0	0	-0.577370798847014	-0.310790633707091	-0.66401550173824	0.359354360054278	-0.0750148090974827	-0.118350858471265	0.990134259944167	0.836116604301797	-0.54854725181985	-0.0022218307142729	0.543398382797466	0.827701025020511	0.140104285277412	-0.908543606868597	-81.9450997783824	-122.367916502134
16880	1657015775575	9.7328577392618	0.00545375692537571	1.33316688514215	-0.00225786575189322	-0.0535688484081115	0.010906971970023	-0.0103917465907685	0.0620489011404145	0.00158326791155757	0.58203125	0.3447265625	0.304443359375	0	0	0	-0.57721243623217	-0.310678413292367	-0.664158144867479	0.359442186699404	-0.0752542357593475	-0.118798024168309	0.990062538153011	0.836107799453237	-0.548560475869776	-0.00226980329350285	0.543378825216573	0.827628197784024	0.140609453946121	-0.924822981945023	-81.9158256155565	-122.352774219697
16881	1657015775575	9.72674502801549	0.00689016985412218	1.38115606240202	0.0225597437195883	-0.0187633449243434	0.0115858546427212	-0.010393341886335	0.0625185411138996	-0.00217536524805346	0.576171875	0.35400390625	0.302734375	0	0	0	-0.577034195895004	-0.310549092354466	-0.664339347301359	0.359505256752704	-0.0755750142699579	-0.119272083659633	0.989981104505326	0.836061866830363	-0.548630463209979	-0.00227369086105583	0.54340497978048	0.827513616140238	0.141181596011248	-0.922653044504373	-81.8827145722983	-122.359794198093
16882	1657015775576	9.68829611299113	-0.0321731197961933	1.411619957985	0.00844758665082684	0.0289519360045232	-0.0220859402304541	-0.00594649343972751	0.0476699804677102	-0.000105216531522177	0.572021484375	0.3525390625	0.296142578125	0	0	0	-0.576980287995881	-0.310430249674359	-0.664415883852422	0.359552973337602	-0.075630813256559	-0.119561143424248	0.989941974597117	0.836009682863228	-0.548709438902409	-0.00240037878837585	0.543477497459716	0.827419533636045	0.14145361470261	-0.97217999837063	-81.866851921287	-122.31622476604
16883	1657015775577	9.70487543141494	-0.0022159258850731	1.4158982753191	0.0331717093885004	0.0116547747742946	-0.0051319327380277	0.00438908923096698	0.0188067481719697	0.000863936280750189	0.579345703125	0.361328125	0.3037109375	0	0	0	-0.576925864344949	-0.310419720232809	-0.664442019880276	0.359601093654951	-0.0756872009839928	-0.119689823228443	0.989922115028628	0.836046484848564	-0.548653301465496	-0.00241453170822808	0.543413031477501	0.827438155396858	0.141592288680836	-0.976953407934745	-81.8588129082472	-122.30767273477
16884	1657015775578	9.67057790914666	-0.00255805677347847	1.41187092367718	0.0329706393771193	0.0154998957944956	-0.0396563218091419	-0.00266904240528702	-0.0124346601407789	0.00130862818787135	0.57666015625	0.346923828125	0.308349609375	0	0	0	-0.576955872755545	-0.310671404654425	-0.664283410230558	0.359628628053154	-0.0755783415549879	-0.119303280094202	0.989977091475637	0.836278045744542	-0.548301056429305	-0.00223197764265437	0.543071767350768	0.827727418222492	0.141210398445868	-0.905544153907836	-81.8810863363372	-122.354160354744
16885	1657015775579	9.70686626387221	0.0171025682503007	1.3993165371734	0.041401173908113	-0.00780752066154162	-0.00555444377542713	0.00296610760997253	-0.0324242918294027	-0.00138742817077392	0.578125	0.3466796875	0.30810546875	0	0	0	-0.577070673194916	-0.310756014703152	-0.664167510668121	0.359585393525783	-0.0753755658025497	-0.118993506173037	0.990029832665962	0.836306236589506	-0.548258088177445	-0.00222427280488646	0.543056537315815	0.827800467647042	0.140840274928362	-0.904789845030248	-81.9025113551094	-122.351914922984
16886	1657015775579	9.74519514896131	-0.00356499194335824	1.373000893068	0.0104626009586635	-0.0206571281624088	0.0287269317087357	0.00563789107158705	-0.0380842757893469	0.00193406077320738	0.5859375	0.3466796875	0.30078125	0	0	0	-0.577285057815393	-0.310684050027909	-0.66406895380388	0.359485476306282	-0.0750243086958473	-0.118739768751441	0.990086976190256	0.836152807882169	-0.548491226766203	-0.00241992381536127	0.543341361370066	0.827682452077704	0.140434766162668	-0.98720355606589	-81.9257884696667	-122.286257030015
16887	1657015775581	9.77325843721728	0.0233067183545024	1.28698458165074	-0.0137367283959768	-0.106895078636846	0.0443830508474701	0.00678300128643767	-0.0276491124580358	0.000585475267463461	0.57568359375	0.352783203125	0.294677734375	0	0	0	-0.577380470847135	-0.31076620479788	-0.663957302648371	0.35946746459139	-0.0748298675691579	-0.118481421060742	0.990132639489786	0.836202771659051	-0.54841501571152	-0.00242800573626079	0.543291280612255	0.827769970103749	0.140112315679726	-0.992778957860089	-81.9444372024204	-122.275470214836
16888	1657015775581	9.77173245427295	0.00378465235157854	1.30032889188082	-0.0187696923224099	-0.0813445917205897	0.0448303509213961	0.0021644432579167	-0.000450679334888696	0.00301697411614722	0.579345703125	0.349365234375	0.310302734375	0	0	0	-0.57750566604378	-0.310845224400906	-0.663785798141085	0.359514765121938	-0.0744726786932949	-0.118251833911594	0.990187014611275	0.836311347328289	-0.548248760252935	-0.00257433701403548	0.543173223252203	0.827912918523237	0.13972490430896	-1.05551662620375	-81.9666999079685	-122.201916662263
16889	1657015775582	9.73732064650498	0.00318286571024021	1.29719263883551	-0.018373957787399	-0.0803603058077543	0.0103130132921745	-0.00328273365942024	0.0243673005211186	0.00409206229192318	0.58740234375	0.35595703125	0.31005859375	0	0	0	-0.577452792028802	-0.310790775385629	-0.663832568012796	0.359560410166187	-0.074529168838529	-0.118441818906253	0.990160057024326	0.836309822839165	-0.548250810752645	-0.00263224842911092	0.543167822330229	0.827884402584833	0.139914733826681	-1.07779168089464	-81.9556550626588	-122.180035233872
16890	1657015775583	9.74358725289504	-0.0239254957106956	1.38695920751073	0.00718781677545906	0.00549825473829882	0.0291436765661057	-0.0023267155013297	0.0299702924984084	0.00436609402826219	0.578369140625	0.355712890625	0.30712890625	0	0	0	-0.577396819291516	-0.310695052023506	-0.663885621135184	0.359635064711582	-0.0745510666038742	-0.118724427020112	0.990124562313738	0.836301766252049	-0.548262409756015	-0.00277232974782532	0.543177221753571	0.827836240132838	0.140162995440304	-1.13312421782394	-81.9411353910083	-122.126095849079
16891	1657015775584	9.72602041624643	0.00550759600199173	1.38625473420928	0.0319693339915033	-0.0111324844407519	0.0115713515044096	0.00312528881062753	0.0227871221762612	0.0024162392860074	0.574951171875	0.34716796875	0.308837890625	0	0	0	-0.57733517624363	-0.310669076461903	-0.663920921894428	0.359691296354107	-0.0746125311976782	-0.118892782120484	0.990099730606936	0.836333526170798	-0.548213792514821	-0.00280547665044129	0.543119879208076	0.827844275245151	0.140337638404091	-1.14524204464949	-81.9309930197955	-122.110798753734
16892	1657015775585	9.6915733035832	0.00502968299064778	1.38328525791956	0.0319966004742036	-0.0104963189445022	-0.0229497495517492	0.00311859090155324	0.00515101999806255	0.00329234794014472	0.5771484375	0.350830078125	0.30419921875	0	0	0	-0.577331768861205	-0.310635904541005	-0.663939559463963	0.35969101302699	-0.07462080762242	-0.118946232983656	0.990092686938337	0.83630613794549	-0.548255419915219	-0.00283516635941283	0.5431609141907	0.82780902881799	0.140386726947168	-1.15695401681695	-81.9281183777122	-122.102065801823
16893	1657015775587	9.74117761715889	0.0157824307514895	1.40326103735833	0.0486648522284359	-0.00535774994858407	0.0289352163418535	-0.000323253048685647	-0.00759298138223995	-0.00105134242120692	0.582275390625	0.34912109375	0.302734375	0	0	0	-0.577371677148688	-0.310662899219154	-0.663898965599612	0.359678568934856	-0.0745465469509709	-0.118844541428325	0.990110492475652	0.836316378028473	-0.548239780195447	-0.00283888227716922	0.543155344426457	0.827833992044262	0.140261018950522	-1.15950795607665	-81.9353870888639	-122.098445421666
16894	1657015775587	9.74487676699004	-0.00526902089567781	1.37525291695375	0.0178753680045444	-0.0157564946740948	0.0287253255907238	0.00469891667569993	-0.00887495088289405	0.00366631585267679	0.5810546875	0.35400390625	0.3095703125	0	0	0	-0.577475666898682	-0.310691760698564	-0.663787188947165	0.359692996545067	-0.0742856047527054	-0.118685342702608	0.99014920004719	0.836353069539923	-0.548183156140914	-0.00296148519100653	0.543134598417073	0.827894327043586	0.139984967947898	-1.21195366502177	-81.9512110825306	-122.042605181748
16895	1657015775588	9.73139759535587	0.00325123609952906	1.34378969139287	0.0100928433562308	-0.0438528956929029	0.0109502237386891	0.00171386941100726	-0.011264244748056	0.00304838553957969	0.584228515625	0.3515625	0.31689453125	0	0	0	-0.577530864110505	-0.310720256444243	-0.663725017030574	0.359694488424221	-0.0741559519940226	-0.118575384508576	0.990172092604363	0.836377537312101	-0.548145594464924	-0.00300372243045399	0.543114637865344	0.827934952431251	0.139822046469994	-1.23066537189977	-81.9605843208702	-122.021481012835
16896	1657015775589	9.71785733424287	0.0118353354663759	1.31273842584746	0.0021898506043401	-0.0731495345719063	-0.00683106240379061	0.00432001178585211	-0.000441749342350167	0.00227897102422293	0.58203125	0.35498046875	0.2998046875	0	0	0	-0.577533634629178	-0.310672581511596	-0.663731834967041	0.359718638966925	-0.0741148033035896	-0.118665694266684	0.990164354506603	0.83636115498677	-0.548170095753409	-0.00309266081157977	0.543145481763834	0.827905791214136	0.139874895937865	-1.26661431607602	-81.9574147828802	-121.98758348891
16897	1657015775590	9.75031815069664	-0.00744007260174677	1.33232105968725	-0.00550690356309735	-0.0504085232890146	0.0281087109078477	0.00337208953579224	0.0115927118584958	0.00112755154780508	0.583984375	0.35107421875	0.30126953125	0	0	0	-0.577506898289734	-0.310670352541782	-0.66373692000486	0.359754104218143	-0.0741255338519454	-0.11873561881175	0.990155168676382	0.83639270555968	-0.548121833099533	-0.00311418788223006	0.543095431133169	0.827927719613855	0.139939428958672	-1.27483996162226	-81.9536538613036	-121.976146664605
