// Start Time : 29/04/2022 05:26:59																																
// Update Rate : 100Hz																																
// Filter Profile : 46.1 human																																
// Firmware Version : 4.4.0																																
PacketCounter	Time_Of_Arrival	Acc_X	Acc_Y	Acc_Z	FreeAcc_X	FreeAcc_Y	FreeAcc_Z	Gyr_X	Gyr_Y	Gyr_Z	Mag_X	Mag_Y	Mag_Z	VelInc_X	VelInc_Y	VelInc_Z	OriInc_q0	OriInc_q1	OriInc_q2	OriInc_q3	Mat[1][1]	Mat[2][1]	Mat[3][1]	Mat[1][2]	Mat[2][2]	Mat[3][2]	Mat[1][3]	Mat[2][3]	Mat[3][3]	Euler_X	Euler_Y	Euler_Z
16223	1651210046745	9.11106665554514	0.900751414205406	3.67660967995897	3.46944695195361E-16	-1.12757025938492E-15	0.0534337291254143	0.000836002681408302	0.0504136105405049	0.00920829651856129	0.2822265625	-0.287109375	0.474609375	0	0	0	-0.530243267747641	0.180646892528084	-0.754022527991366	-0.343014291990523	-0.202366544997088	0.325707409962629	0.923559670276576	-0.708854604372821	-0.699415791420375	0.0913383849827755	0.675701806513341	-0.636185691294017	0.372417554456501	13.7802451610738	-67.4521580943514	121.853259334046
16224	1651210046746	8.98523614923932	0.898773127916482	3.69458188507039	0.0532258979447172	-0.0422436065113104	-0.0562752925700423	-0.00213169199437386	0.0626200418870192	0.00601439096243275	0.29150390625	-0.2919921875	0.478271484375	0	0	0	-0.530920927884125	0.178491015166028	-0.754856835106792	-0.34125516015471	-0.203335768004885	0.325668349534639	0.923360542562463	-0.704726811098346	-0.703371746345567	0.0928886869427163	0.679716622695825	-0.631829338155621	0.372527851679321	14.0010225351024	-67.4224230280214	121.979193693238
16225	1651210046747	8.9347514621918	0.873340917613771	3.69526111079348	0.0774850597108433	-0.0375638680917061	-0.104956144632204	-0.000496510553138155	0.0549912943912048	0.00456348572670463	0.28662109375	-0.277587890625	0.4853515625	0	0	0	-0.530708435015729	0.178411166280404	-0.755010129969148	-0.341288318571837	-0.203741681219127	0.325983653831741	0.923159782902456	-0.704720897215758	-0.703383478705747	0.0928447031941884	0.679601195085338	-0.631653654559449	0.373036025499243	13.9763368869826	-67.3924817923579	122.005623044114
16226	1651210046747	8.93301627480641	0.849013234783576	3.7000416671688	0.0948599262616022	-0.0203066692049903	-0.106993225324963	0.0015508813375998	0.0519479396173919	-0.00603275855286523	0.2841796875	-0.289794921875	0.48681640625	0	0	0	-0.530528663872526	0.17829614356287	-0.755133450732978	-0.341355084310086	-0.204032086450574	0.326354855844577	0.922964471561766	-0.70471971511671	-0.703374383212525	0.0929225492882216	0.6795152910895	-0.631472077852271	0.373499644000483	13.9709134266036	-67.3633891321783	122.012995490866
16227	1651210046748	8.93103557705541	0.849728847100189	3.70465598924526	0.0948599267049837	-0.0203066691923483	-0.106993225329269	0.00467204399883	0.0519646431499289	-0.00741111429230912	0.286376953125	-0.289306640625	0.4892578125	0	0	0	-0.530347025269258	0.178170146264046	-0.755262784099523	-0.341416986575851	-0.204332948131028	0.326735073514442	0.922763370558018	-0.704703101766144	-0.703379680515427	0.0930084049921883	0.679442112817021	-0.631269527835399	0.373974863536594	13.9662425503378	-67.3334710393103	122.020957402352
16228	1651210046749	8.95106212881686	0.851086360622208	3.73568309535049	0.108263042839979	-0.0301077194040477	-0.076745694339996	0.00948786863995022	0.0474072745554897	-0.0117626759715318	0.279541015625	-0.2880859375	0.48876953125	0	0	0	-0.530192603571994	0.178022578705761	-0.75537825089358	-0.341478348750631	-0.204576680904185	0.327118126597344	0.922573635479397	-0.704663144591774	-0.703400997610987	0.0931498213304808	0.679410210612307	-0.63104735781977	0.374407529177003	13.9711152285472	-67.3052781277434	122.021483675277
16229	1651210046750	9.01956231384957	0.877693039553116	3.77098287642834	0.097455444329207	-0.0446000071252769	0.00218262966987481	0.0155343074429339	0.0428562886439039	-0.00994270215306915	0.290771484375	-0.287841796875	0.4833984375	0	0	0	-0.530066098885275	0.177864372257456	-0.755488691972076	-0.341512858024889	-0.204797797232436	0.327458456935362	0.922403827632049	-0.704577952668115	-0.703466465770266	0.0932997328543873	0.679431947190262	-0.630797820635268	0.374788391788014	13.9790553917122	-67.280074321696	122.022524707111
16230	1651210046752	8.9718861154036	0.854450040016053	3.74565817514459	0.104582523740802	-0.023781858777151	-0.05342121218332	0.0232286336776615	0.0428972633617175	-0.0110967862645648	0.280517578125	-0.28125	0.487060546875	0	0	0	-0.529947767258027	0.177674624627184	-0.755608007773992	-0.341531302122718	-0.205023467297185	0.327811032339641	0.922228445090401	-0.704444114817978	-0.703576194867899	0.0934827637242457	0.679502661478052	-0.630492240310399	0.375174183483643	13.9915646804528	-67.254070855329	122.023173470742
16231	1651210046752	8.92143009080425	0.880067449833696	3.74431660857105	0.0945230745446555	-0.053596818438793	-0.0980318375317424	0.0231042469211054	0.0383145961472466	-0.00804660977513932	0.280517578125	-0.281982421875	0.488525390625	0	0	0	-0.529849601988968	0.177500581680464	-0.755716296282523	-0.341534511152612	-0.205227153927756	0.32810916652942	0.922077106390828	-0.704303616754237	-0.703695442389686	0.0936436852483085	0.679586808816661	-0.630204013950525	0.375505885550458	14.0028087728523	-67.2316549046313	122.025335440167
16232	1651210046754	8.96841746468248	0.906457510717719	3.75191904928994	0.0700200419084517	-0.0581899896611939	-0.0493485924916808	0.027493238666308	0.0307014460975138	-0.00324621070870614	0.2802734375	-0.288330078125	0.48291015625	0	0	0	-0.529772456773097	0.177336594335988	-0.755823877384503	-0.341501307068313	-0.205436002630461	0.328333597566195	0.921950702333079	-0.704125770594798	-0.703857179159894	0.0937655082072295	0.679707987305946	-0.629906437539987	0.37578575270782	14.0102769887716	-67.2129482197193	122.033923035243
16233	1651210046754	8.918348050646	0.931430652344836	3.74973640905387	0.0599617066588483	-0.0880053429772444	-0.0939592058009495	0.0257282409101963	0.0337498329239025	0.00124891048484723	0.284423828125	-0.279052734375	0.484130859375	0	0	0	-0.52968772387816	0.177185040368593	-0.755938204375666	-0.341458354426493	-0.205674214730251	0.328537349152265	0.921824998363083	-0.703948312104665	-0.704023307323863	0.0938507145937734	0.679819749110076	-0.629614479627631	0.376072753284708	14.0122267314104	-67.1943595485467	122.047798316036
16234	1651210046756	8.96597150147759	0.908425532026134	3.75728514550469	0.0696849461226034	-0.0579971326705994	-0.0493450474933663	0.0272604285705785	0.0322308276563788	0.00132525848229584	0.28466796875	-0.284423828125	0.484619140625	0	0	0	-0.52959490944133	0.177028877151858	-0.756060797415059	-0.341411890771672	-0.205934305467083	0.328749108440149	0.921691426417539	-0.703763477095102	-0.70419739498813	0.0939308107009817	0.679932371739132	-0.629309186800685	0.376380017096364	14.0127163978386	-67.1746230926842	122.063762945469
16235	1651210046756	8.88913955259177	0.932905791972965	3.77713738634248	0.0801791796173026	-0.110194085810113	-0.110352094775331	0.0271605662473468	0.0368151476189508	0.00284477701249311	0.28125	-0.28515625	0.4833984375	0	0	0	-0.529499569590545	0.176870884545756	-0.756187160462284	-0.341361793930454	-0.20620466289602	0.32896069680501	0.921555476874562	-0.703572925765316	-0.704377631689168	0.0940068620154489	0.68004762710414	-0.628996829827878	0.37669379200686	14.0123934416052	-67.1545518985187	122.080998629193
16236	1651210046758	8.86121253141854	0.933352319259402	3.80169639992573	0.100273612506466	-0.132239821276739	-0.126739455502319	0.0256016548349353	0.0291695363365232	0.00430161065995889	0.28271484375	-0.2841796875	0.4912109375	0	0	0	-0.529405434215496	0.17673065575932	-0.756309887153824	-0.341308535098894	-0.206476740183498	0.329145700227659	0.921428490868846	-0.703394378433468	-0.704549518367054	0.0940549018230649	0.680149765971724	-0.628707471078875	0.376992323075966	14.0086075870837	-67.135819118211	122.100503625879
16237	1651210046759	8.86014281424173	0.933867908880341	3.80406225488386	0.100273605988518	-0.132239817208825	-0.126739455379305	0.021029750545663	0.0291451143715911	0.00407399303010426	0.27783203125	-0.286376953125	0.486572265625	0	0	0	-0.529327499711048	0.176612174372364	-0.756412558361381	-0.341263211416505	-0.206703637166689	0.32930019628625	0.921322412138063	-0.703242919002469	-0.704695120794319	0.0940966715753909	0.680237460931805	-0.628463338194455	0.377241075826233	14.0057063205842	-67.1201816741102	122.116729821448
16238	1651210046762	8.73754043171457	0.957284926886	3.79381803662084	0.100235885503046	-0.180326548371189	-0.241297840288645	0.0179542079191483	0.0199635891445884	0.00545816992047548	0.278076171875	-0.294921875	0.4853515625	0	0	0	-0.529242042629326	0.176512866528865	-0.756513661916958	-0.341223017389356	-0.206939425434484	0.329443688766962	0.921218177269892	-0.703115808895339	-0.704820120706933	0.094110343364147	0.680297165569796	-0.628247923496991	0.377492136526604	13.9987114731075	-67.1048258853158	122.134905828066
16239	1651210046762	8.59129114254867	0.979734021284911	3.77980498672501	0.104399841288062	-0.235294178225387	-0.379192504681443	0.0099132046511097	-0.00145634967358863	0.0157757470581999	0.276611328125	-0.2958984375	0.481201171875	0	0	0	-0.529250538352118	0.176519598860258	-0.756545469536867	-0.341135825435336	-0.207040432517091	0.329323341006663	0.921238512205903	-0.703015711912629	-0.704934359645531	0.0940024329213036	0.680369875955068	-0.628182844130078	0.377469397744414	13.9840994918467	-67.1078208448918	122.156932743974
16240	1651210046763	8.42214905580324	0.976156144745893	3.76120699707466	0.128453994429021	-0.278299797416747	-0.542401445594224	0.0046689547184774	-0.0335471839911764	0.0323587592423355	0.28271484375	-0.2900390625	0.49560546875	0	0	0	-0.52930480285035	0.176619060158098	-0.756549028099952	-0.340992230629146	-0.207121448660223	0.328984047711037	0.921341522920004	-0.702925314977422	-0.70506001247886	0.0937356942002504	0.680438613740272	-0.628219607426394	0.377284266536844	13.9525453806378	-67.1229981156542	122.193656659996
16241	1651210046764	8.13042773492355	0.99356690331361	3.75198467939088	0.170964503108015	-0.387112902803396	-0.813280275793152	-0.00892665455316756	-0.0717702501470465	0.0638127155885031	0.282470703125	-0.285888671875	0.495361328125	0	0	0	-0.529504656142145	0.176944054421605	-0.756459914320941	-0.340711048770344	-0.207081600739202	0.328083100136207	0.921671682346977	-0.702853902907843	-0.705213565701313	0.0931140049512065	0.680524504924329	-0.628518341940676	0.376631241457266	13.8866959510536	-67.1717070989448	122.259564752249
16242	1651210046765	8.35422574381786	0.939394489070625	3.76540027940972	0.172136051430561	-0.294268472984517	-0.607387606086538	-0.013792184306001	-0.134374643144136	0.106425873715865	0.27685546875	-0.293701171875	0.48291015625	0	0	0	-0.529815764654526	0.177456202214315	-0.756322740971838	-0.340265283724418	-0.207029584430963	0.326662557150293	0.922187792657425	-0.702738931025754	-0.705457665975227	0.0921275004413161	0.680659052676978	-0.62898414548605	0.375609103638425	13.7811606302298	-67.2480474534777	122.365378666217
16243	1651210046766	8.99515940658252	0.910838723450417	3.79007065453287	0.0797673683592573	-0.0972916841955449	-0.0100705287526104	-0.0254041136952893	-0.166509073518121	0.0967300729144312	0.28125	-0.29345703125	0.4892578125	0	0	0	-0.53031613864383	0.178091716293244	-0.756023319012434	-0.339818885277215	-0.206575836605699	0.3249321804026	0.922900591542484	-0.702711825638942	-0.705612931593355	0.0911398972756485	0.68082487751098	-0.629705859038204	0.37409626736325	13.6920568543707	-67.3538815495154	122.446186042083
16244	1651210046767	9.34297432473354	0.807177734590146	3.80841122181516	0.0970302711523872	0.0621879756776736	0.308250988018335	-0.0241944023741265	-0.157358404300139	0.0708076354915859	0.288330078125	-0.2890625	0.48828125	0	0	0	-0.530708644802656	0.178575454894964	-0.755766201824542	-0.33952406309493	-0.206143489822477	0.323658547861934	0.923444641545835	-0.702744698511231	-0.705668434977134	0.0904541242358891	0.68092198548598	-0.630299297376117	0.372918282481569	13.6342056324076	-67.434976713947	122.493735599385
16245	1651210046767	9.35176784775882	0.728286318048742	3.77061570239602	0.131514684775592	0.130017396487331	0.295195092615479	-0.00736424619716121	-0.137470047503835	0.0364477080349884	0.276611328125	-0.283203125	0.48095703125	0	0	0	-0.531182936536803	0.178933327208214	-0.755456528661688	-0.339283046509502	-0.205463404566739	0.322534524718142	0.923989323395399	-0.70271984548118	-0.705739757530859	0.0900900294549339	0.681153145886262	-0.630795430393346	0.371655104692673	13.6258041203822	-67.5164437074392	122.498262634892
16246	1651210046769	9.28569536725931	0.749460301659251	3.7282084566621	0.106238696154872	0.111968556413784	0.220334836290675	0.00695664414104053	-0.10382837866546	0.0218064875838039	0.280029296875	-0.286865234375	0.487060546875	0	0	0	-0.531465426606461	0.179096422613027	-0.755289477626428	-0.339126490731741	-0.205075447211973	0.321910226772674	0.924293171482931	-0.702644453363567	-0.705835389382381	0.0899287231802837	0.681347806269473	-0.631007297100904	0.370937943458457	13.6276328635556	-67.5620115040058	122.499495492407
16247	1651210046771	9.26448672713643	0.821653559691299	3.71714118034707	0.0583233739847939	0.0539285384010828	0.203132719557701	0.016733371646394	-0.0808979938816702	0.00695852091140224	0.283447265625	-0.291015625	0.483154296875	0	0	0	-0.531793032528919	0.179188868606262	-0.755101223696746	-0.338983276715799	-0.204573017321432	0.321350590458566	0.924599198894276	-0.702516157784765	-0.705963374949256	0.0899264214877216	0.681631079569686	-0.631149357317417	0.370175039842608	13.6543316146336	-67.6079950113999	122.480986673268
16248	1651210046770	9.48584294940908	0.824413336644012	3.73042561514347	0.0241931720605411	0.112332315889503	0.412954008996612	0.0150099677680542	-0.0595499495488485	-0.0236922038021631	0.278076171875	-0.287353515625	0.48095703125	0	0	0	-0.531961901244589	0.179142126374118	-0.754983602881834	-0.339005005216688	-0.204184284124551	0.321292868188991	0.924705180566993	-0.702480012744888	-0.705967409992386	0.0901767582173127	0.681784870623047	-0.631174230208691	0.369849268364803	13.7025187491325	-67.6239406523757	122.436297163519
16249	1651210046770	9.63350315709415	0.707067612291924	3.74063891588251	0.0885708381385363	0.236404133317938	0.542648148765201	0.0232280499504539	-0.00760826986320483	-0.04018080392258	0.2861328125	-0.2880859375	0.483154296875	0	0	0	-0.532065963578156	0.178960452495692	-0.754916049151698	-0.339088079379644	-0.203850169648545	0.321528535200431	0.924696982468379	-0.702403597598443	-0.705984861730323	0.0906342158810977	0.681963557981674	-0.631034686890889	0.369757933688371	13.7726625925693	-67.6227068097884	122.374834415493
16250	1651210046773	9.29151239715347	0.807834692586191	3.71075523061434	0.0679034598030327	0.0800979776702671	0.224417443253342	0.0373406998520187	0.039777126207472	-0.051820597165671	0.279296875	-0.299072265625	0.48388671875	0	0	0	-0.531932719425007	0.178611823471321	-0.75502941259489	-0.339228513892895	-0.20394319473427	0.322236065198861	0.924430144254683	-0.702273957121098	-0.706043663756535	0.0911791314869949	0.682069250495178	-0.63060785211921	0.370290797042733	13.8331192083037	-67.5825818961874	122.329718296535
16251	1651210046773	8.94580313753629	0.933780557867276	3.70767870656773	0.0491516713304059	-0.110554526646367	-0.0848110649495144	0.0360386494846407	0.0550397773241998	-0.0580113140514738	0.28857421875	-0.2861328125	0.482177734375	0	0	0	-0.531837812649589	0.178228108585484	-0.755109519766828	-0.339400788896625	-0.203911291064898	0.322992638578872	0.924173111922276	-0.702146428269981	-0.706083691612778	0.0918488633907818	0.682210069292409	-0.630175829322522	0.370766564692283	13.9136018459978	-67.5439958127499	122.264983650376
16252	1651210046775	8.76865484119703	0.96315367938049	3.74457849211382	0.0889309104554342	-0.203243780361916	-0.231997411331967	0.0313101699999658	0.0412821062882838	-0.0536234099287307	0.28515625	-0.2861328125	0.486083984375	0	0	0	-0.531685268829527	0.177897700271421	-0.755222658747356	-0.339561362440412	-0.20401771209457	0.323717696714315	0.923895895642835	-0.702060043086175	-0.706100978751502	0.0923748001784562	0.682267153726116	-0.629784296914548	0.371326366295627	13.9698872918356	-67.5024500323087	122.220500883062
16253	1651210046776	8.822340377193	0.968786602536052	3.67860220299674	0.0307955836644754	-0.142356253231707	-0.206276207108937	0.0249455280533266	0.0214113321738297	-0.046243980549805	0.28857421875	-0.28173828125	0.486083984375	0	0	0	-0.531687865165869	0.177644264792877	-0.755223216676619	-0.339688713698556	-0.203839183642361	0.324179006242963	0.92377354320382	-0.701984205869703	-0.706108185944037	0.0928945878525925	0.682398535990148	-0.62953888017671	0.371501058443117	14.0390483093422	-67.4841364672556	122.161101891082
16254	1651210046778	8.89418964790414	0.973702480173141	3.68680577388873	0.017917354008576	-0.121856115787184	-0.136320706591707	0.0196911112165307	0.0168335239283757	-0.0312023525888819	0.2763671875	-0.288330078125	0.48193359375	0	0	0	-0.531574771249856	0.177434616825568	-0.755305496714722	-0.339792327687301	-0.203938873231018	0.324654493985702	0.923584536206703	-0.701933557389131	-0.70611626159362	0.0932153749340222	0.682420850352847	-0.62928474051731	0.371890438645254	14.0714398875336	-67.4558738500593	122.135889281966
16255	1651210046778	8.81860883620184	0.927847817697258	3.70569982771615	0.0799912087145641	-0.122401763228189	-0.203338134552437	0.0168040381902493	0.0122318122438309	-0.0343816777568826	0.28466796875	-0.28076171875	0.488525390625	0	0	0	-0.531587662620261	0.177258967820321	-0.755294453600028	-0.339888369377708	-0.203780906623382	0.324974239704112	0.923506949418621	-0.701888961232449	-0.706110309378075	0.093595497167506	0.682513903298523	-0.629126358149724	0.371987630554404	14.1229854964075	-67.4442818513624	122.090503592924
16256	1651210046779	8.84229295217894	0.93110231352273	3.7086812334219	0.074301028129394	-0.114304843326217	-0.179991689990857	0.014667793044951	0.00766665918177053	-0.0207234507080062	0.283203125	-0.282470703125	0.494140625	0	0	0	-0.531487635253989	0.177103970416534	-0.755366244502188	-0.339966048159933	-0.20388795934128	0.325340613252086	0.923354311954195	-0.70185489497519	-0.706114539522434	0.0938187799664064	0.682516964210424	-0.628932224046261	0.372310154469644	14.1435545424093	-67.4214932312308	122.074992458146
16257	1651210046780	8.86453777025164	0.884861441253516	3.73558812507765	0.122023803936538	-0.089581303161351	-0.153768515140785	0.0190732399236022	-0.00146671258427534	-0.015918305542907	0.285888671875	-0.29052734375	0.484375	0	0	0	-0.531539696801153	0.176992054203733	-0.755352183760876	-0.339974178373824	-0.203766217527164	0.325443870458625	0.923344797881908	-0.701757081769286	-0.706182741575572	0.0940368740838611	0.68265388505547	-0.628802212688313	0.372278726946563	14.1762576593593	-67.4200735114666	122.051417256
16258	1651210046780	8.96362062401425	0.936558078913594	3.71938867668077	0.0538106369609848	-0.0806029194473512	-0.0634261041120787	0.0219477399130455	-0.00907956580858687	-0.0111863955975023	0.283447265625	-0.284423828125	0.480712890625	0	0	0	-0.531486938225176	0.176855983436676	-0.755417719424471	-0.339981859513426	-0.203867939395644	0.325663351631522	0.923244953785667	-0.701649932205768	-0.706268592648879	0.0941915477811729	0.68273364932616	-0.628592122478397	0.372487191237349	14.1910075603789	-67.40517956052	122.046905067822
16259	1651210046781	8.96155487521183	0.938434877940751	3.74280977272484	0.0707971823072272	-0.0966852137646187	-0.0564385835829704	0.0233864925023016	-0.00601345633783377	-0.00959944856970898	0.28173828125	-0.284912109375	0.47900390625	0	0	0	-0.531557894004444	0.17675224370606	-0.755406125817925	-0.339950635744644	-0.203759541156745	0.325693484584497	0.92325825395	-0.701509686284312	-0.706384419203372	0.0943674327085489	0.68291010348133	-0.628446343299031	0.372409699332867	14.2192714494946	-67.4071630364472	122.030817740821
16260	1651210046782	8.89334932913675	0.938866084524734	3.6865517043505	0.0456032038737085	-0.0815331843024167	-0.140300491149841	0.0245743389622665	-0.00904386581847374	-0.00189979487402611	0.281982421875	-0.2841796875	0.48388671875	0	0	0	-0.531521408174615	0.176631810689201	-0.75547170546019	-0.339924548030589	-0.203872588596549	0.325839578564994	0.923181746277259	-0.701373933548819	-0.706505010197708	0.0944736783648911	0.683015792611854	-0.628235019404461	0.372572392209458	14.2286667834502	-67.3957555726242	122.033553527899
16261	1651210046783	8.8935958884422	0.964209054148752	3.68499331481854	0.0284401637176928	-0.0987754256790875	-0.138269711877301	0.0199772251335106	-0.0182290726781537	-0.000561069154045432	0.283203125	-0.29052734375	0.480224609375	0	0	0	-0.531624736365527	0.176585778070964	-0.755439934819163	-0.339857481229669	-0.203744064273019	0.325729091510136	0.923249107888815	-0.701238562361647	-0.706628710870595	0.0945533903693085	0.683193116864098	-0.62815318507299	0.372385205334712	14.2470508170938	-67.4057990512053	122.026044741887
16262	1651210046784	8.94283928749396	0.965672039857378	3.68771580878724	0.019040690830938	-0.0840166307272832	-0.0916419869642677	0.0216340874430208	-0.0167006588072368	-0.00354391028582575	0.28466796875	-0.284423828125	0.47705078125	0	0	0	-0.531605307857963	0.176481129367308	-0.755486914023058	-0.339837800096454	-0.203812132565687	0.325849411509651	0.923191624549228	-0.701122631943367	-0.706729361205685	0.0946607890660726	0.683291789498333	-0.62797752430212	0.37250041526896	14.2583421052814	-67.3972281381768	122.025135755627
16263	1651210046784	9.01415072177182	0.967869757495243	3.71689452700161	0.0252013053388981	-0.0810932103920006	-0.0147397061616807	0.0203351945038633	-0.0197748011305911	-0.00817774031758786	0.281982421875	-0.283203125	0.48193359375	0	0	0	-0.53172176530956	0.176416219086975	-0.755438375223607	-0.339797208903573	-0.203619642234854	0.325783015914935	0.923257530615115	-0.701000389683592	-0.706830348928796	0.0948119797106262	0.683474575210814	-0.627898307351251	0.372298563878284	14.2876100006927	-67.4070551600533	122.006048087336
16264	1651210046785	9.06550248838646	0.969516758245941	3.69550589314224	-0.000844207547733185	-0.0501059768818312	0.0248707904202181	0.0140519868288281	-0.0106346291307894	-0.00543633673929789	0.277587890625	-0.284423828125	0.478515625	0	0	0	-0.531679721879263	0.176317048708278	-0.755480483679646	-0.339820850532099	-0.203676925772059	0.325967642209259	0.923179725806725	-0.700944439888418	-0.706868175756887	0.0949435321211673	0.683514887985299	-0.627759889077558	0.372457943354383	14.3007500832849	-67.3954543899169	121.998702542258
16265	1651210046785	9.08784539947002	0.971083424546389	3.72109601314338	0.0125263934811872	-0.059846913762149	0.0551773408516709	0.0111971851373328	-0.00760814134837569	-0.0101582156448388	0.285400390625	-0.287841796875	0.489013671875	0	0	0	-0.531736484510408	0.176260760816192	-0.755452792698486	-0.339822796823682	-0.203553555598888	0.325991607139057	0.923198473827782	-0.700888716393185	-0.706905221910856	0.0950789906755333	0.683608774984468	-0.627705726682543	0.372376910474021	14.3233027997764	-67.3982492215104	121.981211577049
16266	1651210046786	9.06585459889019	0.972145284828672	3.6939512557472	-0.00294669468154807	-0.0478256568848771	0.0248817354645308	0.0142918558056679	-0.00301330276411497	-0.0115577530916428	0.283447265625	-0.287109375	0.484619140625	0	0	0	-0.531661615549674	0.176131323465577	-0.755514169701977	-0.339870597176201	-0.203647807452406	0.326269576098163	0.923079484244208	-0.700838632028607	-0.706931468138713	0.0952528803318512	0.683632051893486	-0.627531722758275	0.37262736689075	14.3391717021515	-67.3805165896061	121.971189180148
16267	1651210046787	9.01755948054369	0.924473856455371	3.68982731945131	0.0386166050471044	-0.0260362119212932	-0.0257732864359106	0.0128592570997552	0.00613464435212942	-0.0147057657459914	0.2880859375	-0.283447265625	0.484375	0	0	0	-0.531673201709527	0.17603335496144	-0.755516791007738	-0.339897400740768	-0.20358672710722	0.326411952079036	0.923042622030924	-0.70078082183911	-0.706964029821378	0.0954363677075943	0.683709502850642	-0.627420989510768	0.372671729049921	14.3640120861946	-67.3750258052437	121.952244017893
16268	1651210046788	8.93950306930777	0.950005580238432	3.73217440152901	0.0642922721532524	-0.0921445132694731	-0.0795621117778147	0.0127036672297789	0.00919822696857615	-0.0116672914305102	0.284912109375	-0.28173828125	0.481689453125	0	0	0	-0.531553991615265	0.175880792037896	-0.755608589716288	-0.339958762406508	-0.203756787721829	0.326771247934957	0.922877956709506	-0.700731796159748	-0.706987973710316	0.0956187998236537	0.683709091140388	-0.627206948743406	0.373032601980004	14.3769865732369	-67.3505136013906	121.945422382596
16269	1651210046788	8.89069041046251	0.926609043330216	3.72856726887014	0.0887011606541834	-0.0876080630575756	-0.128181652648111	0.0157522079534183	0.00921550156745433	-0.0115277968102426	0.29052734375	-0.28857421875	0.487060546875	0	0	0	-0.531556103151814	0.175775102580816	-0.75562726852849	-0.339968606743234	-0.203738911262246	0.326910442279715	0.922832606037604	-0.700647756515591	-0.707048919483536	0.0957838543118551	0.683800539139408	-0.627065696865684	0.373102445029524	14.3981888283132	-67.3437670790412	121.932211314336
16270	1651210046789	8.89018268854927	0.92819615141606	3.72938304230215	0.0867201177050082	-0.0851834983657973	-0.128142081199524	0.0142114732348027	0.012261821044531	-0.0116081866478698	0.29150390625	-0.28369140625	0.484619140625	0	0	0	-0.531425518997911	0.175606541855148	-0.755731055303556	-0.340029163845177	-0.203934170985101	0.327297602363803	0.922652227760561	-0.700584792943004	-0.707085020384851	0.0959777153529001	0.683806845389564	-0.626822984130496	0.373498520430954	14.4114543150346	-67.3169522009827	121.926407487776
16271	1651210046790	8.88490282225358	0.954518832087697	3.77870708751065	0.103511548418814	-0.134576110049371	-0.112047901636773	0.0172683275427866	0.0107520585564586	-0.0114629857106891	0.28955078125	-0.2900390625	0.486328125	0	0	0	-0.531424458425334	0.175492690269227	-0.755755111377872	-0.340036133779381	-0.203926945423422	0.327445876546017	0.922601213343709	-0.700490308081733	-0.70715548677288	0.0961480411166596	0.683905789720947	-0.626666031838349	0.373580721298819	14.4329178925914	-67.3093738873388	121.913850214957
16272	1651210046791	8.91081150515911	0.98050812557	3.75696269001141	0.0635409280259071	-0.126793926840802	-0.0937053042104914	0.0200702925422464	0.0046790222497468	-0.0052037826946045	0.286865234375	-0.28955078125	0.480712890625	0	0	0	-0.531317394066906	0.175324650588102	-0.755865138592588	-0.340045564474116	-0.204141681686864	0.327751102505723	0.922445330956985	-0.700363248370367	-0.707260561955279	0.0963006637298492	0.683971851855152	-0.62638782899174	0.373926187316224	14.4420732417208	-67.2862320255983	121.916954713957
16273	1651210046791	8.8820709031382	0.957222994253759	3.80376278118137	0.118298462948624	-0.148066188367969	-0.104950629149238	0.0169517023151814	0.00466610803415589	-0.00381956564290499	0.291748046875	-0.284423828125	0.483154296875	0	0	0	-0.531332266182303	0.175242724928697	-0.755885526763467	-0.3400192357833	-0.204145884421837	0.327807009962889	0.922424534632951	-0.700255466636195	-0.707353813313812	0.0963995033002451	0.684080945005597	-0.626253261077018	0.373952020546286	14.4553184266452	-67.2831463497751	121.913098618462
16274	1651210046792	8.90876700198831	0.933972185183204	3.78191457151464	0.11288776216692	-0.105896557551328	-0.0906837856625007	0.0200256624858401	0.000101781337879595	-0.00366204121932157	0.28271484375	-0.279052734375	0.484130859375	0	0	0	-0.531249874153409	0.175092643068333	-0.755974617713932	-0.340027226744574	-0.204310112568761	0.328068016310638	0.922295372739202	-0.700139794691596	-0.707448102831479	0.0965476550173665	0.684150309355591	-0.626010030649786	0.374232275110665	14.4662151206376	-67.2639907028002	121.913310433747
16275	1651210046793	8.88390359339224	0.983615863721295	3.77903630644059	0.0822030671763724	-0.146755040061516	-0.109900951444157	0.0215584343818626	-0.00141655058404064	-0.00358603621675854	0.286865234375	-0.28466796875	0.481201171875	0	0	0	-0.531295532247704	0.175004473902195	-0.755983036427973	-0.33998255861292	-0.204273834505284	0.328083903770301	0.922297757030423	-0.700000284200686	-0.707570587906457	0.0966616017282521	0.684303881806517	-0.625863256004498	0.374196983055691	14.4838791891814	-67.2643441720416	121.907500020405
16276	1651210046794	8.9061358144323	0.985237194828649	3.80490020994045	0.0935667779051439	-0.15367710135258	-0.0795048672370129	0.0231253896855696	-0.0090446334123608	-0.00348539995102653	0.281494140625	-0.288818359375	0.48974609375	0	0	0	-0.531245136627381	0.174855228639388	-0.756048399837294	-0.339992751291389	-0.204367067758132	0.328319971483181	0.922193091462534	-0.699883930797356	-0.707661156173557	0.0968409595922397	0.684395050411372	-0.625637022856214	0.374408507654444	14.5017693887663	-67.248832482835	121.900740094852
16277	1651210046795	8.87943029332684	1.03479952331502	3.82543692256665	0.0798600218578513	-0.210608277730465	-0.0916623954572113	0.0153111029430266	-0.0121284969775298	0.00075014651521764	0.287109375	-0.2939453125	0.492431640625	0	0	0	-0.531316946171093	0.17482030265135	-0.756030215205801	-0.339938933027955	-0.204287649046479	0.328238230721066	0.92223978462229	-0.699778188054753	-0.707758767185412	0.0968917694904577	0.684526876002593	-0.625569493633833	0.374280328984628	14.5138160905509	-67.255751283909	121.897149594728
16278	1651210046795	8.85982405740332	1.05895669803227	3.773088691413	0.029132817030024	-0.199048139881753	-0.126945220647022	0.0122011918182495	-0.0136684813562903	0.00214106987417333	0.281005859375	-0.283203125	0.48388671875	0	0	0	-0.531211665787184	0.174726040133183	-0.75613570402852	-0.339917304832038	-0.204540784014657	0.328414199530208	0.922121023088402	-0.699680242872393	-0.707854073550201	0.0969028807229942	0.684551404504218	-0.625369270195873	0.374569954061965	14.5046601614941	-67.2381575952497	121.915206036524
16279	1651210046796	8.88333081957952	1.01036813627159	3.79803997395146	0.0767942325085367	-0.174260314651532	-0.100671449323004	0.0102734403958138	-0.028911956401317	0.012806373415116	0.28564453125	-0.283203125	0.48583984375	0	0	0	-0.531327512500828	0.174770886475857	-0.75608921766855	-0.339816577914446	-0.204431535668395	0.328142140354712	0.922242095627656	-0.699584461829839	-0.707959661229916	0.0968230284461136	0.684681917382456	-0.625392559753193	0.374292423400251	14.503504623691	-67.2560937709746	121.922778188246
16280	1651210046797	8.88437768481178	1.03365239421554	3.795052755344	0.0574513513467184	-0.188241204615198	-0.0985588328266154	0.00391473513444357	-0.0319794555110854	0.0186384818342823	0.288818359375	-0.2900390625	0.48095703125	0	0	0	-0.531295749249754	0.174775186660366	-0.756125498769365	-0.339783300160198	-0.204544271522774	0.328123007120291	0.922223906210176	-0.699552262108231	-0.708001886120158	0.0967468957101761	0.68468114737188	-0.62535479645449	0.374356921913952	14.4901889948638	-67.2533982622656	121.938456372655
16281	1651210046797	8.86411355302664	1.00728153944302	3.76546560174038	0.0613077294259258	-0.161336910717167	-0.130948540843754	0.000985423509940599	-0.0411671691158772	0.0170151382467449	0.293212890625	-0.283935546875	0.4794921875	0	0	0	-0.53143838966959	0.174887040321871	-0.756045545085157	-0.339680577704609	-0.204380686231313	0.327744600885573	0.922394715773011	-0.699511349216516	-0.708063256515439	0.0965934629777889	0.684771792214682	-0.625483733891704	0.373975522225699	14.4823091482627	-67.2787226384528	121.94755826995
16282	1651210046799	8.84382439871627	1.00515693563489	3.73510484941373	0.046360207668582	-0.148598279921258	-0.161244669650721	-0.00217673592069034	-0.045754683361165	0.0199455657610938	0.278076171875	-0.285888671875	0.4794921875	0	0	0	-0.531472704831752	0.17493479382479	-0.75602838478677	-0.339640491291907	-0.204362201387627	0.327609567992719	0.922446779821811	-0.699501840165703	-0.70808430916894	0.0965079619178645	0.68478702254701	-0.625530640391316	0.373869163856599	14.4739718759264	-67.2864470171897	121.95583331647
16283	1651210046799	8.87254866896233	0.978909226933016	3.70905004972461	0.042912431284137	-0.10891472389367	-0.147092225073576	-0.0067335846898115	-0.0488346448208117	0.0197527221287888	0.287841796875	-0.2822265625	0.485595703125	0	0	0	-0.531629099184148	0.175096467713238	-0.755925514112845	-0.339541374516022	-0.204164311784844	0.327163221385782	0.922648990876758	-0.699508730988641	-0.708105763972236	0.0963003753884556	0.684839009595746	-0.625739924890345	0.373423455789997	14.4606600921744	-67.3164712828983	121.965986064652
16284	1651210046801	8.90325975655535	0.976635539439239	3.65828831782383	0.00336318395936369	-0.0671947670332917	-0.137957606140507	-0.0128913442598895	-0.0503892970795177	0.0210104184764064	0.27978515625	-0.2939453125	0.482666015625	0	0	0	-0.531643357877005	0.175206136889314	-0.755892066659112	-0.339536939350347	-0.204140013683722	0.327012199712301	0.922707903972071	-0.699600915458274	-0.708034952825843	0.096151259309753	0.684752082072888	-0.625898974928246	0.37331629924317	14.4431765691536	-67.3252257732709	121.974805553479
16285	1651210046801	8.90360826025463	0.92555696354387	3.67872770118482	0.0546754856759675	-0.0487942207945015	-0.13495205820875	-0.0144913264422467	-0.0488637888127118	0.0224603818139805	0.28369140625	-0.276123046875	0.48486328125	0	0	0	-0.531784131999752	0.175404373123176	-0.75578695830248	-0.339448105757598	-0.203961240901697	0.32654637808361	0.922912387591756	-0.699655427324684	-0.708016578773688	0.0958895572870926	0.684749658798712	-0.626162907829965	0.372877885685072	14.4217348037766	-67.3556369298039	121.98894676002
16286	1651210046802	9.02736834975862	0.923896313986963	3.68496497194786	0.0342060372325382	-0.0136682439840992	-0.0185784035322687	-0.0223456776181145	-0.0565176094656971	0.0282518172025209	0.286865234375	-0.284423828125	0.47998046875	0	0	0	-0.531795192737463	0.175585740872645	-0.755746418992042	-0.339427268739907	-0.203966004434182	0.326290579898232	0.923001802005191	-0.699793191535506	-0.707917553675942	0.0956149898186471	0.684607448188891	-0.626408169380912	0.372727041167058	14.3877341680041	-67.3689469605707	122.009725758751
16287	1651210046803	9.07889838516966	0.848209060738275	3.68518188917669	0.0783825321618569	0.0508534625198864	0.0218277581042088	-0.0174660360970596	-0.0504112421729925	0.0208063847752761	0.288818359375	-0.283935546875	0.478515625	0	0	0	-0.531937868893748	0.175793415994475	-0.755631931921254	-0.33935108956761	-0.203765883292106	0.325826688679806	0.92320985358159	-0.699871388958418	-0.707875025804538	0.0953571536888495	0.684587104555441	-0.626697627876615	0.372277557059542	14.3671503457945	-67.3999458000409	122.021086227136
16288	1651210046804	9.05867152841659	0.845504420578951	3.65441835643762	0.0637627839268909	0.0631878838577415	-0.00854942939111858	-0.0112491793510283	-0.0473359246991514	0.0180122987085275	0.287109375	-0.28369140625	0.484619140625	0	0	0	-0.531980703131657	0.175894355758541	-0.75557962035658	-0.33934811685	-0.203678774171812	0.325664236489849	0.923286392200899	-0.699953848703124	-0.707808062405293	0.0952489185227259	0.684528718636079	-0.626857680710342	0.37211541421567	14.357511815432	-67.4113598851814	122.022918188172
16289	1651210046804	9.13537668052703	0.868752378900565	3.63206584392405	0.0186246396338441	0.0812562234287558	0.056192448688833	-0.0124415246604333	-0.0473693106551357	0.0103236754244789	0.277099609375	-0.292724609375	0.4814453125	0	0	0	-0.53212977880172	0.176050095610484	-0.755459568715048	-0.33930090242268	-0.203425592255174	0.325293229947272	0.923472979012436	-0.700019223688186	-0.707762522901388	0.0951067697025312	0.68453715376349	-0.627101686911088	0.371688524695943	14.3527549808801	-67.4392082164879	122.020240933359
16290	1651210046805	9.18583224805483	0.843729670252647	3.63272163701917	0.0261357612605987	0.113482993226036	0.100662110752394	-0.0107017198752916	-0.0366912233148873	0.004251059331901	0.287109375	-0.279296875	0.480224609375	0	0	0	-0.532118601016199	0.176128387962318	-0.755437370371987	-0.339327223858942	-0.203413659201495	0.325238548571757	0.923494867215404	-0.700123314178745	-0.707671652203958	0.0950167227928395	0.684434239495387	-0.627232587793283	0.371657170812717	14.3408863043796	-67.4424771953544	122.023060165798
16291	1651210046807	9.11401972862202	0.842527925448543	3.62361961697333	0.0371583246229202	0.0941936428294322	0.0308676025894865	-0.00597968209615871	-0.0259931888651982	-0.000165375062040501	0.281982421875	-0.28125	0.4775390625	0	0	0	-0.532206686472126	0.176195747179104	-0.755362336518403	-0.339321148942732	-0.203234401509088	0.32507572223764	0.923591659151879	-0.700165941344326	-0.707632433112363	0.0949947061098249	0.684443885665331	-0.627361231205081	0.371422203100715	14.3463963196679	-67.456938350113	122.013250192536
16292	1651210046807	9.18758970027362	0.867521477092546	3.62767423548753	0.00784409293214591	0.0982923254290429	0.102689340827258	-0.005941911169548	-0.0198890868114078	-0.00171261544322844	0.280517578125	-0.278076171875	0.48193359375	0	0	0	-0.532188451614525	0.176208772857091	-0.755336409275695	-0.339400691158447	-0.203165245618606	0.3251708507552	0.923573386792772	-0.700275946706043	-0.707515278418733	0.0950564530635239	0.684351869609258	-0.627444060154531	0.371451840672665	14.3542382088206	-67.4542077035208	121.996951835257
16293	1651210046808	9.11553837407432	0.818167018585864	3.62052809998446	0.0532235610354146	0.113453983267265	0.0288042033139764	0.000231076447136205	-0.00765133975505441	-0.00454525316366833	0.2841796875	-0.2919921875	0.472900390625	0	0	0	-0.532221760179157	0.176209609780598	-0.755308218650128	-0.339410763312449	-0.203080663478921	0.325154300700588	0.923597815532753	-0.700284655412237	-0.70750101433726	0.0950984548029711	0.684368062898267	-0.627468720692641	0.371380342825539	14.36296881287	-67.45785843879	121.987541703973
16294	1651210046810	9.01604758477932	0.842396547129591	3.63588697437882	0.0663224278560429	0.0555017913479745	-0.0550779766308746	0.00338273293642857	-0.00153743977144353	-0.00748618241700208	0.288330078125	-0.282470703125	0.482421875	0	0	0	-0.532158297637995	0.176189133834413	-0.755325694823775	-0.339482002634444	-0.203119032284677	0.325317939992788	0.92353175183238	-0.700359978087324	-0.707418718011973	0.0951559693336119	0.684279591846242	-0.62747668906912	0.371529870747421	14.365751177131	-67.4479868881016	121.979453165127
16295	1651210046811	9.0162519832234	0.818741542304882	3.63594771601026	0.0834912719033489	0.0727191123147503	-0.0571251317374397	0.00934287230529075	2.99850451724214E-05	-0.0041816954461442	0.280029296875	-0.28955078125	0.486083984375	0	0	0	-0.532177523582928	0.176143702451909	-0.755326699032514	-0.339473205435012	-0.20309005236964	0.325346912611258	0.923527918951463	-0.700305790073598	-0.707462677756424	0.0952279369255955	0.684343649797301	-0.627412102239058	0.371520958959351	14.3764965701296	-67.4474142865996	121.973488583967
16296	1651210046813	9.03582526317714	0.869184898077838	3.68636349491461	0.07721173094877	0.0140065334347446	-0.0155072374618417	0.0126390266906666	0.00307919419721263	-0.010160540490552	0.28466796875	-0.289306640625	0.482177734375	0	0	0	-0.532088841892238	0.176043763979766	-0.755401969311768	-0.33949657179052	-0.203247084152522	0.325570912813619	0.923414426740889	-0.700254602806994	-0.707501341812641	0.0953170634300636	0.684349409315969	-0.627252287411548	0.371780114995227	14.3797791727005	-67.4304657054557	121.975667363684
16297	1651210046813	8.91626972636536	0.844609158697781	3.65212921118029	0.0958481354930762	0.0151000868191147	-0.140983104805297	0.019978403785068	0.00772003583107476	-0.00375352180953009	0.287109375	-0.28369140625	0.483154296875	0	0	0	-0.532096419487502	0.17594616465974	-0.755433766694483	-0.339464536657208	-0.203274457441375	0.325645298696292	0.923382171361846	-0.700126595648317	-0.707613550987269	0.0954243811878573	0.68447223831052	-0.627087076805279	0.371832695020216	14.393345946167	-67.4256509862509	121.973253679461
16298	1651210046815	8.93757236650535	0.919398750294754	3.6782761213897	0.0557050727350438	-0.0451184657135379	-0.104439824979439	0.0200654291888163	0.00313302196244798	-0.00526005146952514	0.287841796875	-0.284912109375	0.48095703125	0	0	0	-0.53203072663476	0.17584199189126	-0.755512223161307	-0.339446874279411	-0.203438250916854	0.325805839826367	0.923289463169014	-0.700019210701611	-0.707710826859303	0.0954907859157885	0.684533405110799	-0.626893882791304	0.372045799608407	14.3950386090849	-67.4118179679226	121.981298998551
16299	1651210046815	8.96146494350132	0.94538713764568	3.68031800955726	0.0348219014858552	-0.0559181768633864	-0.0791365280663569	0.0231725942023486	0.00467035906670984	-0.00665989554782129	0.283203125	-0.280517578125	0.482421875	0	0	0	-0.532057661167132	0.175729852283189	-0.755533836838634	-0.339414621962259	-0.203424719183157	0.325881634814482	0.92326569508235	-0.699875291626638	-0.707833466829491	0.0956366007691229	0.684684569561621	-0.62671599893954	0.37206732841978	14.4153051190244	-67.4082728170478	121.973599822678
16300	1651210046816	8.95895830430209	0.971382038685961	3.70451302316692	0.0331551389446712	-0.0879153908517886	-0.0699410771570985	0.0201382425979379	0.00160036108038343	-0.00677813131782054	0.28466796875	-0.29150390625	0.476318359375	0	0	0	-0.532011813892929	0.17561297947058	-0.755592136027811	-0.339417199465129	-0.203518789171209	0.326065573994299	0.92318001706604	-0.69977829299944	-0.707912092297429	0.0957643473630352	0.684755754339514	-0.626531492452571	0.372247022639643	14.4270797724025	-67.3954978064349	121.970975952326
16301	1651210046818	9.03396721025692	0.973163920853148	3.68627739315079	0.00510734840633679	-0.0525422111086229	-0.00730793434533083	0.0200219219748352	-0.00144241331754266	-0.00371623534278518	0.2861328125	-0.283447265625	0.480712890625	0	0	0	-0.532053921835312	0.175530733967178	-0.755599740419278	-0.339376808239643	-0.203484012577473	0.326082425600659	0.923181730939126	-0.69964968724013	-0.708024686924033	0.0958715695652954	0.684897489972155	-0.626395477650115	0.372215171385216	14.4437419356652	-67.3957532862215	121.965248173423
16302	1651210046819	9.0115888836049	0.997938109364327	3.65922269198723	-0.026765510236346	-0.0596087880521929	-0.0356604243717378	0.0122833369957324	-0.00452445202993971	-0.000981174136262239	0.2841796875	-0.2783203125	0.4775390625	0	0	0	-0.532021666814709	0.175511841034476	-0.755629062867962	-0.339371859537106	-0.203559373988051	0.326126275945802	0.923149626766601	-0.699630684797322	-0.708044669222031	0.0958626688356534	0.684894507315997	-0.626350060688101	0.372297079392775	14.4394124715539	-67.3909681077949	121.971316905646
16303	1651210046820	9.03551163815979	1.04750405331923	3.66057213600707	-0.0648391749126852	-0.0876327413545158	-0.00831894597192573	0.00921227743882748	4.14829860250346E-05	-0.0011321224345106	0.281982421875	-0.285400390625	0.477783203125	0	0	0	-0.532037428882589	0.17547532133482	-0.755635438172833	-0.339351838727591	-0.203553007640416	0.326133673112712	0.923148417288657	-0.699571428294007	-0.70809748230929	0.0959050168757015	0.684956925503513	-0.626286502177123	0.372289171740892	14.4458183415013	-67.3907878519246	121.969928279362
16304	1651210046821	9.03584050694739	1.0231961417601	3.66052949434536	-0.0485606395488881	-0.0693884415457605	-0.010358695909785	0.0014157031773265	-0.0045615462731366	0.00313472432091769	0.282958984375	-0.28369140625	0.478759765625	0	0	0	-0.531994577661854	0.175485780488577	-0.755648369262016	-0.339384814357326	-0.203599434244059	0.326196195689447	0.923116088199762	-0.699626130396174	-0.708045377259917	0.095890674248013	0.684887252065898	-0.626312849667475	0.372373020369402	14.4406319959428	-67.3859701553096	121.970864155067
16305	1651210046821	8.98995519281379	0.973135374446195	3.63211467596252	-0.0237726917310355	-0.0317875369215926	-0.0681007524447157	-0.00037781807950111	-0.00301761766139118	0.00916049448855148	0.291748046875	-0.28271484375	0.48388671875	0	0	0	-0.531996533888282	0.175518048016241	-0.755655710030333	-0.33934871540935	-0.203644274561755	0.326111602622112	0.923136085348988	-0.699611575340021	-0.708071728341185	0.0958022503607294	0.684888788847116	-0.626327111148131	0.372346205502844	14.4288675498515	-67.3889500255069	121.983207792857
16306	1651210046823	8.987858753101	0.996806822576638	3.65591374191736	-0.0248367105803443	-0.0638128937891454	-0.0589062979762556	-0.0064684184949692	-0.00457621911488567	0.0089059484333695	0.289794921875	-0.28271484375	0.48486328125	0	0	0	-0.53194061790832	0.175541379689843	-0.755685713155897	-0.339357489924658	-0.2037513461027	0.326140033615632	0.923102414380188	-0.699650393538409	-0.708043436097244	0.0957278403661002	0.684817286422362	-0.626344291163257	0.372448806071802	14.414321579498	-67.3839327686672	121.994495389304
16307	1651210046823	8.98663047890536	0.922703649486323	3.68074803461656	0.0436344056972168	-0.0282050500075182	-0.0578877279869676	-0.00801455547595262	-2.21856592395331E-06	0.00882040198610758	0.29248046875	-0.286376953125	0.48046875	0	0	0	-0.531918684973837	0.175596376214358	-0.755693684262671	-0.339345665659073	-0.203814063548209	0.326076765596722	0.923110919899632	-0.699688739685171	-0.708020863717572	0.0956144554886859	0.684759443204503	-0.626402745427095	0.372456850472179	14.3976606048949	-67.3852000628604	122.007415591015
16308	1651210046824	8.93594038910964	0.921413257450205	3.70103108760158	0.0673883436070291	-0.0559289288044145	-0.0972360169401121	-0.00643186922440167	0.00152670585685416	0.00735452967160166	0.27978515625	-0.286376953125	0.48486328125	0	0	0	-0.531854223808547	0.175591724443984	-0.755737045205561	-0.339352544454529	-0.203941870378489	0.326144177835391	0.923058876112787	-0.699700979080828	-0.70801479375805	0.0955698262689468	0.684708882211889	-0.626374510244329	0.372597261847592	14.3860213416341	-67.3774467646353	122.018236544786
16309	1651210046825	9.01119665678177	0.896834707175487	3.68343400416024	0.0565101550014654	-0.00330856696057229	-0.0366728688972575	-0.00325926813005926	0.00305723881861203	0.00442954985092322	0.2890625	-0.285888671875	0.47705078125	0	0	0	-0.531833072177602	0.17561183742309	-0.75574953513672	-0.339347470943355	-0.203993754604964	0.326131020815574	0.923052059931595	-0.699715752845476	-0.70800755304247	0.0955152870209978	0.684678328342631	-0.626389545009019	0.37262813179004	14.3770102843758	-67.3764315006693	122.025827912557
16310	1651210046827	8.96239277284035	0.895830925901634	3.6797657422764	0.0625827006636373	-0.0153536799533548	-0.0831693480857307	-0.00328045913305463	0.00763900368399876	0.00440971065265361	0.288330078125	-0.291015625	0.480224609375	0	0	0	-0.531724396687185	0.17562336365133	-0.755812073999258	-0.339372522317854	-0.204190914126534	0.326237245739478	0.922970925912886	-0.699770154066188	-0.707965450470821	0.0954287819152628	0.684563950311696	-0.626381816811413	0.372851200214884	14.356289852096	-67.3643499759721	122.042326110828
16311	1651210046828	8.96235560486602	0.871086299635683	3.68069462292888	0.0797507979164507	0.00185456333088021	-0.0852129437550246	-0.0046085621115784	0.00761356858912065	-0.000229127303772966	0.2861328125	-0.27880859375	0.48095703125	0	0	0	-0.531687581038852	0.175628691325565	-0.755827712601999	-0.339392616029215	-0.204241936707799	0.326285501190923	0.922942578388513	-0.699803877398558	-0.70793442993623	0.0954116140142747	0.684514254393429	-0.626391742141811	0.372925757904647	14.3510626723916	-67.3601302356894	122.044952900344
16312	1651210046829	8.91765324401138	0.870129941894201	3.62848460966177	0.0524329423689965	0.0219057269698663	-0.146026254869584	0.00295529905254343	0.00613008928125771	0.00162917111093919	0.2802734375	-0.2841796875	0.473876953125	0	0	0	-0.531618159926669	0.175599527488339	-0.755875790398648	-0.339409380352508	-0.204366809129818	0.326398871910648	0.922874847279713	-0.699806462660022	-0.707932156949197	0.0954095172219476	0.684474340019671	-0.626335243757458	0.373093875964109	14.3445606910625	-67.350050971103	122.051751195161
16313	1651210046830	8.89116332616674	0.869789454403063	3.65095809475776	0.0730729616196839	-0.000622075131504522	-0.16211878135201	0.0042455999227055	5.24283786002848E-05	0.00781887821346625	0.28173828125	-0.2890625	0.484619140625	0	0	0	-0.531617992271748	0.175605728535914	-0.75589262389271	-0.339368943103108	-0.204422061500071	0.326342632068447	0.922882499165901	-0.699763291411168	-0.707982697124901	0.0953511225165121	0.684501977181563	-0.626307422170925	0.373089876796653	14.3362905198341	-67.3511894577645	122.063159690191
16314	1651210046831	8.98657273670763	0.870376477775383	3.6832698460691	0.0734974589918067	0.0096451123115111	-0.0619424398946027	0.00726377006372153	-0.00756284346508273	0.00950739497455764	0.2900390625	-0.284912109375	0.4833984375	0	0	0	-0.531567809971894	0.175650444554429	-0.755930974664073	-0.339338984310586	-0.204569434257488	0.326293454038061	0.922867232281807	-0.69977394256761	-0.707991950109783	0.0952041379517162	0.684447058486596	-0.626322584960544	0.373165169459032	14.312330272408	-67.3489180266872	122.085624547233
16315	1651210046831	8.96289283974314	0.845146411770907	3.68049493628974	0.0943663053104896	0.020388701684635	-0.087234022708504	0.0117854575899778	-0.0105889459921824	0.0112415192998997	0.2783203125	-0.286865234375	0.478759765625	0	0	0	-0.531617094770171	0.175655706372091	-0.755932277231526	-0.339256141590105	-0.204577069883037	0.326146182751311	0.922917596513806	-0.699672487956644	-0.708100686424634	0.0951410924970044	0.684548487745486	-0.626276365003272	0.373056674734091	14.3072304734514	-67.3564121150305	122.098229367676
16316	1651210046831	8.98970020265178	0.868930232493418	3.65670743452056	0.0551153146713121	0.0263374208255197	-0.069098337679053	0.0147307824973513	-0.01667083691502	0.0144481997736378	0.274658203125	-0.28076171875	0.4833984375	0	0	0	-0.53162258700186	0.175675359217274	-0.755964142735655	-0.339166342745382	-0.204687233876344	0.326009209197463	0.922941564675952	-0.699581164955737	-0.708208720225207	0.0950084324475887	0.684608888291135	-0.626225521769449	0.373031186306663	14.2890348465829	-67.3599793508189	122.122953459224
16317	1651210046832	8.99063544212864	0.844021847929318	3.65527035215416	0.0722689476926507	0.0435371436842228	-0.0711381363623982	0.0224837889947264	-0.0166469259161452	0.011725374329617	0.278076171875	-0.28662109375	0.48291015625	0	0	0	-0.531712238989572	0.175651915632154	-0.75595968120263	-0.339047872489223	-0.204657270138456	0.325820496511607	0.923014845943664	-0.699405589885927	-0.708385889390572	0.0949802745239625	0.68479721276871	-0.626123339099621	0.372856998886902	14.291373501784	-67.3708892721774	122.134117214193
16318	1651210046833	8.98918550688677	0.868428818736525	3.67734922102349	0.0695352396551222	0.0114105527572259	-0.0619152853711036	0.0195330200159518	-0.0243037212857453	0.0101058297535919	0.282958984375	-0.287109375	0.4794921875	0	0	0	-0.531709885420418	0.175647531697344	-0.756006587544377	-0.338949232104667	-0.204796031603726	0.325708646722125	0.923023544060393	-0.699282762534821	-0.708522725328574	0.0948639326332186	0.684881160100813	-0.626026696829626	0.372865084709674	14.2742868642486	-67.3721845556689	122.16047553479
16319	1651210046833	8.94337765505472	0.892128086149615	3.64627304137149	0.0427958759044751	-0.0026920193204453	-0.113544914857748	0.0241715143537794	-0.0242887280911358	0.0087760598121625	0.283935546875	-0.288818359375	0.476318359375	0	0	0	-0.531832848533687	0.175622518603381	-0.755979202704855	-0.338830336979559	-0.204695647925725	0.325493727333056	0.923121619932662	-0.699101024675042	-0.708701467403447	0.0948682633893312	0.685096671294332	-0.625936149752541	0.372621104359899	14.2838762695827	-67.3867944278795	122.164859292156
16320	1651210046834	8.9684402698993	0.916816876212172	3.64577557800694	0.0204062742107481	-0.0135654155151321	-0.0882566492306065	0.0256247928624829	-0.0227473802734408	0.0103578993241882	0.2822265625	-0.283203125	0.4765625	0	0	0	-0.531886824729854	0.175653854658579	-0.755978492361595	-0.338730937632018	-0.204715515139455	0.325290665082743	0.923188789506899	-0.699002549106387	-0.708814150469033	0.0947519732651297	0.685191209958184	-0.625914118154312	0.372484258044753	14.2721097109353	-67.3968055058009	122.18348145398
16321	1651210046835	8.94919185442436	0.916373441216959	3.59266220471497	-0.00980496842646477	0.0120650836360157	-0.125853280535477	0.0228470423706251	-0.0258435217629112	0.00414584571309943	0.27783203125	-0.2900390625	0.47021484375	0	0	0	-0.532017129023691	0.175624903693163	-0.755937970173036	-0.338631736372753	-0.204572643093126	0.325098260763782	0.923288229398738	-0.698840088955378	-0.708968880647882	0.0947927019433896	0.685399565047084	-0.625838834781969	0.372227335256312	14.287445468399	-67.4116339308053	122.180731053288
16322	1651210046837	8.99663399823626	0.941813525265672	3.61814612351861	-0.0189261118239784	-0.00869949591204367	-0.0701526458357087	0.0167680463412325	-0.0304528258612586	0.00391158924051681	0.287109375	-0.284912109375	0.485107421875	0	0	0	-0.53209066494169	0.175720291117839	-0.755878513533679	-0.338599433474847	-0.204459895864846	0.32488181982735	0.923389383807615	-0.698878326005904	-0.708945605879949	0.0946848105173059	0.685394219717472	-0.625977580308738	0.372003807142744	14.2800734137538	-67.4267274943311	122.183693648682
16323	1651210046837	9.02616290656023	0.941610240936591	3.56878079693976	-0.0565898218912814	0.0298537377107388	-0.0612593272969732	0.016562849813702	-0.0273762927805646	0.00846942286154273	0.280517578125	-0.2900390625	0.484619140625	0	0	0	-0.532211789384111	0.175730129385151	-0.755835810600859	-0.338499276631699	-0.204337701920759	0.324648457063905	0.923498501839483	-0.698751043498995	-0.709074322692189	0.0946603618611292	0.685560415122409	-0.625952861024406	0.371739065733683	14.2862881524232	-67.4430200659043	122.186812199602
16324	1651210046838	8.97892199251045	0.89231196013502	3.5626553920228	-0.0167307300168801	0.0520163026803896	-0.111822038493152	0.0166845706428743	-0.0258637491150437	0.00541235112323939	0.281982421875	-0.284423828125	0.482666015625	0	0	0	-0.532245555084945	0.175730016863384	-0.755853922662726	-0.338405788752029	-0.204392382462871	0.324507645018913	0.923535891189633	-0.698633726501067	-0.709200966624624	0.0945775086050136	0.68566367133339	-0.625882398908116	0.371667260531027	14.2769400683189	-67.448605290174	122.204931886412
16325	1651210046839	9.02593661942719	0.96640830734845	3.58772631313874	-0.0589297230934708	-0.00278866676725279	-0.052063620917103	0.0167546059195146	-0.0273982764719817	0.00389589758389522	0.28173828125	-0.29052734375	0.47998046875	0	0	0	-0.532370551038306	0.175727091613417	-0.755803976451683	-0.338322235213833	-0.204239323094174	0.324306724204086	0.923640323685605	-0.69851443858246	-0.709316108866012	0.0945951203551796	0.685830793996496	-0.625856058802018	0.371403171320521	14.2892278043613	-67.4642123751559	122.201578668189
16326	1651210046840	9.1020262095581	0.942654005996941	3.56747692711548	-0.0717665997377407	0.0501251798304582	0.00844831513571265	0.0122135185177438	-0.0197905452751404	0.00213964078989422	0.279052734375	-0.28369140625	0.477294921875	0	0	0	-0.53238055345692	0.175759267150565	-0.755810524255683	-0.33827515092887	-0.204281737129907	0.324202206490839	0.92366763566862	-0.69848547017404	-0.709357204549493	0.0945008164487444	0.685847665178601	-0.625863631840196	0.3713592526232	14.277184385573	-67.4682957494302	122.215272925188
16327	1651210046841	9.05415528883817	0.918046383426	3.56212769046223	-0.0472165089157176	0.0543820090404918	-0.040067247843881	0.0121826081767348	-0.0121546468732346	0.00209799672431692	0.286376953125	-0.2861328125	0.4794921875	0	0	0	-0.532441115804376	0.175743457758099	-0.755794505817707	-0.338223831555356	-0.204222195938011	0.324109341764221	0.923713391300256	-0.698401512740386	-0.709437753646483	0.0945166689159752	0.685950888685332	-0.625820428143885	0.371241390512437	14.2838294118744	-67.4751381788273	122.215143023175
16328	1651210046843	9.00381761222673	0.942422964196751	3.58073251742911	-0.0410732271258776	0.00828326719330271	-0.0773505866349993	0.0106132222151196	-0.0167350139529495	0.00358454440942766	0.28076171875	-0.287353515625	0.488037109375	0	0	0	-0.532469038951516	0.175777094580395	-0.755781914513775	-0.338190528064902	-0.204207778570463	0.324004848300807	0.923753236231889	-0.698388290784458	-0.709459159496115	0.0944536727831684	0.685968642480457	-0.625850269061728	0.371158271157848	14.2777644043043	-67.481098310449	122.221651846047
16329	1651210046844	9.029233999205	0.894034682443309	3.58149224931936	-0.010537987552851	0.049142863013609	-0.0581538058656701	0.00777211187233367	-0.0213539110661892	-0.00108991897385353	0.280517578125	-0.281005859375	0.47998046875	0	0	0	-0.532559371311607	0.175785325243112	-0.755732306314056	-0.338154870807146	-0.204063598755177	0.323876876218276	0.923829971755721	-0.698341365407388	-0.709501605557151	0.0944817922817362	0.686059315966215	-0.625868389330309	0.370960070914719	14.2891593564815	-67.4925808694337	122.213608240265
16330	1651210046846	9.10272785782889	0.91952915763374	3.58537760496945	-0.0407897363119043	0.052233795030437	0.0135900823173518	0.0108089908371078	-0.0182858438450613	-0.00098110644880792	0.284912109375	-0.287841796875	0.49169921875	0	0	0	-0.532563628605628	0.175758850060066	-0.755756938129014	-0.338106874496553	-0.204119445809159	0.323847690564689	0.923827865545568	-0.698258774354855	-0.709585136087471	0.0944649071358391	0.686126763709899	-0.625788788617728	0.370969616223941	14.2863576864919	-67.4922656259998	122.223008938676
16331	1651210046846	9.03437366805957	0.918851612111935	3.52899660399905	-0.0635498717404259	0.064931848425126	-0.0705234396512289	0.0123274330051124	-0.0167517610660422	-0.000926925956041279	0.294921875	-0.29345703125	0.48193359375	0	0	0	-0.532643389256996	0.175742219719542	-0.755724566566052	-0.338062230332556	-0.204009896606796	0.323748001886919	0.923887002484997	-0.698179728074776	-0.709657201261253	0.0945077986384109	0.686239775437067	-0.625758649938037	0.370811384177737	14.2984275285366	-67.5011184389387	122.217091572655
16332	1651210046847	9.07966936783012	0.920241558431831	3.57990404255962	-0.0384239868305602	0.0456670755714157	-0.00965767344736967	0.0107524174133039	-0.0198046023610576	0.000552406399995134	0.2900390625	-0.288330078125	0.46875	0	0	0	-0.532691370688672	0.175755356251836	-0.75571884352302	-0.337992585550103	-0.20400183141396	0.323608008487224	0.923937827790746	-0.698101454997891	-0.709742133723893	0.0944481982193572	0.686321798655396	-0.625734736497813	0.370699916685227	14.2939005806736	-67.5087296381672	122.227248055375
16333	1651210046848	9.13091643286469	0.920704672227895	3.55801373245908	-0.0629766302403689	0.0746325624884141	0.0296323593963042	0.0121835698142008	-0.0121537411130107	0.00209546843432052	0.287353515625	-0.2890625	0.482666015625	0	0	0	-0.532750707894937	0.175739993834929	-0.755703663221102	-0.337940987745716	-0.203945144077786	0.32351527254197	0.923982817285682	-0.698017697026011	-0.709822686736697	0.09446188666547	0.686423828873674	-0.625691315127508	0.370584275608685	14.3001653985896	-67.5154689502178	122.227472788468
16334	1651210046849	9.03370199444736	0.944808148891865	3.54880378574464	-0.0652884555566368	0.0303426493836994	-0.0613151964640881	0.0109469963516483	-0.0060939214723569	-0.00562555135080181	0.292236328125	-0.281494140625	0.48095703125	0	0	0	-0.532798782281808	0.175792386841527	-0.755648147420515	-0.337962086079969	-0.203814171942996	0.323436909202246	0.924039149106189	-0.69808478777656	-0.709757330202069	0.0944571929467929	0.686394502010431	-0.625805958736516	0.370444988655163	14.304639956656	-67.5239100151366	122.217130940689
16335	1651210046849	9.08234177995643	0.970700264804258	3.55177948430607	-0.0901130414314336	0.0260161411000336	-0.0128133145018126	0.0110781650796422	-0.0076378973466396	-0.00866574771123308	0.29052734375	-0.2861328125	0.481689453125	0	0	0	-0.532848844215044	0.175746061311646	-0.755625291722767	-0.337958354921161	-0.203712519115348	0.323447589764384	0.924057826237779	-0.698031932345412	-0.709794944544851	0.0945650999296367	0.686478427178749	-0.625757775320597	0.370370862304269	14.3230578687786	-67.5267093612139	122.203386668795
16336	1651210046851	9.06238854945659	0.946696827318331	3.50061533067063	-0.102323649807247	0.0688658152120545	-0.0524508894939846	0.0110781724733905	-0.00763784493513522	-0.00866575327610455	0.29296875	-0.28076171875	0.476806640625	0	0	0	-0.532932370757894	0.175680703504435	-0.755582055514295	-0.337957299076894	-0.203535904398043	0.323457073795092	0.924093424407287	-0.697960809055225	-0.709842308833675	0.0947343950878102	0.686603120182137	-0.625699143360125	0.370238757229115	14.3525499562074	-67.5320457642335	122.180223645777
16337	1651210046851	9.05846414698614	0.948467536944399	3.54878325253558	-0.0686083203451527	0.0366907509895596	-0.0380685716633948	0.0050791250395819	-0.00157479490033119	-0.0120007300488514	0.28759765625	-0.284423828125	0.473876953125	0	0	0	-0.532952920526343	0.175637817712126	-0.755563958030924	-0.337987642993656	-0.203451075372067	0.323529186802557	0.92408686021219	-0.697955938420761	-0.70983142034583	0.0948517934095932	0.686633212095907	-0.625674212331543	0.370225082983526	14.3701088511429	-67.5310616572425	122.163702218879
16338	1651210046852	9.10479432085329	0.974813720761626	3.57682004014045	-0.0751263020909037	0.0157037225891602	0.0176377767407292	0.00499750531735402	0.00301521316620783	-0.0105037231938796	0.288330078125	-0.284423828125	0.479248046875	0	0	0	-0.533009637124433	0.17561769679396	-0.755500630590711	-0.338050215918142	-0.203245556500355	0.323582452913409	0.924113434557361	-0.69800615227652	-0.709760952180964	0.0950094844912795	0.686643033276381	-0.625726607174181	0.370118302610529	14.396987341385	-67.5350459468903	122.133363790192
16339	1651210046854	9.03122876714502	0.999803705255078	3.57111682290914	-0.0812163392422956	-0.020948962649151	-0.05007804640654	0.0050897614858507	0.0106334795308557	-0.0135990826430082	0.286376953125	-0.288818359375	0.48193359375	0	0	0	-0.532986221401249	0.175550166529958	-0.755511654205617	-0.338097570513624	-0.203231441218407	0.323741669712972	0.9240607732134	-0.698004949413621	-0.709744343688178	0.0951422997237577	0.686648433985236	-0.625663086568238	0.370215653655445	14.4126419842195	-67.5271510868963	122.118878305198
16340	1651210046853	8.90712792984447	1.00012246263487	3.58625791774469	-0.0460205163391472	-0.0697054055291898	-0.159115904359085	0.00192882920305439	0.00758202165658013	-0.0106561222999548	0.278564453125	-0.28173828125	0.484619140625	0	0	0	-0.532954647824592	0.175542162265735	-0.755512022076178	-0.338150672227042	-0.20322693246913	0.323841773743938	0.924026687654404	-0.698065818818748	-0.70967814427894	0.0951895169108038	0.686587886957016	-0.625686372802845	0.370288585258471	14.4167748674752	-67.5220424648537	122.110330012461
16341	1651210046853	8.97972227430176	1.02588967271382	3.59222959660904	-0.0745506354690981	-0.0675872897964083	-0.087367347978029	-0.00437957640495209	-0.00157551240606191	-0.0047517947181876	0.286376953125	-0.28955078125	0.476806640625	0	0	0	-0.532953475824869	0.175555052324069	-0.755497092898279	-0.338179181547201	-0.203190867548513	0.3238614264058	0.924027731094302	-0.698112127744717	-0.709630529543118	0.0952048771655012	0.686551475448583	-0.625730203863258	0.370282032419369	14.4192487845833	-67.5221988355705	122.10418655037
16342	1651210046854	9.07501615003616	1.02722675919167	3.62459415187464	-0.073868523486177	-0.057712126161841	0.0127901558540771	-0.00604264975444557	0.00148861930928156	-0.00178355186514879	0.286865234375	-0.28125	0.47265625	0	0	0	-0.532883977893553	0.175601507250965	-0.755520752466762	-0.338211722664355	-0.203294993513506	0.323901490984911	0.923990784450849	-0.698202409816903	-0.709553882607197	0.0951140505021319	0.686428831371624	-0.625796382072319	0.370397553511066	14.4017592474076	-67.5166626109402	122.114211517683
16343	1651210046855	8.9755969235004	1.02578376263045	3.64139216479268	-0.0421106179381462	-0.0996904981582404	-0.0729954963451256	-0.0157106766563264	0.00609422475487469	0.0100109036134774	0.287109375	-0.28515625	0.4833984375	0	0	0	-0.532821057516605	0.175683821536861	-0.755541731926723	-0.338221239478331	-0.203416227665255	0.323864442940065	0.923977088959222	-0.69829660125938	-0.709483176031892	0.094949879395913	0.686297089453274	-0.625895714577773	0.370473831034181	14.3750948970971	-67.514610755069	122.132545550671
16344	1651210046856	8.92901731677856	1.02342805385129	3.61331827267586	-0.0511257793125344	-0.0966342568854052	-0.12667312107391	-0.020300437530523	-0.00460914823601787	0.0114116446378801	0.2841796875	-0.285888671875	0.482421875	0	0	0	-0.532807293043225	0.175810163411328	-0.755508738052506	-0.338250974348255	-0.203405333664815	0.323757259036409	0.924017049332932	-0.698449008063115	-0.709354129587477	0.0947929426320601	0.686145213036102	-0.626097401414848	0.370414349842468	14.3545269368184	-67.5205981072448	122.13970599094
16345	1651210046856	8.93181289785993	0.972349874045234	3.5891749513402	-0.0337551089657296	-0.0462151687109504	-0.137892943128048	-0.0265041911989369	-0.00920274258236573	0.0142377978086231	0.28173828125	-0.28466796875	0.476318359375	0	0	0	-0.532780370146003	0.175970487513033	-0.755486395056033	-0.338259917218629	-0.203450611180668	0.323594287958976	0.924064167474606	-0.698608773846841	-0.709229231855344	0.0945498693076482	0.685969117318285	-0.626323106297543	0.370358929423027	14.3212883287061	-67.5276598669492	122.158448534635
16346	1651210046857	8.93461971401973	0.945203491065384	3.56427804233492	-0.0343420496818353	-0.012800209343751	-0.147100310626611	-0.0252035315108012	-0.0152711366472643	0.0204334523734833	0.27783203125	-0.291015625	0.47802734375	0	0	0	-0.532735500383873	0.176170801676328	-0.7554744866381	-0.338252916183087	-0.203555702648763	0.323378016046383	0.924116732159457	-0.69878777678265	-0.709097626660714	0.0942135812041093	0.685755582506135	-0.626583765032296	0.370313470534928	14.2741164803971	-67.5355404028663	122.189049701068
16347	1651210046857	8.95957809354321	0.966992948339822	3.56468014790787	-0.055423778408095	-0.0236048157008649	-0.12184480008467	-0.0282961329067776	-0.0198581579163875	0.0218590911410353	0.2841796875	-0.288818359375	0.48095703125	0	0	0	-0.53273856730331	0.176376444947579	-0.755435345732045	-0.338228335587035	-0.203582423827281	0.323094210086282	0.924210110373897	-0.698944348435981	-0.708985885347355	0.0938925565081131	0.685588064728385	-0.626856559179967	0.37016193715054	14.2330443422449	-67.5495462013822	122.215125909214
16348	1651210046859	8.95871147685649	0.939741391439207	3.58778288979376	-0.0233478950643308	-0.0227788422898327	-0.116670336440501	-0.0314075139196752	-0.0198636017245538	0.0232594181075643	0.2900390625	-0.289306640625	0.4814453125	0	0	0	-0.532652583755394	0.176676449352439	-0.755424087565757	-0.338232324280755	-0.203760239660682	0.322803355437457	0.924272556366216	-0.69923202438268	-0.708768654111707	0.0933893517826246	0.68524181192563	-0.627251933968321	0.370133314525835	14.1608911120802	-67.5589171009185	122.260978968292
16349	1651210046860	8.93756651530313	0.911553800322251	3.56005013779675	-0.0194614280035414	0.00396677517138944	-0.14911728283529	-0.0345008404056882	-0.0244501259839021	0.0246842804254045	0.284423828125	-0.288818359375	0.487548828125	0	0	0	-0.532658924091804	0.176921671824794	-0.75537250841292	-0.338209352558521	-0.203777808854615	0.322470279296244	0.924384943402376	-0.699425908747116	-0.708626311761332	0.0930169256254111	0.685038687076637	-0.627583993781019	0.369946385248163	14.1135211010127	-67.5757917127438	122.289914450337
16350	1651210046862	8.96498190468332	0.908132471365724	3.53577512251976	-0.0408830154790622	0.0267206951825584	-0.133073522619151	-0.0404698325819763	-0.0260169253108329	0.0213956581799912	0.28662109375	-0.28662109375	0.475341796875	0	0	0	-0.532636356240524	0.17717894508054	-0.755327818804855	-0.338210022871094	-0.203824984880705	0.322174982325849	0.924477504486572	-0.699662773166804	-0.708443203699363	0.0926295362005076	0.684782724214709	-0.627942280703826	0.36981226686193	14.0619730783472	-67.5896985602915	122.319616008069
16351	1651210046862	8.96479529885681	0.831814338620385	3.55849339682706	0.0274805834829727	0.0621843400158691	-0.131896001153867	-0.0373923822087596	-0.0336394070233735	0.0215562998453131	0.28759765625	-0.28759765625	0.47998046875	0	0	0	-0.532674896842275	0.177442417038522	-0.755244031548924	-0.338198308273899	-0.203758717109488	0.321806265224732	0.924620523709054	-0.699882749990488	-0.7082721858324	0.0922748451201443	0.684577622675214	-0.62832415076798	0.369543285819197	14.0200481517385	-67.6112026045448	122.340845667079
16352	1651210046863	8.96601526155753	0.8534289322806	3.55540898296347	0.0104152088418687	0.0446432475795616	-0.12988813945962	-0.0339637686599766	-0.0367214958277675	0.012545514516161	0.2958984375	-0.2880859375	0.48583984375	0	0	0	-0.532748445793339	0.177701080633075	-0.755115091404722	-0.338234560888532	-0.203552950650647	0.321472093677024	0.924782076636613	-0.700151991769294	-0.708039415524759	0.0920183377639914	0.68436348872723	-0.62875740874384	0.369202838893238	13.9949930535695	-67.6355169239358	122.341586311215
16353	1651210046864	9.0632517312198	0.803457831098902	3.58468435185361	0.0465753440778219	0.0887415193168975	-0.0337307504785116	-0.0322342630427918	-0.0428428513830423	0.00806038511772266	0.284912109375	-0.28271484375	0.47314453125	0	0	0	-0.532842426976663	0.177925039387663	-0.754988244351039	-0.338251946430843	-0.203329137498731	0.321140466753807	0.924946518701038	-0.70036450598277	-0.707856602189289	0.091807349904819	0.684212555134392	-0.629132602358344	0.368843256745036	13.9772412173105	-67.6602918508695	122.33982494297
16354	1651210046865	9.06840564679225	0.825827928604299	3.53251556162594	-0.00341079270263987	0.103736082392063	-0.0461186139541176	-0.0305537247616368	-0.0352199749618439	0.00351354579255516	0.285400390625	-0.29443359375	0.468017578125	0	0	0	-0.532961543765803	0.178086131187568	-0.754847000620602	-0.33829473599141	-0.203017328934548	0.320895414775696	0.925100046983144	-0.700547652379719	-0.707684002958293	0.0917406055255274	0.684117644047824	-0.629451733441779	0.368474645490832	13.9809024981788	-67.6834460558955	122.319853992866
16355	1651210046865	9.04555793445688	0.799951731129841	3.52769723226135	0.0173919622810957	0.114399724053149	-0.0713682541312348	-0.0274332395630001	-0.0382681273822479	0.00212270437290166	0.284912109375	-0.284912109375	0.483642578125	0	0	0	-0.533052114400111	0.178268189241119	-0.754726095453224	-0.338325903353845	-0.202782052906752	0.320634305647349	0.925242174277073	-0.700739246468379	-0.707512071648995	0.0916033674592569	0.68399118962005	-0.629777985097121	0.368151792076528	13.9725701423235	-67.7049011710463	122.310909400913
16356	1651210046866	9.06949819668443	0.774959257442097	3.55089072909982	0.0469469917712536	0.121238678264274	-0.0429237812907832	-0.022738678455013	-0.0382621265577865	-0.000746181886841087	0.288330078125	-0.2890625	0.478759765625	0	0	0	-0.533124738772592	0.178502982958737	-0.754591614958554	-0.338387636620681	-0.202543640581851	0.320360234079205	0.925389320275833	-0.701017658719226	-0.707260984914206	0.0914119323830449	0.683776510143238	-0.630199349126056	0.367829395966976	13.956255090852	-67.7271345586616	122.302594848974
16357	1651210046867	9.12119002615479	0.798942696262595	3.52706652478452	0.00516891128754024	0.132958140996893	-0.0016267796137619	-0.0151309549497822	-0.03365200789729	-0.000465032465568944	0.289306640625	-0.286865234375	0.47265625	0	0	0	-0.533220596352832	0.178624660019753	-0.754489587230982	-0.33839989541662	-0.202322612814301	0.320145699345677	0.925511907829641	-0.701131090301895	-0.707157483229697	0.0913426960644164	0.683725642751586	-0.630424480094728	0.367538052915915	13.9567201426582	-67.7456733245418	122.291675500598
16358	1651210046868	9.09967042523042	0.822813691757797	3.49787009843007	-0.0248506551819225	0.124664689020001	-0.0300517266074891	-0.00886890797808232	-0.0290643863705897	-0.00481856535650916	0.2939453125	-0.286865234375	0.46875	0	0	0	-0.533335166423145	0.178746155228062	-0.754361391092281	-0.338440990243351	-0.202022592758991	0.319950411513135	0.925644967677948	-0.701276853297359	-0.70701501622857	0.0913265670912281	0.68366486456764	-0.630683360332179	0.367206824495162	13.9664466398291	-67.7658124079439	122.269070171428
16359	1651210046869	9.09882209045082	0.822928264533097	3.51949426466549	-0.00810971297117002	0.108492937275996	-0.0228570791883094	-0.00751187954187808	-0.0320960641284659	-0.000173218484404703	0.285888671875	-0.2841796875	0.479736328125	0	0	0	-0.533437957577753	0.178837637080874	-0.754270450683589	-0.338433349722187	-0.20181362642219	0.319742982717716	0.925762218495172	-0.701338118167526	-0.706959934718299	0.0912824994636438	0.683663736200448	-0.630850279944359	0.36692208995721	13.9703799733398	-67.7835731013705	122.259077121145
16360	1651210046870	9.05483757768449	0.846287991848995	3.46412036006423	-0.0505267152820137	0.10993335258164	-0.0817173260205468	-0.00459145777781462	-0.029019523948503	0.00298287870553577	0.293212890625	-0.28369140625	0.4775390625	0	0	0	-0.53358426972843	0.178935954071942	-0.754145635069438	-0.338428888460273	-0.201507429107845	0.31949451726416	0.92591468799911	-0.701404158790708	-0.706895623591816	0.0912731251674773	0.683686303830527	-0.631048200048839	0.366539502877484	13.9830102342816	-67.8066887646268	122.239917135539
16361	1651210046870	9.12492133169893	0.895341086543602	3.51519699885711	-0.062538232681183	0.0626559025846143	0.00640613294765835	-0.00175668915361616	-0.0350943426646538	0.009222908317944	0.28369140625	-0.2802734375	0.477783203125	0	0	0	-0.533700194525166	0.179035966191242	-0.754067211105728	-0.338367945155857	-0.201342472109604	0.319201285495972	0.926051698482601	-0.70140740542904	-0.706906513001942	0.0911637728746255	0.683731570526105	-0.631184379728422	0.366220450347535	13.9786047800234	-67.8274802280131	122.242483607178
16362	1651210046872	9.12805629466614	0.869877602040164	3.48842341310672	-0.0612095473272426	0.0965193050512453	-0.00278758602747509	-0.00478932359219407	-0.0228949360596807	0.00753450041853823	0.28857421875	-0.284912109375	0.47216796875	0	0	0	-0.533814477420804	0.179032208638442	-0.754016849532851	-0.338301880849854	-0.20118788221881	0.319030666987246	0.926144086829897	-0.701310606570534	-0.706998611366985	0.0911942796277481	0.683876355169543	-0.631167487317612	0.365979143931991	13.9919566124025	-67.8415106993857	122.236448809117
16363	1651210046872	9.10460382941356	0.844550888268304	3.48502521793814	-0.040389043369061	0.107172867616872	-0.0280381424551894	-0.00170714717652635	-0.0152540668363889	0.00609800050119648	0.2783203125	-0.290283203125	0.466552734375	0	0	0	-0.533858861388536	0.179089253859495	-0.753986054574379	-0.338270283614075	-0.201135862681179	0.318885382739159	0.926205418586394	-0.70131892334857	-0.707000508751406	0.0911155770351935	0.683883127805257	-0.631238776771955	0.36584351053797	13.9853347669546	-67.8508294512156	122.241539178277
16364	1651210046874	9.08032869739931	0.916669383618427	3.48139044220138	-0.0890547271512108	0.0479328502661938	-0.0452668801055918	-0.0050006276394678	-0.0121898634010691	0.0120687943150828	0.289794921875	-0.29248046875	0.47900390625	0	0	0	-0.533854610379316	0.179286025209055	-0.753939205006569	-0.338277181162947	-0.2011356073624	0.318655515806838	0.926284583536203	-0.701506200344584	-0.706850139738377	0.0908401388701107	0.683691098617689	-0.631523192129723	0.365711552282974	13.9495450864943	-67.8628632874101	122.260152345401
16365	1651210046874	9.12943440979189	0.915769076780972	3.48434625678559	-0.0966904194554852	0.0607516265151459	0.00122289504448858	-0.00801198254372509	-0.0060981260254878	0.010404656924677	0.293212890625	-0.2861328125	0.4736328125	0	0	0	-0.533849576069826	0.179363721284104	-0.753934492683831	-0.338254440264661	-0.201177127542616	0.318536886498331	0.926316368900848	-0.701549872777633	-0.706825178256718	0.0906969866536211	0.683634068313883	-0.631610971502482	0.365666571234371	13.9300655662501	-67.8676967178866	122.275121765065
16366	1651210046877	9.10363317643038	0.890097626389901	3.50668726484412	-0.0581802340887463	0.0543841967467825	-0.0168247838871167	-0.0140626840015594	-0.00307087623530441	0.00863562965203399	0.278564453125	-0.28662109375	0.48193359375	0	0	0	-0.53386124126176	0.179506796340245	-0.753880023922606	-0.338281531681179	-0.201115560803776	0.318383936174516	0.926382318693855	-0.701710820611017	-0.706685830782193	0.0905376209599786	0.683486982641217	-0.631843972636996	0.365538970292229	13.9112054844615	-67.8777285497549	122.279628164133
16367	1651210046877	9.02891428646948	0.888336278531374	3.52536073410364	-0.0301974912347697	0.0188303316669892	-0.0793767140031622	-0.01418409472726	-0.00153356890726414	0.0116796301651158	0.287109375	-0.294189453125	0.478515625	0	0	0	-0.533827729847286	0.179603855624927	-0.753883685440505	-0.338274738515005	-0.201196312257397	0.318284576086081	0.926398927330838	-0.701794650166378	-0.706625312654532	0.09036003825661	0.683377138139603	-0.631961704647986	0.365540819781508	13.8849089602547	-67.8802556232753	122.29809077686
16368	1651210046879	9.05733733752122	0.86198053938196	3.47863476820866	-0.0527965969814038	0.0747873800155558	-0.0725185252146136	-0.0158787935493379	-0.00305055838049152	0.0162011274781565	0.293212890625	-0.28515625	0.474365234375	0	0	0	-0.533707372643133	0.179743007598154	-0.753955613272406	-0.338230431541817	-0.2015132311308	0.318161128208632	0.926372448951411	-0.701881801553374	-0.706585252797212	0.0899956508820863	0.68319422884522	-0.632068648982459	0.365697783211868	13.8253618454068	-67.8762269570703	122.348880856501
16369	1651210046879	9.07833156189311	0.836229910114361	3.52920660918737	-0.00569895114261049	0.0661558224541896	-0.0368869134197958	-0.0157041138414067	-0.00306524430717829	0.0116268175934116	0.287353515625	-0.28857421875	0.4619140625	0	0	0	-0.533676054494643	0.179848369881626	-0.753954553867091	-0.338226201547173	-0.201585810892005	0.31805283289588	0.926393845151142	-0.701975906678758	-0.706515200875786	0.0898114545811603	0.683076121153089	-0.63220144449246	0.365688865419906	13.7984712452254	-67.8794823192818	122.36702740786
16370	1651210046880	9.10270670256055	0.859142379353968	3.53083775367407	-0.0250335085554493	0.0536952848345976	-0.0116312923751032	-0.018758240436152	-0.00154813726741249	0.0115052964994969	0.2822265625	-0.291015625	0.4775390625	0	0	0	-0.533709817325966	0.180059596302123	-0.753849150872008	-0.338295477946355	-0.201420000981862	0.317848369087014	0.926500079586177	-0.702246666087786	-0.706269422761128	0.0896276879164757	0.68284669082676	-0.632578783031323	0.365464745338801	13.7794369944943	-67.895652286434	122.362369493472
16371	1651210046881	9.05614521174293	0.832681914549498	3.50301130792209	-0.0173661629881859	0.0739635304245531	-0.0673068602019242	-0.0156550121953843	-1.6005705120547E-05	0.0100918030643885	0.28662109375	-0.286865234375	0.47509765625	0	0	0	-0.533669155319697	0.180156236711503	-0.753852811501962	-0.338300017181343	-0.201500662070928	0.317769184823828	0.926509702248917	-0.702344491509442	-0.706193657498104	0.0894579977184529	0.682722270349607	-0.632703139936772	0.36548192606862	13.7537183375274	-67.8971175090719	122.379198353779
16372	1651210046882	9.05630986848738	0.831195071393486	3.5029387421231	-0.0185063311403057	0.0737176625649345	-0.0673070957297526	-0.017166488440408	-0.0046016477743951	0.0100483808442248	0.28125	-0.287109375	0.4775390625	0	0	0	-0.533605552548446	0.18029222197449	-0.753866900698901	-0.338296504586736	-0.201641178547729	0.317651213406378	0.926519585187134	-0.702470936313917	-0.706100379359796	0.0892011093103717	0.682550671194551	-0.63286646371048	0.365519657969938	13.7143543214918	-67.8986224593575	122.406890233526
16373	1651210046882	9.10163928970501	0.805802590719823	3.55528109280629	0.0248459818376418	0.0714999442067961	-0.00843066207287535	-0.0157042154225595	-0.00306545503819595	0.0116264869485687	0.281982421875	-0.2890625	0.478515625	0	0	0	-0.533574374408065	0.180398446515175	-0.753865355417532	-0.338292496770401	-0.201713147207781	0.317542010138762	0.926541352579886	-0.702565963112848	-0.706029174247519	0.089016136664551	0.682431589039405	-0.633000692660284	0.365509574939908	13.6873494791487	-67.9019374894253	122.425057942284
16374	1651210046884	9.12775444073289	0.828821099134626	3.53284322273052	-0.0149168651890396	0.0773001977930336	0.00961526039319871	-0.0155511482044891	0.00455650689212323	0.00702885342754597	0.289306640625	-0.286376953125	0.466552734375	0	0	0	-0.533451895405586	0.180458509493301	-0.753947563718288	-0.338270413726801	-0.202004404970573	0.317544440752061	0.926477063137532	-0.702608176477135	-0.70601570709711	0.0887894795549715	0.682301964470248	-0.633014493893804	0.365727603279287	13.6459689171447	-67.8921479943458	122.462287595841
16375	1651210046884	9.05290344412079	0.802919993438109	3.55227798496618	0.0302655905044823	0.058938081274823	-0.0549196701900385	-0.0110349949033494	0.00457440023634718	0.00872803077826373	0.286376953125	-0.29248046875	0.474609375	0	0	0	-0.533401547118707	0.180526248806878	-0.753966512433593	-0.338271431178887	-0.202110456759116	0.31750470162548	0.926467553514065	-0.702676623261981	-0.70596542467981	0.0886475170424724	0.682200063317031	-0.633090501905036	0.365786126046175	13.6228660796027	-67.8907002925848	122.479156343538
16376	1651210046886	9.03029634827733	0.801462404601912	3.52666356383364	0.0175284315164372	0.0670682132473147	-0.0853473108601239	-0.015555245395119	0.00608388454785166	0.00702428089345587	0.287109375	-0.288330078125	0.4755859375	0	0	0	-0.533366665641555	0.180707085246766	-0.75391671820914	-0.338340850812887	-0.202090937307242	0.317395376730136	0.926509270265881	-0.702927918793623	-0.70574083602566	0.0884432775640305	0.68194691438465	-0.633395648229555	0.365729898648055	13.5946575828851	-67.8970517299446	122.485588373221
16377	1651210046886	9.00555655533088	0.849084218601767	3.52511951307074	-0.0133615827724398	0.0261413905005806	-0.104618632168595	-0.012443375179932	0.00456175657851156	0.00562028975560488	0.289794921875	-0.287109375	0.472900390625	0	0	0	-0.533316973015519	0.180772587410106	-0.753928679791458	-0.338357538297184	-0.202174365142069	0.317376726048285	0.926497458087325	-0.703013082535249	-0.70567089583705	0.0883243599060988	0.68183438741654	-0.633482912580448	0.365788555869241	13.5749591248499	-67.8952531323017	122.497828692175
16378	1651210046887	9.0283137877682	0.775092120836431	3.55224498264788	0.0521352515393092	0.0674176111257213	-0.0801440805746942	-0.0125016493949217	0.00456572375929088	0.00714505312953711	0.28759765625	-0.29296875	0.47216796875	0	0	0	-0.533305821551737	0.180853080166163	-0.753911147071759	-0.338371166641579	-0.202179708569287	0.317303587761168	0.926521342785329	-0.703103589753879	-0.705594233960057	0.0882163197913484	0.681739471879139	-0.633604932269479	0.365754128186876	13.5601965179437	-67.8988901124183	122.504498979549
16379	1651210046888	9.02993945131762	0.79838928330455	3.52827408325538	0.0178451442837979	0.0662212567610144	-0.0853420839897652	-0.0109185708051594	0.00456622452664248	0.00567857522038479	0.2861328125	-0.287109375	0.4677734375	0	0	0	-0.533258906718493	0.180912993127946	-0.753924352822913	-0.338383654367992	-0.202262881723921	0.317284425397324	0.92650975174416	-0.703178285103639	-0.705533982748102	0.0881027726368825	0.681637752795017	-0.633681617681853	0.36581085464577	13.5413630592554	-67.8971250458469	122.516747984423
16380	1651210046889	8.9529661191468	0.821761656857862	3.57165822370795	0.0456850967067874	-0.00406708927814803	-0.138725749487017	-0.00938985779848321	0.00304351621475476	0.00574096672477984	0.286865234375	-0.294189453125	0.4755859375	0	0	0	-0.533233256053658	0.181085277349553	-0.753875131672031	-0.33844157961475	-0.202239183652574	0.317163996661755	0.926556156861031	-0.703406764919684	-0.705330839030217	0.0879052363523107	0.681409007616399	-0.633967985575354	0.365740833931299	13.5146082489894	-67.9041923535316	122.52356471254
16381	1651210046888	8.9790442426797	0.845415462693058	3.54924911095181	0.00764882962001785	0.00117890061836013	-0.120676624578467	-0.00480776232280085	2.15727813304286E-06	0.00592400538062288	0.27197265625	-0.28857421875	0.473388671875	0	0	0	-0.533213734663911	0.181131318656907	-0.753881772552331	-0.338432905582081	-0.202292563170068	0.317113383729213	0.926561827805297	-0.703440211271807	-0.70530922764176	0.0878109478895407	0.681358633945414	-0.634017346184781	0.365749117134748	13.5003486223955	-67.9050561621686	122.534565583269
16382	1651210046888	9.00376718065329	0.820148281269409	3.55081988170955	0.0182695771909821	0.0244756310556732	-0.0994049389735458	-0.00953014008779165	-0.0106882009237859	0.0103509653627275	0.29345703125	-0.29345703125	0.475830078125	0	0	0	-0.533114570478448	0.181296689217266	-0.7539255354292	-0.338403091372155	-0.202544404986697	0.316957650504842	0.926560096159464	-0.703565276909752	-0.705229716457254	0.0874468304315534	0.681154655812826	-0.634183644390228	0.365840730444875	13.4431599427939	-67.9047923912955	122.579664477098
16383	1651210046889	9.05090725194964	0.843662463711351	3.57794808017961	0.0102013315525199	0.00394860050461979	-0.043742636654386	-0.00953391681409189	-0.00916116075222512	0.010347074660111	0.287109375	-0.297119140625	0.47607421875	0	0	0	-0.533116423588115	0.181388320964799	-0.753911754289387	-0.338381770582412	-0.202569312476259	0.316817802651855	0.926602478717678	-0.703622174465483	-0.705192108710166	0.0872921841482626	0.68108847387352	-0.634295333212975	0.365770311836376	13.4227371849591	-67.9112491231818	122.594336068826
16384	1651210046891	9.05343789421036	0.793491876267954	3.5530343602498	0.0274799190614239	0.0526768068303703	-0.054875617618281	-0.0109967624792307	-0.0106955872859673	0.00876791752645626	0.297607421875	-0.294921875	0.47607421875	0	0	0	-0.533120476059378	0.181623302186229	-0.753830878252484	-0.338429521617547	-0.202496033807882	0.316583044365049	0.926698727911415	-0.703891449665043	-0.704956870001377	0.0870209085582663	0.680831978817478	-0.63467392215091	0.365591068218384	13.3888515860351	-67.9259187815843	122.604203930669
16385	1651210046892	9.03137415684887	0.8164666100912	3.52561655704237	-0.0030890346872885	0.0450427885362598	-0.0833363918669718	-0.00799444591695346	-0.0152651950876211	0.0104201076737323	0.279296875	-0.28466796875	0.474853515625	0	0	0	-0.533147851819127	0.18172059787302	-0.753802011122162	-0.338398463999921	-0.202479695326289	0.316402992673007	0.926763788248191	-0.703938778222159	-0.704928207742332	0.0868701240028921	0.680787903458682	-0.634795532558909	0.365461984818645	13.3710370941956	-67.935840091386	122.616902372487
16386	1651210046893	9.05434766892426	0.839885709608131	3.55045213201062	-0.00691284867922037	0.017643398446342	-0.050926726066546	-0.00799799764756257	-0.0137381479018537	0.0104164352484155	0.2880859375	-0.28662109375	0.47021484375	0	0	0	-0.533195172703033	0.181825662093411	-0.753757420716484	-0.338366793768697	-0.202421641361749	0.31619583285092	0.926847168845074	-0.703990094057879	-0.704894682957969	0.0867261979217515	0.680752103615402	-0.634935966240137	0.36528467282095	13.3559256099374	-67.9485613307732	122.626480897995
16387	1651210046893	9.0551001562502	0.789667161926354	3.54964889106247	0.0273695565075902	0.0518451073065169	-0.0548708530186897	-0.00964555351830808	-0.0106812120700787	0.0134008818589586	0.284912109375	-0.291015625	0.47119140625	0	0	0	-0.533199911414829	0.181929384968271	-0.753744160262945	-0.338333111329341	-0.202457120490852	0.316023749878494	0.926898108680392	-0.704042677673841	-0.704864809326548	0.0865419469788891	0.680687169246197	-0.635054792979144	0.36519910670457	13.3315758370496	-67.9563365692682	122.645206472157
16388	1651210046894	9.07977709165164	0.812874647739664	3.55055562350178	0.00662989071057596	0.0401906486911881	-0.0296457562423757	-0.00795064871892848	-0.00916035238880885	0.00888081239159101	0.279296875	-0.292236328125	0.46875	0	0	0	-0.533229503005227	0.182056631479028	-0.753694975444626	-0.338327598709939	-0.202401466151931	0.315835688159119	0.926974360262788	-0.704147556648589	-0.704779637771352	0.0863821778418712	0.680595228432709	-0.635242851410339	0.365043360118618	13.3133159095067	-67.9679801567474	122.653543623832
16389	1651210046894	9.13059410692829	0.811956391277711	3.52941989556432	-0.0179418614409645	0.0690359273887992	0.00967176244947687	-0.00943090162529974	-0.00305922635024974	0.00728439360447383	0.2900390625	-0.291015625	0.47509765625	0	0	0	-0.533211575049613	0.182130629033511	-0.753691654076615	-0.338323426289438	-0.202445350913772	0.315754766402438	0.926992344837617	-0.704211404689379	-0.704731386383266	0.0862552639073833	0.680516111050144	-0.635336604124509	0.365027700401937	13.295000898671	-67.9707272467143	122.665857393316
16390	1651210046895	9.08033558856405	0.786229898736502	3.5500072925295	0.022650820998632	0.0562001319167055	-0.0316070558249724	-0.0171125674084928	-0.00307353259005667	0.0085205617782393	0.28271484375	-0.291259765625	0.468994140625	0	0	0	-0.533148956570099	0.182323820115184	-0.75367354482672	-0.338358393652569	-0.202531575106136	0.315612031027443	0.927022117835254	-0.704435048836582	-0.704543244126919	0.0859655694200837	0.68025893824016	-0.635616128670324	0.365020429453641	13.2521813399149	-67.9752756986192	122.68871817953
16391	1651210046895	9.05602842064621	0.80944086353673	3.54794780827249	0.00894526777083932	0.0324490792461414	-0.0528899305223689	-0.0078516026336613	-0.00153200864143032	0.00581391711958875	0.2861328125	-0.29345703125	0.473388671875	0	0	0	-0.533128941214707	0.182385927063985	-0.753673324780337	-0.338356949334351	-0.202576213752874	0.315550781558535	0.927033215089593	-0.704491646310876	-0.704499896892323	0.0858569482156062	0.680187031558043	-0.635694580389437	0.365017811296593	13.2361179981299	-67.9769712661062	122.699512986782
16392	1651210046896	9.05447232603746	0.759943916465475	3.57244179638374	0.0591590635224962	0.049462254510196	-0.0496254500734459	-0.0138353466123974	-0.00155140922588853	0.00253358395191486	0.2890625	-0.289306640625	0.472412109375	0	0	0	-0.533065903292629	0.18256815537882	-0.75364706353753	-0.338416481586888	-0.202630055474331	0.315451457882363	0.927055250963157	-0.70473489252028	-0.704286307263854	0.0856126664990341	0.679918959790724	-0.635980483285877	0.365019222776779	13.1997293253332	-67.9803385307477	122.714637001871
16393	1651210046896	9.03206930940695	0.759166968336945	3.54613190197084	0.0458319808329305	0.0590006840057453	-0.0800576920505822	-0.009200168444579	-0.00307115585111206	0.00118492873675563	0.286865234375	-0.292236328125	0.473388671875	0	0	0	-0.533053259778124	0.182626303313267	-0.753633739226453	-0.338434694849096	-0.20263235912463	0.315412516521445	0.927067997213363	-0.704810701730907	-0.704219181321059	0.0855407469284872	0.679839688280387	-0.636074122316815	0.365003711156093	13.1895694287108	-67.9822864871218	122.718149743322
16394	1651210046896	9.03228126258963	0.734414347086985	3.54601439143923	0.0633274538496655	0.0752810372087597	-0.0820137113700969	-0.00761771256543941	-0.00307059411622185	-0.000282207472325542	0.282958984375	-0.294921875	0.47412109375	0	0	0	-0.533068371552904	0.182713942756483	-0.753587698782494	-0.338466108519037	-0.202557609267828	0.315329743819036	0.927112489178483	-0.704925839519872	-0.70411261701272	0.085469195273515	0.679742580470655	-0.636233113902852	0.36490745274463	13.182277109158	-67.9890872929336	122.715374900754
16395	1651210046897	9.03409894015402	0.758615478424192	3.52141193495828	0.0289982666573223	0.0740885591189014	-0.0872334853333605	-0.00451360734967507	-0.0015396879854099	-0.00169471033796938	0.28662109375	-0.29638671875	0.470703125	0	0	0	-0.53306067724397	0.182744382148593	-0.753577648365186	-0.338484169576252	-0.202549562644949	0.315320520814911	0.927117384059512	-0.70497589725755	-0.704065915478808	0.0854410378383892	0.679693062314346	-0.636289364844331	0.364901610338658	13.1782894686293	-67.9898356204186	122.715101940211
16396	1651210046897	9.06034007466112	0.783022497111114	3.49842364817782	-0.010702034759193	0.0779451834777475	-0.0691939179735144	-0.00150913990345813	-0.00763814795465029	-4.2922122599816E-05	0.289794921875	-0.291015625	0.47216796875	0	0	0	-0.533012796091398	0.182939343094129	-0.753539306869277	-0.33853961209006	-0.202576580497484	0.315187787728825	0.927156614332528	-0.705223830839725	-0.703848255588401	0.0851879188670981	0.679427757344141	-0.636595862044181	0.364861111902237	13.1420133447701	-67.9958340027708	122.72954832464
16397	1651210046897	9.06061284955534	0.78290351106871	3.49774375958141	-0.0109335722334543	0.0777732900864902	-0.0691928014580867	-0.00156671266658352	-0.00763545286831414	0.00148187066261265	0.2802734375	-0.29052734375	0.47607421875	0	0	0	-0.533029591025665	0.182978473455379	-0.753521207775739	-0.338532306841079	-0.202550664631739	0.315116663699152	0.927186451861952	-0.705248427188837	-0.703829510953593	0.0851391534988346	0.679409952977517	-0.636651794759067	0.364796666685903	13.1369910851661	-68.0003972576313	122.732095534314
16398	1651210046898	9.06091261593152	0.782832571750243	3.49698302481181	-0.0117378404712652	0.0774599453810676	-0.0691912410521898	0.00154351028940124	-0.00915840881862839	7.49963511096652E-05	0.28466796875	-0.29736328125	0.471923828125	0	0	0	-0.533041283836887	0.18301290496871	-0.753518571930835	-0.338501149327077	-0.202567923259543	0.315026937629292	0.927213171301091	-0.705240672922249	-0.703846497038324	0.0850629288412612	0.679412856606709	-0.636677420029006	0.364746532680874	13.1273786056029	-68.0044844054782	122.741738406278
16399	1651210046899	9.08367380849242	0.782980468076991	3.52251847330809	0.00111737606883506	0.0675755581198736	-0.0387548400592177	0.00446885654230728	-0.00456550127123441	0.00323067763337484	0.288330078125	-0.2939453125	0.47412109375	0	0	0	-0.533054879379865	0.183028773405172	-0.753517342191194	-0.338473896618684	-0.202575833754165	0.314963140501338	0.927233116160299	-0.705220663423492	-0.703871778827125	0.0850196145090512	0.679431267649152	-0.63668103403217	0.364705927350232	13.1223357162867	-68.0075357480018	122.748035620921
16400	1651210046900	9.11009037738523	0.783190280191421	3.49935420339441	-0.0207759952564416	0.0885633679088497	-0.0226751894321939	0.00324039454076271	-0.00916325565106334	-0.00444183572571942	0.293212890625	-0.2880859375	0.473388671875	0	0	0	-0.533048182340132	0.183184354953623	-0.753458599670702	-0.33853104139262	-0.20251273863502	0.314846073903139	0.927286654944588	-0.705430423667852	-0.703680452227707	0.0848630574302199	0.679232293147446	-0.636950367689971	0.364606254808213	13.1024632527241	-68.0157285793328	122.749605952641
16401	1651210046900	9.11019995695711	0.807866271715058	3.49865418773078	-0.0382917463173194	0.0712321099668261	-0.0207298450819859	0.009040380247452	-0.00302834413907849	0.00339954548969745	0.287109375	-0.296875	0.473876953125	0	0	0	-0.533063224497851	0.183181736334916	-0.753465933049221	-0.338492448801366	-0.202532921584817	0.314790163452863	0.927301228656383	-0.705379951612086	-0.703734627155559	0.0848333566821315	0.679278690625615	-0.636918148222788	0.364576100322558	13.0990817198407	-68.0179592401142	122.756833902327
16402	1651210046901	9.13281921308561	0.783868459448115	3.52485904451561	-0.00733412705657133	0.0774468588012789	0.00777169043980841	0.00919992234336944	0.00307103632106088	-0.00118708168078249	0.289306640625	-0.293701171875	0.47998046875	0	0	0	-0.533099100463825	0.183213836211209	-0.75342824706279	-0.338502460601579	-0.202442866502673	0.314732368481533	0.927340510293919	-0.705416893588423	-0.703697548774897	0.0848337555944657	0.679267172798922	-0.636987673411508	0.364476078610864	13.1026119292353	-68.0239727820879	122.750026328932
16403	1651210046902	9.134396169718	0.784303054098876	3.5010650551226	-0.0244199748129266	0.0934080203306222	0.000592399789137943	0.0107665069578535	0.0107062773039469	-0.00267018090650728	0.28173828125	-0.2939453125	0.472412109375	0	0	0	-0.533071195744774	0.183165592187809	-0.753463132468396	-0.338494865716804	-0.202512652301199	0.314806201201194	0.927300211012165	-0.705367406188615	-0.703743183443703	0.0848666839417357	0.679297760885959	-0.636900767342758	0.364570932211451	13.1042295672685	-68.017803471913	122.7528964742
16404	1651210046903	9.06071919267731	0.833453522695965	3.49635343368353	-0.0491555926638616	0.0392792342325607	-0.0652874467429711	0.0168020161428568	0.0137766709621774	-0.000922162815031284	0.2880859375	-0.293701171875	0.47021484375	0	0	0	-0.532992827978077	0.183149065885602	-0.75353348133173	-0.338470615417717	-0.202712575645369	0.31486360519259	0.927237036469287	-0.70533215946423	-0.703788124327968	0.0847869145590738	0.679274728295369	-0.636822727436802	0.364750129978328	13.0861261908258	-68.0081355591673	122.773870326002
16405	1651210046903	9.10699410742704	0.834088062388486	3.52578582018955	-0.0400934795055034	0.0357765709316295	-0.0115995402340605	0.0119849744668323	0.0198868161739357	0.0049911234902091	0.283203125	-0.288330078125	0.4677734375	0	0	0	-0.532924915749962	0.183101365571642	-0.75360720432734	-0.338439220074486	-0.202899856976539	0.314941909308178	0.927169478466704	-0.705259028592059	-0.703865568482346	0.0847523692554299	0.679294745032144	-0.636698402123284	0.364929848197392	13.0747571533251	-67.9978012913818	122.791470159271
16406	1651210046904	9.08186369904448	0.858033859310744	3.52569248397281	-0.0537484730368574	0.0108672230319448	-0.032913825165279	0.00869848795695998	0.0229469012057168	0.0109680838783695	0.2880859375	-0.294921875	0.479736328125	0	0	0	-0.532846027201852	0.183157630715731	-0.753658431806815	-0.338418914619582	-0.203095499045816	0.314914905214754	0.927135815693102	-0.705294168729079	-0.703851841076609	0.0845737628926745	0.679199789328655	-0.636726933847352	0.365056787211607	13.0437653240554	-67.9926536582684	122.818853284605
16407	1651210046904	9.00815081596974	0.881262850845936	3.52175147344438	-0.0599943600249763	-0.0257150324024142	-0.100742247230258	0.0100617772851589	0.0168521925700682	0.0156142424459706	0.286376953125	-0.294189453125	0.47998046875	0	0	0	-0.53277658793779	0.183151138540436	-0.753740061145781	-0.33834994904782	-0.203336838649407	0.314898545230962	0.927088472724955	-0.705213099904942	-0.703949944861359	0.08443316204047	0.679211759152127	-0.636626563490021	0.365209535593417	13.0175590514271	-67.985416017243	122.851210083209
16408	1651210046905	9.01157577277307	0.85520606723827	3.47449954585758	-0.0775238127562251	0.0234216991095685	-0.117045892611662	0.00373653624666843	0.0137991033449474	0.0214886143445059	0.28076171875	-0.291259765625	0.47119140625	0	0	0	-0.532667076984782	0.183218990197569	-0.753834984033288	-0.338274154459079	-0.203672763042968	0.314816335737782	0.927042652927619	-0.705195231564351	-0.704002796111957	0.0841412410500733	0.679129656967904	-0.63660877925079	0.365393173454944	12.967777167758	-67.9784133863021	122.901147229396
16409	1651210046905	8.98169169971087	0.804829225828236	3.54669501028151	0.0110348562105943	0.00262574822516301	-0.122617576911708	0.00527770219876813	0.00464033996359384	0.0215682911002995	0.29345703125	-0.28955078125	0.4716796875	0	0	0	-0.532629753397954	0.183267071667297	-0.753890030617379	-0.338184192376662	-0.203873995643559	0.314680391914075	0.927044575435903	-0.705134372666546	-0.704089264938077	0.0839274894365029	0.67913246895174	-0.636580362518168	0.365437452475456	12.9344287350197	-67.978707160348	122.938249203945
16410	1651210046906	9.05659659983408	0.827600289674172	3.52797208685431	-0.0338049471374146	0.0199050594228408	-0.0581032098141296	0.00675205916619756	6.57753702420367E-05	0.0231620905245664	0.29345703125	-0.30078125	0.475341796875	0	0	0	-0.532652194920441	0.183350532466355	-0.753898628836177	-0.338084425742554	-0.203961120633529	0.314438642880284	0.927107437751159	-0.705086897112426	-0.704163006629263	0.0837073928348398	0.679155599837243	-0.636618252925912	0.365328442981481	12.9053659499504	-67.9883150580619	122.969521877177
16411	1651210046906	9.0586706211808	0.825579509444018	3.50352245798776	-0.0508951819036166	0.035867722301066	-0.0652832242081995	0.00370490696273508	-0.00146642412580531	0.023049562222942	0.28955078125	-0.288818359375	0.472412109375	0	0	0	-0.532634113590867	0.183419001140728	-0.753938172886282	-0.337987577470982	-0.204130597029136	0.314253039056839	0.927133068550609	-0.705033907410094	-0.704243734991668	0.0834742542766275	0.679159693119801	-0.636620600647297	0.365316742119618	12.8710195343957	-67.9922336221221	123.006704848907
16412	1651210046907	9.05706016040566	0.823640902755161	3.52770864313542	-0.0331068637254879	0.0178912221732398	-0.0580969140282974	0.00212203056040001	-0.00146526155739351	0.0245162302568077	0.28271484375	-0.291748046875	0.47265625	0	0	0	-0.532662688836771	0.183611376307934	-0.753884524531476	-0.337957757838814	-0.204110027675485	0.313956388349668	0.927238093920189	-0.705168105970484	-0.704142832813736	0.0831914257543854	0.679026537717277	-0.636878526260291	0.365114644822975	12.8357209522994	-68.0082973528672	123.028790534686
16413	1651210046907	9.13040128566525	0.773045915010337	3.53350257700675	-0.0100655707500473	0.0711756841214553	0.00781672446522741	0.00375895339900887	0.00158396068506842	0.0215172968097285	0.281982421875	-0.2939453125	0.46875	0	0	0	-0.532635023611443	0.183671017088567	-0.753929054752988	-0.337869604290405	-0.204288124238164	0.313800189737449	0.927251747486083	-0.705118655832277	-0.704218175956592	0.0829725367194113	0.67902433203276	-0.636872201915825	0.365129778208177	12.8025495543485	-68.0103864979903	123.064666073626
16414	1651210046908	9.13030679717313	0.795672633540035	3.53386895682084	-0.0287830637636802	0.0530172889796363	0.00974550066838731	-0.00223323598877991	0.0092031493845935	0.0182165300926407	0.2861328125	-0.290283203125	0.47509765625	0	0	0	-0.532527825727901	0.183817522840882	-0.753986344917736	-0.337831059554548	-0.204568580051531	0.313664120048152	0.927235954787193	-0.705215903124727	-0.704162586993786	0.0826170748586145	0.678838880763083	-0.637000683573131	0.365250466244312	12.7454234789817	-68.0079700591804	123.111985751816
16415	1651210046909	9.10763676182925	0.76985898855616	3.50868683755578	-0.0248179268599847	0.0796992544824205	-0.0226084271557365	0.00421320061703276	0.0107165599336785	0.00929685342371189	0.283203125	-0.297119140625	0.46923828125	0	0	0	-0.532477288923047	0.183828021364023	-0.754035125438864	-0.337796129265785	-0.204723423668431	0.313651800519371	0.927205946827581	-0.705188786295383	-0.704202067228882	0.082511963943489	0.678820370558161	-0.636963104537087	0.365350390685101	12.7263683869976	-68.003379240307	123.132855288522
16416	1651210046910	9.12605691651165	0.745014474264701	3.58486954480103	0.0383715160419455	0.0535468615429168	0.0202629156895195	-0.000424317182951954	0.0152954148192004	0.0106355187863879	0.28173828125	-0.29443359375	0.474365234375	0	0	0	-0.53238133364063	0.183938876925033	-0.754074537674248	-0.337799047923394	-0.204923837626146	0.313600072567852	0.927179171065664	-0.705302570990686	-0.704116585555213	0.0822685681168541	0.678641661060166	-0.637083062427112	0.365473210293165	12.6859187089779	-67.9992836733238	123.162847901523
16417	1651210046910	9.1047328648608	0.744209741337039	3.53625866538976	0.00822870446360227	0.0792713541741857	-0.0173424583743387	0.00296291657958431	0.0274932685167508	0.00157346439237017	0.2802734375	-0.291259765625	0.470703125	0	0	0	-0.532272323870972	0.183905694132226	-0.754153763434254	-0.337812033540385	-0.20513840647261	0.313748610477992	0.927081465467306	-0.705300255233449	-0.704123451322107	0.0822296495546245	0.678579239409452	-0.637002334941854	0.365729737813479	12.671504795598	-67.984344962288	123.177882798979
16418	1651210046912	9.05508434460763	0.71968891862353	3.53523632932668	0.0312521125449938	0.083021622173145	-0.0657632042891105	0.0060093303561141	0.0305511203183482	0.00168300713093395	0.28466796875	-0.302001953125	0.47802734375	0	0	0	-0.53209927631932	0.183907220177832	-0.754276294827447	-0.337810250833653	-0.20550918914432	0.313890731174033	0.926951229601793	-0.705318326240122	-0.704124737596333	0.0820634667481686	0.678448252888219	-0.636930893259172	0.366096989013836	12.6344415771872	-67.964447495943	123.213398420085
16419	1651210046912	9.02588473091656	0.720283329602553	3.58473928082937	0.0683761511581409	0.0440420004603555	-0.0746617296960146	0.0108188583001389	0.0305419454010889	-0.00423953720330176	0.29052734375	-0.29150390625	0.46728515625	0	0	0	-0.531996805271817	0.183824106816352	-0.754361356728349	-0.337826938548002	-0.20570471754373	0.314099500288422	0.926837134074169	-0.7052748505214	-0.70416331468891	0.0821060988498705	0.678434193125812	-0.636785309319311	0.366376193867502	12.631470354458	-67.9470299733684	123.22091107623
16420	1651210046913	8.97606589037441	0.745256814229116	3.58342859520604	0.0583456585532728	0.0120468174459148	-0.119257777879824	0.013751824410712	0.0290264737775251	-0.00106806419424136	0.287841796875	-0.291259765625	0.4697265625	0	0	0	-0.531900925062955	0.183908027003224	-0.754372265516084	-0.337907869901081	-0.205799354752175	0.314174951326949	0.926790551064424	-0.705458350085021	-0.703992218125391	0.0819967872188438	0.678214672414944	-0.636937247126906	0.366518487041909	12.6104511686618	-67.9399224903424	123.226682607754
16421	1651210046915	8.97512173884747	0.745963850435643	3.58564562875784	0.0580665635736188	0.0118119257411931	-0.11925581292596	0.0168668924207728	0.0229184285518389	-0.00245811894618562	0.28173828125	-0.30029296875	0.485595703125	0	0	0	-0.53183582964441	0.183820602648624	-0.754445251908207	-0.33789495145903	-0.205955304169883	0.314321718113307	0.926706140158028	-0.705371248974772	-0.704073975640792	0.0820441219414237	0.678257925721522	-0.636774445426061	0.366721272696677	12.6107439769672	-67.9270488907397	123.234310905603
16422	1651210046914	8.99665251496238	0.796092595720586	3.61339213459648	0.0351595823821124	-0.0329567661695029	-0.0850052207027136	0.0216226149214528	0.0198581986228569	-0.00684562895004235	0.28564453125	-0.2900390625	0.471923828125	0	0	0	-0.531749094373103	0.183782356368905	-0.754509080722359	-0.337909741245172	-0.206119814810012	0.314459733346209	0.926622737712882	-0.705364139589889	-0.704082104518228	0.082035484260156	0.678215343768704	-0.636697311287722	0.366933892241756	12.6023856754027	-67.9143360946076	123.243752930669
16423	1651210046914	9.02035603743555	0.773140266755143	3.61684862923882	0.0484028899978795	-0.00968025915578869	-0.0636501756854937	0.0216275751187914	0.0152772497228321	-0.00683263853231714	0.288330078125	-0.289794921875	0.477783203125	0	0	0	-0.531724517933025	0.183678542747784	-0.75455891301252	-0.337893587918306	-0.206193920545171	0.314588467632663	0.92656255221261	-0.705254006021488	-0.704180232355488	0.0821400471780598	0.67830734488199	-0.636525173416027	0.367062459925884	12.613656590088	-67.9051665075304	123.242443790115
16424	1651210046916	8.99731144965222	0.774519478851286	3.59179718356359	0.0363577440489848	-0.000248112132445605	-0.0940877510355005	0.0247964480792413	0.0152728096063525	-0.00976264567316099	0.285888671875	-0.286865234375	0.46875	0	0	0	-0.531770011099998	0.183509426720344	-0.7545880217054	-0.337848876123942	-0.206157584392995	0.314703810371452	0.926531468507646	-0.705043049907578	-0.704364854413121	0.0823677706667082	0.678537654205178	-0.636263831759493	0.367089891198958	12.6465882727109	-67.9004321519943	123.228186146368
16425	1651210046918	8.99674237387456	0.776337639912116	3.59282997759869	0.0360777601252155	-0.000484023717392534	-0.0940867165214207	0.027849435424653	0.0122231855992379	-0.0096336385496664	0.2861328125	-0.288818359375	0.476806640625	0	0	0	-0.531770394250173	0.183379585633134	-0.754630463623098	-0.337823975975692	-0.206190418109982	0.314832858127939	0.926480319770811	-0.704896196326199	-0.70449377765799	0.082521934332822	0.67868023684537	-0.636057221234197	0.367184350744072	12.666340768593	-67.8926437900621	123.221601666568
16426	1651210046919	9.04666277197536	0.802819621585949	3.57325521417581	-0.00433421476264996	0.0110711430159342	-0.052839130167122	0.0280236861603609	0.0167903350686007	-0.0142224323925663	0.2861328125	-0.28369140625	0.4716796875	0	0	0	-0.531833086892807	0.18316226215249	-0.754662547966524	-0.337771508724351	-0.206127951160286	0.314983512243175	0.926443012152078	-0.704630517374488	-0.704723987234517	0.0828247294040045	0.678975037637632	-0.635727527193245	0.367210306818501	12.7104402054752	-67.8869646433736	123.201084656443
16427	1651210046920	9.09065505871049	0.830168765921389	3.62701446721899	0.0041817986488682	-0.0258753919798223	0.00992612232361445	0.034178669387936	0.0198492042595957	-0.0155172017065848	0.28662109375	-0.29443359375	0.47509765625	0	0	0	-0.531821184675915	0.182979691198002	-0.754720823445876	-0.337758995137317	-0.206170177467473	0.315202541583467	0.926359118108282	-0.704452446161684	-0.704874587625828	0.0830576114280935	0.679146971589987	-0.635451944287405	0.367369320277982	12.7396764513009	-67.8741989426536	123.188214627536
16428	1651210046921	9.13817794642017	0.881736064190163	3.63247499805924	-0.0369642864123991	-0.0479164173274947	0.0602537306587916	0.0295921683255571	0.0290044463857938	-0.0157300392418524	0.27783203125	-0.2958984375	0.46630859375	0	0	0	-0.53182734182626	0.182773265516879	-0.754772103101391	-0.337746479298029	-0.206173988415601	0.315435601076233	0.926278936430317	-0.704250880903222	-0.705042498268164	0.0833413005827299	0.679354828677797	-0.635149948602265	0.367507223796621	12.7771238939785	-67.8620046670583	123.169302662739
16429	1651210046922	9.06579171778695	0.883604014285002	3.605069771635	-0.042744700754618	-0.051136905486664	-0.0166973567136903	0.0293999644652034	0.0366564285514242	-0.0111840433183658	0.279541015625	-0.292236328125	0.478759765625	0	0	0	-0.531740313293018	0.182591736086491	-0.754877684276648	-0.337745731154503	-0.206360120611908	0.315730656913776	0.926136951484949	-0.704096204719163	-0.705176157999663	0.0835171879849033	0.679458633855742	-0.634854895604996	0.36782499426393	12.792504676786	-67.8404267961899	123.168448048733
16430	1651210046923	9.01356203582808	0.934271254661029	3.62836533371391	-0.0557910925819235	-0.115367656256522	-0.0522685872489976	0.0231753209462052	0.0397113600246086	-0.00838914970460223	0.280517578125	-0.292236328125	0.481689453125	0	0	0	-0.531527314391619	0.182562194216237	-0.755018685335946	-0.337781799527691	-0.206764339926935	0.31598955481722	0.925958481240382	-0.70413672602201	-0.705149002301576	0.0834047697682664	0.679293735288045	-0.634756241245021	0.368299518597171	12.7599293803748	-67.8133324165051	123.198294854984
16431	1651210046924	8.96162259824839	0.911176989466172	3.65209586169108	-0.0144257947323782	-0.127461855838032	-0.0935170393435829	0.0184276631771289	0.0336123534606301	-0.00397416995394844	0.279296875	-0.29052734375	0.474853515625	0	0	0	-0.531425857795323	0.182447092671389	-0.755118663525514	-0.337780135646998	-0.206982275257601	0.316213963740145	0.925833174424493	-0.704042374640768	-0.705235276676106	0.0834717871005833	0.679325159580723	-0.634548606229124	0.368599232084525	12.7598028856093	-67.7943277768869	123.207313969788
16432	1651210046926	8.98675810594685	0.887314775494742	3.63279552292696	-0.019681627132676	-0.0874698214280716	-0.0793265391398012	0.0120839841014976	0.0336249780846645	0.00187938480672777	0.2861328125	-0.2919921875	0.478759765625	0	0	0	-0.531241349048529	0.182352955861816	-0.755292479925397	-0.337732584033139	-0.207438661486795	0.316426901341968	0.925658261902138	-0.70392062244204	-0.705368202341515	0.083375394609626	0.679312121944971	-0.634294659628016	0.369060057099115	12.7301538032193	-67.7678254877942	123.247479139233
16433	1651210046927	8.93281762906907	0.912337184494692	3.6803219334696	0.00387420135824368	-0.149986113786662	-0.109602920898876	0.00769228859816456	0.0351257224871966	-0.00288526129420157	0.2822265625	-0.295654296875	0.4775390625	0	0	0	-0.531114418731076	0.18227861393918	-0.755389002745322	-0.337756473879911	-0.207676077136321	0.316653451771017	0.925527546033487	-0.703896652128671	-0.705390142505241	0.0833921457841395	0.679264418402227	-0.634157187405406	0.369383962232726	12.7218266165582	-67.748039325339	123.258727885985
16434	1651210046928	8.90548644233131	0.888489975580096	3.70542100466102	0.0408519860470581	-0.156161755455274	-0.127585801199535	0.0031373403615061	0.0229003672047596	-0.00302018661462736	0.2841796875	-0.288330078125	0.47265625	0	0	0	-0.530999379465053	0.1823049347032	-0.755438617811535	-0.337812173418289	-0.207845188996282	0.316785108332412	0.92544452699766	-0.704000337135678	-0.705295692546548	0.0833157331368885	0.679105222129791	-0.63419648470652	0.369609139581181	12.7030561072684	-67.735481590313	123.26919380774
16435	1651210046929	8.92910538445437	0.864503346253399	3.70942674159301	0.0540799281785307	-0.132898478845614	-0.106217929683071	9.52575220298221E-05	0.0183132968959981	-0.00312510947622848	0.287353515625	-0.293701171875	0.481201171875	0	0	0	-0.530923136276629	0.182287315473783	-0.755483201496411	-0.337841812451157	-0.207967066251811	0.316906521670323	0.925375575578604	-0.704028734609476	-0.705268488754158	0.0833060598912572	0.679038467392529	-0.634166078636538	0.369783915967099	12.6958203628492	-67.725056877952	123.274529262098
16436	1651210046930	8.93047976738671	0.840290419938093	3.68686812349365	0.0550637963608431	-0.100111083206188	-0.115290859419858	-0.001302734584733	0.0167711006979582	-0.00623008137214999	0.288330078125	-0.28466796875	0.481689453125	0	0	0	-0.530886690648549	0.182272588784683	-0.755489360453318	-0.337893254315321	-0.207974940760867	0.317017334296656	0.925335849176371	-0.704081700120033	-0.705209704131863	0.0833560600936366	0.678981136388631	-0.634176066210081	0.369872050139923	12.7002644168326	-67.7190527755043	123.266336607038
16437	1651210046930	8.90567850833401	0.816521326388781	3.68623963586569	0.0758541148360632	-0.0896238620889708	-0.140438761279574	0.000420891826418255	0.00912016577391452	-0.0107100908588836	0.281005859375	-0.29345703125	0.48291015625	0	0	0	-0.530852856316466	0.182249133523881	-0.755496826301151	-0.3379423674524	-0.207980402442634	0.317133825981264	0.9252947036584	-0.704123718350677	-0.705160419220924	0.0834180581180566	0.678935889061564	-0.634172626011764	0.369960996540888	12.7064474274135	-67.7128358114979	123.257372800916
16438	1651210046932	8.92967138193815	0.817537990278936	3.68884846249441	0.0722402330176026	-0.0823200331557471	-0.117172573523323	-0.0026207171234378	0.00453269503705727	-0.0108157000714155	0.28369140625	-0.294189453125	0.474853515625	0	0	0	-0.530852135594614	0.182123039292047	-0.755531935267564	-0.337932986677113	-0.207994613300248	0.317277518131485	0.925242247914785	-0.703999135528145	-0.705264990149027	0.0835853506645611	0.679060717472086	-0.633984439997086	0.37005441738733	12.7279908456322	-67.7049122922556	123.247266507813
16439	1651210046932	8.97805715467432	0.794475699343657	3.69366538609311	0.0816971364103674	-0.052662196292164	-0.0725427060218688	-0.0023792183861901	0.00908990657897912	-0.0169329824016695	0.27978515625	-0.297607421875	0.469482421875	0	0	0	-0.530819399723574	0.182092985567482	-0.755526445909042	-0.33801286812232	-0.207956131721654	0.317438343262348	0.925195733618688	-0.704072300433565	-0.705178891181688	0.0836954430895354	0.678996644352204	-0.633999707932599	0.37014581896845	12.7411638200824	-67.6978884724524	123.229095121296
16440	1651210046933	8.97756276595756	0.820503813388378	3.69409867896324	0.0626956432395124	-0.0716859045067245	-0.0706570361837944	-0.00370833494523778	0.00448721107402146	-0.0215503084318736	0.283203125	-0.289306640625	0.4814453125	0	0	0	-0.530744451364966	0.18225892117173	-0.755453726709087	-0.338203607017978	-0.20785729509066	0.317528528369054	0.925186996530635	-0.704460172863695	-0.704800011706693	0.0836230132624972	0.678624498324698	-0.634375738163141	0.370184025997237	12.7292260098255	-67.6965693760752	123.209152292488
16441	1651210046934	9.05216978783715	0.822356578588708	3.67631655245459	0.034258575548575	-0.0365771673376378	-0.0080537743096194	-0.000789829737011951	0.0075604091572165	-0.0183887934916033	0.2822265625	-0.291748046875	0.4765625	0	0	0	-0.530721175004145	0.182222645808186	-0.755443060405313	-0.338283496851883	-0.207798620319763	0.317689006901426	0.925145084993262	-0.704526673684165	-0.704718366224653	0.0837507634185065	0.678573429674881	-0.634386096316464	0.370259883513768	12.7455108890422	-67.6902427412069	123.188476837657
16442	1651210046935	9.02336163495826	0.799941331114765	3.72420926926533	0.0883084461404098	-0.057954855935179	-0.018835290990836	0.000782014508187351	0.0151938162691609	-0.0198821472254652	0.286865234375	-0.291748046875	0.48193359375	0	0	0	-0.530660894888206	0.182118934541467	-0.755484292280023	-0.338341827795622	-0.207847644400733	0.317937079082088	0.925048847608502	-0.704510666201533	-0.704715002490798	0.0839135654865683	0.678575034852698	-0.634265542977976	0.37046341663586	12.7626894305722	-67.6757219440687	123.174182394903
16443	1651210046936	9.00009920427689	0.850278696110027	3.69883976217284	0.0403633486850009	-0.082597031275289	-0.0455115576912028	0.000782027071233314	0.0151939449626091	-0.01988215433256	0.28466796875	-0.286376953125	0.47509765625	0	0	0	-0.530612654868335	0.182059604039351	-0.755492965527663	-0.338430037243783	-0.207830640769496	0.318156765234691	0.924977133497222	-0.704569284609083	-0.704638820936412	0.0840610207812643	0.678519379194718	-0.63424002141519	0.370609022141223	12.7795222186915	-67.664907170871	123.153912748154
16444	1651210046937	8.94885518569354	0.803381876277084	3.72103034821404	0.100130350660852	-0.0771693897458492	-0.08861843112496	0.00693645439214215	0.0182578792963902	-0.0211684242716392	0.281982421875	-0.287353515625	0.480712890625	0	0	0	-0.530611268388178	0.181899418547258	-0.755509169449977	-0.338482168317129	-0.207763007181649	0.318417001328938	0.924902776572503	-0.704488526106667	-0.704684846527009	0.0843515480549197	0.6786239381505	-0.634058262575209	0.370728566783318	12.8182345022855	-67.6536990950165	123.123932418509
16445	1651210046937	8.94771179614374	0.854404435395851	3.72234536192601	0.0652068662176016	-0.111629920924624	-0.0848564445178663	0.00546772539164653	0.0213023563993135	-0.022768488080253	0.28369140625	-0.295166015625	0.479736328125	0	0	0	-0.530550776476231	0.181804017495959	-0.755533286853972	-0.338574401363175	-0.207766496644073	0.318695935315112	0.924805916766256	-0.704520985911028	-0.704629347927795	0.0845438492724577	0.678589171209799	-0.633979796880372	0.370926345605595	12.8398657752769	-67.6391070761667	123.101416837285
16446	1651210046939	8.89795814187822	0.880947034688021	3.7198906699541	0.0545791405688613	-0.14121355793331	-0.129485806826157	0.00712210794530065	0.0197675517483751	-0.0257482724481389	0.28173828125	-0.296875	0.472900390625	0	0	0	-0.530476139221095	0.1816663888126	-0.755584101488107	-0.338651818939868	-0.2078200224916	0.319020491534894	0.924681980051751	-0.70449922978908	-0.704624537409016	0.0847649485797302	0.678595368005253	-0.63382188922596	0.371184777785741	12.8636635181674	-67.6204490605784	123.081491302069
16447	1651210046940	8.8708472237137	0.859011119919639	3.74394712401328	0.0921656955053406	-0.146918448348734	-0.147446007430203	0.0115140455160001	0.0167448274155119	-0.020972287804739	0.273681640625	-0.285888671875	0.47802734375	0	0	0	-0.530441252057863	0.1815604353325	-0.755604856634425	-0.338716971921441	-0.207805782095313	0.319258088732809	0.924603174181459	-0.704486667300578	-0.704613242508486	0.084963015938719	0.678612770675207	-0.633714802778309	0.37133577287432	12.8876508476456	-67.6085929251083	123.060190304245
