// Start Time : 29/04/2022 05:26:59																																
// Update Rate : 100Hz																																
// Filter Profile : 46.1 human																																
// Firmware Version : 4.4.0																																
PacketCounter	Time_Of_Arrival	Acc_X	Acc_Y	Acc_Z	FreeAcc_X	FreeAcc_Y	FreeAcc_Z	Gyr_X	Gyr_Y	Gyr_Z	Mag_X	Mag_Y	Mag_Z	VelInc_X	VelInc_Y	VelInc_Z	OriInc_q0	OriInc_q1	OriInc_q2	OriInc_q3	Mat[1][1]	Mat[2][1]	Mat[3][1]	Mat[1][2]	Mat[2][2]	Mat[3][2]	Mat[1][3]	Mat[2][3]	Mat[3][3]	Euler_X	Euler_Y	Euler_Z
16223	1651210046745	5.10859143317102	2.6842760562031	8.2009726197162	1.30104260698261E-15	-7.80625564189563E-16	0.215223497329308	0.00290478519367796	-1.05606193078983E-06	-0.0137662590864906	0.1455078125	-0.1787109375	0.714111328125	0	0	0	-0.301572029234469	0.0120428693304933	-0.825630249592646	-0.476701134296194	-0.363620679488253	0.779894167896524	0.509455678474085	-0.794421338063734	-0.545221995718021	0.267633542393859	0.486492280593977	-0.307405371238446	0.817818560963387	18.1208370791202	-30.6275795589719	114.996986102599
16224	1651210046746	5.23530174153547	2.542355037871	8.22331051065308	8.67361737988403E-16	-5.20417042793042E-16	0.261774863133311	-0.00156889018743597	-0.0107613605167135	-0.0182636473822602	0.157470703125	-0.18310546875	0.71435546875	0	0	0	-0.302340995226807	0.0212228040255801	-0.826000272501375	-0.475250528692194	-0.365453715166108	0.772281085031155	0.519639786558335	-0.797947179793544	-0.547373055134164	0.252315351836984	0.479295191224384	-0.322435519470473	0.816279030389111	17.1766035340353	-31.3080921940886	115.324137342454
16225	1651210046746	5.12772306153274	2.88285142538853	8.2229915609423	-0.193115169393594	-0.184635222346942	0.294269754656021	0.018067660961007	0.00325380276134595	-0.0185181035033149	0.1513671875	-0.168212890625	0.719970703125	0	0	0	-0.30198962840145	0.0165666895197489	-0.825775407932186	-0.476049141151145	-0.364358959094423	0.776213410635886	0.514524333804183	-0.79622528428353	-0.546205520015227	0.260163076881615	0.482978100533806	-0.314884536066641	0.817055618272622	17.66227536502	-30.9656660950457	115.145625724206
16226	1651210046747	5.18466871408481	2.51906237360376	8.12618841792578	0.0302769904039223	0.0897265572398068	0.149864295816336	-0.00158460960114532	-0.0061706171735347	-0.0136986719329255	0.150634765625	-0.18212890625	0.719482421875	0	0	0	-0.302012468207442	0.0165672354314786	-0.825733350800622	-0.476107581469762	-0.364220079828528	0.776268793849143	0.514539107498837	-0.796282840505282	-0.546094195154347	0.260220613971242	0.482987961927152	-0.314941089276592	0.817027991514816	17.6664988444645	-30.9666532654695	115.135652784437
16227	1651210046748	5.20299310254326	2.76508600864475	8.19752135394949	-0.137338245988277	-0.0518389668891474	0.281600373739696	0.00273269203873609	0.0106741537177039	-0.0153244632720839	0.151123046875	-0.18017578125	0.724365234375	0	0	0	-0.301978734514364	0.0164984284037325	-0.825713288329418	-0.476166159273766	-0.364149265327147	0.776389101268592	0.514407694336941	-0.796317799391932	-0.545987181245354	0.260338165253087	0.482983721188707	-0.314830051531141	0.81707329152262	17.6730639551869	-30.9578726661542	115.127955126712
16228	1651210046749	5.13313093828075	2.61779098060108	8.20016418399831	0.00723706882732366	-0.0250249044677166	0.209481897380721	0.00742668627753666	0.00158065429258515	-0.0168721881715377	0.14501953125	-0.181396484375	0.725830078125	0	0	0	-0.301991280896943	0.0164385282676957	-0.825676114234544	-0.476224732067918	-0.364022541658127	0.776486188137207	0.51435084212715	-0.796343356967695	-0.545879558710464	0.260485633376377	0.483037107247653	-0.3147772339516	0.817062082101232	17.682678813538	-30.9540742368723	115.117535425006
16229	1651210046750	5.25023592627897	2.74459777614743	8.17242911482979	-0.148931780456516	0.0068231226047967	0.28009047225277	0.0042920624572987	0.00610838763774365	-0.018379256787848	0.15478515625	-0.1806640625	0.719482421875	0	0	0	-0.301978760367787	0.016376798032296	-0.825641402902681	-0.47629497434451	-0.363903851401795	0.776606811289422	0.514252707911019	-0.796388591963767	-0.545749795800744	0.260619206839046	0.483051961516468	-0.314704656848801	0.817081257545888	17.690791660572	-30.9475180153847	115.106935350479
16230	1651210046751	5.05903426509482	2.61856184828071	8.22615416547679	0.0478491232779607	-0.0885365223135046	0.192820009578975	0.00439457999493045	-0.00305672288502691	-0.0214030804739056	0.146484375	-0.173583984375	0.72265625	0	0	0	-0.302003595462369	0.0163336193111964	-0.825586171503286	-0.476376442144808	-0.363718627394512	0.776713982611588	0.514221887225639	-0.796445229647167	-0.545597396499302	0.260765176174761	0.483098081406377	-0.314704417110452	0.817054082415997	17.7006336704052	-30.9454590176346	115.092692704905
16231	1651210046752	5.24984332704916	2.74789039677975	8.19637377330873	-0.137384294145766	-0.000489513432861216	0.30034505112117	0.0151553097022604	-0.00287285746012162	-0.0138882056255643	0.149658203125	-0.17138671875	0.72216796875	0	0	0	-0.302054556151892	0.0162528377564547	-0.825548868259615	-0.476411541094476	-0.363590177239739	0.776783529763259	0.514207672933132	-0.796420504542197	-0.545535777553697	0.260969529550165	0.483235515002288	-0.314639576813559	0.816997780745491	17.7147826306632	-30.9445094366887	115.082951215904
16232	1651210046753	5.05684812331119	2.6454871554903	8.17652717782011	0.00574174488163917	-0.0875756201062333	0.158180676871602	-0.00471693058377269	-0.00164696273923057	-0.0152054003342203	0.145263671875	-0.1787109375	0.721435546875	0	0	0	-0.302051353089055	0.0162532668154476	-0.825509774791354	-0.476481293587508	-0.363461113916492	0.776861288255986	0.514181444122434	-0.79649857319088	-0.545402816358002	0.261009177642572	0.483203933733445	-0.314678100156348	0.817001622829793	17.7172275596395	-30.9427572547351	115.072940359796
16233	1651210046754	5.20292964773702	2.6999847832031	8.22148127657329	-0.0678655707005697	-0.0175340733468574	0.284254534661127	0.00761570197048647	-0.0121558691191693	-0.018355313854855	0.14990234375	-0.1728515625	0.72021484375	0	0	0	-0.302124977655426	0.01621503011805	-0.825446061457537	-0.47654629397281	-0.363248255154978	0.776928591699887	0.514230170766063	-0.796524454148279	-0.545281404998102	0.261183811341903	0.483321320728407	-0.314722342331342	0.816915141349959	17.7300988732641	-30.9460124010692	115.05815484872
16234	1651210046755	5.17727299858282	2.70058736232156	8.17277570038528	-0.0811039128483039	-0.0215204194790196	0.231442722152181	0.0119490708288539	0.00623297555271052	-0.0154112686495294	0.14794921875	-0.17529296875	0.72265625	0	0	0	-0.302128972068153	0.0161275812397572	-0.825419720667898	-0.47659235211334	-0.363155628288231	0.777032233223872	0.514138987214258	-0.796522671391526	-0.545199262060859	0.261360667675155	0.483393859706439	-0.314608762083032	0.816915970720792	17.7413350469738	-30.9399210436907	115.049617345585
16235	1651210046756	5.0806915159188	2.64973989636126	8.175203667766	-0.00354388609449955	-0.0686148637072232	0.17048759645138	-0.00617056775548585	-0.00318177251743025	-0.0106058412459529	0.14794921875	-0.1767578125	0.718017578125	0	0	0	-0.302135947001337	0.0161328235640849	-0.825385266709311	-0.476647420041958	-0.363042212993901	0.777086903984592	0.514136455855964	-0.796584127685953	-0.545093937942391	0.261393049519809	0.483377780936711	-0.314656229040675	0.81690720306691	17.7435737827907	-30.9397519462743	115.041207408238
16236	1651210046757	5.19942577810508	2.77632945215635	8.19598441232065	-0.136803525678338	-0.0515206672772891	0.281609264333575	0.00906930751822644	-0.00295606646463276	-0.0122969739370376	0.148681640625	-0.179443359375	0.725830078125	0	0	0	-0.302170751861135	0.0160838632268374	-0.825352223469011	-0.476684228056831	-0.362929966883079	0.777144628950459	0.514128451684694	-0.796584921126799	-0.545026912131127	0.261530358632071	0.483460755978868	-0.314629767737038	0.816868292126753	17.7531019380767	-30.9392172611204	115.032781936946
16237	1651210046759	5.07935023526175	2.67554260964851	8.15016966397566	-0.0338753904139928	-0.0748382668470847	0.156106160759471	-3.52753674840286E-05	-0.00307889673120138	-0.00761986631511481	0.142822265625	-0.177978515625	0.72265625	0	0	0	-0.302194157218429	0.0160607815999555	-0.82532378069027	-0.476719413979083	-0.362834583356966	0.777188789427599	0.514129021460801	-0.79660268686707	-0.544961303259676	0.261612953092313	0.483503075891294	-0.314634333055977	0.816841485274884	17.7589025787081	-30.9392553225291	115.025760541973
16238	1651210046761	5.2017614791248	2.68010833197224	8.17177098213479	-0.0709097136180537	0.0114058227644915	0.23788405359857	0.00292697497404325	-0.0015284692673987	-0.0137618048957132	0.1455078125	-0.187744140625	0.717041015625	0	0	0	-0.302208545865761	0.0160315523482284	-0.825288901527579	-0.476771657243182	-0.362717563310584	0.77725897032516	0.514105497262093	-0.796638458817676	-0.544863552357792	0.26170761403644	0.48353193813711	-0.314630262945445	0.816825968270017	17.7652407261021	-30.9376839035995	115.016694355537
16239	1651210046762	5.1267187776874	2.72733763844533	8.17304332506416	-0.0798091682939917	-0.0721193588391947	0.212714499186763	-0.000129036339753928	0.00302409702741761	-0.00763977623650302	0.14013671875	-0.185546875	0.7158203125	0	0	0	-0.302209211957982	0.0159894289379909	-0.825268165038581	-0.476808542440072	-0.36264641212782	0.77732551635046	0.514055076233383	-0.796654127226494	-0.544795904036823	0.261800734371955	0.483559491007893	-0.314583001090637	0.816827860739946	17.7711257223087	-30.9343158606348	115.01050778277
16240	1651210046763	5.17788790725588	2.65634654795598	8.19695033979448	-0.0300060702413122	-0.000552733401648629	0.239963746875153	-0.00014752762095108	-4.94351331318371E-05	-0.013733662620262	0.146484375	-0.177978515625	0.729736328125	0	0	0	-0.302210161681324	0.0159694028635323	-0.825235334845901	-0.47686543014828	-0.362536759412088	0.777400174207016	0.514019520269302	-0.796704637492386	-0.544688679403356	0.261870126451939	0.483558495606384	-0.314584188529444	0.81682799269746	17.7755369430561	-30.9319408512215	115.001761922265
16241	1651210046764	5.15186814539934	2.68047843078479	8.17291401207612	-0.0504220018911072	-0.0253615647929768	0.213281310828847	-0.000131132944071371	-4.39508902184527E-05	-0.0122077123463133	0.149169921875	-0.173828125	0.72998046875	0	0	0	-0.302226732379577	0.0159218366307445	-0.825197401682508	-0.476922158858136	-0.362408513250517	0.777485843272309	0.513980381955085	-0.796733861905875	-0.544583499016797	0.261999934906808	0.4836064751594	-0.314554567777623	0.816810994706935	17.7841400186545	-30.9293266220229	114.991580120036
16242	1651210046765	5.17798604576596	2.63328927877401	8.19709277004232	-0.010161012798076	0.0136540022569394	0.234092821992842	0.00139448486903244	-2.03366886185232E-05	-0.0122242780817553	0.14111328125	-0.184814453125	0.717041015625	0	0	0	-0.302231114523473	0.0158976581408468	-0.825168330072208	-0.476970486430115	-0.362311016977038	0.77755234568609	0.513948515607471	-0.796771413438976	-0.544492839080513	0.26207415537687	0.483617660661314	-0.314547131457436	0.816807235759072	17.7889371615611	-30.9271981739234	114.983801232232
16243	1651210046765	5.19875137326789	2.68329442756892	8.12304255899152	-0.0921123541064937	0.0271942745859306	0.197391601865039	0.0058834527188602	0.00462261237477281	-0.013814904463966	0.1513671875	-0.181884765625	0.722412109375	0	0	0	-0.302245211894661	0.0158102382608271	-0.825133214205183	-0.477025205904585	-0.36218956963688	0.777661545183381	0.513868890661079	-0.796775820436376	-0.544393978595648	0.262266063448439	0.483701362013992	-0.314448274302463	0.816795736505775	17.8013762417766	-30.9218799940738	114.973368538994
16244	1651210046767	5.07608051623198	2.72978305206805	8.19872513845177	-0.0476786626199125	-0.116175313980174	0.208372101393273	0.0013229731159353	0.0045566961154961	-0.0122393905999846	0.155517578125	-0.18017578125	0.723876953125	0	0	0	-0.302230535678604	0.0157754139490248	-0.825111010320784	-0.47707406161473	-0.362114086075697	0.77774249833681	0.51379956689976	-0.796813745570272	-0.544302952098323	0.262339762916958	0.4836954036745	-0.314405633883792	0.816815679236322	17.805655444291	-30.9172500749878	114.966516079403
16245	1651210046767	5.12441466706575	2.73211225448892	8.19768856628528	-0.0662480380809389	-0.0782398891451047	0.232990839678159	0.00294469566121387	-0.00152247828879512	-0.0122356867331913	0.14013671875	-0.17431640625	0.718505859375	0	0	0	-0.3022672390336	0.0157087063628743	-0.825067614805479	-0.477128058020704	-0.361966664912794	0.777829362973633	0.51377194900845	-0.796822272178015	-0.544204105587594	0.26251887174577	0.483791690764708	-0.314361851307755	0.81677550550282	17.8178644986429	-30.9154056240687	114.955142103476
16246	1651210046768	5.17521685979851	2.6610235150048	8.19712018416423	-0.0279158412331003	0.000693882094559593	0.239969759919074	-0.00318965289528181	0.00143861831717939	-0.0106538781402312	0.143798828125	-0.18017578125	0.72412109375	0	0	0	-0.302254535299123	0.0157023317328276	-0.825044118688648	-0.477176942953591	-0.361888722009152	0.777891858753342	0.513732234698052	-0.796876262677416	-0.544111203783235	0.262547557404053	0.483761072083997	-0.314368023187523	0.816791265338527	17.8193662512217	-30.9127533804866	114.948661996011
16247	1651210046771	5.10134695106846	2.68393048600319	8.22300887909477	-0.00566934898315685	-0.076091233225235	0.229188781444899	0.0044220754415737	0.0015534794738301	-0.0122622971823501	0.148193359375	-0.180908203125	0.720703125	0	0	0	-0.302283593192015	0.0156160849005834	-0.825004382174265	-0.477230066710556	-0.361752185428726	0.777992820172371	0.513675508563317	-0.79687476519373	-0.544015202639633	0.26275096173829	0.483865647607864	-0.314284315639837	0.816761534358605	17.8329054215989	-30.9089651625341	114.937551092076
16248	1651210046770	5.14916794285886	2.6859122445792	8.19762685047451	-0.0365416729255446	-0.031278727327934	0.233547126308057	-0.00473156774033808	0.00140838866448239	-0.0121634538445	0.140625	-0.17626953125	0.71923828125	0	0	0	-0.302267435197636	0.0156138466945846	-0.824977120118459	-0.477287498989336	-0.361662081855095	0.778063417981646	0.5136320240668	-0.796941647557411	-0.543905702199805	0.262774803782663	0.483822848712955	-0.314299068902941	0.816781210820882	17.8340186529339	-30.9060613336082	114.930107460756
16249	1651210046770	5.15034580129094	2.63766429418436	8.19801120614512	0.00288985753608131	-0.00290672629493088	0.22178849213784	0.00292085403728127	3.98521086879946E-06	-0.012240741214813	0.15087890625	-0.176513671875	0.71923828125	0	0	0	-0.30229725730721	0.0155314427753089	-0.824934281623592	-0.477345339887198	-0.361515589425028	0.77816684498643	0.513578465248048	-0.796947295198429	-0.543800401546586	0.262975534895701	0.483923017925975	-0.314225213249411	0.816750285019711	17.8474108346192	-30.9024848777525	114.918325788983
16250	1651210046772	5.10030196843924	2.66134646836941	8.19892360795711	0.00303963134360325	-0.0541857499316918	0.203062640017082	0.00132999572116529	0.00302553892621154	-0.0137604069532984	0.14453125	-0.1865234375	0.72314453125	0	0	0	-0.302289014990698	0.0154979316611557	-0.824906115967643	-0.477400319825361	-0.361420572093193	0.778251178185211	0.513517549574656	-0.796990596170187	-0.543697497489738	0.263057067648233	0.483922679447987	-0.314194422096777	0.81676233106036	17.8523464425826	-30.8984173213065	114.910199361221
16251	1651210046773	5.099481884264	2.71153752949948	8.24725630894508	-0.0115685850314334	-0.095789125522084	0.255335202260692	0.00757161359511283	-0.00449978078934261	-0.0122748117481473	0.15185546875	-0.173095703125	0.72021484375	0	0	0	-0.302345684282075	0.0154057766548154	-0.824857033803317	-0.47745222067434	-0.36125292833829	0.778343904887293	0.513494973190402	-0.796975385225681	-0.543604078037606	0.263296110273704	0.484072884090184	-0.314126363213414	0.816699498483332	17.8688252093486	-30.8969098596228	114.897439143064
16252	1651210046774	5.1737683917921	2.64115368972054	8.17242938352557	-0.0173758116674535	0.0239513316464755	0.21384237302731	0.0015679304625351	-0.0107010842286535	-0.0121883693383469	0.149169921875	-0.173095703125	0.725341796875	0	0	0	-0.302394504946002	0.015406455412516	-0.82481187105195	-0.477499300399347	-0.361103962993193	0.778376527861885	0.5135502982029	-0.797011837691647	-0.543514118499512	0.263371474482494	0.484124011478459	-0.314201183742797	0.81664040902017	17.8748254706247	-30.9006040423581	114.887499545623
16253	1651210046775	5.17200429747489	2.71539172909271	8.19600617015211	-0.0626620218709521	-0.0240033954988261	0.251754751671719	0.00290373494482314	-1.81389838472837E-06	-0.0137669542988453	0.1533203125	-0.173095703125	0.72314453125	0	0	0	-0.302420671226299	0.015314602436278	-0.824765552497744	-0.477565685513881	-0.360945507269382	0.778496548236954	0.513479761203102	-0.797022357630327	-0.543392957943751	0.263589557256231	0.484224846759688	-0.314113383414792	0.816614401134506	17.8892170656035	-30.895894144016	114.874529399148
16254	1651210046777	5.0991133569632	2.71416970646346	8.22182594020506	-0.0220956952360049	-0.0875447619310051	0.235095658218199	0.00449547731731059	-0.00302287102140916	-0.0122472114493969	0.138916015625	-0.178955078125	0.717529296875	0	0	0	-0.302444895398064	0.0152847300310411	-0.824732045427832	-0.477609166076152	-0.360833139455393	0.77855359175528	0.513472248749353	-0.797044746056983	-0.543311723015841	0.263689295225491	0.484271740094055	-0.314112521874742	0.816586924551065	17.896118152508	-30.8953925359152	114.86612051898
16255	1651210046778	5.17489138580367	2.64412799548493	8.22035691542875	0.00749444797861435	0.0110937693342049	0.254338128619445	3.49871266537183E-05	-0.00919472104897562	-0.0106506787448938	0.146728515625	-0.173583984375	0.724609375	0	0	0	-0.302499430591198	0.0152278467567424	-0.824679396243982	-0.477667353485473	-0.360655987812371	0.778632019409632	0.513477786087345	-0.79705767930181	-0.543204024194675	0.263872021943827	0.484382405049043	-0.314104387821612	0.816524414350309	17.9090111233176	-30.8957622648711	114.853186633087
16256	1651210046779	5.12502753351142	2.66777685425503	8.19635456603251	-0.00384517506646738	-0.0328341523229817	0.215377040508537	0.0106225122529947	-0.00444866941825116	-0.0123088715660373	0.146728515625	-0.174072265625	0.730712890625	0	0	0	-0.302544154648801	0.0151759967282057	-0.824644050150001	-0.477701699979548	-0.360536240648984	0.778684911067175	0.513481672949487	-0.797050547471527	-0.54314154991991	0.264022123175194	0.484483275205695	-0.314081304803237	0.816473447222296	17.9195943063646	-30.8960217921396	114.844447234119
16257	1651210046780	5.20041604677181	2.59812808668196	8.17021902085785	0.0143225777362207	0.073239335782875	0.214351390152123	0.00461286935307587	-0.0121892128179046	-0.0152677007467662	0.14892578125	-0.180419921875	0.723388671875	0	0	0	-0.302623213156274	0.0150938263978298	-0.824577729053616	-0.477768705559946	-0.360312509693091	0.778779384000344	0.513495439526693	-0.797050352973681	-0.543018480784491	0.264275735456426	0.484650007926542	-0.314059867831834	0.816382734527289	17.9375704272111	-30.896940997411	114.828240653001
16258	1651210046780	5.11888287880712	2.86571226831093	8.19388316615249	-0.156743893310812	-0.142386937950835	0.262537058759673	0.0104878492096693	0.00164310431777891	-0.0153826861284379	0.14990234375	-0.1796875	0.716796875	0	0	0	-0.302642737244624	0.0150232218517101	-0.824544241019805	-0.47781635698179	-0.360197805187464	0.778868112861927	0.513441334433676	-0.797054788795666	-0.54293166361169	0.264440678235666	0.484727969892423	-0.313989922473228	0.816363352796551	17.9484466670077	-30.8933284082762	114.818802268449
16259	1651210046781	5.15068730022302	2.6236162773962	8.17033975666381	0.0155167132129608	0.0228822277801278	0.195640636309161	0.00456217779852362	-0.00606885182512666	-0.0107106774369582	0.14453125	-0.1748046875	0.713623046875	0	0	0	-0.302700392540024	0.0149412032623088	-0.824492167434533	-0.477872261844413	-0.36002114743164	0.778958457664844	0.51342817865249	-0.797049290034928	-0.542829723609558	0.264666432364944	0.484868232261944	-0.313942052612228	0.81629846560238	17.9641213408924	-30.892450019292	114.805564592313
16260	1651210046782	5.17064526300541	2.77182862139297	8.19295200742521	-0.0981134520980109	-0.0486891090882764	0.263575437722926	-0.000149703336232522	-5.38512664186735E-05	-0.013733900149002	0.14501953125	-0.175048828125	0.720947265625	0	0	0	-0.302701361942039	0.0149211374314215	-0.824459224214855	-0.477929108491234	-0.359911305470417	0.77903282678833	0.513392351891576	-0.797099421277192	-0.542722253829053	0.264735845321856	0.484867368250478	-0.313943322886308	0.816298490272374	17.9685293500935	-30.8900579686549	114.796824319376
16261	1651210046783	5.22303004525267	2.62769148707418	8.14392577370601	-0.0240712794042943	0.0873226449531987	0.21228782918033	0.007529362395727	-0.00297813677647463	-0.0138071907181821	0.147216796875	-0.181640625	0.716796875	0	0	0	-0.302751120463621	0.0148168536934332	-0.824407578292534	-0.477989921189233	-0.359734788599066	0.779145388636844	0.513345249551923	-0.797088664866574	-0.542612192176277	0.26499371547808	0.485016022635137	-0.313854221363353	0.816244439809299	17.9860193536038	-30.8869131706922	114.782974049983
16262	1651210046784	5.02550767323192	2.74472542039355	8.24497177641683	0.00321555818949956	-0.161059324504179	0.224386619317549	-0.00324477626360879	0.00448382842767572	-0.0106646896461707	0.147705078125	-0.1787109375	0.716064453125	0	0	0	-0.302725704123157	0.0148033007720442	-0.824388629331097	-0.478039117833453	-0.359671499768306	0.779217346935607	0.513280370254943	-0.797142705533863	-0.542518928214533	0.265022111423007	0.484974142886578	-0.313836802755172	0.816276020698783	17.9871714223407	-30.8825816593493	114.777124194652
16263	1651210046784	5.09957987290503	2.67474942166188	8.17020728647858	-0.00168833635406373	-0.0404730891655846	0.182843883782217	0.019898166918365	-0.0134587314259196	-0.0154294245177894	0.147216796875	-0.172607421875	0.719970703125	0	0	0	-0.302847120826783	0.0146750794713946	-0.824315426373574	-0.478092398278815	-0.359422560229878	0.779309267134699	0.513315194939501	-0.797086489397963	-0.542424601501039	0.265384023832764	0.485251019181856	-0.313771601398879	0.816136526898872	18.0130286550587	-30.8849066219083	114.759462371081
16264	1651210046785	5.17214804328888	2.72686534499103	8.19210521616237	-0.0577328313788886	-0.0192693604523593	0.251794411214059	-0.018287061691679	-0.0064427877750134	-0.0074044997982396	0.1416015625	-0.17626953125	0.716552734375	0	0	0	-0.302830473806145	0.0147547562000724	-0.824286616912278	-0.478150158928273	-0.359332259302426	0.779329174136184	0.513348191547245	-0.797201933380033	-0.542309445372688	0.265272582214419	0.485128235459195	-0.313921174500511	0.816152002607644	18.0056335087657	-30.8871095906272	114.753431076776
16265	1651210046785	5.15104189006703	2.6533194286183	8.21732839326241	0.0221327071553324	-0.00284485484447691	0.242029155212439	0.0137165249738489	-0.00591300117490958	-0.0108128087250111	0.151123046875	-0.17919921875	0.724609375	0	0	0	-0.302903571165058	0.0146296200778384	-0.824240131315402	-0.478187836232794	-0.359171639708907	0.779420481527162	0.513321971285842	-0.797145938192623	-0.542244734990754	0.265572966617106	0.485339145806124	-0.313806246513314	0.816070801583666	18.0263816926708	-30.8853590303112	114.741140451679
16266	1651210046786	5.12215321700581	2.77534243560821	8.19210371261484	-0.0758653797460361	-0.0833482425224994	0.239020947724542	-0.00153922743385131	-0.00617185533770185	-0.0106426822234269	0.145263671875	-0.177490234375	0.72314453125	0	0	0	-0.302926015243568	0.0146346059402772	-0.824205258717333	-0.478233571699354	-0.359056960376665	0.779458843655265	0.513343949270533	-0.797191655103856	-0.542156958417303	0.265614942110704	0.485348909793608	-0.313862618811633	0.816043315195253	18.0296144677199	-30.8868263585866	114.733114879607
16267	1651210046786	5.19940727765025	2.68077835976882	8.21534767589635	-0.0152454286462106	0.021973575304932	0.272531069841923	-0.00153159663204725	-0.00463385497830965	-0.0075962558202112	0.150634765625	-0.177734375	0.723388671875	0	0	0	-0.302964637426526	0.0145625409039991	-0.824163742645603	-0.47828285164725	-0.358915884578375	0.779542900263641	0.513314966123017	-0.797190639963597	-0.542066892445187	0.265801745045529	0.485454911759839	-0.313809417901008	0.816000721742866	18.0423536829711	-30.884891345498	114.722212325405
16268	1651210046788	5.10002593112626	2.70178286660138	8.16836556472286	-0.0187431302726996	-0.0521059043381962	0.188763773342076	-3.21765260285359E-05	-0.00308209603496488	-0.00761890031627752	0.14794921875	-0.174560546875	0.71923828125	0	0	0	-0.302977707256986	0.0145585558041437	-0.824140886786469	-0.478314076820879	-0.35884030564058	0.779574539150196	0.513319757029216	-0.797218210584245	-0.542007384735776	0.265840402506349	0.485465508311999	-0.313833606869378	0.815985114716395	18.0451303799485	-30.8852111999251	114.716745520832
16269	1651210046788	5.17421823474575	2.68021504437027	8.16668233425763	-0.0273868218832755	0.0190077001271195	0.219743850070818	-0.0015053221228488	-0.00615965979066022	-0.00759070612438017	0.15380859375	-0.179443359375	0.721435546875	0	0	0	-0.303022496933978	0.0144962341883682	-0.824095283001282	-0.478366167366892	-0.358686352541215	0.779653233989118	0.51330783671301	-0.797223974308714	-0.541911338226133	0.266018864536674	0.485569804753239	-0.313803977400339	0.815934451092506	18.057506646975	-30.8844153679301	114.705212071265
16270	1651210046789	5.15136411438604	2.65548091624793	8.19161713832264	0.013031967623009	0.00674930922570267	0.221778596996248	-0.0015748271919204	-0.00311430265955726	-0.00912776708406832	0.153564453125	-0.177490234375	0.72021484375	0	0	0	-0.303032204548503	0.0144964023148411	-0.824068612665315	-0.478405956219469	-0.35859844812042	0.779692911762226	0.51330898721274	-0.797264418768179	-0.541835190747323	0.266052762876182	0.485568326368045	-0.313836883453099	0.815922674652801	18.0599020207732	-30.8844921780619	114.698773378086
16271	1651210046790	5.2000569949566	2.65801093400517	8.19030026316527	-0.00509905797801144	0.0450755238748161	0.246367032370335	0.00596806831315018	-0.00301378255837663	-0.0168437266126376	0.152587890625	-0.184326171875	0.725830078125	0	0	0	-0.30309043009418	0.0143941526844601	-0.823998812393038	-0.478492378966149	-0.358362468913281	0.779828844158503	0.513267293612978	-0.797279763870401	-0.541675703279625	0.266331392440477	0.485717324168221	-0.313774451310073	0.815857999107643	18.0789255869005	-30.8817086522883	114.68066858733
16272	1651210046791	5.14878404899913	2.7061297640413	8.16640177988725	-0.035709690738775	-0.0127098980349175	0.213368527145461	0.00598318237348622	6.22818887460852E-05	-0.0107508655673118	0.148681640625	-0.179931640625	0.71728515625	0	0	0	-0.303105476424103	0.0143533609321574	-0.823973472257652	-0.478527708923253	-0.358276603908761	0.779887111178726	0.513238705583383	-0.797289440393241	-0.541610425645228	0.26643516109896	0.485764781894528	-0.313742315682308	0.815842102383338	18.0858404192696	-30.879800120307	114.673835708875
16273	1651210046791	5.12405664662497	2.70627673341014	8.166833905572	-0.0250563664048647	-0.0308007740157178	0.201077650406004	0.00289803561702402	-2.96316377651658E-06	-0.013768452567087	0.155517578125	-0.18017578125	0.72021484375	0	0	0	-0.303137761293731	0.0142742007432502	-0.823921427429229	-0.478599233486586	-0.358100542767754	0.780002228726474	0.51318663705437	-0.797310425756738	-0.541478041798387	0.266641360688459	0.485860150916957	-0.313684640095619	0.815807489741932	18.0996428419457	-30.876324131862	114.659947460113
16274	1651210046792	5.14603870627582	2.78132292297601	8.19013052968468	-0.0809392626636433	-0.0608715765629488	0.251380061214743	0.00137983975801413	0.00150868448909465	-0.0107048709633502	0.142822265625	-0.1708984375	0.7197265625	0	0	0	-0.3031357721464	0.0142493400369362	-0.823898024019753	-0.478641521360259	-0.358021995350284	0.780064637935705	0.51314657894956	-0.797342576714398	-0.541398500676896	0.266706728117705	0.485865275774925	-0.313666740517774	0.815811319907435	18.1037110830611	-30.8736500205749	114.653443998774
16275	1651210046793	5.10170259568576	2.65822401719667	8.21663894959166	0.0471709173968227	-0.0357374349483535	0.217426179668944	-0.00316284769390734	0.00144133894585996	-0.0076012542219691	0.152587890625	-0.176025390625	0.717041015625	0	0	0	-0.303146444230489	0.0141874305759066	-0.823865070873482	-0.478693320570381	-0.357909876383427	0.780155674693053	0.513086390027477	-0.797359151220465	-0.541302843309913	0.26685129902173	0.485920677016508	-0.313605413009457	0.81580190032813	18.1130791390061	-30.8696322005265	114.644107179502
16276	1651210046793	5.17365753838343	2.66070799271361	8.16615422271545	-0.0048772863975699	0.0351501469069795	0.213823236994813	0.00149422085942681	-0.00305586398412479	-0.00763599709800872	0.14599609375	-0.18115234375	0.729248046875	0	0	0	-0.303163395064891	0.0141776170764017	-0.823842067822575	-0.478722464850551	-0.357833515080283	0.780187141657573	0.513091804141789	-0.79737967976482	-0.541247593642896	0.266902020737813	0.4859432289717	-0.313622490213891	0.815781902133528	18.1167121679463	-30.8699936046079	114.638598304545
16277	1651210046794	5.12342849528723	2.70856749811926	8.19128295733568	-0.0115205825763152	-0.0365102800955468	0.221330185294461	0.00288551350230377	0.00459949347719921	-0.00768134639400366	0.14794921875	-0.185302734375	0.72314453125	0	0	0	-0.303172383522871	0.0140869013761915	-0.823817668995261	-0.478761436761456	-0.357747985078334	0.780282742741947	0.513006062879862	-0.797365780608633	-0.541178091759447	0.26708441533341	0.486029002310333	-0.31350456835381	0.815776130157358	18.1284029551961	-30.8642703461818	114.630748805142
16278	1651210046795	5.10015277999123	2.68399555903452	8.2164409953386	0.028897399353923	-0.0487817957380046	0.223351619505347	-0.00157357454287309	-0.00311573103877935	-0.00912757254519509	0.1455078125	-0.17529296875	0.720947265625	0	0	0	-0.303182303804017	0.0140876859067643	-0.823790787821895	-0.478801384360637	-0.357659449988853	0.780322065128366	0.513007984837929	-0.797406613402287	-0.541101542880259	0.267117601806579	0.486027170779543	-0.313538825293463	0.815764055531763	18.1307589174159	-30.8643986337934	114.624283027587
16279	1651210046796	5.12270685779889	2.70929414132142	8.16668022959359	-0.0224729790906705	-0.028399397387623	0.201090879618041	-1.10480328179663E-05	-0.00614657982234718	-0.0106595276546344	0.148681640625	-0.175048828125	0.720458984375	0	0	0	-0.303212267333902	0.0140395675227828	-0.823749967370429	-0.478854051605733	-0.357522236398018	0.780398080568899	0.512987998227385	-0.79742595697278	-0.541003375609096	0.267258658841225	0.486096383063078	-0.313519031996374	0.815730422964015	18.1404052267678	-30.8630645680558	114.613843157225
16280	1651210046797	5.14977361741276	2.68692695751199	8.23923433948337	0.0216063998877369	-0.0178536735951987	0.268182722525083	0.0015044891886351	-0.00458769157429733	-0.00915641596651056	0.150634765625	-0.183837890625	0.717529296875	0	0	0	-0.303235346417566	0.0140313003077356	-0.823721094662241	-0.478889345781605	-0.357426638359771	0.780432939839605	0.513001583432395	-0.797452084677625	-0.540936234217082	0.267316597229487	0.486123822533048	-0.313548109425578	0.815702894589386	18.1446523781691	-30.8639713509301	114.607072861817
16281	1651210046797	5.09915901266618	2.70954857511629	8.19114904380387	-0.000740387350670314	-0.0538721833243526	0.209043826444924	-0.00152251827494455	-0.00309720955189056	-0.00454945715422221	0.15576171875	-0.17822265625	0.717529296875	0	0	0	-0.303252674248027	0.0140040986097171	-0.823690471335188	-0.478931840886744	-0.35732421469251	0.780489626807203	0.51298669382425	-0.797476748222522	-0.540856354013929	0.267404637893946	0.486158658915804	-0.313544808231796	0.815683401567099	18.1506418372812	-30.862977502436	114.599281693134
16282	1651210046798	5.12400413630034	2.68592386343625	8.16625100700089	-0.00270357666109482	-0.0139925878784241	0.195162446776211	-0.00152251764040526	-0.00309721139081055	-0.00454946005070665	0.142578125	-0.1767578125	0.718505859375	0	0	0	-0.303262021180247	0.0140119746037166	-0.823674645672299	-0.478952909119454	-0.357272514711366	0.780504135947268	0.513000627680927	-0.797501334903465	-0.540815550827434	0.267413838105679	0.486156323685095	-0.313579070973221	0.815671622154752	18.1514703077517	-30.8639075563187	114.595740875518
16283	1651210046799	5.12521240221142	2.68640635616314	8.21496725330263	0.0208314251601147	-0.0279749209469958	0.235648406033075	-0.00306519264940309	-0.00313051539908346	-0.00605814061165361	0.150634765625	-0.171630859375	0.7236328125	0	0	0	-0.303272573466403	0.0139862668971601	-0.823642190138729	-0.479002790330939	-0.35716414607648	0.780570512311293	0.512975094977859	-0.797537116931652	-0.540721422386913	0.26749745884442	0.486177251497647	-0.313576176840587	0.815660261042693	18.1570102202467	-30.8622033121675	114.58731990204
16284	1651210046800	5.22407073244415	2.64100709986587	8.18859706587991	0.00908020834671178	0.0819536097433307	0.252706648132694	-0.00153964101266329	-0.00310340213545217	-0.00607550320188656	0.140869140625	-0.188720703125	0.724609375	0	0	0	-0.303282037999267	0.0139920200611429	-0.823622668816929	-0.479030195512244	-0.357100154429025	0.780593199423639	0.512985123293389	-0.797567312863119	-0.54066859032422	0.267514218106485	0.486174722871387	-0.313610797726079	0.815648457603239	18.158318666743	-30.8628726735666	114.582805840206
16285	1651210046801	5.12380613091449	2.71105042872123	8.19022528323394	-0.00963368061142897	-0.0336652642790125	0.221342123005893	-0.000103024533977446	-3.71962534233463E-05	-0.00915608033698881	0.1435546875	-0.169921875	0.725341796875	0	0	0	-0.30327497193564	0.0139331231645889	-0.823605375342195	-0.479066117758039	-0.357039892427355	0.780671724386243	0.512907568631301	-0.797573994533109	-0.540603045790242	0.26762673656945	0.486208019740484	-0.313528317104091	0.815660318952635	18.1652078532277	-30.8576962431996	114.576967968091
16286	1651210046802	5.10050905801523	2.68660289821817	8.21536763885765	0.0307669940826436	-0.045938815281028	0.22335947821081	0.00290353723875989	0.0015367845439138	-0.0107224480838583	0.146484375	-0.17724609375	0.719970703125	0	0	0	-0.303275884283892	0.0139024365115213	-0.823582242490434	-0.47910619921401	-0.356961975773057	0.780734168426022	0.512866752777292	-0.797599263332951	-0.540527944267496	0.267703112788568	0.486223778709895	-0.313502312141526	0.815660920541733	18.1700387767286	-30.8549720778576	114.570505412507
16287	1651210046803	5.17261507282015	2.68919066602443	8.16474704132589	-0.0208026895203034	0.0260794305169121	0.219743772427103	-0.00450803379296296	-0.00773543750132024	-0.00602393554027954	0.151123046875	-0.17431640625	0.715576171875	0	0	0	-0.303290550859712	0.0138632701636684	-0.823563786948196	-0.479129773993568	-0.35689900286417	0.780778664530241	0.512842840223918	-0.797597059908864	-0.540484938826483	0.267796491624644	0.486273618222597	-0.31346564072655	0.815645302999163	18.1762852230454	-30.8533761224736	114.565448279589
16288	1651210046806	5.12594676737693	2.66360231642786	8.21471529999635	0.0407898394303018	-0.0122558175411662	0.229714790495212	-8.60839466552606E-05	-3.0953741191971E-05	-0.00763008176325934	0.149658203125	-0.175048828125	0.72509765625	0	0	0	-0.303290402355334	0.0138527746171596	-0.823545615066552	-0.47916140535231	-0.356838558919878	0.78081972139929	0.512822391810186	-0.797625375748795	-0.540424896512411	0.267833327259965	0.486271531995838	-0.313466894429833	0.815646064949091	18.1786050922917	-30.8520113894072	114.560640233073
16289	1651210046804	5.1487072922533	2.7138055915565	8.21354450141315	-0.00667406081592452	-0.0204937302860217	0.253879889772818	0.00157034399554719	-0.00917023452527667	-0.0106661544805094	0.138671875	-0.181640625	0.7197265625	0	0	0	-0.303345020082615	0.013810826348901	-0.823493972495263	-0.479216795543113	-0.356666123320937	0.780885394504166	0.512842351142421	-0.797643176088826	-0.540321047889902	0.267989792428906	0.48636883135553	-0.313482321442901	0.815582119733277	18.1898579428944	-30.8533434808059	114.548351168478
16290	1651210046805	5.12432993168251	2.68864006383444	8.16515267854346	-0.000809089386509185	-0.0107757224365851	0.195166759940658	-0.00157398857255161	-0.00311616744882619	-0.0091274578271427	0.1494140625	-0.174560546875	0.72412109375	0	0	0	-0.303354400466729	0.013811426518633	-0.823467320597407	-0.479256637015199	-0.356578367188705	0.78092484350056	0.512843306338946	-0.797683871545161	-0.540244640748804	0.26802270280504	0.486366435036136	-0.313515736360747	0.815570704429983	18.1921824734223	-30.8534072313522	114.541929806322
16291	1651210046806	5.07742712761843	2.68777198406396	8.23926073964692	0.0530041818096336	-0.0694110854940344	0.231324517676496	-0.00147356494204342	-0.0076871291517562	-0.00758475859427591	0.142333984375	-0.169677734375	0.718994140625	0	0	0	-0.303359499603195	0.0137845274747605	-0.823451203312647	-0.479281875899507	-0.356523794869497	0.780967140156764	0.512816838342129	-0.797693809584804	-0.540197740473093	0.268087648611135	0.486390141596163	-0.313491191555886	0.815566001605593	18.1963982587377	-30.8516407526906	114.537444212547
16292	1651210046807	5.15051431256023	2.69065822642212	8.2127337793649	0.012445697747934	-0.00584091368098245	0.247941168209678	0.00158791034304794	-0.009163782339824	-0.00914040151277637	0.14208984375	-0.171875	0.722412109375	0	0	0	-0.303400844629712	0.0137864283528255	-0.823415807583216	-0.479316460903785	-0.356407315569295	0.78098787347269	0.512866227097569	-0.797719129499387	-0.540131329399885	0.268146112094606	0.486433978911249	-0.313553964237926	0.815515723742499	18.2011529717742	-30.8549369930133	114.529797574873
16293	1651210046808	5.15031798885124	2.69103459608529	8.18791140415435	0.00112429875466667	0.00282107537105313	0.227697415895708	-1.07254085367398E-05	-0.00614625563775714	-0.0106599040992138	0.14697265625	-0.185302734375	0.71484375	0	0	0	-0.30340325373907	0.0137105144376005	-0.823401404864562	-0.479341854923464	-0.356355703478156	0.781061884127122	0.512789377583408	-0.79770114289034	-0.540086815824778	0.268289243175529	0.486501283893511	-0.313446270572873	0.815516974828803	18.2102012710573	-30.8498080513136	114.52461330468
16294	1651210046810	5.1505081923445	2.71625572003702	8.21160527172387	-0.00660468557931179	-0.0182983151266359	0.253884165601921	0.00472998863829262	-0.0121471890524799	-0.0061127208675299	0.149169921875	-0.17333984375	0.719970703125	0	0	0	-0.303463925452711	0.0137102593534891	-0.82336920768598	-0.479358761859897	-0.356249646753956	0.781057349655062	0.512869969619485	-0.7976996261446	-0.540054412433213	0.268358972386208	0.486581437825618	-0.313513393910415	0.815443349474583	18.2161576727133	-30.8551867761794	114.518299080493
16295	1651210046811	5.10481287956166	2.66622668195805	8.23693465587576	0.0625448513890993	-0.0352092296502805	0.237676819804719	-0.0029360208088853	-0.00922865397024015	-0.00450893858800816	0.1396484375	-0.178466796875	0.72900390625	0	0	0	-0.303480962319179	0.0137368065668806	-0.823338057222792	-0.479400718797719	-0.356148512652113	0.781079994340028	0.512905721724247	-0.797755431444465	-0.53997250192315	0.268357911692033	0.486563981955656	-0.313598054216917	0.815421211310339	18.2165523225093	-30.8575729737364	114.511530476833
16296	1651210046812	5.15220186038316	2.69225029157822	8.18632641325942	0.000908732847437754	0.00312797878003531	0.227697346798129	0.00316610690285276	-0.00911722267969544	-0.00458039374730547	0.146728515625	-0.18212890625	0.726318359375	0	0	0	-0.303525124630306	0.0137384358030682	-0.823314042691533	-0.479413955999164	-0.356069515022779	0.781076563594121	0.512965790550835	-0.797756405351528	-0.539947028349834	0.268406267245744	0.486620199120477	-0.313650455730872	0.815367508199685	18.2207386717802	-30.8615822724364	114.506827863595
16297	1651210046813	5.17905593182191	2.64475858550128	8.18555388156461	0.0292412424429842	0.0506438330402608	0.228091529357812	0.000125366723015254	-0.0107049740932761	-0.00606497519861269	0.147216796875	-0.174560546875	0.72412109375	0	0	0	-0.303524557325396	0.0137019852987511	-0.823317460070291	-0.479409489520911	-0.356078768915444	0.781094628447337	0.512931858767203	-0.797730184536467	-0.539957593912344	0.268462938700681	0.486656411657214	-0.313587273637034	0.81537019739859	18.2242754194631	-30.8593174721854	114.506889729117
16298	1651210046815	5.13006816817698	2.66785483704762	8.18593345602818	0.0293320847946657	-0.000649018144082726	0.209472808954251	0.00315863026834748	-0.0106553462793995	-0.00762703656593114	0.14794921875	-0.17626953125	0.719970703125	0	0	0	-0.303574402373825	0.0137025431678765	-0.823284196562393	-0.479435036501007	-0.355969255997306	0.781103094952807	0.512994974478181	-0.797742060365566	-0.539908572172021	0.268526234880079	0.486717057342791	-0.313650583851386	0.815309645068215	18.2295523827761	-30.8635302165455	114.500004090673
16299	1651210046815	5.1085171063073	2.64398404164978	8.23467985192863	0.0814352162061887	-0.0194922720093409	0.231740891607849	0.00929152406621453	-0.015139324446231	-0.0122606879594441	0.14453125	-0.173828125	0.722412109375	0	0	0	-0.303649571280704	0.0136438016410648	-0.823237701957933	-0.4794689464531	-0.355812934496397	0.781147958238586	0.51303510892019	-0.797719696314379	-0.539846752127867	0.26871689624787	0.486867992126364	-0.31364526388371	0.815221569075647	18.2434793463505	-30.8662091409921	114.489267334202
16300	1651210046816	5.25810356528906	2.52826256249426	8.13328219994903	0.0734052120846233	0.191394077684498	0.194711072825946	0.0123553138962717	-0.0196856938454148	-0.018384236984745	0.14794921875	-0.181884765625	0.71630859375	0	0	0	-0.303759339840836	0.0136115409574837	-0.82316559896382	-0.479524124622274	-0.355573754729403	0.781186261133668	0.513142602366667	-0.797724791915515	-0.539742679716009	0.268910758535858	0.487034353317077	-0.313728967596208	0.815089978824445	18.2585200360948	-30.8733845646289	114.473677420959
16301	1651210046818	5.0726226758418	3.01257291216966	8.25485568093737	-0.186374272615638	-0.252533960769892	0.328872169639307	0.00906474007744893	-0.00293357917756475	-0.0123068512124403	0.14501953125	-0.17431640625	0.719482421875	0	0	0	-0.303765051999532	0.0135623555052793	-0.823143321982738	-0.479560139265235	-0.355497732023259	0.781253912999986	0.513092278200061	-0.797732991501175	-0.539676270682113	0.269019696552561	0.487076417820555	-0.313674746010667	0.815085711393739	18.2655150336167	-30.8700252491089	114.467187844974
16302	1651210046819	5.11438776974359	2.50149169759928	8.15979998542388	0.161649546262265	0.085706908965455	0.135341699729954	0.00325765918178341	-0.0198362224763161	-0.0136952150361381	0.146240234375	-0.166748046875	0.715087890625	0	0	0	-0.303852945169507	0.0135750853897615	-0.823081741721941	-0.479609790571933	-0.355295672998727	0.78126646418847	0.513213110396477	-0.797765782894897	-0.539580331688415	0.269114884941566	0.487170134953359	-0.313808504648082	0.814978209536955	18.2737987362322	-30.8780914222487	114.454563097906
16303	1651210046819	5.17762261980443	2.82277634892183	8.20359068469392	-0.0941309181850698	-0.0514144364474649	0.28994785091721	0.00457290805658396	-0.00759559398519299	-0.0122345684576055	0.144287109375	-0.17626953125	0.7177734375	0	0	0	-0.303883012925607	0.0135082223274348	-0.823046865876839	-0.479652477274037	-0.35517723100027	0.781343097660656	0.513178427369109	-0.797762774861175	-0.539502057948865	0.269280679802206	0.487261418157419	-0.313752280002857	0.814945284769616	18.2849976156609	-30.875776081582	114.445247873776
16304	1651210046821	5.11314999671253	2.57671636899974	8.15765718104338	0.104127497274975	0.0451915748404315	0.153167127512839	0.00783268067205422	-0.0166796940074469	-0.00918447128410816	0.142578125	-0.178466796875	0.71923828125	0	0	0	-0.303968632950665	0.0135006181025847	-0.823001278423379	-0.479676661102492	-0.355026741951338	0.781341481777155	0.513285009866543	-0.797756539491682	-0.539456068208826	0.269391265951462	0.487381284209472	-0.313835369783194	0.814841606985905	18.2941793440946	-30.8828914054371	114.436146297196
16305	1651210046821	5.08134010150713	2.84544517466649	8.22860498418943	-0.0640352677861107	-0.146857552974216	0.26703722422787	-0.00139832715315704	-0.0107351064083223	-0.00604380424314084	0.150146484375	-0.176513671875	0.721435546875	0	0	0	-0.303957745706584	0.0135101364589452	-0.822995795619658	-0.479692698954443	-0.355009206789547	0.781357127613408	0.513273321167563	-0.797783170102405	-0.539424781565325	0.269375051804279	0.487350465882626	-0.313850193820118	0.814854330075665	18.292884961585	-30.8821110556579	114.434648401439
16306	1651210046822	5.16219719032053	2.6283691123316	8.15441972093486	0.0453805620021937	0.0557568111304796	0.189612194190463	0.00494235898685021	-0.0212873218188365	-0.00302558811811901	0.151123046875	-0.173095703125	0.724365234375	0	0	0	-0.30405424779736	0.0135347530223229	-0.822958106222068	-0.479695507859303	-0.354886468271974	0.781308015123599	0.513432936361769	-0.797769211720901	-0.539418060400461	0.269429844196998	0.487462695462595	-0.313983983058735	0.814735649714012	18.2988456378485	-30.8927676824643	114.428543808022
16307	1651210046823	5.13562970699099	2.74996990171387	8.20207559969222	-0.0176505715738122	-0.0461652663632655	0.247562547520582	-0.005937833531633	-0.0108079314189488	-0.00293445331611569	0.153076171875	-0.1796875	0.719482421875	0	0	0	-0.304088247931438	0.0135467787643894	-0.822931242764766	-0.479719701426505	-0.354798691066507	0.781313827708156	0.513484752889045	-0.797791492586468	-0.539370985696748	0.26945811204188	0.48749012623247	-0.314050381978033	0.814693644510194	18.3015182589038	-30.8962274413787	114.423047048402
16308	1651210046824	5.1618732127135	2.701454407081	8.15233938219116	-0.0119476003089138	0.0148951355384707	0.207445544781896	-0.00115067861849123	-0.0198629540216698	9.58197228886731E-05	0.139892578125	-0.17822265625	0.721435546875	0	0	0	-0.304164347812218	0.0135976047300707	-0.822902680857083	-0.479719014115344	-0.354707434032341	0.781252312398206	0.513641373542521	-0.797795938696327	-0.539369545283614	0.269447831351807	0.487549255400762	-0.314205852894248	0.814598309331145	18.3028655875183	-30.9066856700248	114.419196878501
16309	1651210046825	5.1665849003982	2.62808407940539	8.17659140137199	0.0565165785495154	0.0495102382429557	0.209858565694509	-0.00737786742922342	-0.012342493847381	0.00166919055854005	0.150146484375	-0.177734375	0.718994140625	0	0	0	-0.304155800655732	0.0136548594085639	-0.822905350385541	-0.479718227763812	-0.354719341757236	0.781218983216114	0.513683841332481	-0.797831802001127	-0.53936793353136	0.269344849577163	0.48748190150912	-0.314291477041441	0.814605587484005	18.296183756461	-30.9095216223189	114.420841074387
16310	1651210046827	5.13949145235544	2.72455397563049	8.17590406141527	-0.0107632713733112	-0.0244688528303514	0.221367615476419	0.0017179312996685	-0.0121901795193354	-0.00302468811524733	0.14990234375	-0.180908203125	0.72021484375	0	0	0	-0.304206867547293	0.0136709412974142	-0.822881377615759	-0.479726511123054	-0.354641312525532	0.781198436246462	0.513768958439736	-0.797833613160499	-0.53935115977949	0.269373072440031	0.487535706550229	-0.314371324472513	0.814542574202213	18.2992944019414	-30.9152059021484	114.41666351932
16311	1651210046828	5.16662731027193	2.67652080545428	8.17514043844441	0.0175702280962266	0.0218949184805599	0.221750059561757	-0.00742557844658137	-0.0108234630227765	0.000137858600434302	0.148193359375	-0.173828125	0.7197265625	0	0	0	-0.304215906341965	0.0137449051891697	-0.822863328467948	-0.479749624880028	-0.354585959512017	0.781173908740643	0.513844452747917	-0.797899583899474	-0.539302750017626	0.269274577033318	0.487468000313854	-0.314515290767064	0.814527519819754	18.2933645082138	-30.9202478360472	114.41397442477
16312	1651210046829	5.09643613850112	2.62474277358426	8.17674820897314	0.0850194362077082	-0.0066777990115223	0.173046166012183	0.00184278671360102	-0.0167542210073772	4.41090331213318E-05	0.1416015625	-0.174560546875	0.7119140625	0	0	0	-0.304285710067529	0.0137765914454094	-0.822839763082793	-0.479744866013904	-0.354510140364002	0.781122263961581	0.513975261197103	-0.797890343602687	-0.539310138122896	0.269287159930527	0.487538265128678	-0.314630868894643	0.814440824353692	18.2959800853759	-30.9289845881778	114.410788812685
16313	1651210046830	5.19313523609681	2.70187063422379	8.19725785704626	-0.000373726668355043	0.0203329525736426	0.260215950437905	-0.00125641609109758	-0.0152924188445295	-0.00144851160843179	0.142578125	-0.182373046875	0.72265625	0	0	0	-0.304307583220895	0.0137910120884187	-0.822829039638732	-0.479748970094817	-0.354475640974442	0.781109349543984	0.514018680604832	-0.797896187779172	-0.539301467357079	0.269287208819815	0.487553785220896	-0.314677789749253	0.814413405559671	18.2965581260371	-30.9318847653941	114.409046910956
16314	1651210046830	5.14653250813031	2.67590204284047	8.19782938660653	0.0381612948058486	-0.0032973639373878	0.229732060204729	0.00485493364274954	-0.0167098786800402	-0.00304765388125462	0.153076171875	-0.176513671875	0.720458984375	0	0	0	-0.304384244073927	0.0138050863886728	-0.822798558729345	-0.479752210315135	-0.354376097314573	0.781074752819438	0.514139876065012	-0.797882955958604	-0.539294472575088	0.269340417391668	0.487647793230783	-0.314775638126604	0.81431930309869	18.3019062718925	-30.9399804199339	114.403946692098
16315	1651210046831	5.14788909680226	2.67620578391011	8.19687841158716	0.0373192456523058	-0.0029801294673234	0.229735323848127	-0.00121814648978041	-0.018350506927554	-0.00296247945679995	0.1396484375	-0.18017578125	0.71875	0	0	0	-0.304414661210265	0.0138529543836899	-0.822783020563665	-0.479758179468798	-0.354327606546049	0.781039683255979	0.51422656525966	-0.797907852917868	-0.539280369775257	0.269294896028609	0.487642292558126	-0.314886798634781	0.814279619390166	18.2998515422577	-30.94577153416	114.401964663159
16316	1651210046831	5.15015063539742	2.65215221727363	8.19611317333336	0.0564722838517133	0.0108975122367412	0.22379239853754	0.0048351586935145	-0.0167163744488455	-0.00457426976098348	0.137451171875	-0.172119140625	0.723388671875	0	0	0	-0.30449091273487	0.0138650623570541	-0.822749038322482	-0.479767718846476	-0.354216440029469	0.781013287613768	0.514343229938515	-0.797900429582669	-0.539261391997368	0.269354887783485	0.487735192583683	-0.314984754665675	0.814186088215441	18.3056190125682	-30.9535656601874	114.395929591307
16317	1651210046832	5.12283506869658	2.74909743838604	8.17055816044556	-0.0238785500693419	-0.0540363950790025	0.215049475667213	0.00340732556964308	-0.0197834586754341	-0.00149051712245981	0.144287109375	-0.1767578125	0.721923828125	0	0	0	-0.304470637979589	0.0138311283076082	-0.822788391004471	-0.479714075388991	-0.354344072963975	0.78098399954342	0.514299786518004	-0.797828689382601	-0.539366211526848	0.269357517550963	0.487759838807321	-0.314877884774937	0.814212660996081	18.3052282195349	-30.9506632207695	114.404503417199
16318	1651210046832	5.15130031865387	2.70136211711595	8.19371809860257	0.0162927622025577	-0.014850717681696	0.235684757587	-0.00418894584559866	-0.0183818727775527	0.00318296549049968	0.1455078125	-0.179931640625	0.719970703125	0	0	0	-0.304530022276544	0.0138953020730038	-0.822770651831881	-0.479704951607433	-0.354289249871116	0.780911238142394	0.5144480202787	-0.797837384741719	-0.539380159967221	0.269303825710347	0.487785439444696	-0.315034412686372	0.814136772225095	18.3034148596125	-30.960567028339	114.403176363426
16319	1651210046833	5.15139349757036	2.74970082606584	8.19227453216526	-0.0233109731135212	-0.0417054446009857	0.247570501043436	-0.000952968638191096	-0.0259398668598276	0.00622315418206866	0.149169921875	-0.1787109375	0.71826171875	0	0	0	-0.304567675541286	0.0139536181015311	-0.822783797441314	-0.479656804627335	-0.354335761580145	0.780808052298541	0.514572593062608	-0.797807336420838	-0.539469292633143	0.269214294306569	0.487800801576326	-0.315137537865064	0.814087655114508	18.2987656592943	-30.9688907908252	114.408855387335
16320	1651210046834	5.180032568912	2.67646649701854	8.16667084133475	0.0130530102772437	0.0259088091127991	0.221747391395064	-0.00864664554272711	-0.0214997365174726	0.0078347376404863	0.145751953125	-0.175537109375	0.71728515625	0	0	0	-0.304628042479431	0.0140506132777047	-0.822772516390433	-0.479634988584261	-0.354304066921851	0.780700551375893	0.514757493625895	-0.797821394649583	-0.539505715984593	0.269099618467484	0.48780083066968	-0.315341452240788	0.81400867200334	18.2931466936824	-30.9812469012441	114.409895426626
16321	1651210046835	5.15897883650483	2.6507165026648	8.19102396006461	0.0528391240048136	0.0140501396184366	0.223808265401388	-0.00115903206281317	-0.0183309995350966	0.00161542102646495	0.142822265625	-0.186279296875	0.7119140625	0	0	0	-0.304665221293276	0.0141006175563668	-0.822760972064221	-0.479629709637327	-0.354268889135065	0.780649276727809	0.514859457459369	-0.797833147800538	-0.539513028435485	0.269050107636208	0.4878071570423	-0.315455858865736	0.813960551037696	18.2910143594481	-30.9880613906683	114.409170704981
16322	1651210046836	5.18397118356901	2.67558303302109	8.1893541055558	0.0237956170953415	0.019076513996423	0.242007663044296	-0.00572292264225448	-0.0168782457452653	0.00472439175776479	0.146728515625	-0.1787109375	0.72412109375	0	0	0	-0.304713459015334	0.0141698147818884	-0.82274960639255	-0.479616523302587	-0.354235396940098	0.780573144981542	0.514997911537819	-0.797844078084725	-0.539534413848372	0.268974800563972	0.487813602331696	-0.315607638701788	0.813897848487914	18.287550418679	-30.9973153906755	114.40923506503
16323	1651210046837	5.1601927615332	2.67401150424905	8.16496347477718	0.0198898500371764	0.00781251131544008	0.209492971800481	-0.00127443497946614	-0.0122280953881433	0.00159230037994094	0.143798828125	-0.180419921875	0.72265625	0	0	0	-0.304668846166094	0.0142435691471921	-0.822776722261136	-0.479596163682521	-0.35432882791366	0.780521975572716	0.515011191487523	-0.797880262682164	-0.539569281037916	0.268797465357224	0.487686547006962	-0.315674573902131	0.81394802982754	18.2752431606871	-30.9982030437515	114.416335391018
16324	1651210046838	5.18601991199056	2.64991369927543	8.13944400802905	0.0177670326286227	0.0477810513704779	0.195548995628537	-0.00577242495036132	-0.0153589618144341	0.00319294538062509	0.144287109375	-0.1748046875	0.7236328125	0	0	0	-0.304709602995384	0.0143076480358099	-0.822764433694252	-0.479589444939998	-0.354292044289081	0.780458920638018	0.515132041859177	-0.797897631649175	-0.539578511019656	0.268727370869527	0.487684853939613	-0.315814666604246	0.813894698100158	18.2719118040832	-31.0062812556356	114.41583876243
16325	1651210046839	5.18673668265484	2.69860197367044	8.18729170986324	0.00116031474313499	0.00683509816568435	0.247948173076139	-0.00277895923201641	-0.0122503319469307	0.00313924353974819	0.1435546875	-0.181884765625	0.719970703125	0	0	0	-0.304675330968462	0.0143060724424498	-0.822805659466575	-0.479540536076257	-0.354427633917907	0.780419919341835	0.515097856537801	-0.797854748766884	-0.539672421101934	0.268666108342882	0.487656489945009	-0.315750577824428	0.813936557981059	18.2671458314585	-31.0039960772351	114.425169470544
16326	1651210046840	5.16200943161602	2.7211739667126	8.16283314872377	-0.020022293230614	-0.0183454424066362	0.221366475622432	-0.00569562945716746	-0.0138013532188909	0.0108174050232743	0.140869140625	-0.177490234375	0.71923828125	0	0	0	-0.304708374715292	0.0143772153004439	-0.822814515068951	-0.479502216731495	-0.354460861055895	0.780321052054563	0.5152247603716	-0.797844483683084	-0.539741839659574	0.268557119394314	0.487649133943645	-0.315876245136221	0.813892204117139	18.2611563097592	-31.0124794647294	114.429925011439
16327	1651210046841	5.16679421953547	2.62211166838491	8.16331264464444	0.0549912108237419	0.0380256222366682	0.197629071357554	-0.0196030954601234	-0.00797362404825509	0.0064102480090997	0.147705078125	-0.177490234375	0.721923828125	0	0	0	-0.304590454738415	0.0144692557448973	-0.822876401913581	-0.479468166507635	-0.354669864376104	0.78027168500168	0.515155689950208	-0.797900473749939	-0.53980183588799	0.268270035526852	0.487405499859264	-0.315895671949766	0.814030591040869	18.240032850836	-31.0078620862496	114.444010564684
16328	1651210046842	5.16277721266214	2.79169837536661	8.21079081843958	-0.0567822984661871	-0.0732167564705023	0.279703288725411	-0.00725700677176633	-0.0107730266310248	0.0123529501075459	0.144287109375	-0.183349609375	0.72802734375	0	0	0	-0.304605818758299	0.0145417784485185	-0.822894051263364	-0.479425919463589	-0.354732165850157	0.780174453635087	0.515260043479455	-0.797892494957138	-0.539878648852093	0.268139163504162	0.487373221466188	-0.316004535424465	0.814007663716281	18.2322029632339	-31.0148382374409	114.450492143176
16329	1651210046844	5.09378993925113	2.68956577077517	8.18892299024686	0.036473814667111	-0.0660059487919615	0.19896745305306	-0.0179566766274129	-0.0109775294522942	0.0109779412806264	0.14306640625	-0.17578125	0.721435546875	0	0	0	-0.304533350673493	0.0146343809049125	-0.822953250916419	-0.479367520832611	-0.354932436596745	0.780080805201872	0.515263915685057	-0.797907433409892	-0.539985229732654	0.267879971964707	0.487202928111825	-0.316053617328094	0.814090546446211	18.2140113471121	-31.0150971085806	114.465271639844
16330	1651210046845	5.26889712775647	2.57178460079325	8.13588251136963	0.0414023301966136	0.149128732079706	0.214474916914884	-0.0118478034263573	-0.0123962703158713	0.00937048542943683	0.144775390625	-0.18115234375	0.7294921875	0	0	0	-0.304543742551655	0.014725080728105	-0.822961321758968	-0.479344285205232	-0.354964330227433	0.779994750671586	0.515372208399872	-0.797932475448836	-0.540024456477272	0.267726261376281	0.48713867521506	-0.316198948972316	0.814072561740364	18.2046251962039	-31.022337158431	114.469595316728
16331	1651210046846	5.04468684610083	2.80662058392442	8.26261031010833	-0.00708757402665849	-0.19288469133412	0.264983913168082	-0.0211344187982213	-0.00186745613094351	0.0140432543265153	0.15576171875	-0.185302734375	0.722412109375	0	0	0	-0.304416333728335	0.0147776593903939	-0.823052131914977	-0.479267675409631	-0.355266382133694	0.779927442222245	0.515265933857754	-0.797921685793084	-0.54016823218078	0.267468249113449	0.486936116001636	-0.316119385377358	0.814224633084681	18.1850633052996	-31.0152320311026	114.489838785092
16332	1651210046847	5.22596645109749	2.46835154037741	8.13773307164348	0.136311604971299	0.168597143548203	0.166249337941887	-0.013133278144987	-0.0230934909939192	0.012477337707053	0.152099609375	-0.1806640625	0.709228515625	0	0	0	-0.304466457369576	0.014903391392569	-0.823051780096548	-0.47923254536991	-0.355272687590195	0.779791233533633	0.515467699818848	-0.797941564653984	-0.540228112766554	0.267287945059703	0.486898939052028	-0.316352996320221	0.81415613052364	18.1750391759631	-31.0287218175604	114.493997752041
16333	1651210046848	5.19208013897748	2.85680013500667	8.25769675470619	-0.10484597619551	-0.10947973099206	0.350263979807613	-0.0165283324487574	-0.00330892406891623	0.0139845165866706	0.1513671875	-0.181396484375	0.72314453125	0	0	0	-0.304446210005323	0.0151068555367597	-0.823055992934586	-0.479231802600422	-0.355298769179491	0.779670764443714	0.515631926563216	-0.798067664096772	-0.540217324584284	0.266933036063581	0.486673184121194	-0.316668187999289	0.814168576258373	18.1522305391278	-31.0397031956799	114.498924849738
16334	1651210046849	5.20479235977663	2.41399165351052	8.08942460215422	0.16055166919024	0.19057745510062	0.101641255050179	-0.0222285124841588	-0.021713333401422	0.0187063644425132	0.15576171875	-0.173828125	0.721435546875	0	0	0	-0.304468685740286	0.0152776128377387	-0.823071603048755	-0.479185298401689	-0.355360538398535	0.779504514021838	0.515840673433845	-0.798110732829659	-0.540296088683329	0.266644697482627	0.486557443567776	-0.31694297463909	0.814130827899126	18.1346924869235	-31.0536633373148	114.507294863895
16335	1651210046849	5.22003620209957	2.77908391902507	8.18401390763113	-0.0910268682280114	-0.0274757951849227	0.283902547551941	-0.0196159321533878	-0.00490624172871306	0.00945665523876762	0.151123046875	-0.180908203125	0.72216796875	0	0	0	-0.30446949047156	0.0153846684200146	-0.823069275914837	-0.479185359119642	-0.355359441954737	0.779437168809359	0.515943181844735	-0.798173817429021	-0.540289407165972	0.266469348471875	0.48645475039761	-0.31711994005848	0.81412328269919	18.123703807486	-31.0605194327089	114.509096612553
16336	1651210046850	5.15034618791449	2.72562280627447	8.21092581688423	-0.0121458361130928	-0.0632354880466753	0.255591611831967	-0.0148022952335176	-0.00936442914074618	0.0200850265067129	0.15576171875	-0.175048828125	0.71630859375	0	0	0	-0.304459504549671	0.0154973776989877	-0.823107222459231	-0.479122887899622	-0.355491336760191	0.779302371079301	0.516055930998407	-0.798175666823512	-0.540402179150363	0.266235027110222	0.486355337566366	-0.317259041163083	0.814128482747648	18.1086992563148	-31.0680610329288	114.520864716699
16337	1651210046851	5.23026106040161	2.50551362788808	8.13709408655081	0.0977754568047362	0.138938858939768	0.178141660569075	-0.0303055626758392	-0.00203615465226321	0.0126559449973895	0.14990234375	-0.177734375	0.71533203125	0	0	0	-0.304425200995616	0.0156606731085442	-0.823108269839211	-0.47913757569081	-0.355504961119825	0.779229194766042	0.51615703486774	-0.798299209001223	-0.540363853757842	0.265942246474672	0.486142567080084	-0.317503964662237	0.814160080633132	18.0894265950653	-31.0748242084005	114.523725548928
16338	1651210046852	5.17957727934037	2.64839690544202	8.23573943368937	0.0476146908273938	-0.0105650027539557	0.270320718764685	-0.0135142641229823	-0.00479550290715207	0.00936767755271589	0.14892578125	-0.177978515625	0.72119140625	0	0	0	-0.304400983990684	0.015740986376619	-0.823127256325938	-0.47911771224484	-0.355572517517549	0.779166552390457	0.51620506431282	-0.798332839358564	-0.540396878322324	0.265774136253288	0.486037922787848	-0.31760147596549	0.81418452458679	18.0782284807727	-31.078037226943	114.529576651686
16339	1651210046853	5.17981387482829	2.59775909432353	8.16284761139969	0.0514434148887278	0.039199140260141	0.197643405743399	-0.0105074823657363	-0.00475017894382643	0.00627125344580149	0.14501953125	-0.1865234375	0.7216796875	0	0	0	-0.304382493693532	0.0157974519653638	-0.823137603284197	-0.479109824678912	-0.3556101468581	0.77912968994578	0.516234781564119	-0.798363561238664	-0.540408432815089	0.265658332880142	0.485959923798124	-0.317672239875209	0.814203476088619	18.0704703250087	-31.0800252718037	114.532890653092
16340	1651210046853	5.17955632991052	2.62066134594989	8.16280985823125	0.0320212988987345	0.0254852825603688	0.203572382598564	-0.0181074109860109	-0.0064126439664105	0.00638643597452098	0.13916015625	-0.177978515625	0.72412109375	0	0	0	-0.304354219595691	0.0158958206437335	-0.823146612661743	-0.479109054353869	-0.35564604610088	0.779078070200203	0.516287953012598	-0.798429910547629	-0.540403673844408	0.265468542841466	0.485824626625407	-0.317806906514938	0.814231663800721	18.057814346572	-31.083582475236	114.53650948896
16341	1651210046853	5.17759336123184	2.69215694796912	8.1625848884246	-0.0280207539286351	-0.0145483949133515	0.221353551079009	-0.0135140330561288	-0.00479604992381385	0.00936766918281037	0.14990234375	-0.184814453125	0.7158203125	0	0	0	-0.304208699643203	0.0159452251660565	-0.823242885375261	-0.479034412683276	-0.355966197053162	0.779021991756278	0.516151918446102	-0.798424696609415	-0.540543562519187	0.265199285186124	0.485598672156004	-0.317706457880775	0.814405633711591	18.0370819829811	-31.0744819423137	114.557550001867
16342	1651210046854	5.18325219969471	2.56871532359095	8.18770824413783	0.0793627125841413	0.0474766398451876	0.212002925738842	-0.0135413635675119	-0.00327027828129753	0.00936406048046744	0.14892578125	-0.176025390625	0.711669921875	0	0	0	-0.304176617687559	0.0160214901453335	-0.823264898584682	-0.479014408827159	-0.356043562776248	0.778964772041941	0.516184913885753	-0.798458222772829	-0.540577015978981	0.265030104481954	0.485486815363765	-0.317789826320648	0.81443979421136	18.0256129056206	-31.0766892136408	114.563848254762
16343	1651210046855	5.20452687307923	2.66548381582918	8.18685115140084	-0.00798474577095665	0.010370045386191	0.247942048753964	-0.019759479146359	-0.00187020494325383	0.00334623399436303	0.149169921875	-0.181396484375	0.721923828125	0	0	0	-0.304119031348257	0.0161621449319775	-0.82326276930409	-0.47904990608574	-0.356045604502083	0.778937472915575	0.516224699915302	-0.798598336360467	-0.540499945100883	0.26476500242335	0.485254803868071	-0.317987771201725	0.814500799685991	18.0074854392629	-31.0793508181539	114.564731680547
16344	1651210046855	5.21019291114545	2.51801427248415	8.18755954916859	0.1071404986488	0.0934918968190969	0.21240204149758	-0.00444024636203864	-0.00771036564318527	8.37841595809299E-05	0.148681640625	-0.18505859375	0.72314453125	0	0	0	-0.304127726527549	0.0161979287148244	-0.823256475679155	-0.479053993110246	-0.356027195284626	0.778916125586944	0.516269605456671	-0.798621082524924	-0.540489797580956	0.264717104202989	0.485230875732864	-0.318057303031263	0.814487906125068	18.0047046282478	-31.0823549971314	114.564205269499
16345	1651210046856	5.18257380308798	2.63872143967172	8.21206580651614	0.0309146536763108	-0.00170373177258648	0.250065154419483	-0.0106684834871976	-0.00324967776022071	-0.00288824229935701	0.142578125	-0.179931640625	0.7158203125	0	0	0	-0.304062478103347	0.0162696076846719	-0.823274868403235	-0.479061374284209	-0.356092418157154	0.778904425281069	0.516242274526757	-0.798692334202551	-0.540470999069424	0.264540459005762	0.485065712060821	-0.318117895508044	0.814562618550877	17.9919208703746	-31.0805265476709	114.56849915565
16346	1651210046857	5.23437413449641	2.54251047892304	8.18655100315545	0.0766433327815682	0.098543315288849	0.230572290042275	-0.00152810833405982	-0.00615038466144833	-0.00759446838500665	0.13720703125	-0.187255859375	0.717041015625	0	0	0	-0.304071894283956	0.0162783194632415	-0.823252944798503	-0.479092776299761	-0.356020789607908	0.778929518971042	0.51625381532973	-0.798728636710831	-0.54041025602568	0.264554947185487	0.485058514269174	-0.318159644923425	0.814550598844038	17.9930911161176	-31.0812986274273	114.563443025367
16347	1651210046857	5.18401170655536	2.58999895568764	8.18754742687377	0.0544415910417882	0.0345805515499061	0.21795793626482	0.00144582630444565	-0.00304837469005963	-0.00917184076362208	0.142822265625	-0.1826171875	0.719970703125	0	0	0	-0.303927927799465	0.0162700079601297	-0.823312414265013	-0.479082216390482	-0.356216089283815	0.778978852806556	0.516044614946739	-0.798758492024968	-0.540431033558722	0.264422331478737	0.48486592904982	-0.318003529613798	0.814726203089002	17.9810257864409	-31.0673040943716	114.573952665574
16348	1651210046859	5.15780175141069	2.63842641654709	8.18794645013758	0.0254463491911393	-0.011699946423287	0.21756166347499	-0.00165490913238372	-0.00158116112204144	-0.010655945120698	0.153564453125	-0.1875	0.7197265625	0	0	0	-0.303916578113749	0.0162636520621713	-0.823290928712412	-0.479126553082883	-0.35614491935709	0.779035502752031	0.516008218798908	-0.798806676681502	-0.540346479505032	0.264449570571729	0.484838828586558	-0.318008439413812	0.81474041433846	17.9824653427521	-31.0648695716075	114.568047556133
16349	1651210046860	5.15879992074831	2.61440826844271	8.18785146317456	0.042751735667737	0.00171450787617329	0.211654417779203	-0.0015226171580573	-0.00768034556748312	-0.00911722860628067	0.14794921875	-0.185546875	0.7275390625	0	0	0	-0.303876045841655	0.0163349964920879	-0.823291616435924	-0.479148652256862	-0.356151835608146	0.779030508573587	0.516010985061875	-0.798885765144999	-0.540299473860073	0.264306664303455	0.484703418846658	-0.318100526969239	0.814785033306488	17.9724520504176	-31.0650546035662	114.568607185527
16350	1651210046861	5.18213298665091	2.66477801389068	8.21115192759265	0.00573552327813691	-0.0143347437994695	0.255992873622628	0.00286608642930952	0.00155271258387543	-0.0107300815043509	0.149169921875	-0.180908203125	0.716552734375	0	0	0	-0.303861986331584	0.0163031314094914	-0.823275261418262	-0.47918675389201	-0.356095896314126	0.7790973963702	0.515948601701192	-0.798913003944251	-0.540228525601367	0.264369348176649	0.484699623227636	-0.31805720726899	0.814804202337739	17.9760445210038	-31.0608819440614	114.563344230327
16351	1651210046862	5.13510721008811	2.59071567186745	8.18829122011125	0.0701157577263458	-0.00303776159491778	0.193526770544958	0.00753051260825118	-0.00447194259854623	-0.0123110225414383	0.150146484375	-0.18212890625	0.718994140625	0	0	0	-0.303845212037033	0.0162874342198122	-0.823271026965316	-0.479205199020398	-0.356080928707983	0.779133794841167	0.515903965818118	-0.798929230457399	-0.540194193436712	0.264390465217653	0.484683873190771	-0.318026356004752	0.814825613217411	17.9769460087764	-31.057896479151	114.561421730042
16352	1651210046863	5.23270914366305	2.59525086609661	8.18504485460067	0.0308490997746116	0.0721187968178262	0.242429667250175	0.00142865197480789	-0.00458238159078887	-0.0122205295700378	0.157470703125	-0.182861328125	0.73095703125	0	0	0	-0.303852662118609	0.0162741823470157	-0.823241807312711	-0.479251121443521	-0.355983844637124	0.779189211487727	0.515887269719371	-0.798969026007504	-0.540107027168127	0.264448283572097	0.484689589157836	-0.318038632723672	0.814817421424742	17.980793386455	-31.0567797869543	114.553975342294
16353	1651210046863	5.20931076078898	2.54674877434098	8.1612096413464	0.0674911159141316	0.0875736798352075	0.198105125311899	0.0120115049775675	-0.00287499190134913	-0.0169603459931986	0.146240234375	-0.178466796875	0.716796875	0	0	0	-0.303909119994291	0.0162404044085507	-0.823195224950104	-0.479296482011177	-0.35582825823201	0.77923793662966	0.515921010195092	-0.798980364678276	-0.540022263192712	0.264587097407998	0.484785135397263	-0.318063190849508	0.814750992097884	17.9909960182424	-31.0590364789072	114.543155785626
16354	1651210046864	5.18342117225243	2.62111904449305	8.21001862659189	0.0421832987663019	0.0128939909991459	0.244179942947058	0.0104581116314364	-0.00137706131802408	-0.0169410542937633	0.14697265625	-0.189697265625	0.714111328125	0	0	0	-0.303925888451186	0.0161755087858388	-0.823160017730554	-0.479348508347017	-0.355708123749293	0.779328741502318	0.515866691468998	-0.798993365017862	-0.539926720922018	0.264742778356332	0.484851867436014	-0.31800290675214	0.814734814489352	18.0012333661787	-31.0554034612092	114.533324218645
16355	1651210046865	5.15645164276838	2.67058184339873	8.18561497405975	-0.000200129866105138	-0.026621365334455	0.22347646809143	0.0105929438664241	-0.00747596154831215	-0.0154013765824366	0.14501953125	-0.181640625	0.727783203125	0	0	0	-0.303900723508593	0.0161941379768532	-0.823146398213804	-0.479387220578293	-0.355664485994345	0.77936890744197	0.515836097530106	-0.799054548433024	-0.539851285282811	0.264711953653386	0.484783046352566	-0.318032539044682	0.81476420029228	17.9986653413095	-31.0533572975323	114.529553761094
16356	1651210046866	5.2047385497391	2.69784555815158	8.18343245954692	-0.0392377455690251	-0.00282647795431913	0.253826095045534	6.15917766078123E-05	-0.0107066098465145	-0.00913118033372217	0.1484375	-0.18359375	0.71923828125	0	0	0	-0.303929537936549	0.0162069385887184	-0.823115140985578	-0.479422189506858	-0.355562400356252	0.779387791501833	0.515877940903461	-0.799090860928374	-0.539783398700063	0.264740775983901	0.484798076969835	-0.318101482149491	0.814728342222515	18.0012397746625	-31.0561558495427	114.522817876183
16357	1651210046867	5.18520546081572	2.59991058661729	8.20855687195099	0.0572803161259259	0.027162712774557	0.238296558498419	-0.0015203685796652	-0.00768319314231365	-0.00911538048717471	0.152099609375	-0.182861328125	0.71728515625	0	0	0	-0.303877163640375	0.0162140705750444	-0.823129885226184	-0.479429833636579	-0.355611408074165	0.779411876315753	0.515807767977051	-0.799120219425391	-0.539768277069179	0.26468298391715	0.48471373134359	-0.318068128123092	0.814791546666537	17.9962575561904	-31.0514626182523	114.525131263706
16358	1651210046868	5.15871660735463	2.67259858439258	8.20843741897208	0.00900870918045544	-0.0329732818195507	0.243774072527572	0.00166102195388826	-0.0121954479660832	-0.00609876889165676	0.1552734375	-0.17919921875	0.712890625	0	0	0	-0.303914968391734	0.016228385080834	-0.823104096229988	-0.479449661877589	-0.355527427425833	0.779409862977272	0.515868698257338	-0.799138059532834	-0.539729322486267	0.264708557199446	0.484745923298037	-0.318139158140375	0.814744663010239	17.9988530577983	-31.0555376794435	114.5200771041
16359	1651210046869	5.18401909575527	2.64906172355388	8.1829134820414	0.00708953615648523	0.00542549845973647	0.229801139907696	-0.00600011486638513	-0.00928079875125959	-0.00446486258985355	0.14501953125	-0.175537109375	0.72314453125	0	0	0	-0.303976136159237	0.0163463525904995	-0.823047006942469	-0.479504879814306	-0.355347157759938	0.779372310089432	0.516049609764212	-0.799247914492458	-0.539615733982511	0.26460844812283	0.484696986426973	-0.318423714418978	0.814662610805376	17.9941803405744	-31.0676382004396	114.510148703032
16360	1651210046870	5.18392005921199	2.64891617380902	8.15811076556481	-0.00469530470109756	0.0128164425512407	0.209506458596303	0.000101675775633896	-0.0091676539520986	-0.0045571311857454	0.151611328125	-0.178466796875	0.721435546875	0	0	0	-0.303998302483365	0.0163628799710967	-0.823028977250206	-0.479521210013451	-0.355288882468937	0.779371126624398	0.516091519963455	-0.799268277564208	-0.539583330612575	0.264613018962757	0.484706127951275	-0.318481516432675	0.814634576492568	17.9950504559914	-31.0704416427953	114.50663463149
16361	1651210046870	5.1615750455835	2.64816011905131	8.20733591431935	0.0282203242906089	-0.0192876746066146	0.23787497719756	-0.00598801842014368	-0.00621643312899219	0.000106370155958097	0.144775390625	-0.174072265625	0.7177734375	0	0	0	-0.303992170584709	0.0163344214122577	-0.823035994022028	-0.479514024241728	-0.355310121557403	0.779383530737871	0.516058164874303	-0.799245675619301	-0.539598974465261	0.264649384582478	0.484727828294096	-0.318424651637727	0.814643893800648	17.9971714572579	-31.0682104591515	114.507583181514
16362	1651210046871	5.21133340544488	2.60046667771873	8.1570000322426	0.0239477862066357	0.0605674904769696	0.209928581091939	-0.00749725160965753	-0.010834937498528	-0.00443811653992008	0.14892578125	-0.17822265625	0.718505859375	0	0	0	-0.304003034378626	0.0163854596610449	-0.823015201177079	-0.479541083153192	-0.355245009313703	0.779376743134705	0.516113239142776	-0.79930166096129	-0.53954373255992	0.264592924016939	0.484683234847494	-0.318534853534195	0.814627343600568	17.9939214600779	-31.071894507039	114.503808341968
16363	1651210046872	5.18849708366428	2.5750309682677	8.15748623470948	0.0530179594559787	0.0569143501821766	0.191802528317412	-0.00145242806513292	-0.00766993836479079	-0.00453787398881953	0.14013671875	-0.1806640625	0.71240234375	0	0	0	-0.304005860689113	0.0163372618670141	-0.823009089254102	-0.479551425340905	-0.355221734240356	0.779417116930279	0.516068287496301	-0.799283610351019	-0.53952704865639	0.264681457590751	0.484730058638324	-0.31846431763106	0.81462706108272	17.9995597888944	-31.0688875745382	114.501271550072
16364	1651210046873	5.16417582779722	2.62319750649949	8.20656282830169	0.0469171263763581	-0.00390480542173952	0.23197958721885	-0.00301170944808096	-0.00464255967354369	-0.00299527513066289	0.151123046875	-0.185302734375	0.720947265625	0	0	0	-0.304001819743712	0.0163562431673885	-0.823001698417278	-0.479566023926045	-0.355198644576551	0.779422649014599	0.516075824946341	-0.799311959762826	-0.539497804010426	0.264655456108575	0.484700230937732	-0.318500319734522	0.814630733803922	17.9978297070918	-31.0693917675327	114.499712653343
16365	1651210046874	5.18737199569378	2.64844568883271	8.18098785447403	0.00425910995980969	0.00855646966559289	0.229800559591647	0.000101555793809195	-0.00916727128448248	-0.00455800855428265	0.1552734375	-0.179931640625	0.718994140625	0	0	0	-0.303941909042964	0.0164049711331122	-0.823023307936108	-0.479565248369132	-0.355272976967944	0.779414437679942	0.51603705891379	-0.799359070655914	-0.53949609895755	0.264516606982813	0.484568042690033	-0.318523301417095	0.814700385698881	17.9875569904276	-31.066798669433	114.50446485186
16366	1651210046876	5.21403026888071	2.60098514916338	8.180032801718	0.0326302063852242	0.0551416711404106	0.230223901654723	0.00150001203580287	-0.00609980901276519	-0.009165952527082	0.139892578125	-0.181396484375	0.728515625	0	0	0	-0.303954274103094	0.0163997875312943	-0.82299963788381	-0.479598209198603	-0.355194713975909	0.779448733971309	0.516039132502657	-0.799387876029387	-0.539433209404843	0.264557812676957	0.484577897577672	-0.318545889475463	0.81468569244678	17.9904820399293	-31.0669373720449	114.498749847012
16367	1651210046877	5.16699357049098	2.59982295687648	8.23006096459461	0.0741092948886576	0.00402571551489259	0.246402907169772	-0.00153283922439849	-0.00462267731418059	-0.00607041788936226	0.14892578125	-0.1865234375	0.723388671875	0	0	0	-0.303910523512005	0.0163768470437372	-0.823017665836814	-0.47959578219589	-0.355252558797144	0.779477410099008	0.515955992903876	-0.799385794733161	-0.539439369161638	0.264551541627198	0.484538925832502	-0.31846527933801	0.814740385159131	17.9889532353324	-31.0613763126798	114.501475184082
16368	1651210046878	5.21173279017054	2.67488784471762	8.17919628086793	-0.0263279679402656	0.0146914971712574	0.247905385574517	0.00151803145491707	-0.00456554408661518	-0.00611743307467885	0.152099609375	-0.178955078125	0.7197265625	0	0	0	-0.303915950676653	0.0163721176814223	-0.823003885771255	-0.479616151408964	-0.355206884463921	0.779500417156985	0.515952680855058	-0.799403407995943	-0.539400602140559	0.264577364290436	0.484543352563944	-0.318474630170895	0.814734097373864	17.9907258662247	-31.06115478238	114.498057117074
16369	1651210046879	5.16392910469829	2.64887130819999	8.18070882700725	0.011441141377521	-0.0093368293000347	0.217589894505824	-0.00312106292907778	-6.98357362859777E-05	-0.00453081123837466	0.146484375	-0.180908203125	0.7099609375	0	0	0	-0.303877798489151	0.0164149604240931	-0.823009885715267	-0.47962856532384	-0.355229445821563	0.779501817393983	0.515935032248037	-0.799454385537823	-0.53937397679934	0.26447759564093	0.484442696575815	-0.318516294451544	0.814777665319325	17.9834790379347	-31.0599743431385	114.499391455104
16370	1651210046880	5.21534352085696	2.60206665642821	8.20377381942201	0.0414862084467928	0.0487511022133847	0.250531110495023	-0.003058164793143	-0.00465137252328078	-0.00604689409589081	0.14208984375	-0.184814453125	0.719970703125	0	0	0	-0.303872499608963	0.0164297019055006	-0.822995765841933	-0.479655645523898	-0.355183931396907	0.779524061484985	0.515932759614457	-0.799494199828404	-0.539321053224697	0.264465169709251	0.484410362521465	-0.318551470118339	0.814783137753395	17.9825755233766	-31.0598223375401	114.49600433516
16371	1651210046881	5.21383647222443	2.60188552475902	8.1549477755439	0.0161073944147955	0.0637442226878098	0.209924547378046	-0.00162454579943419	0.00148461604073242	-0.00455759070464857	0.14794921875	-0.1787109375	0.721923828125	0	0	0	-0.303749333771163	0.0164569630080358	-0.82303979383397	-0.479657177959283	-0.355330667731423	0.779556306618009	0.515782978956877	-0.799551472816359	-0.539316320001378	0.264301625604843	0.484208177220018	-0.318480567369911	0.814931021204253	17.9691189238469	-31.0498047606032	114.504040332676
16372	1651210046882	5.11683018845846	2.62331739568004	8.20654808123221	0.0584614169988627	-0.0394706619274785	0.207602105534335	0.00763800248162518	-0.00291619867574618	-0.0031632292840906	0.142822265625	-0.180908203125	0.72607421875	0	0	0	-0.303761246495247	0.0164281375515065	-0.823036541240332	-0.479656203136573	-0.355318063840521	0.779568701747508	0.515772927521722	-0.799529627908472	-0.539320086178391	0.264360017289061	0.484253495191478	-0.31844384732671	0.814918442848485	17.9730930606225	-31.0491325418329	114.502929517874
16373	1651210046882	5.19018585061517	2.62684331422985	8.20391313797534	0.0280994680701285	0.0184224294345063	0.2442205479393	0.00611799909707023	-0.00447494739475028	-0.00466229889069946	0.14111328125	-0.181396484375	0.7216796875	0	0	0	-0.303712885155579	0.01634238883033	-0.823072028846255	-0.479628861776168	-0.355429276683543	0.779611412586673	0.515631723850294	-0.799464988834649	-0.539378162557231	0.264437004566305	0.484278598436715	-0.318240857089401	0.814982819435584	17.9766616801299	-31.0396896400592	114.508512120435
16374	1651210046884	5.24092641456638	2.60440425406171	8.22672935277765	0.0388606345766895	0.0627042121689077	0.283047629515556	-0.00752237464547786	-0.00318700987183661	0.00317676363064935	0.148193359375	-0.177734375	0.7119140625	0	0	0	-0.303688398437837	0.0163854488397543	-0.82308272245394	-0.479624546617865	-0.355467301871739	0.779589213740277	0.515639074469578	-0.799493496603598	-0.539383622695855	0.264339661148397	0.484203620585989	-0.318285980507016	0.815009747441163	17.96991421793	-31.0401811847324	114.511441609007
16375	1651210046884	5.09203500984462	2.67194612137982	8.23086748666953	0.0384854433506525	-0.0903085875681498	0.227514797560977	0.00455816329056963	-0.00144787400882076	-0.00311956232196942	0.150146484375	-0.182373046875	0.720947265625	0	0	0	-0.303626565049092	0.0163412551116304	-0.823113873422233	-0.479611742722919	-0.355566970477549	0.779626880266628	0.515513391747629	-0.799473436899169	-0.539411079247323	0.264344304417308	0.484163560378153	-0.318147159583367	0.815087744755733	17.9686005271022	-31.0317769805201	114.516460491701
16376	1651210046885	5.24604319835144	2.40868274797863	8.12950706342382	0.145212528704376	0.203727480889503	0.154710253513963	-0.00279609218852553	-0.0122596259022906	0.00159997139360359	0.14892578125	-0.17822265625	0.721923828125	0	0	0	-0.303650244106217	0.0163838164676891	-0.82310773963942	-0.47960582644279	-0.355549560992725	0.779584635702832	0.515589279809	-0.799484435182053	-0.539419643600162	0.264293560269462	0.484158184459908	-0.318236144827008	0.815056199624376	17.9660235553359	-31.0368514060575	114.516573480022
16377	1651210046886	5.16239585109797	2.77225992079957	8.22761732264337	-0.0684918264854234	-0.0890907841915349	0.287649983413541	-0.00163043162268886	0.00301437695157933	-0.00303480245163112	0.14892578125	-0.17626953125	0.720703125	0	0	0	-0.303615646651881	0.0163769057936548	-0.823117792618632	-0.479610712494432	-0.355582207137488	0.779607652283937	0.515531960665447	-0.799496791654727	-0.539410722834419	0.264274388136739	0.484113802840852	-0.318194878323925	0.815098672129572	17.9639280940075	-31.033018607897	114.517920965813
16378	1651210046887	5.14421774730645	2.57619995465192	8.18012392729517	0.071847690306025	0.017623662210399	0.187749481724872	0.00321677449117025	-0.013691254298067	-0.00612161063278687	0.15087890625	-0.183349609375	0.718505859375	0	0	0	-0.303660338476422	0.0163862696421395	-0.823091454849806	-0.479627299011254	-0.355496105759109	0.779602542285915	0.515599064052143	-0.799505983029507	-0.539378288420769	0.264312778881959	0.484161855054826	-0.318262372959198	0.8150437780072	17.9675022395868	-31.0375056711142	114.512824360063
16379	1651210046888	5.26561988882289	2.62979543207456	8.20012357794963	-0.00421607109600463	0.0764457173035283	0.280812614694085	-0.00761657152634482	-0.00320425403801533	-0.00292612749546948	0.14892578125	-0.179931640625	0.717529296875	0	0	0	-0.303648904774187	0.0164249209902785	-0.823082042347794	-0.479649367939211	-0.355467652929905	0.779606744209068	0.515612327339294	-0.79955638128787	-0.539333411611957	0.264251895472586	0.48409951545354	-0.318328125528904	0.8150551291998	17.963395357532	-31.0383925844322	114.510976625564
16380	1651210046888	5.11972014467491	2.59963162470494	8.18028342319014	0.0618566173633466	-0.0147951204357877	0.181441448100504	0.00156495884937367	-0.00455681601991235	-0.00306599456167223	0.147216796875	-0.19140625	0.7216796875	0	0	0	-0.303651982877716	0.0164237077492167	-0.823076697404657	-0.479656632715157	-0.355449975973577	0.779614211438352	0.515613223166106	-0.799562577135367	-0.539319553032251	0.264261432982082	0.484102261743357	-0.318333317515541	0.8150514702364	17.9640775032843	-31.038452488487	114.509693932221
16381	1651210046888	5.24175388936885	2.62885647884614	8.20055985389623	0.00275876535848016	0.0573292943723838	0.268619987494782	-0.00456047966950366	-0.00467657440543637	-0.00449640520033887	0.13671875	-0.18359375	0.716796875	0	0	0	-0.303574376675688	0.0165239809247723	-0.823101148313905	-0.479660354339085	-0.355537084602541	0.779585462495434	0.51559663317181	-0.799650491333189	-0.539305805059402	0.26402337082126	0.483893038989935	-0.318427001516849	0.815139111760731	17.9471269797643	-31.0373431195359	114.515791468289
16382	1651210046888	5.16979099818035	2.60173350446828	8.20277790430613	0.0509354840224001	0.0151037110472734	0.226162122978302	1.57855080298689E-05	-0.00458978938068285	-0.00456818106211059	0.154296875	-0.183837890625	0.7216796875	0	0	0	-0.303573332785679	0.0165276951339192	-0.823092209372455	-0.479676225995542	-0.355507899672138	0.779600794286084	0.515593575230735	-0.799670264266362	-0.539275107016468	0.264026186959823	0.483881805525762	-0.31844145537427	0.815140133829911	17.9472850699362	-31.0371386371583	114.513590423888
16383	1651210046889	5.24120237719795	2.65326550870122	8.20021055052835	-0.0192034685495372	0.0440936842366941	0.274490650594599	-0.00769329364310297	-0.00168719150165772	-0.00598082981273888	0.1494140625	-0.189453125	0.722900390625	0	0	0	-0.303456578702833	0.0165806104124615	-0.823129828028771	-0.47968372331115	-0.355635260864648	0.779620970737474	0.515475220758566	-0.799746951971754	-0.539257217897405	0.263830373076033	0.483661425008882	-0.318422353065718	0.815278376400643	17.9319810463589	-31.0292246938712	114.520778925723
16384	1651210046891	5.14291926978955	2.64915229413062	8.17895289329121	0.00810032248485283	-0.0234830891160889	0.205410254346269	-0.00459479297565809	-0.00162099739758915	-0.00297684579382338	0.15869140625	-0.186767578125	0.723876953125	0	0	0	-0.303431263319128	0.0165987921024438	-0.823129181508364	-0.479700217938942	-0.35563433869978	0.779637310608498	0.515451143217976	-0.799783680437362	-0.539224362020143	0.263786185972724	0.483601366461714	-0.318437986601972	0.815307897082596	17.9285623868017	-31.027614794726	114.52026940498
16385	1651210046892	5.17017773727285	2.57681178892804	8.17846537655984	0.0544143244651298	0.0347478822748602	0.199995815475761	-0.003087911693902	-0.00312585634091265	-0.00604961861264881	0.14208984375	-0.177490234375	0.71923828125	0	0	0	-0.303421210436668	0.0167418513322272	-0.823119820902784	-0.479717666870926	-0.355613058298125	0.779570574485046	0.515566748505864	-0.799889905669747	-0.539181341011769	0.263551930959333	0.48344130106508	-0.318674129639989	0.815310558942234	17.9136040728602	-31.0353447716827	114.520826768409
16386	1651210046893	5.17004406668756	2.60139547344509	8.20272561196291	0.0461898102678263	0.0138192635523522	0.22618693032239	-0.00311710591331586	-0.00160007618786314	-0.00605274035599661	0.144287109375	-0.17578125	0.714111328125	0	0	0	-0.303399705754133	0.0167505786574171	-0.823111710423061	-0.479744878896451	-0.35558693944187	0.77960301439858	0.515535710149172	-0.799931496942068	-0.539128538574543	0.263533715289906	0.48339169283138	-0.318684105087036	0.815336073325894	17.9119203488145	-31.0332693224601	114.51833755884
16387	1651210046893	5.195746442359	2.52918567980717	8.15333117167037	0.0707093127698412	0.0907171226622707	0.180117102180187	-7.94269120592749E-05	-0.00460541797381145	-0.0106724915382746	0.148193359375	-0.181396484375	0.719482421875	0	0	0	-0.303347910670896	0.0166543496651689	-0.823116328377088	-0.479773058526481	-0.355595714807497	0.779713952428103	0.515361853457832	-0.799922201126149	-0.539080889898752	0.263659375504583	0.483400620351322	-0.318493244096191	0.815405355457665	17.9184899494291	-31.0216448415682	114.515793365925
16388	1651210046894	5.21903937818552	2.57969010971188	8.17654951522066	0.0334659760880575	0.0747175480210872	0.224365608665854	0.00139275258452983	-0.00305444679519075	-0.0122256130579888	0.137451171875	-0.1845703125	0.713623046875	0	0	0	-0.303343225201297	0.0166375227983731	-0.823091962105192	-0.479818405730161	-0.355514370494083	0.77977558640321	0.515324720173335	-0.799963105703284	-0.5389949807154	0.263710902840898	0.483392761515677	-0.318487747979629	0.815412161119217	17.9216278079699	-31.0191622037519	114.509135415418
16389	1651210046894	5.14664788118224	2.57788174500036	8.20298987890138	0.0715916613890386	0.0121852329335579	0.208152309416532	0.00447299406600562	-0.00452163401443824	-0.0122706765143852	0.149658203125	-0.185791015625	0.72119140625	0	0	0	-0.303240773623189	0.0166193506210838	-0.823123148413219	-0.479830295983542	-0.355615840537513	0.779839518389134	0.515157936479097	-0.799998177346944	-0.538973368482561	0.263648675908167	0.483260064768822	-0.318367764739406	0.815537660794687	17.915088271154	-31.0080122638636	114.513534444097
16390	1651210046894	5.1721359694418	2.55553043860974	8.20187256259646	0.0805869286044833	0.0449968057683187	0.214471793321014	0.0060334555468876	-0.00754787740637792	-0.0138145122113461	0.14404296875	-0.18310546875	0.717529296875	0	0	0	-0.303264728132198	0.0165917748798094	-0.823089037202357	-0.47987462374514	-0.355501700312729	0.779895683876148	0.515151689646956	-0.800022484268772	-0.538890116983597	0.26374507859262	0.483303802736106	-0.318371110637822	0.815510435354484	17.9217800187662	-31.007594671624	114.505034288954
16391	1651210046895	5.1919773487786	2.67966100965577	8.20008221246822	-0.0275059411675152	-0.00558647126054495	0.255965590747156	0.00600384340134067	-0.00602212042105729	-0.0138177155802109	0.14697265625	-0.182373046875	0.7236328125	0	0	0	-0.303218658529639	0.0166074755776601	-0.823091919395815	-0.479898248694175	-0.3555122320395	0.779929348332314	0.51509345218147	-0.800072134197201	-0.538843725310403	0.263689248500471	0.483213858401669	-0.318367164298612	0.815565273748847	17.9171010922597	-31.0037016642125	114.504741502209
16392	1651210046895	5.1708461074753	2.58185488063331	8.17645208463895	0.0473483833595156	0.0385197810539059	0.200017921967788	-0.00156937970861854	-0.00769177751096203	-0.0121674643693513	0.14892578125	-0.1806640625	0.718505859375	0	0	0	-0.303224211599035	0.0166144073962334	-0.823061126125306	-0.479947311304438	-0.355411311743569	0.77997616787827	0.515092202451798	-0.800127730213902	-0.538749079677026	0.263713944435833	0.483196041816842	-0.318412635881627	0.815558077934031	17.9188198272104	-31.0036181251131	114.497304959332
16393	1651210046896	5.16822655804737	2.65579200619228	8.17574969544316	-0.0112336391971456	-0.00268025152157956	0.217594116606548	0.00450241344752803	-0.00604722816762992	-0.0122677893327308	0.148193359375	-0.18359375	0.720703125	0	0	0	-0.303215848745125	0.0165905276595261	-0.823048834150678	-0.479974499390292	-0.355369258009624	0.780023882439645	0.515048962027371	-0.800145926141296	-0.538698468654035	0.263762121521053	0.483196841195364	-0.318381379313523	0.815569806923504	17.921642738088	-31.0007277322095	114.493424486292
16394	1651210046896	5.21887374304311	2.63423745806834	8.19834390363831	-0.000657392697807953	0.0416516492978346	0.256421713081188	0.00147006328720217	-0.00457266887839328	-0.00917045237017839	0.145751953125	-0.184326171875	0.719482421875	0	0	0	-0.303215422570696	0.0165818700466243	-0.82303031618677	-0.480006820512518	-0.355307719553475	0.780064573050049	0.515029791660593	-0.800176087982847	-0.53863698769444	0.263796178342156	0.483192148783666	-0.318385705331921	0.815570898202063	17.9237862871825	-30.9994463229564	114.48855362525
16395	1651210046897	5.17144733325854	2.58406355950387	8.17537404686322	0.0440702369875788	0.0391725154217072	0.200030354723227	0.00302543960385692	-0.0060685932350516	-0.00919157234406379	0.14453125	-0.186279296875	0.719482421875	0	0	0	-0.303167240225102	0.0166046486482653	-0.823042465766152	-0.480015634790301	-0.35534922962232	0.780078532317024	0.514980007791508	-0.800214474339433	-0.538618552000264	0.263717368595254	0.483098043946041	-0.31838269246185	0.815627820195126	17.9176033658899	-30.9961186887176	114.490691832329
16396	1651210046897	5.21940584681095	2.63559095075804	8.19757011995422	-0.00306878999594114	0.0419396052793433	0.25642007162954	0.00307974666366395	-0.00759015018835028	-0.00766233958336448	0.152099609375	-0.1796875	0.7197265625	0	0	0	-0.303182419873513	0.0165991478801077	-0.823023334284582	-0.480039039862785	-0.355285880974513	0.780101522705018	0.514988890223348	-0.800231801993536	-0.53857397699454	0.263755823409575	0.483115934179719	-0.318401767547852	0.81560977713859	17.9204200854678	-30.9967123963017	114.48620148685
16397	1651210046897	5.17192132310085	2.61006714729318	8.19878655233335	0.0344781764842145	0.0181408104162373	0.226227105910009	0.00452640472810219	-0.00604290678723173	-0.0107420595784552	0.142578125	-0.180419921875	0.722900390625	0	0	0	-0.303169382080406	0.0166120293069927	-0.823014761706751	-0.480061525498626	-0.355258515009833	0.780122926705457	0.514975345760862	-0.800267961345868	-0.538529944436471	0.263736021408871	0.483076161237891	-0.318423802775111	0.815624732502577	17.9188531496254	-30.995807077003	114.483943884266
16398	1651210046898	5.14395338623864	2.70724197713871	8.19879209221871	-0.0331086800356477	-0.0558311290970575	0.237456617938358	-0.00150207448007971	-0.00615031773327799	-0.00606610066165818	0.14404296875	-0.186767578125	0.72314453125	0	0	0	-0.303167266415454	0.016624556774527	-0.82300134010028	-0.480085437062378	-0.355215163389613	0.780141873264528	0.514976548279049	-0.800301958995335	-0.538483194465352	0.263728314192122	0.483051717858781	-0.318456444208157	0.815626465372463	17.9183273494317	-30.9958874536303	114.480781970374
16399	1651210046899	5.19734678088536	2.58674325618778	8.17308471237981	0.0294573060163629	0.0596421755630668	0.212208792802876	-0.00894651000916327	-0.00933104468676941	0.00169317617667181	0.152099609375	-0.185302734375	0.720947265625	0	0	0	-0.303044785015814	0.0166649113167192	-0.823067525477634	-0.480047901265749	-0.355435741530138	0.780123247476497	0.514852554028476	-0.800324105345628	-0.538552586442311	0.26351933143323	0.482852731218993	-0.318384720712255	0.81577227801105	17.9020393099136	-30.987600002336	114.494714723279
16400	1651210046900	5.19783982583745	2.61118956376472	8.19697791315703	0.0211297271412895	0.0387743155678594	0.23839947996797	0.00310972375832499	-0.00911549635269278	-0.0076596954255438	0.1552734375	-0.180908203125	0.72119140625	0	0	0	-0.303064994437207	0.0166629023336328	-0.823046688954141	-0.480070937085575	-0.355367009025108	0.780141705656688	0.514872030694641	-0.800341475268888	-0.538508486103196	0.263556698566483	0.482874530143151	-0.318414084942734	0.815747913665192	17.9049163940511	-30.9889017240796	114.490022913498
16401	1651210046900	5.17233634393695	2.6346668110489	8.17280407001728	0.000346826510388107	0.0119808788907594	0.211738562037695	-0.0044190118612247	-0.00924936576722217	-0.00143232749795664	0.145263671875	-0.188232421875	0.721435546875	0	0	0	-0.303127510966737	0.0167674181266305	-0.823013619898151	-0.480084520940449	-0.355265129696982	0.780066867428408	0.515055695980364	-0.800397530316664	-0.538475412885493	0.263454024795184	0.482856584385437	-0.318653278750161	0.815665131568955	17.9000868690091	-31.0011778554711	114.485899270661
16402	1651210046901	5.19908928303443	2.61128694982889	8.19615444839833	0.0206691105752499	0.0375669785585128	0.238405022795222	-0.00144777194747899	-0.00767165888670989	-0.00453704016179317	0.1494140625	-0.184814453125	0.727294921875	0	0	0	-0.303131158372559	0.016785949362036	-0.823001753671333	-0.480101912287002	-0.355227309284148	0.780072742957332	0.51507288264261	-0.80042612005532	-0.538440771444758	0.263437966092892	0.482837017089545	-0.318697429140867	0.815659465455451	17.8991818012265	-31.0023266875672	114.483435759262
16403	1651210046901	5.19795674299982	2.61113508152978	8.14703162991514	-0.00460038879936198	0.0520932548056277	0.197715737095928	-0.00147809913562537	-0.00614588966673126	-0.00454025810594391	0.142578125	-0.18212890625	0.722900390625	0	0	0	-0.303050139861237	0.01684354796008	-0.8230408213321	-0.480084069766102	-0.355359797373802	0.780048695047377	0.515017910140351	-0.800466453307623	-0.538471161697865	0.263253233881116	0.482672633924448	-0.31870494406996	0.815753815244402	17.8854932687377	-30.9986521323987	114.492161416097
16404	1651210046902	5.22567618041342	2.53920076757708	8.14618349987118	0.0427672489471339	0.112635933374126	0.192362450692157	0.00157830339401078	-0.00761536831606111	-0.00611278174412597	0.150146484375	-0.18603515625	0.71484375	0	0	0	-0.303060233697764	0.0168474879740292	-0.823025777534067	-0.480103349722189	-0.35531053667318	0.780063258118371	0.515029839778987	-0.800486472688889	-0.538433871468996	0.263268632953129	0.482675698136045	-0.318732300510414	0.815741313800044	17.8867294764406	-30.9994495393238	114.488761423249
16405	1651210046903	5.19933889440562	2.61225843605437	8.17073961201819	0.00429487533074669	0.0452448429336148	0.218062323801984	0.00598324072720431	-0.00142980264947252	-0.00925235554494036	0.14453125	-0.1787109375	0.714111328125	0	0	0	-0.30299540078357	0.016844447886679	-0.823045718128149	-0.480110193133114	-0.355375979107375	0.780097696898971	0.514932516711068	-0.800512857852581	-0.538420934050154	0.263214859362563	0.482583752198692	-0.318669862192018	0.815820103358793	17.8816916387554	-30.992944416381	114.491787859431
16406	1651210046904	5.17389496170462	2.61215572509817	8.14698615947388	0.00222008267985879	0.0339348918115791	0.185551156933418	0.00589749000856984	0.00161748909974359	-0.0107848497474801	0.150390625	-0.186279296875	0.72802734375	0	0	0	-0.302977685183672	0.016801574330253	-0.82303403670246	-0.480142899364369	-0.355334636941442	0.780166893119715	0.514856207760597	-0.800528901511801	-0.538361006580005	0.263288633325617	0.482587581309342	-0.318601703501556	0.815844458761537	17.885884293031	-30.9878441979363	114.48735616017
16407	1651210046904	5.19994108853028	2.58986467954064	8.17044561484887	0.0218749268217242	0.0596956846847375	0.212227886986984	0.00761945493226967	-0.00444229384122712	-0.00621867103725714	0.1494140625	-0.18359375	0.725830078125	0	0	0	-0.302959480354292	0.0167750528490625	-0.823043195084131	-0.480139614998672	-0.355363006744768	0.780186963041808	0.514806212216712	-0.800515608218079	-0.538369095421677	0.26331251032582	0.482588742550587	-0.31853888270421	0.815868301730737	17.8869135321846	-30.9845028216984	114.488525671287
16408	1651210046905	5.17714935906359	2.59013991557923	8.21973650987098	0.0539478545803017	0.0267027849105977	0.240776969419638	0.00440823669070843	-0.00146913917621384	-0.0122793695273661	0.14404296875	-0.17919921875	0.718994140625	0	0	0	-0.30295073720174	0.016743369189636	-0.823023259419119	-0.480180408671815	-0.355295251913382	0.780254458030082	0.514750682070447	-0.800544122187046	-0.538292869431896	0.263381653025695	0.482591330630357	-0.318502382162142	0.815881020834204	17.8910498985377	-30.980791685872	114.482535235474
16409	1651210046905	5.17723809771292	2.56671665790709	8.19515778398137	0.0608683648854677	0.0486659970953681	0.21459374279666	0.00906470802916459	-0.00289441492867292	-0.00929897997210855	0.15869140625	-0.183349609375	0.71875	0	0	0	-0.302926728166405	0.0166742413154874	-0.82302945011796	-0.480187350184777	-0.355311012169838	0.78031451481964	0.514648756524909	-0.800518808285071	-0.53828415679815	0.263476382474701	0.482621717510407	-0.31836994911878	0.8159147340779	17.8963819665156	-30.9739802741276	114.481830548344
16410	1651210046905	5.22677910755584	2.57020421344283	8.21753591722427	0.052056628286094	0.0791688802502902	0.259258243003339	0.00899610708912612	-0.00443804402916846	-0.0153994670783446	0.15673828125	-0.188232421875	0.72216796875	0	0	0	-0.302941178988659	0.0166257198110299	-0.822998089482896	-0.480233664189872	-0.355204539703462	0.780389545945093	0.514608483756015	-0.800536006589447	-0.53819842643907	0.263599233557936	0.482671562377435	-0.318330976120958	0.815900455027453	17.9044872487063	-30.9712890866038	114.473277660208
16411	1651210046906	5.15134327470206	2.64234571797662	8.24351863137104	0.0353362911994435	-0.0289836519265118	0.260635763682592	0.0135164476031102	-0.00282456087497209	-0.017004135463209	0.15087890625	-0.1767578125	0.71923828125	0	0	0	-0.303063949231067	0.0166919888699915	-0.822923725572111	-0.480281336379576	-0.354964161203836	0.780352333177544	0.514830729818278	-0.800587293447387	-0.538102430866026	0.263639449754135	0.482763326933028	-0.318584384426541	0.815747240368067	17.9101929211238	-30.9861414037373	114.459686040064
16412	1651210046907	5.1986216925393	2.62128554140457	8.16830457619966	0.000251775564201129	0.044272482666686	0.218067578923966	0.00900240086572236	-0.00596878625499133	-0.0169217289464666	0.1435546875	-0.17919921875	0.71826171875	0	0	0	-0.303085771146908	0.0166460230062331	-0.822885799819301	-0.480334139638345	-0.35483625925235	0.780429939914884	0.514801260686344	-0.800610630792378	-0.538004048431934	0.26376933433036	0.482818648129948	-0.318560438151538	0.81572385049272	17.918933442639	-30.9841719000556	114.449757706527
16413	1651210046907	5.15161945542979	2.59670798254015	8.19392619315827	0.0506022347370836	0.0144021050514221	0.208277340029802	0.00894631116905432	-0.00444777161195457	-0.0184514490233554	0.14404296875	-0.184814453125	0.717529296875	0	0	0	-0.303106645930866	0.0165434111447715	-0.822843552441555	-0.480396882739259	-0.354690392493887	0.780554119421348	0.514713504900441	-0.800611790878736	-0.537890301204196	0.26399769729375	0.482923892325152	-0.318448254077211	0.815705353480472	17.9338345239315	-30.9783071786623	114.437449104178
16414	1651210046908	5.22281854301886	2.62561077474988	8.16654803181073	-0.0100190888221221	0.0642245432034608	0.230217935264198	0.0104903369913296	-0.0028813215869166	-0.0154284275701606	0.1484375	-0.18115234375	0.717529296875	0	0	0	-0.30311925221075	0.0164855365488265	-0.822814077999825	-0.480441400244808	-0.354589559740008	0.780633728528806	0.51466224459018	-0.800622062572699	-0.537808576031012	0.264133012835074	0.482980907536959	-0.318391139058094	0.815693892047786	17.9426735503528	-30.9748816175673	114.429113699796
16415	1651210046909	5.17555180684449	2.60100622716844	8.19235710266472	0.038362923961093	0.0335412686311429	0.22044215139786	0.00887716589824415	0.000134026276102582	-0.0169369531154963	0.14453125	-0.1875	0.714599609375	0	0	0	-0.303059260275389	0.0164544079520616	-0.822813943220247	-0.480480542855409	-0.354587065397411	0.780718858810486	0.51453481568355	-0.800665501619371	-0.537735400792637	0.264150323208175	0.482910724222867	-0.318305988369736	0.815768674440562	17.9422345874984	-30.9663664876016	114.426609426397
16416	1651210046910	5.22293132602558	2.62922167534064	8.19027752341385	-0.00106759291227561	0.0573854765870865	0.250571035156744	0.0119409687872644	-0.00286461414986265	-0.0200315272178301	0.1484375	-0.183837890625	0.71826171875	0	0	0	-0.303075145845397	0.0163837142266193	-0.822773749708516	-0.480541763710002	-0.354450138602544	0.780823304481	0.514470666242507	-0.800685290795888	-0.537622374477242	0.26432035026565	0.482978430520186	-0.318240710219203	0.815754059757863	17.9533435445443	-30.9620801429717	114.415393465893
16417	1651210046910	5.19997245890178	2.60614393377543	8.21517159042583	0.0366123888132545	0.0447547701377123	0.25296711778557	0.0133846024022262	-0.00131744581560041	-0.0231127803745962	0.144775390625	-0.1806640625	0.714599609375	0	0	0	-0.303013658498377	0.0163799905234739	-0.822765998980421	-0.48059393420603	-0.354424386335598	0.780905975052537	0.514362919054127	-0.800759418471283	-0.537522332629642	0.264299253979123	0.482874422702391	-0.318206851044467	0.815828837347759	17.95046271687	-30.9548811120126	114.411543708286
16418	1651210046911	5.15184241742005	2.58224893999	8.21636485296676	0.0749901398533676	0.0213267756181931	0.222852596157361	0.0179993706139915	-0.00427900420978396	-0.0247063239285574	0.14794921875	-0.1923828125	0.725341796875	0	0	0	-0.30304962333322	0.0162813442435771	-0.822713115691656	-0.48066513592744	-0.354243905802899	0.781030912685685	0.514297548731154	-0.800767133647183	-0.537391889866956	0.26454102588388	0.482994050555472	-0.318120527685007	0.815791687254431	17.9665938163664	-30.9505137174167	114.397114345748
16419	1651210046912	5.19955339131136	2.58697885338475	8.18960319629472	0.0409329091682084	0.0657669539345188	0.226805353594536	0.0195317307210454	-0.00577822089525679	-0.0262534543261958	0.1513671875	-0.179443359375	0.714599609375	0	0	0	-0.303006123819848	0.0162503874282851	-0.822702453748839	-0.48071185384983	-0.354206804991862	0.781117709606386	0.514191270867885	-0.800813577227247	-0.537304076953381	0.264578803795341	0.48294425540217	-0.318055738241819	0.815846427672203	17.9678664486973	-30.943413714059	114.392462140109
16420	1651210046913	5.15164662069872	2.56363293922987	8.19050231093907	0.0793039738505707	0.0423396908132236	0.196704335115362	0.0210391476587132	-0.0072828552603612	-0.0293265151299882	0.151123046875	-0.1806640625	0.717529296875	0	0	0	-0.303061333557215	0.0161400531703894	-0.822634399780944	-0.480797224496174	-0.353975714038596	0.781257820304503	0.514137541990392	-0.800823524454513	-0.537147055200865	0.264867370148325	0.483097170920217	-0.317976821957348	0.815786653572358	17.9874346283278	-30.9398245011684	114.374537622434
16421	1651210046915	5.19707834257398	2.64225554570036	8.18750023324185	0.00198025050917282	0.0373774298705444	0.23842678639383	0.0225141979136922	-0.0072618883001804	-0.0324040534775241	0.1435546875	-0.187255859375	0.7314453125	0	0	0	-0.303171672549221	0.0160564402089176	-0.822533786526048	-0.480902586512743	-0.353639278498123	0.781381535202346	0.514181054832003	-0.800852966535643	-0.536949786026342	0.265178153846289	0.483294720325381	-0.31800601209897	0.815658255383051	18.0098299854489	-30.9427312489307	114.350655173417
16422	1651210046914	5.20231585007972	2.5240222479246	8.18707857866847	0.0976065812520814	0.106908490422273	0.209392075648505	0.0272211346361087	-0.0132672932272381	-0.0324617093444308	0.1484375	-0.176513671875	0.71875	0	0	0	-0.303267015218744	0.0159305018561261	-0.822449357973483	-0.480991049979032	-0.353353454640764	0.781519168994805	0.514168381551323	-0.800843951990181	-0.53678765790136	0.265533378100609	0.483518666293439	-0.317941502195674	0.815550673181852	18.0346191739389	-30.9418846384609	114.329469038701
16423	1651210046914	5.17048628023811	2.69754156689789	8.18561629437428	-0.0289069372068345	-0.0077995433102781	0.237888506640392	0.0224373669251492	-0.00728096225501913	-0.0369829732256769	0.150146484375	-0.18017578125	0.72412109375	0	0	0	-0.303257541995732	0.0157796930576607	-0.82240200049338	-0.48108295967972	-0.353188098257015	0.781716555027529	0.513981901282025	-0.800857798747982	-0.536620374385614	0.265829569421424	0.483616535525957	-0.317738573972591	0.815571729019426	18.0529955225223	-30.9294281035696	114.313973478663
16424	1651210046916	5.19789950496482	2.62981799608683	8.1839574801781	0.0183853008166496	0.0527599046908347	0.232616915444847	0.0378236155314117	-0.0130533251349495	-0.037218977139684	0.149169921875	-0.1748046875	0.711669921875	0	0	0	-0.303377282583241	0.0156021340681068	-0.822307517180358	-0.481174755170723	-0.352866158797607	0.781880570436444	0.513953546100621	-0.80081390258077	-0.536454856797832	0.26629547508618	0.483924133939173	-0.31761448359922	0.815437595649858	18.0853589264856	-30.9275341723681	114.289867041596
16425	1651210046917	5.19582000173882	2.65835152434653	8.15810196618629	-0.0119695072045157	0.0462380804413211	0.218051572485201	0.0224283001639645	-0.00575192879372278	-0.0354628614343569	0.14892578125	-0.17529296875	0.7236328125	0	0	0	-0.303464644628301	0.0154598366495994	-0.822210387244793	-0.481290226389602	-0.352537854884929	0.782060619164093	0.513904902511941	-0.800826674503622	-0.536241422865227	0.266686658471974	0.484142229387814	-0.317531611585607	0.815340405822774	18.112210455261	-30.9242852023883	114.264933942622
16426	1651210046919	5.2434914064714	2.71340024406685	8.2040365318766	-0.0479945222610511	0.0417582206381025	0.294681730420596	0.0254878073241742	-0.00261342962962903	-0.0309475837496412	0.150146484375	-0.172119140625	0.715576171875	0	0	0	-0.303511550436858	0.0153171213338661	-0.822145713141944	-0.481375685829461	-0.352316375687263	0.782224066542366	0.5138080197355	-0.800819759519451	-0.53608566977252	0.267020350212784	0.484314860587409	-0.317391972782037	0.815292249090917	18.1343918536381	-30.917814601684	114.246963093978
16427	1651210046919	5.16265352941769	2.83474401427938	8.1561573380665	-0.136032588006383	-0.0684406831136066	0.246561022986173	0.0164210420148133	0.00027604971194191	-0.0216482120331869	0.14990234375	-0.1826171875	0.719482421875	0	0	0	-0.303582270268022	0.0151436520935863	-0.822079937793811	-0.481448907836653	-0.352089508643616	0.782384287845068	0.51371957723671	-0.800773664975948	-0.535955237888325	0.267420119776088	0.484555998192248	-0.317217290060355	0.815216949960364	18.1613281454897	-30.9119080918054	114.228754978262
16428	1651210046921	5.21746848732303	2.69228957985848	8.15536636382361	-0.0408657816244939	0.0524831847629587	0.235992976453915	0.0028209647446373	4.99560663387563E-06	-0.0137858941130071	0.144287109375	-0.185546875	0.712890625	0	0	0	-0.303563003782797	0.0151130289731492	-0.822058701078674	-0.481498277328659	-0.352017823327799	0.782464183922142	0.513647012002032	-0.800815209807524	-0.535862010569581	0.267482532830197	0.484539422338874	-0.317177720698323	0.815242198179245	18.1647628201344	-30.90706219531	114.222200121281
16429	1651210046922	5.16815363402498	2.69105921624531	8.15706118657521	-0.0240084905474715	0.0143137844191512	0.211706758156282	0.00581080271057196	0.00619705728055074	-0.00928291473336706	0.145263671875	-0.1796875	0.72314453125	0	0	0	-0.303450976893079	0.0151533858817992	-0.82209422388485	-0.481506974585124	-0.352137076097033	0.782491585635259	0.513523512653363	-0.800884824631538	-0.535842816644396	0.267312501625923	0.484337668690699	-0.317142545648824	0.815375759037906	18.1511949844861	-30.8988154896768	114.228711208436
16430	1651210046923	5.17041399582093	2.64370555724274	8.18192671807079	0.0252587622940703	0.035040313240888	0.220478575759959	0.0088193898909636	0.00471847890809257	-0.0139066410667543	0.144775390625	-0.18115234375	0.724365234375	0	0	0	-0.303426141010112	0.015087281094825	-0.822080482364911	-0.481548161055104	-0.352087891072319	0.782586938082356	0.513411921660502	-0.800898440006106	-0.535767485067227	0.267422681798915	0.484350911794364	-0.31703451907895	0.815409901801754	18.1574751774298	-30.8913645789023	114.223103877656
16431	1651210046924	5.16951773296669	2.66935866518449	8.20618158534791	0.0154926706981042	0.0152238918500021	0.246653254936675	0.00285444250006704	0.00308422568569716	-0.00769362229853553	0.142333984375	-0.181884765625	0.71875	0	0	0	-0.303313889577501	0.0150327226224807	-0.822122391828169	-0.481549036438298	-0.352222419789428	0.782665224099279	0.51320026693612	-0.800903758377536	-0.535769085511804	0.267403546772629	0.484244294560521	-0.316838498284962	0.815549403279846	18.1533592524503	-30.8772340226919	114.229149697348
16432	1651210046925	5.16943049882307	2.64552483128784	8.1819601152514	0.0228159513564957	0.036533962142889	0.220479100549362	0.00749027710087361	0.00166870543542938	-0.00623868634704744	0.15283203125	-0.178466796875	0.724609375	0	0	0	-0.303297151360594	0.0149907523290533	-0.822122716996119	-0.481560332170412	-0.352220968912943	0.782710072406677	0.513132859609635	-0.800896682319293	-0.535749847649062	0.26746327784194	0.484257052925382	-0.316760229980249	0.815572230642316	18.1566733260058	-30.8727341920611	114.227832754006
16433	1651210046927	5.1703342309512	2.62195254924245	8.18201983026197	0.0408355697481965	0.0507593656639407	0.214684957544636	-0.000159308224863573	-0.00311640945681518	-0.0137222384109585	0.14697265625	-0.1826171875	0.718994140625	0	0	0	-0.303252477072094	0.0149851396157857	-0.822115780623074	-0.481600481717832	-0.352197822317583	0.782774150536292	0.513050994743154	-0.800951273367325	-0.535672843199696	0.267454038574138	0.484183592912868	-0.316732117586047	0.815626761480669	18.1549530382323	-30.8672695207398	114.224668559464
16434	1651210046928	5.12041909263002	2.64520699318398	8.18315948346784	0.0407615560161547	-0.000387447620752143	0.196221120312881	0.00902712834004187	-0.00443519312827987	-0.0138704924320517	0.1484375	-0.17822265625	0.717041015625	0	0	0	-0.303264841267399	0.0149399259898615	-0.822088710594703	-0.481640308295741	-0.352106098951686	0.782840611466837	0.513012545771791	-0.800963628602286	-0.535598824072402	0.267565254299807	0.484229863533101	-0.316693032273349	0.815614469324954	18.1622626291846	-30.8647030694844	114.217265033246
16435	1651210046929	5.16917549799834	2.64849375494658	8.18116068216768	0.0196665821431924	0.0370027633050923	0.220484050086313	-0.000124571319182449	-0.00464275824630599	-0.013716005681968	0.150146484375	-0.18310546875	0.7216796875	0	0	0	-0.303231498406379	0.014964636606207	-0.822074782187597	-0.481684305865036	-0.352061775715081	0.782885543291953	0.512974397202052	-0.801036540016781	-0.535512578269125	0.267519606895455	0.484141474817318	-0.316727808409711	0.815653436050933	18.1585568809953	-30.8621567378006	114.213336740763
16436	1651210046930	5.21683592648912	2.67601656728459	8.17899884864898	-0.0198870264868718	0.0608538800094482	0.250531065128014	0.00600203953422073	-0.00449669244274395	-0.0122931352589716	0.150146484375	-0.171630859375	0.724609375	0	0	0	-0.303236486789956	0.0149345661079913	-0.822051266550687	-0.48172223010451	-0.351982652204844	0.782943328049429	0.512940501042497	-0.801058149482707	-0.535441303516606	0.267597555362111	0.484163251077758	-0.316705471299948	0.815649183628901	18.1635889236097	-30.8598943017204	114.206938391674
16437	1651210046930	5.16708519133599	2.6746316596075	8.15601654735625	-0.0111719820943987	0.0308706870649205	0.205892971482866	0.00279541203501246	-3.94634187393745E-06	-0.0153121360274604	0.144287109375	-0.181884765625	0.725830078125	0	0	0	-0.303250441213324	0.0148767783006142	-0.822014478752841	-0.481778007065509	-0.351858243623821	0.783034215538086	0.51288711593353	-0.801079773872062	-0.535337266750762	0.267740932098381	0.484217897528629	-0.316656640739585	0.815635702742637	18.1729619341228	-30.8563311627284	114.19687782522
16438	1651210046931	5.21661361838658	2.67801387322802	8.17848689750241	-0.0201431045159853	0.0613830490466411	0.250527341923078	0.00304761778744614	-0.00761022493812947	-0.0107030222627012	0.14501953125	-0.181640625	0.71826171875	0	0	0	-0.303261250640207	0.0148684370914176	-0.821989782185383	-0.481813596135914	-0.351776544877431	0.783073664228616	0.512882929005894	-0.80110974753825	-0.535269176314073	0.267787380746843	0.484227668430148	-0.316674194211689	0.815623086877193	18.1761700171586	-30.8560517157719	114.190824945644
16439	1651210046932	5.19460352255349	2.62900010563268	8.17935618180762	0.0257748504180426	0.0712078704401705	0.226818595866254	0.00289083771237734	-0.00304801514179772	-0.0137738007858781	0.14501953125	-0.18603515625	0.712890625	0	0	0	-0.303162843996176	0.0148527068705908	-0.822012724240553	-0.481836868976827	-0.351851043429517	0.7831464969025	0.512720594112333	-0.80115765232622	-0.535225257586449	0.267731843008374	0.484094267014909	-0.316568299156537	0.815743374237534	18.1701445778378	-30.8452176704285	114.193368310999
16440	1651210046933	5.192146675135	2.67852026151586	8.17884091782295	-0.0132830109677055	0.0436932359714768	0.238392733216063	-0.000179152127217431	-5.20003881181472E-05	-0.0106823749397793	0.146484375	-0.18017578125	0.724853515625	0	0	0	-0.303134080499456	0.0148394420927046	-0.821999624317333	-0.481877720817523	-0.351807182838917	0.783209929689999	0.512653793644338	-0.801203292225587	-0.535147306276173	0.267751087975823	0.484050607508994	-0.316543151276951	0.815779040396253	18.1706225911229	-30.8407598388084	114.188963728047
16441	1651210046934	5.16961302183099	2.62943856102785	8.18007297488953	0.0324390867991835	0.0526512936534844	0.214705880446091	0.00273361729762708	0.00151427832756197	-0.0168446727170723	0.1474609375	-0.180908203125	0.719970703125	0	0	0	-0.303028901763966	0.0148551876886772	-0.8220157566342	-0.481915868113473	-0.351861161512325	0.783281771501053	0.512506965273029	-0.801287976344243	-0.535072838918344	0.267646475818406	0.483871162589119	-0.31649126920981	0.815905616188918	18.1613566160613	-30.8309621897373	114.190285040315
16442	1651210046935	5.16681298062438	2.67910342756781	8.17971698978986	-0.00663497460816117	0.0251340069706543	0.226269047232723	-0.000265749108624982	0.00145857121466928	-0.0137407884320714	0.151123046875	-0.1796875	0.722412109375	0	0	0	-0.302993304635605	0.0148343805260538	-0.821997797172644	-0.48196952179959	-0.35180087480454	0.783366334491608	0.512419096513725	-0.801345206402853	-0.534970642421366	0.267679420057726	0.483820219360383	-0.316454732517074	0.815949997000808	18.1625222204148	-30.8250993102601	114.18430388399
16443	1651210046936	5.19218245904113	2.63193838919667	8.15495338139724	0.00983657528780391	0.0785916466715757	0.206436829260582	0.00128508678291565	0.00150141531786098	-0.0122406357616069	0.14794921875	-0.17626953125	0.715576171875	0	0	0	-0.302964758304146	0.0148338317859111	-0.821986684305608	-0.482006435106972	-0.351764303482359	0.783417486291606	0.512365999035956	-0.801393999338578	-0.534899507900032	0.267675501815957	0.483765989523542	-0.31644835063695	0.815984625320517	18.1615536570066	-30.8215566533683	114.180679923373
16444	1651210046937	5.16552539282585	2.70507638690019	8.20408091739951	-0.015944225055874	0.00402855838011898	0.252438769698422	-0.000250343557240936	0.0029990415647045	-0.0106949809865645	0.14794921875	-0.17822265625	0.72265625	0	0	0	-0.302922633487457	0.0148139721206884	-0.821978384556608	-0.482047673651415	-0.351735836896567	0.783490561240104	0.512273795435936	-0.801440511028939	-0.534821173114533	0.267692771792717	0.483709632242677	-0.316399831283237	0.816036848702063	18.161562444533	-30.8154051515112	114.17695048972
16445	1651210046937	5.14165984489964	2.67997864082893	8.20536842725419	0.0130259977824391	-0.000435415096389571	0.234543727904422	-0.00182168640173364	0.00602224838072558	-0.00915561151178028	0.14697265625	-0.185546875	0.72216796875	0	0	0	-0.302878366872757	0.0147765893532099	-0.821972902199288	-0.482085983344942	-0.351715599085665	0.783572211176779	0.512162793681214	-0.801474248181777	-0.534749514138855	0.267734918584996	0.483668447245908	-0.316318742726056	0.816092694575157	18.163072746412	-30.8080000250526	114.173488088993
16446	1651210046939	5.19021348669699	2.65755417588626	8.17987466003017	0.000573531173491799	0.0583830474754064	0.232602616099708	-0.00774902417509309	0.0028581628618162	-0.0029356147651992	0.1455078125	-0.185791015625	0.71484375	0	0	0	-0.30281824228618	0.0147993728221366	-0.821982543084606	-0.482106616389926	-0.35174864514353	0.783603405026338	0.512092368885556	-0.801529485286087	-0.534708377994256	0.267651704122676	0.483552866661662	-0.316311008556264	0.81616418140556	18.156311949606	-30.8033021563218	114.174647060332
16447	1651210046939	5.21765389891037	2.58548697438935	8.17990302054423	0.0451933385270418	0.118062007926228	0.22740663281712	-0.000199117300513954	0.00301431655581014	-0.0076427413302136	0.13818359375	-0.17822265625	0.722412109375	0	0	0	-0.302691317924716	0.014880838577119	-0.822027643115294	-0.482106918277009	-0.351901770804887	0.783601826240189	0.511989571785819	-0.801619028803121	-0.534702959985374	0.267394235621526	0.483292950874649	-0.31632407827404	0.81631305339248	18.136899283935	-30.7964452212711	114.18400812774
