// Start Time : 05/07/2022 11:19:41																																
// Update Rate : 100Hz																																
// Filter Profile : 46.1 human																																
// Firmware Version : 4.4.0																																
PacketCounter	Time_Of_Arrival	Acc_X	Acc_Y	Acc_Z	FreeAcc_X	FreeAcc_Y	FreeAcc_Z	Gyr_X	Gyr_Y	Gyr_Z	Mag_X	Mag_Y	Mag_Z	VelInc_X	VelInc_Y	VelInc_Z	OriInc_q0	OriInc_q1	OriInc_q2	OriInc_q3	Mat[1][1]	Mat[2][1]	Mat[3][1]	Mat[1][2]	Mat[2][2]	Mat[3][2]	Mat[1][3]	Mat[2][3]	Mat[3][3]	Euler_X	Euler_Y	Euler_Z
61219	1657020020208	7.73117529663456	-2.04359934924367	5.6688547266612	-2.77555756156289E-15	2.42861286636753E-15	-0.0104792726752585	0.0206081042138078	-0.000385546801953792	-0.00684865148837288	0.58544921875	-0.500244140625	0.093505859375	0	0	0	0.118212815637728	-0.443704388941284	0.440552423855301	0.771405021560309	0.218079954138922	0.574785613789958	0.788709472355232	-0.784591794300224	0.583878584108439	-0.208570168855184	-0.580393702515389	-0.573330007238088	0.578304290906485	-19.8322533095749	-52.0650727138724	69.2227064022398
61220	1657020020209	7.71390060917568	-2.02354991641869	5.64580440280317	-0.00346067111827494	-0.0132237595037961	-0.0416108034650016	0.0251513268850209	0.000909598054259415	-0.00379320038944816	0.5869140625	-0.505859375	0.0927734375	0	0	0	0.122024712498627	-0.443493457240158	0.444340548857739	0.768755487502757	0.211750060051949	0.574944147279242	0.790317113301577	-0.791412793738252	0.57534289236086	-0.206509917721284	-0.573435002398186	-0.581738587098348	0.576847045849597	-19.6972507620085	-52.2151561038288	69.7814117422366
61221	1657020020210	7.75340358572331	-2.05548828057108	5.61628995302872	0.0486611457222355	0.00745238893678137	-0.0208239859733617	0.0211887149048092	-0.00247605835212011	-0.00662923357595641	0.587890625	-0.5009765625	0.106689453125	0	0	0	0.122126357615731	-0.443451852213307	0.444360539368053	0.768751792581086	0.211788331642239	0.574891603405457	0.790345080907129	-0.7915202413605	0.575257727656094	-0.20633529578955	-0.573272544342401	-0.581874721143518	0.576871215088203	-19.6811139443622	-52.2177715406251	69.7763549017816
61222	1657020020211	7.72639066902411	-2.0412553952789	5.64636954603338	0.0160109290596514	-0.0184264975627028	-0.0277637953653826	0.0245958706043913	-0.00270726240393079	-0.00685592646115087	0.59423828125	-0.49560546875	0.0986328125	0	0	0	0.122243001036593	-0.443400933655212	0.444387525667311	0.768747024555242	0.211830678129941	0.574837854627543	0.790372826386518	-0.791648497797305	0.575152751457704	-0.206135800932063	-0.573079767343325	-0.582031574210399	0.576904521462507	-19.6624970920796	-52.22036635712	69.7709009039641
61223	1657020020214	7.73199639619445	-2.03640604004312	5.67032326533462	0.00128408560161053	-0.0274677149775694	-0.0105178418283867	0.0230736548665681	-0.00203979333822676	-0.0086017086321718	0.594970703125	-0.501708984375	0.095703125	0	0	0	0.122355291444651	-0.443352244976202	0.444404367235348	0.768747505955112	0.211887090513423	0.574776511602061	0.790402316914824	-0.791762484188875	0.575067882075288	-0.205934697505067	-0.572901413425396	-0.582175998059013	0.576935939060112	-19.6437957595971	-52.2231245405403	69.7639662028071
61224	1657020020215	7.73545477076744	-2.00454315751217	5.64098663120154	-0.0048553831480308	0.00887172854249652	-0.0312722588418488	0.0211897612057392	-0.00247661231676053	-0.00662442515962529	0.5888671875	-0.505615234375	0.089111328125	0	0	0	0.122456379283808	-0.443310584704073	0.444424637311613	0.768743716990568	0.211924934479548	0.574724877016132	0.790429717232742	-0.791869713420327	0.574982353846283	-0.205761147287331	-0.572739189433943	-0.582311436006697	0.576960321324066	-19.6277406332962	-52.2256873847824	69.7589743812199
61225	1657020020217	7.74108272341369	-2.00014519542492	5.66473297213311	-0.0195822358138817	-0.000169469927209683	-0.014026303171411	0.0164791021641665	-0.00477192614750239	-0.00420255105528879	0.591064453125	-0.49853515625	0.097412109375	0	0	0	0.122539638831406	-0.443289733174249	0.444442087179043	0.768732385503114	0.21193088721248	0.574672924188572	0.79046589379295	-0.791955179391942	0.57491053611801	-0.205632850718895	-0.572618802415366	-0.582433606229121	0.576956498754744	-19.6165568081499	-52.2290713271965	69.7567705734621
61226	1657020020218	7.74814926454238	-2.02300301801476	5.64101291870903	0.0145684165090757	0.0036611277996465	-0.0174252831315798	0.0172280721644435	-0.0034559803651227	-0.00442255717467614	0.588623046875	-0.501708984375	0.1025390625	0	0	0	0.12262318712962	-0.443261665835216	0.444461276597576	0.768724152856157	0.211946538412484	0.574627920265477	0.79049441370976	-0.792044553053873	0.574835455166854	-0.205498480434298	-0.572489380541382	-0.582552103021255	0.576965299158326	-19.604439802562	-52.2317392517743	69.7539401511677
61227	1657020020219	7.72775609751564	-2.03366790819826	5.64723876584805	0.0160107677078266	-0.0184088050338424	-0.0277637617996458	0.0122990502356048	-0.000149500596999636	-0.000906460447544468	0.5869140625	-0.49951171875	0.0986328125	0	0	0	0.12267280101423	-0.443234351598982	0.44448495848095	0.768718293744946	0.211952862493637	0.574621838924792	0.790497138711737	-0.792113036590284	0.574769011151023	-0.205420352166464	-0.57239227924953	-0.582623657304752	0.576989386907907	-19.5967985672528	-52.231994173243	69.753188218967
61228	1657020020220	7.74827177241544	-2.02106019379287	5.64154102887435	0.0145554961307017	0.00367642970170445	-0.0174252696549892	0.0187266291084318	0.00158499855954362	0.000172881864434409	0.594970703125	-0.50390625	0.09814453125	0	0	0	0.122739978454499	-0.443186904883798	0.444528521322396	0.768709736350095	0.211959522140888	0.574633302538166	0.790487019873121	-0.79222030716518	0.574658582839827	-0.205315606040139	-0.572241335355036	-0.582721271949637	0.577040530057017	-19.5859627706192	-52.2310475724227	69.7529748376104
61229	1657020020221	7.73617614771802	-1.99895622584645	5.64197982676329	-0.00486319139679711	0.00889382807719987	-0.0312722827901002	0.0138221832954197	-0.000816365079261495	0.000843106424951315	0.58349609375	-0.500244140625	0.10107421875	0	0	0	0.122793050611792	-0.443159837190547	0.444561888824714	0.768697568896442	0.211948171411701	0.574633389692632	0.790489999990887	-0.792301182961641	0.574573187452105	-0.205242509580041	-0.57213355793278	-0.582805387510689	0.577062450845396	-19.5788329781579	-52.2313263554739	69.753973884988
61230	1657020020222	7.76030631313178	-2.0405575413293	5.64212273891719	0.0339543098074933	-0.00153534839680601	-0.00357818682454614	0.0179782443456885	0.000268710348257024	0.000395658250218796	0.58740234375	-0.50048828125	0.096435546875	0	0	0	0.122860004578606	-0.44311973470067	0.444603660136266	0.768685830093926	0.211944972224486	0.574637681840898	0.790487737638783	-0.792404452377677	0.574466009336761	-0.20514382264336	-0.571991706758756	-0.582906801062757	0.577100639987506	-19.5689376811474	-52.2311147175626	69.7543936170395
61231	1657020020223	7.739781160128	-2.05134623546288	5.64849401110868	0.0353966955640042	-0.0236053030742937	-0.0139166135448825	0.0136287461567838	-0.000923535785090741	-0.000906791992214349	0.59130859375	-0.510009765625	0.10205078125	0	0	0	0.122916447529355	-0.443092429212423	0.444629802409226	0.768677425784659	0.211946875968334	0.574627089234245	0.790494927298996	-0.792480478538018	0.574391771472592	-0.205058001552567	-0.57188566418771	-0.582990395446407	0.577121292202795	-19.5607258380758	-52.2317872974705	69.7538836213773
61232	1657020020223	7.72777859178695	-2.0289118949748	5.64891846954861	0.0158970431830845	-0.018360082356351	-0.0277634848337964	0.02307642560055	0.000365854095873942	-0.00355562084346127	0.59033203125	-0.5009765625	0.09765625	0	0	0	0.123009268422765	-0.443040081556409	0.444668622007087	0.768670295132383	0.211970605473618	0.574611049200163	0.790500224258182	-0.792603194457028	0.574277072968829	-0.204904903794101	-0.571706776723578	-0.583119186444283	0.577168412033173	-19.5457542834195	-52.2322828250878	69.7512816147618
61233	1657020020224	7.7451449020891	-2.04572182778683	5.67304411087596	0.0205885427480169	-0.0326185331082329	0.00332958970985331	0.0190889810952147	0.0026859167872347	-0.0035469241010212	0.590576171875	-0.508544921875	0.09765625	0	0	0	0.123084518887167	-0.442985133657296	0.44469892570194	0.768672386682703	0.212014073676337	0.574606345048337	0.790491986545946	-0.79270479324984	0.57418613337971	-0.204766684285277	-0.571549773267292	-0.583213367872042	0.577228745137885	-19.5316809098771	-52.2315121940287	69.7473142371661
61234	1657020020225	7.70713555510921	-2.03776815773573	5.65614887551784	0.0172234548791847	-0.0403509418366875	-0.0381013046908176	0.0175662527423507	0.00335162541849107	-0.00529479985465164	0.590576171875	-0.505615234375	0.09619140625	0	0	0	0.123150554115013	-0.442932697191912	0.444722065696488	0.768678639655163	0.212065820081893	0.574601890778739	0.790481343907933	-0.792791519158103	0.574112450607628	-0.204637487299593	-0.571410268637151	-0.583290288939223	0.577289133558927	-19.5184018216318	-52.2305166039892	69.7426285911578
61235	1657020020226	7.76038067006447	-2.03397154457775	5.64439810516454	0.0337566447827781	-0.00142804507091482	-0.00357748838859173	0.0232707001453486	-0.00193903060730831	-0.00683375273992392	0.5859375	-0.50927734375	0.10009765625	0	0	0	0.123259437684706	-0.442884193610474	0.444746140402838	0.768675206227201	0.212108923293558	0.574551349058063	0.790506516073591	-0.792909975713549	0.574015963236858	-0.204449124143883	-0.571229879359603	-0.583435018870843	0.577321404143301	-19.5007841977125	-52.2328714281447	69.7372085527254
61236	1657020020226	7.72467288613864	-2.05273863168958	5.68071317142685	0.0217431210000124	-0.0544841050075369	-0.00700698177419312	0.0211676868903708	0.0032284525292356	-0.00376734797149864	0.587646484375	-0.5	0.099609375	0	0	0	0.123333165094589	-0.442826274745884	0.444784423468984	0.768674597877279	0.212143414068093	0.574558643601285	0.790491958801976	-0.793019307807109	0.573911494054229	-0.204318316451502	-0.571065275877169	-0.583530600787562	0.577387641564867	-19.4871808166501	-52.2315095986262	69.7344180069573
61237	1657020020227	7.73464160950899	-2.04534620393138	5.62786197626639	0.0497554377654233	-0.0143324153492995	-0.0311603312921544	0.0219421377178775	-0.00116639392009357	-0.00682826340721893	0.58740234375	-0.510498046875	0.103515625	0	0	0	0.123435208275445	-0.442777746511624	0.444806040908476	0.768673664517923	0.21219090633083	0.574512652208865	0.790512638559584	-0.793130105650444	0.573822670658649	-0.204137645105186	-0.570893733352729	-0.583663220607664	0.57742323310417	-19.4701360343023	-52.233444197827	69.7287597230406
61238	1657020020228	7.7348338594161	-2.04351607449772	5.62826257486336	0.0495016815350342	-0.0141256647269102	-0.0311587430516074	0.0240205888006422	-0.000624011144900539	-0.007050065993066	0.592529296875	-0.49609375	0.09765625	0	0	0	0.123530626999771	-0.442727636104289	0.444838011789393	0.76866869826331	0.212222766993536	0.574485265964205	0.790523988478303	-0.793246955876561	0.573718654920607	-0.203975910314571	-0.570719514439602	-0.583792415320828	0.577464848845103	-19.4545725419275	-52.2345060228833	69.7250759449486
61239	1657020020229	7.72841492547229	-2.0174734842029	5.6521437398863	0.0153559305890704	-0.0179492489899004	-0.0277618584307611	0.0208328482204931	-0.00599628249170722	-0.00791160229459997	0.589111328125	-0.51025390625	0.09423828125	0	0	0	0.123641544319808	-0.442699454480943	0.444850015435649	0.76866014940765	0.212251313538357	0.574404870214403	0.790574743446322	-0.793349047100644	0.573642464570231	-0.203793062458689	-0.570566971849705	-0.583946374178114	0.577459923040978	-19.4385947159967	-52.2392546405329	69.7199638551022
61240	1657020020229	7.72045250270631	-2.04847331114564	5.65819947344703	0.0358829989260585	-0.044999293645555	-0.024248357836262	0.0227176516495698	-0.00556256424796387	-0.00988433115272855	0.593505859375	-0.501953125	0.09912109375	0	0	0	0.123746176551246	-0.442671923138381	0.444866271329965	0.768649759569916	0.212271138195883	0.574334789087161	0.790620334884723	-0.793450620907008	0.573561768843844	-0.203624678030449	-0.570418334269953	-0.584094553445696	0.57745690450783	-19.4238305006544	-52.243520593325	69.7159508119572
61241	1657020020230	7.74474190444959	-2.00492662987888	5.62226475237404	0.0283074254812856	0.0133982741615367	-0.0346692719542609	0.0191429207563648	-0.00873729106234562	-0.00921477207552712	0.591796875	-0.508056640625	0.101806640625	0	0	0	0.123859578830676	-0.442657225501381	0.444867809588818	0.768639068376669	0.212294425406133	0.574230882392324	0.790689553901158	-0.79354023246015	0.57350287344707	-0.203441278051051	-0.570284995777173	-0.5842545231788	0.577426770886614	-19.4085813233259	-52.2499981429762	69.7105353935676
61242	1657020020231	7.73015424072093	-2.0119395534426	5.6517377843225	0.0146125545598204	-0.0174288691729321	-0.0277597793189717	0.0180073460334627	-0.00785523347293499	-0.00746139605869125	0.5869140625	-0.507080078125	0.095947265625	0	0	0	0.12394237141341	-0.442652357588877	0.444883212702904	0.768619610694765	0.212275634752304	0.574165157682081	0.790742326294994	-0.793618689327289	0.573434431247126	-0.203328131380587	-0.570182804757337	-0.58438628043803	0.57739435777886	-19.399601001538	-52.2549372450607	69.7100518521341
61243	1657020020232	7.73071212936786	-2.01029075045447	5.65156141480805	0.0146127199998299	-0.0174289011470543	-0.0277597796229898	0.0172324870500172	-0.00587570915443809	-0.00943258685100408	0.589599609375	-0.502685546875	0.103515625	0	0	0	0.124042548033532	-0.442630752899718	0.444881455803078	0.768616909225468	0.212317013739925	0.574076726206814	0.790795421145209	-0.793696911917541	0.573387873119766	-0.203154027702509	-0.570058503742485	-0.584518827230448	0.577382925729556	-19.3845842065866	-52.2599070817539	69.7035482428663
61244	1657020020232	7.73791890469693	-2.03292880165666	5.62785605475563	0.0483260388021767	-0.0132831676371465	-0.0311516837122383	0.0198924020011273	-0.00500458741793713	-0.00440234152146101	0.5849609375	-0.502197265625	0.098876953125	0	0	0	0.124117362498353	-0.442612670326411	0.444915529436161	0.768595521753489	0.21228839146613	0.574048332467897	0.790823716664814	-0.793792001464965	0.573290103985986	-0.203058403130678	-0.569936748472116	-0.584642599083033	0.577377808785953	-19.3762988724002	-52.2625558544778	69.705139301352
61245	1657020020233	7.73836652141436	-2.03137377790507	5.62780210009815	0.0483259985310824	-0.0132828203756067	-0.0311516830417062	0.0187566009564131	-0.00653994622067516	-0.00767987378359792	0.588134765625	-0.504150390625	0.103271484375	0	0	0	0.124220978713012	-0.442591301304552	0.44492348203989	0.768586484129551	0.212312070278086	0.573966100299599	0.790877045134769	-0.793882598771267	0.573224487154162	-0.202889395225643	-0.569801723569183	-0.584787656362306	0.57736417691425	-19.3617952748471	-52.2675484176171	69.700389626233
61246	1657020020233	7.73036156753101	-2.06268453839841	5.63387189094284	0.0686439814139041	-0.0402203772044485	-0.0276303838375789	0.0168454322313926	-0.00367825517190382	-0.00790039558710775	0.58837890625	-0.494140625	0.09912109375	0	0	0	0.124285256968158	-0.442576410749362	0.444939370904723	0.768575469142413	0.212310153734242	0.573927525589995	0.790905553142402	-0.793950417342115	0.573164262238537	-0.202794140188608	-0.569707936949824	-0.584884538915759	0.577358591097141	-19.3535543449204	-52.2702175421304	69.6993049052042
61247	1657020020234	7.73918398970235	-2.02793349957865	5.6279187410063	0.0477839090084498	-0.0129327820006486	-0.0311485507814471	0.0257397349411634	-0.00359528762852315	-0.00857006239500512	0.5849609375	-0.501708984375	0.1005859375	0	0	0	0.124411117423388	-0.442527606469683	0.444961199542311	0.768570570784197	0.212357696828164	0.573857458194928	0.790943630274557	-0.79407887424129	0.573062809526664	-0.202577782150689	-0.569511150094117	-0.585052676270661	0.577382382747356	-19.333701645793	-52.273782847534	69.6928533149769
61248	1657020020235	7.71053101586258	-2.07064223287824	5.64040305554898	0.0694410644820943	-0.0619226942690472	-0.0379578159046066	0.0211961760175139	-0.00248259811586855	-0.00659362551625591	0.589111328125	-0.507568359375	0.094970703125	0	0	0	0.124482941676703	-0.442503098476767	0.444992717218866	0.7685548039614	0.212344978921263	0.573834406293905	0.790963769132474	-0.79417075589168	0.57297095770737	-0.202477386664133	-0.569387759276019	-0.585165238011642	0.577390010139951	-19.324594163551	-52.2756686406598	69.6932210649531
61249	1657020020236	7.73978546183208	-2.02402159588835	5.62849981097995	0.0471365233574879	-0.0125637870187695	-0.0311449287430285	0.0285668394987646	-0.00173688957157822	-0.00901239651853898	0.59375	-0.508056640625	0.09716796875	0	0	0	0.124616536354118	-0.442440560895024	0.445020205392832	0.768553241964485	0.212406733734036	0.573772622706102	0.790992008112218	-0.794314263671347	0.572855471318449	-0.202241092532561	-0.569164501697606	-0.585338864601932	0.577434137883998	-19.3023451264613	-52.2783130605027	69.6857893799175
61250	1657020020236	7.73868248595574	-1.9945404815577	5.67608011327727	-0.00273904492605753	-0.024928216358109	-0.0105113531698411	0.0206149940200037	-0.00281504205196654	-0.0118416500693894	0.599365234375	-0.504638671875	0.097900390625	0	0	0	0.124686582402904	-0.442425917150063	0.445036950542399	0.768540614837324	0.212402840971697	0.573728792038542	0.791024845585237	-0.794387094342189	0.572790737641213	-0.202138356614991	-0.56906429996067	-0.585445167422561	0.577425128005219	-19.2935433148532	-52.2813883015265	69.6847061848626
61251	1657020020237	7.73208886812827	-2.05271520647351	5.63514259777657	0.0669996005149945	-0.0393552642449163	-0.0276154686760144	0.0236636097290706	-0.00413899207151677	-0.0083384265913651	0.581787109375	-0.5	0.089599609375	0	0	0	0.124805131522141	-0.442384042280648	0.445054669523573	0.768535216770473	0.212445400541394	0.573656776673756	0.791065644788777	-0.794503970994287	0.572700040562008	-0.20193588986256	-0.568885218531046	-0.585604445096305	0.57744007656235	-19.2751823489091	-52.2852094587773	69.6786261431144
61252	1657020020238	7.71908673245689	-2.00209207478243	5.68240649452761	-0.00225785980525646	-0.0465344159617087	-0.0208415082434961	0.0215860772014924	-0.0071043546690585	-0.0131406834501355	0.593994140625	-0.500732421875	0.09814453125	0	0	0	0.124892524690887	-0.442382525672444	0.445063689462871	0.768516669030479	0.212432026602734	0.573577187244117	0.791126945784672	-0.794578269285569	0.572640339196066	-0.201812823934867	-0.568786434483635	-0.585740772183858	0.577399116512012	-19.2655670863432	-52.2909513852233	69.6772117885247
61253	1657020020239	7.75535687436737	-1.9796670951436	5.64648059356197	0.00957844248219552	0.00664520237099514	-0.0174207024822905	0.0200619935356201	-0.00402081025554686	-0.00986294808950895	0.58740234375	-0.509033203125	0.1015625	0	0	0	0.125000335536403	-0.442347401413678	0.445067547059505	0.768517124814267	0.212487310034003	0.573496916027888	0.791170291644609	-0.79467121042935	0.572579589340444	-0.201619148856154	-0.568635920769401	-0.585878742725174	0.577407385156706	-19.2481836240071	-52.2950119436988	69.6697433355876
61254	1657020020240	7.75273145040042	-2.00771504944546	5.67625864951274	0.0147843202792807	-0.029025174467791	0.00335133067897608	0.0172364469589226	-0.00588034033126099	-0.00941457813543678	0.5908203125	-0.502685546875	0.108154296875	0	0	0	0.12505451982387	-0.442346773616745	0.445087040598137	0.768497381410028	0.212453716324896	0.573461523657853	0.791204966682941	-0.794731377138975	0.572517786726427	-0.201557490738157	-0.568564382115631	-0.585973774810688	0.577381397884954	-19.2435324745246	-52.2982605039786	69.6715426013839
61255	1657020020241	7.72736835789221	-2.02077576230049	5.65871845068043	0.030966066812653	-0.042065958818082	-0.0242185224884057	0.0195089242659557	-0.00522538787395441	-0.00788619906573568	0.586669921875	-0.5048828125	0.1015625	0	0	0	0.125158498243866	-0.442318712774072	0.445096544852565	0.768491101059431	0.212486444180394	0.573385575991067	0.791251219452435	-0.794825359334918	0.572448832155297	-0.201382677313999	-0.568420758943312	-0.586115445803494	0.577379013294457	-19.2281415653492	-52.3025941047537	69.6661948767449
61256	1657020020242	7.76885886484412	-1.99577724148547	5.64636904517284	0.0272654863329853	0.00292277855413418	-0.00355762926727898	0.0176253096011853	-0.00565722085727703	-0.00591157273630298	0.590576171875	-0.502685546875	0.090087890625	0	0	0	0.125200909680613	-0.442309645902928	0.445133833324284	0.768467813110218	0.212436095142509	0.573386906817049	0.791263774332795	-0.794897186927276	0.572361205290351	-0.201348237870813	-0.568339130885519	-0.586199714917496	0.577373818712746	-19.225254874052	-52.3037704932175	69.670661969589
61257	1657020020242	7.72814244382391	-2.0177779229457	5.65873108110399	0.0301635370686205	-0.0412253648183232	-0.0242124402054049	0.0179845660071702	-0.00214097286239831	-0.00460971551309597	0.586669921875	-0.499755859375	0.0927734375	0	0	0	0.125284924710371	-0.442274959336848	0.445154615333121	0.768462046188052	0.212460457582422	0.573348083174291	0.791285365392432	-0.794989623101489	0.572282112175876	-0.201208059591236	-0.568200715526494	-0.586314897989029	0.577393095967812	-19.2122571733109	-52.3057936420232	69.6672573889485
61258	1657020020243	7.74213006733395	-1.98057433461843	5.67626909591423	-0.00641588012367071	-0.0225640061569815	-0.0105073428138667	0.0153533219717466	-0.0038884453671026	-0.00241125549769474	0.596923828125	-0.50439453125	0.09912109375	0	0	0	0.12531849977735	-0.442284054154407	0.445190411257636	0.768430599845264	0.212380626329996	0.573343121251981	0.79131039097987	-0.79504861782028	0.572201542675622	-0.201204100012155	-0.568148013163596	-0.586398379834626	0.577360178108591	-19.2129218766941	-52.3081387323503	69.674110684862
61259	1657020020243	7.74752287260551	-2.06107455434988	5.6352735730104	0.0827319569803288	-0.0422086206858776	-0.0137169564490449	0.0104201363377356	-0.00299955230834522	-0.00394017001347028	0.5830078125	-0.507568359375	0.1025390625	0	0	0	0.125373830869905	-0.442270259770572	0.445196325618101	0.76842608721439	0.212394497957225	0.573302707579352	0.791335948077479	-0.795099174568411	0.572163268378292	-0.201113144571164	-0.56807207274969	-0.586475233748924	0.57735683971095	-19.2049756830915	-52.3105337574919	69.6715760677728
61260	1657020020244	7.7409290042568	-2.03538548697054	5.65912187380749	0.0475159485736924	-0.045147305271037	-0.010333566137783	0.0262974362990222	3.29077165618856E-05	-0.00549957349095011	0.583740234375	-0.51025390625	0.099365234375	0	0	0	0.12542917942192	-0.442229570747293	0.445262231298105	0.768402285971119	0.212349104272196	0.573344048422249	0.791318178771082	-0.795218017122012	0.572018132657954	-0.201056114443316	-0.567922673573905	-0.586576387224455	0.577401055412418	-19.1985657096591	-52.3088685337241	69.6769109137482
61261	1657020020245	7.73574510176455	-2.03674314933055	5.63592006817195	0.0622512097628019	-0.0361167550156338	-0.0275716188060464	0.0185386826046585	-0.000938303699368314	-0.00658042663479336	0.585693359375	-0.50732421875	0.0966796875	0	0	0	0.125516891943747	-0.442188063977288	0.445277361763575	0.768403082381682	0.212395574353777	0.573300851697724	0.791337003708024	-0.795309137477932	0.571947161875305	-0.200897535741212	-0.567777681702123	-0.586687802383387	0.577430451825599	-19.1836250193962	-52.3106326862887	69.6714210539636
61262	1657020020246	7.76172059127822	-2.02021916602867	5.65382277268561	0.0447284975320403	-0.0220822411327202	-9.11652838553323E-07	0.0234427001467233	0.00146467865163351	-0.00724960477280837	0.593994140625	-0.50244140625	0.10400390625	0	0	0	0.125552049270308	-0.442154978506127	0.445335929026571	0.768382436176357	0.212349770600575	0.573349684831569	0.79131391611005	-0.795403539417621	0.571825186484135	-0.200871017282993	-0.567662562098121	-0.586758975224005	0.577471315812544	-19.1800196178022	-52.3084690741855	69.6770358071795
61263	1657020020247	7.72243909766308	-1.98472615314299	5.68394338917845	-0.00738551847063381	-0.0427686347875419	-0.0208268609755127	0.0200642346728148	-0.00159800158781929	-0.00482574539618533	0.583251953125	-0.50537109375	0.101806640625	0	0	0	0.125642938031912	-0.442113822975762	0.445361059218064	0.768376695761024	0.212377788931841	0.573313158878821	0.791332860827105	-0.795507077531603	0.571734758109746	-0.200718349849531	-0.567506972966457	-0.586882772132202	0.577498439312931	-19.1656715217743	-52.3102444359798	69.6733846781929
61264	1657020020249	7.74143149715469	-2.02889289917163	5.66076568012547	0.0452148417944397	-0.0431340756786694	-0.010313616146739	0.0162666566775109	0.000831874861336336	-0.00308068206059334	0.582275390625	-0.502197265625	0.09228515625	0	0	0	0.125649076497328	-0.442086356156592	0.445415533291325	0.768359919554866	0.212329312805982	0.573383401890131	0.791294974936806	-0.795574371422709	0.571634624556346	-0.200736831557355	-0.567430773274327	-0.586911688795875	0.57754392655111	-19.1659080227597	-52.3066941156666	69.6799308529177
61265	1657020020249	7.72949250539264	-2.0060945658931	5.6610406487596	0.0258008727967633	-0.0379203988716297	-0.0241866074111279	0.0244159334697906	-0.00282596049962197	-0.00854144546540926	0.5869140625	-0.50732421875	0.101806640625	0	0	0	0.125767630784478	-0.442037691308105	0.445435355470559	0.768357030687347	0.212380047119634	0.573318707878521	0.79132823454112	-0.795694840491565	0.571539694287352	-0.200529545626133	-0.567242837240423	-0.587067319010711	0.577570365019719	-19.1467457833122	-52.3098108873635	69.673366872396
61266	1657020020250	7.76778443584353	-2.01039626993771	5.67882858960105	0.0278189294931713	-0.0292026248899437	0.0172483085134729	0.0228913326362151	-0.00216756243377346	-0.0102917613310301	0.587890625	-0.505615234375	0.100341796875	0	0	0	0.125821670427317	-0.442015340939263	0.445471886802417	0.76833986210135	0.212354472886083	0.573317399048639	0.791336046059686	-0.795777833254551	0.571447410639148	-0.200463206036683	-0.567135978356131	-0.587158425658627	0.577582691250454	-19.1404937883541	-52.3105429399205	69.6755717129312
61267	1657020020250	7.73005119735545	-2.00239468585686	5.66158765644916	0.0246040197351305	-0.0370410117905726	-0.0241801586552022	0.0168507236727712	-0.00125579851389137	-0.00285049394321993	0.59130859375	-0.504150390625	0.098876953125	0	0	0	0.125894886411438	-0.441981257957704	0.445497979279411	0.768332347130809	0.212368236144173	0.573294655590426	0.791348829624754	-0.795867376656704	0.571364056066825	-0.200345287462526	-0.567005159633128	-0.587261741735592	0.577606090379153	-19.1293346239273	-52.3117409714474	69.6736218219535
61268	1657020020251	7.75756198586086	-2.01363863306881	5.6320537193018	0.0561322241499008	-0.0101760500157124	-0.0172147845729516	0.0191241218954573	-0.00302809242648713	-0.00634402353082909	0.58544921875	-0.498046875	0.103515625	0	0	0	0.125925984489356	-0.441969781183608	0.44554542688603	0.768306339640541	0.212303970202919	0.573319792528594	0.791347862656524	-0.795941711768958	0.571263838022664	-0.200335765239055	-0.56692487659511	-0.587334694073649	0.577610717901801	-19.128349383236	-52.3116503493941	69.6800879438119
61269	1657020020252	7.7305835522203	-1.99938562248066	5.6619242301748	0.0234202056703211	-0.0360670666280707	-0.0241736175673992	0.0189301093387696	-0.00314236271990999	-0.00809261497359001	0.590087890625	-0.503662109375	0.0986328125	0	0	0	0.126022928639858	-0.441935047837301	0.445554815555365	0.768304979344466	0.212348639656934	0.57325606873008	0.791382041052224	-0.796031864718289	0.571198255584916	-0.20016449028205	-0.566781550148709	-0.58746066462435	0.577623269900152	-19.1127975579475	-52.3148535831804	69.6740878552001
61270	1657020020252	7.70507115149203	-2.0126645848254	5.64459643014016	0.03879699916133	-0.0482482047727632	-0.0517152913052712	0.0170464955332122	-0.00357205134277178	-0.00611915284638023	0.59033203125	-0.505859375	0.09814453125	0	0	0	0.126054653506433	-0.441920081844608	0.44558852027086	0.768288836437608	0.212315023730562	0.573269205948796	0.791381544015988	-0.796093537126622	0.571122189864398	-0.200136264554225	-0.566707517899238	-0.587521796834239	0.577633731183657	-19.109976912447	-52.3148069987808	69.6774699968919
61271	1657020020253	7.76087483919491	-2.03558716531312	5.68580500535819	0.0466164465207272	-0.0546075260653251	0.0208276075876732	0.0161052066735394	-0.00500253337261095	-0.00764239737859598	0.594970703125	-0.495849609375	0.102783203125	0	0	0	0.126143954762971	-0.441898957531496	0.445592200345518	0.768284195464526	0.212345804647633	0.573197126078135	0.791425494853632	-0.796168654512763	0.571070587335994	-0.199984644038135	-0.566590445401161	-0.587642271229265	0.577626028018669	-19.0967846335896	-52.3189264521354	69.6724179237206
61272	1657020020254	7.73852053706358	-2.01920823411588	5.63841892157732	0.0557675177116331	-0.0305414020467729	-0.0275135287182824	0.0176308313844963	-0.00566005585826025	-0.00588859085668856	0.5849609375	-0.50341796875	0.102783203125	0	0	0	0.126182885412982	-0.441896707253096	0.445628021822878	0.768258319651635	0.2122859325702	0.573195267319271	0.791442902776688	-0.796234473622036	0.570987091190165	-0.199961007974136	-0.566520384318728	-0.587725214038826	0.577610359095452	-19.0951715237692	-52.320558179555	69.6776200777626
61273	1657020020254	7.74426233526881	-2.01462538140868	5.66198919244575	0.0410018712377011	-0.0395571807287443	-0.0102800015704041	0.0214291544674097	-0.00565869947349353	-0.00260737662412352	0.587158203125	-0.501953125	0.1025390625	0	0	0	0.126283166243575	-0.44186936985743	0.445662128953026	0.768237781368732	0.212273453597708	0.573147644190578	0.791480738146224	-0.796350296557175	0.570875657481109	-0.199817889261223	-0.566362239270063	-0.587879887097954	0.57760804381059	-19.0825642308621	-52.3241048762107	69.6771665997914
61274	1657020020255	7.74470233855014	-2.01319589834241	5.66189580809576	0.0400148367985241	-0.03835830396093	-0.0102711579638868	0.0153586188418559	-0.00631963482817283	-0.00741331498452022	0.592041015625	-0.50341796875	0.09765625	0	0	0	0.126302752215223	-0.441866072411576	0.445696559655981	0.768216483515715	0.212217901524781	0.573165085435712	0.791483004940656	-0.796400689660165	0.570804382987366	-0.199820664274809	-0.566312196391029	-0.587932088935351	0.577603977668855	-19.0829346964827	-52.3243173750937	69.6826179798873
61275	1657020020256	7.73300468842838	-1.99063309382734	5.66170196924196	0.0206087041825049	-0.0331483766161037	-0.0241569753324349	0.014969180300038	-0.00411682130504781	-0.00589222252063997	0.584228515625	-0.509521484375	0.0927734375	0	0	0	0.126381964935705	-0.441844932364128	0.445704986913521	0.768210725858178	0.212240240769116	0.573108241532766	0.791518176471955	-0.796473164529015	0.570749327158817	-0.199689017557036	-0.566201888360861	-0.588040941631599	0.577601309366259	-19.0713526551497	-52.3276146337533	69.6788035408094
61276	1657020020257	7.75079589087854	-2.00756970209706	5.68535147010457	0.023513876004269	-0.0465154290526234	0.00697035770549803	0.0148059226835209	-0.00508710133089188	-0.000416731004952538	0.590576171875	-0.49853515625	0.104736328125	0	0	0	0.126380602718824	-0.441879596846287	0.445767600388755	0.768154679469598	0.212067336669229	0.573146916831943	0.791536516178539	-0.796526955946281	0.570638379400156	-0.199791512348534	-0.56619100413992	-0.588110917839145	0.57754073029478	-19.0822904068986	-52.3293340409789	69.6952644856672
61277	1657020020258	7.73508152727763	-2.01624369440233	5.61438961785096	0.0677653868230684	-0.0194521608958499	-0.044723139271289	0.0112021015789642	-0.00497464936044729	-0.00194672306353428	0.585693359375	-0.497314453125	0.1044921875	0	0	0	0.126438244751178	-0.441873169636943	0.445782368238847	0.768140320766074	0.212052364244732	0.573107486718627	0.791569076887973	-0.796586158604765	0.570582900863213	-0.199713908283386	-0.566113316163401	-0.588203163804463	0.577522944438484	-19.0759591519618	-52.3323868782088	69.6952981716964
61278	1657020020259	7.75284472552834	-2.03334693044343	5.63802679769953	0.0719825143754389	-0.0326323199637698	-0.0135955263987348	0.0153586067126145	-0.00388672847810121	-0.00239131542220537	0.587646484375	-0.498779296875	0.10693359375	0	0	0	0.126456643778986	-0.441845957682823	0.44582260641811	0.768129592275982	0.212028706571824	0.573150360038953	0.791544371704264	-0.796647787542481	0.570501841701436	-0.199699652525841	-0.566035449590528	-0.588240013432008	0.577561733847007	-19.0735074039541	-52.3300705425455	69.6987732783496
61279	1657020020260	7.73262220558029	-2.04406922212724	5.64420999873846	0.0734321827032466	-0.0547071459907233	-0.0238985484668994	0.0132805615662491	-0.00443080644063621	-0.00216806373563371	0.589111328125	-0.503173828125	0.101318359375	0	0	0	0.126521801618934	-0.441832190881744	0.445841411488334	0.768115866661943	0.212019501805456	0.573112914751093	0.791573949672217	-0.796718533965489	0.570435339034378	-0.199607368643083	-0.565939315200886	-0.588340981851716	0.577553097631475	-19.0655942826937	-52.3328437603712	69.6983645790542
61280	1657020020261	7.77396823585378	-2.01933880295777	5.63178512818642	0.0696609207719323	-0.00933455964580443	-0.00328498324939197	0.0217886000083677	-0.00457415889831393	-0.00632608675007267	0.58447265625	-0.504638671875	0.09619140625	0	0	0	0.126562615187957	-0.441802914463423	0.445893626896354	0.768095672883024	0.211978116529681	0.573146466266109	0.79156074076422	-0.796809395274718	0.570321555860001	-0.199569813657692	-0.565826886701637	-0.588418601956209	0.57758417841682	-19.0613143811059	-52.3316052772316	69.7030952810889
61281	1657020020261	7.72657433486683	-2.0170302977803	5.66766251159816	0.0384288954721833	-0.0573124288004348	-0.020547711785925	0.0123393999981548	-0.00586259901096068	-0.00368925609809667	0.58740234375	-0.502685546875	0.09423828125	0	0	0	0.126630811033252	-0.441795416860432	0.44590370195382	0.768082896517073	0.211973396449992	0.573092190033132	0.79160130174254	-0.796871837824373	0.570269052561879	-0.199470503515143	-0.565740712057973	-0.588522344022049	0.577562894676356	-19.0531646244552	-52.3354084337232	69.7017449652169
61282	1657020020263	7.72684963541531	-2.01582116740697	5.66771738319176	0.0366359323071923	-0.056607724565206	-0.0205367403142631	0.0187365814660566	-0.000827059782339232	-0.00481361650493175	0.597412109375	-0.504638671875	0.100341796875	0	0	0	0.126645402745917	-0.441808947922106	0.445951736727832	0.768044819010399	0.211863804090783	0.573115697552312	0.791613621494292	-0.796927986137692	0.570175980945509	-0.199512244394545	-0.565702672281742	-0.588589626116493	0.577531590998572	-19.0578224902659	-52.3365636467446	69.7121479987621
61283	1657020020264	7.75430821174094	-2.02724368192155	5.63821199146317	0.0693048285466692	-0.0306909645064407	-0.0135699497701012	0.0176326394195569	-0.00322646679214006	-0.000860294329374323	0.58642578125	-0.501708984375	0.112060546875	0	0	0	0.126721487235901	-0.441781924917192	0.445986052341419	0.768027887909091	0.211850343866756	0.573092926514495	0.791633709099473	-0.797025976752277	0.570076211579278	-0.199405880990247	-0.565569645742781	-0.588708425768198	0.577540790978364	-19.0481133164362	-52.33844730973	69.7125915168263
61284	1657020020266	7.7165559492651	-2.01968214859632	5.620860122991	0.0652192859452737	-0.0371462464615466	-0.0549833988825625	0.0177953552411516	-0.00225985449953742	-0.00633434507197162	0.588134765625	-0.5087890625	0.097900390625	0	0	0	0.126735977220165	-0.441749058409454	0.446045204234817	0.768010050228206	0.211802890346963	0.573163402209643	0.791595382760751	-0.797105396624084	0.569963335714341	-0.199411089496406	-0.56547548338848	-0.588749106418726	0.57759152294482	-19.0470224643281	-52.3348534263846	69.7190563379835
61285	1657020020266	7.74644043651602	-2.05745341153102	5.64484608027363	0.0892204718798225	-0.0565245957738936	-0.00995377508594863	0.0172435760004701	-0.00345927994418971	-0.00435703971492863	0.589599609375	-0.505859375	0.099853515625	0	0	0	0.126818984318191	-0.441721023544873	0.446065205133373	0.768000856343464	0.211816740255583	0.573119695939001	0.791623321204148	-0.797194142170812	0.569885555971649	-0.199278580844576	-0.565345176185348	-0.588866935072493	0.577598965149944	-19.0350493629576	-52.3374732018177	69.716417499895
61286	1657020020267	7.74832314833771	-1.99882664738129	5.66203290119375	0.0321662009008019	-0.0318736457859257	-0.0102190305020375	0.0185752848688042	-0.00423115964592498	-0.00435143947449973	0.591552734375	-0.510498046875	0.09521484375	0	0	0	0.126822902044058	-0.441744682022246	0.446139294197529	0.767943564069079	0.211642732155991	0.573172914241445	0.791631331053488	-0.797266284387808	0.569751363380109	-0.199373658503239	-0.565308611029415	-0.588944984108428	0.577555174844376	-19.0448169296615	-52.3382243104592	69.7334530891967
61287	1657020020268	7.75245869097472	-2.05151481848645	5.66852526727534	0.0723842430105519	-0.0643238128520905	0.00729890631989427	0.0163024145708521	-0.00489222478282181	-0.00587726422548672	0.59375	-0.505615234375	0.094482421875	0	0	0	0.126908495111888	-0.441723644659223	0.446150717709708	0.767934888323561	0.21165951767217	0.573112437161682	0.791670627817769	-0.797346369157843	0.569687541911097	-0.199235720146003	-0.565189363107259	-0.589065564230238	0.577548911234817	-19.0327805824884	-52.3419094758801	69.7300117793085
61288	1657020020269	7.76426124659164	-1.98765342853882	5.63205279441957	0.0429682818152314	-2.12229010305848E-05	-0.0171429095453721	0.0186088165361934	-0.00751756436662556	-0.0021408063909968	0.585205078125	-0.500732421875	0.1005859375	0	0	0	0.126924271957879	-0.441788541390099	0.446225733710856	0.767851358310044	0.211410958541234	0.573122693535011	0.791729615944642	-0.797417449436097	0.569545647524341	-0.19935688280295	-0.565182110424159	-0.589192781304433	0.577426227768743	-19.0472760968055	-52.3474418312551	69.7522145022877
61289	1657020020270	7.74431893972455	-1.99806587502298	5.63798961167356	0.0444017070140192	-0.0220982241242225	-0.0274326439194912	0.0123411587766772	-0.00830288193945881	-0.00869671926299014	0.587646484375	-0.501953125	0.09375	0	0	0	0.127008180148617	-0.441788512492063	0.446215255955957	0.767843589383637	0.21142971116442	0.573025537577558	0.791794929587757	-0.797468557506284	0.569521735054992	-0.199220714507299	-0.565102979133695	-0.58931038221289	0.577383664810774	-19.0365049851372	-52.3535682494809	69.7474099586376
61290	1657020020271	7.73099668450552	-2.0329544113617	5.6206747074029	0.0785610677933859	-0.0397631948399446	-0.041021972205689	0.0199077600989613	-0.00256345997900105	0.000671860111020075	0.59033203125	-0.50537109375	0.102783203125	0	0	0	0.127026834790415	-0.441799833022281	0.446275545636656	0.767798950345283	0.211302089816379	0.573058922209678	0.791804836127637	-0.797540659808694	0.569404641219667	-0.199266782252876	-0.565048956101278	-0.589391063923932	0.577354181569227	-19.0414923028117	-52.3544975568649	69.7597258499669
61291	1657020020272	7.74202465897477	-2.0252999206455	5.66787018392797	0.0489614469498051	-0.0577645396074595	-0.006576824641634	0.0184147019169973	-0.00763502868985621	-0.00388658291632024	0.58740234375	-0.499755859375	0.09375	0	0	0	0.127121785753048	-0.441787170966506	0.44629729069193	0.767777881602101	0.211285647780909	0.572992828632315	0.79185705362631	-0.797635925016513	0.569317559815999	-0.199134244187705	-0.564920619348288	-0.589539425671511	0.577328294312734	-19.0305304960122	-52.3593962709877	69.7590279458682
61292	1657020020273	7.73704243095131	-2.0275649720748	5.64410545000858	0.062171434961767	-0.0480195855619453	-0.0237854611069768	0.0100683897359374	-0.00408576648139976	-0.000191048523539772	0.59326171875	-0.502685546875	0.0966796875	0	0	0	0.127104159224572	-0.44182545918122	0.446341119955306	0.767733287648883	0.211139736512695	0.573026163845864	0.791871850246896	-0.797657577898822	0.569248274689716	-0.19924555248077	-0.564944599129804	-0.589573928622081	0.577269592654238	-19.0421987093017	-52.3607844947148	69.7729542532418
61293	1657020020273	7.73726447587979	-2.02693946592568	5.64402573204432	0.0621166272698707	-0.0480113965866656	-0.0237850729972013	0.0136735985278944	-0.00419564003536715	0.00134130930023885	0.597900390625	-0.502685546875	0.095703125	0	0	0	0.127161588435919	-0.441813833147912	0.446374540411458	0.767711037394971	0.211100613023217	0.573009825339867	0.791894103555012	-0.797736820604069	0.569159400197827	-0.199182183487784	-0.564847321170716	-0.589675603387511	0.577260934531206	-19.0368434353891	-52.3628723894026	69.7758686692493
61294	1657020020274	7.73749513942719	-2.02620936693267	5.6439716705323	0.0603235778948217	-0.0478102056246172	-0.0237728745086603	0.0134785638728368	-0.00431354821776857	-0.000407258484454295	0.593017578125	-0.502685546875	0.099853515625	0	0	0	0.127176046928575	-0.441866195995409	0.446416813113898	0.767653923909335	0.210932587611556	0.572997644415841	0.79194768954609	-0.797776828728094	0.569076564113704	-0.199258615174066	-0.564853587248977	-0.58976738098206	0.577161035848335	-19.0466809334403	-52.3679004470662	69.7902684462766
61295	1657020020275	7.74983061968162	-2.04663084679709	5.64412691971473	0.0796369534531565	-0.053002732301672	-0.0098515598172515	0.0144205026529236	-0.00287993976845834	0.00111448625859065	0.590576171875	-0.498779296875	0.088134765625	0	0	0	0.127234092556575	-0.441848340286335	0.446451124821205	0.767634628598395	0.210902874664184	0.572986341531001	0.791963780660013	-0.797859032026844	0.568985757674371	-0.199188786272992	-0.56474856571006	-0.589865967811874	0.577163059755031	-19.0404249452431	-52.3694104132778	69.7925186368915
61296	1657020020276	7.71741071249308	-2.03615504075825	5.65030378018729	0.0599093957212747	-0.0699122330939464	-0.0340467985017341	0.0187720060141602	-0.00411555016667891	-0.00259440511532104	0.591064453125	-0.498046875	0.100341796875	0	0	0	0.127273663359452	-0.441894926952108	0.446481139398987	0.767583793673393	0.210766931389946	0.572940201220683	0.792033349334275	-0.797906545913292	0.568912013552094	-0.199209098248102	-0.56473218840543	-0.589981903672737	0.577060576298112	-19.0453648926168	-52.3759392283397	69.8029962958976
61297	1657020020277	7.73821572351689	-2.0233793727604	5.6439990254337	0.058358441577654	-0.0478414743607373	-0.023761114506998	0.0176696156551837	-0.00651058490312132	0.00136133948481906	0.58984375	-0.50146484375	0.099365234375	0	0	0	0.127351796081277	-0.441884781453771	0.446520557387152	0.767553745209476	0.21071446350044	0.572907411112823	0.792071027852759	-0.798006693429304	0.56880182373108	-0.1991225817486	-0.564610247970891	-0.590119973913951	0.577038719908853	-19.0383582695415	-52.3794756492298	69.8065556124228
61298	1657020020278	7.74534918905314	-2.04663692968053	5.62049911946709	0.0914646483569639	-0.0433787724848807	-0.0270387146873308	0.0199088364498057	-0.00500627574601388	-0.00433578602282815	0.58935546875	-0.499755859375	0.099365234375	0	0	0	0.127394362071713	-0.44188479269984	0.446556379744994	0.767525834224494	0.210650459379328	0.572899853233719	0.792093518549459	-0.798074378334468	0.568716152442772	-0.199096018535638	-0.56453845804279	-0.590209874633993	0.577017012985922	-19.0366659225431	-52.3815867103645	69.8119492499648
61299	1657020020279	7.72389097333985	-2.02911542931774	5.67373363956883	0.0439286788747077	-0.0783183358342283	-0.0168213523735634	0.0202990214090844	-0.00721235651622571	-0.00584915109018502	0.58251953125	-0.503662109375	0.1025390625	0	0	0	0.127500273524664	-0.441866916033119	0.446573164841193	0.767508773376719	0.210652073918201	0.572821338629003	0.79214987077272	-0.798173949251893	0.568632177389712	-0.198936657186834	-0.564397068108612	-0.590366971339278	0.576994617533032	-19.0232094565692	-52.3868765847071	69.8092633344607
61300	1657020020281	7.76676906230945	-2.03194612039748	5.61403027875792	0.0886426223283292	-0.0200320799218455	-0.0167400515182781	0.0206901948754166	-0.00697501403277608	-0.00234960721555995	0.58447265625	-0.50439453125	0.103271484375	0	0	0	0.127518552315351	-0.441867283312648	0.446638650697396	0.76746741849834	0.210534439282219	0.572868671937534	0.792146914775692	-0.798253777071717	0.568505869037213	-0.198977346099954	-0.564328058195638	-0.590442682724386	0.576984645506595	-19.0271257226696	-52.386599084732	69.8211615218462
61301	1657020020282	7.72477030703492	-2.0261341747249	5.67360190832069	0.0425823056161947	-0.0770585388354068	-0.0168054161029847	0.0204606676825525	-0.00381015432247779	-0.00630995443788925	0.58837890625	-0.497314453125	0.10205078125	0	0	0	0.127618316857809	-0.44183562982111	0.44665648990218	0.767458677357437	0.210558512497693	0.572808159135724	0.792184275053665	-0.798353436758045	0.568423090461287	-0.198813933734679	-0.564178077233932	-0.590581072383785	0.576989682845925	-19.0124679273047	-52.3901064818639	69.8170804172497
61302	1657020020283	7.75237214725587	-2.03736971735327	5.64398724225194	0.074290718971721	-0.0498001450086225	-0.00979279288549861	0.0185780706798026	-0.00423519356688169	-0.00433716535001706	0.587890625	-0.497802734375	0.09716796875	0	0	0	0.127631277762298	-0.441815201155444	0.446710990648596	0.767436561416308	0.210497237723448	0.572865815903911	0.792158866566262	-0.798423570537015	0.568319095541026	-0.19882959451338	-0.564101688458493	-0.59062523025365	0.577019169929475	-19.012956128828	-52.387721093069	69.8243471147342
61303	1657020020284	7.73374253312644	-1.99034676496493	5.66731918798789	0.0206973780461063	-0.0484475876358109	-0.0204463072877932	0.0208522854534648	-0.00357201821238988	-0.00280951206892702	0.5849609375	-0.503662109375	0.097900390625	0	0	0	0.127724217161159	-0.441783680165599	0.446743565950263	0.767420282877611	0.210494732442765	0.572827198103153	0.792187458072356	-0.798533096918061	0.568213421265224	-0.198691723583344	-0.563947569141228	-0.590764343039897	0.577027408579817	-19.0004663239749	-52.3904053177554	69.8233174150733
61304	1657020020284	7.73238505251512	-2.04645993527363	5.65052925451331	0.0740263666166941	-0.0712080579626851	-0.020052009809806	0.0147781229995943	-0.00180139534118114	-0.00260575194261246	0.5888671875	-0.51123046875	0.1005859375	0	0	0	0.127717534377923	-0.441807944046396	0.446779482702735	0.767386516578052	0.210387668826747	0.572851859255221	0.792198066239424	-0.798558344383962	0.568152650496601	-0.198764021765591	-0.563951770473675	-0.59079887701444	0.576987943979841	-19.0080906700757	-52.3914012740685	69.8335510388318
61305	1657020020285	7.74086809624259	-2.01250858469876	5.64424857836995	0.0531012360844124	-0.0439468612812786	-0.0237129251481178	0.0183843350035023	-0.00190944106921459	-0.00107177790036193	0.595458984375	-0.50390625	0.10009765625	0	0	0	0.127793248861943	-0.441777144903212	0.446814278481974	0.767371383575847	0.2103799095716	0.572832708920042	0.792213974403362	-0.798657255400581	0.568051772179886	-0.198654908117827	-0.563814581262897	-0.590914436881192	0.577003679572953	-18.9979234044366	-52.3928948669807	69.8336150271117
61306	1657020020286	7.73798300282777	-2.04106899357867	5.67456433232914	0.0569438842776583	-0.078844994647032	-0.00281658123608608	0.0172481089546222	-0.00101819849403635	0.000671263148869469	0.585693359375	-0.514892578125	0.093505859375	0	0	0	0.127768267277672	-0.441794822303856	0.446921532343404	0.767302905500944	0.210156957826658	0.572953662720034	0.792185681171241	-0.798743098472077	0.567872827609372	-0.198821312504884	-0.563776121984846	-0.5909691633568	0.576985209724732	-19.013259698271	-52.3902384941598	69.85717834943
61307	1657020020287	7.72737503807375	-2.04653082678308	5.627616744789	0.0864525739198495	-0.0608705295841591	-0.0372331928864042	0.0195212231287802	-0.00280136249194523	-0.00281169487789943	0.584228515625	-0.514404296875	0.09814453125	0	0	0	0.127853868525535	-0.441764056246804	0.446951839389379	0.767288707187768	0.210157143749643	0.572919710907172	0.792210186620341	-0.798844685173915	0.567774883139012	-0.198692856051419	-0.563632099778198	-0.59109617401107	0.576995813822852	-19.0015326486711	-52.3925392333055	69.8560642359585
61308	1657020020288	7.7413204048199	-2.00901000462443	5.64487457359667	0.0467040312260108	-0.0404083177143191	-0.0236650668697838	0.0208535885858995	-0.00357309855703664	-0.00280337339169359	0.5986328125	-0.498046875	0.098388671875	0	0	0	0.127791136697354	-0.441835082181703	0.447102801682185	0.767170300691461	0.209761689762856	0.573082766843495	0.792197056201823	-0.79893319638257	0.567537020219078	-0.199016276718211	-0.563653955211671	-0.591166535781462	0.576902371070171	-19.033099391271	-52.3913064449064	69.8961930328497
61309	1657020020289	7.75894517402281	-2.02580038665369	5.66889848022772	0.0511206986549212	-0.0545703726776753	0.00749166336007967	0.0145845724085705	0.000525225736049892	0.000659227322117338	0.58447265625	-0.5068359375	0.100830078125	0	0	0	0.127841262511303	-0.441805968849824	0.44713889508273	0.767157680006125	0.209748588785727	0.573090009098756	0.792195285881949	-0.799014140469919	0.567446840207423	-0.198948452790481	-0.563544082420809	-0.591246078219381	0.576928194976368	-19.0262891072178	-52.3911402357934	69.8975818063043
61310	1657020020289	7.71262570515952	-2.05157469937307	5.65821635659358	0.0674714890896152	-0.0891262987743801	-0.0302300859237761	0.0170533273344757	-0.0011384475043666	-0.0010742425823133	0.58935546875	-0.503173828125	0.110107421875	0	0	0	0.12785339821616	-0.441813264546385	0.447195879798091	0.767118239208961	0.209633768724955	0.573129577285967	0.792197052916874	-0.799078886282889	0.567338707312383	-0.19899679565765	-0.563495001315069	-0.5913114905235	0.576909095670893	-19.0311644785816	-52.3913061364935	69.908981971206
61311	1657020020290	7.7537614587097	-2.02712861817279	5.64576602479086	0.0643486600016174	-0.0449262077844727	-0.0096989408932604	0.020499269618321	-0.00464824537115146	0.000927838652244346	0.587890625	-0.49462890625	0.10302734375	0	0	0	0.127937263296163	-0.441791181031117	0.447242462143231	0.767089818130497	0.209589464838382	0.573107168592371	0.79222498669052	-0.799193387190375	0.567212473432698	-0.198896807047111	-0.563349080144749	-0.59145429518298	0.576905218046837	-19.0224081872808	-52.393928823199	69.9121658802074
61312	1657020020291	7.71302585788225	-2.04949855306689	5.65842328991516	0.0674880790379211	-0.0877282060960476	-0.0302175624926768	0.0155609037272552	-0.00376974429140104	-0.000613029632379919	0.591064453125	-0.498291015625	0.099365234375	0	0	0	0.127949803441583	-0.441733119898344	0.447292637026832	0.767091908082544	0.209602295292917	0.573189793087109	0.792161813589053	-0.799268456545631	0.567116289321687	-0.198869426401258	-0.563237793635251	-0.591466461844421	0.577001397168271	-19.0170350954418	-52.3879977575994	69.9136987740024
61313	1657020020292	7.73379164685966	-2.0363782522501	5.65224630861613	0.065881158388692	-0.0656221901546833	-0.0199547999125755	0.0274806208574654	-0.00415123311919234	-0.00497498638480256	0.59326171875	-0.506103515625	0.09912109375	0	0	0	0.128072742952277	-0.441688755549045	0.447332436430149	0.767073729866747	0.209609469078005	0.57313734009702	0.792197866608684	-0.799410501914396	0.566982127660293	-0.198680941065774	-0.563033498028147	-0.591645887588446	0.577016831468432	-18.9998324573971	-52.3913825313681	69.9113749201166
61314	1657020020293	7.72200288036622	-2.01332540570914	5.6522102525223	0.0449802950261246	-0.0599549945414954	-0.0339006122127632	0.0187398333542252	-0.00328770037413972	-0.00979908001745171	0.59228515625	-0.50927734375	0.08935546875	0	0	0	0.128117742572684	-0.441703271237633	0.447353065495133	0.767045825885364	0.209546909940162	0.573100551174256	0.792241030733888	-0.799460655165999	0.566922157660373	-0.198650265530301	-0.562985571197062	-0.591738984179234	0.576968128432106	-18.9985978923788	-52.3954352601106	69.9157051136269
61315	1657020020294	7.74119497635594	-2.05743291329085	5.62927307721097	0.0983749296450433	-0.0613155849116377	-0.0231823769753579	0.0217977048981012	-0.0021374853143061	-0.00127590653134487	0.587158203125	-0.498046875	0.10107421875	0	0	0	0.1282063092823	-0.441666639935318	0.447395363431077	0.767027450753121	0.209535935897241	0.573080150504168	0.792258690495591	-0.799577949861054	0.566801062081171	-0.198523696619951	-0.562823057153543	-0.591874730937027	0.576987442856915	-18.9867701915589	-52.3970934624821	69.9160150795491
61316	1657020020295	7.73457249765617	-2.03144168460035	5.6529541681603	0.0616096993743213	-0.0647859006669618	-0.0199214267059133	0.0221527332401547	-0.00106525669308941	-0.005002314148488	0.594482421875	-0.499267578125	0.1025390625	0	0	0	0.128229332099832	-0.441713699006711	0.447445419373991	0.766967302549641	0.209363209582084	0.573070707464973	0.792311183007714	-0.79963331787688	0.566699670140928	-0.198590132693889	-0.56280867389789	-0.59198095248729	0.57689249299808	-18.9955707720021	-52.4020227308899	69.9309448217707
61317	1657020020297	7.7606300604155	-2.01500163821612	5.67044062893499	0.0451557293128346	-0.0516829060581664	0.00753652439173891	0.0174452631970318	-0.00334682989759565	-0.00257788283553835	0.58984375	-0.497802734375	0.0966796875	0	0	0	0.12830646003706	-0.441691716594172	0.447472019191119	0.766951544653164	0.209354439066232	0.573034911447618	0.792339390100911	-0.799722513783179	0.566612488707561	-0.198479693139967	-0.56268518710872	-0.592099043997577	0.576891759609703	-18.9857860657829	-52.40467172346	69.9305648860221
61318	1657020020298	7.70914621050256	-2.0437831974366	5.63608083819623	0.0768982256658475	-0.0778616919382521	-0.0473703509163972	0.0179959253680754	-0.00215343389437525	-0.00455614035519622	0.584716796875	-0.508544921875	0.0947265625	0	0	0	0.128356759809248	-0.441693638188094	0.447479318916542	0.766937762362386	0.209337978252305	0.572988846654231	0.792377051958909	-0.799766303558958	0.566573602706518	-0.198414244467975	-0.562629070127804	-0.592180829076737	0.576862544390872	-18.9808660668368	-52.4082088825855	69.9305323641496
61319	1657020020300	7.74739163044265	-2.0485170137652	5.65375276948218	0.07979095383812	-0.06994392400177	-0.0059467984474022	0.0193285866766237	-0.00292504575724277	-0.00454643871460684	0.589599609375	-0.501708984375	0.104248046875	0	0	0	0.128444913440423	-0.441664782909678	0.447502046249089	0.766926360448973	0.209348276280451	0.57294304162553	0.792407452180563	-0.799861420867597	0.566487645628321	-0.198276208250388	-0.562490005801058	-0.592307368182575	0.576868247497259	-18.9684312426334	-52.4110642439258	69.9281474087627
61320	1657020020301	7.73016721661056	-2.02935280114512	5.6300022762666	0.072987863245438	-0.0543390492066599	-0.0370848986783816	0.016503929009891	-0.00478440835007267	-0.00409276436329785	0.588623046875	-0.501953125	0.100830078125	0	0	0	0.128423819296806	-0.441698795743704	0.447576926657949	0.766866605870413	0.209154137123972	0.573014304567773	0.792407189319127	-0.799912889880597	0.566364434721292	-0.198420502180855	-0.562489035916966	-0.592356255849082	0.576818992951566	-18.9827524054653	-52.4110395536958	69.9475723301146
61321	1657020020302	7.72095950508325	-2.03280469552496	5.68332844395792	0.0446909010497551	-0.0944314698501923	-0.012951757348219	0.0191677167325267	-0.0087812154502031	-0.00908014633325975	0.585205078125	-0.498046875	0.0986328125	0	0	0	0.128533935587181	-0.44169028969543	0.447578603967704	0.76685207743186	0.209166162518177	0.572908782042979	0.792480311374011	-0.799997547023761	0.566304841345584	-0.198249215444898	-0.562364153563671	-0.592515277546987	0.576777430782475	-18.9688063278308	-52.4179083453936	69.9431120947718
61322	1657020020303	7.73650782016142	-2.02292648714224	5.65335943995328	0.0566579178614147	-0.0625344379509543	-0.0198768892168015	0.0195252453058229	-0.00280249173572002	-0.00279518706913078	0.587890625	-0.50146484375	0.09765625	0	0	0	0.12854853691275	-0.441693095207538	0.447619089867281	0.766824382560938	0.209088720064743	0.572932462113148	0.792483628221211	-0.800048466726719	0.566224848087957	-0.198272217660459	-0.562320511834589	-0.592568827449383	0.576764966607152	-18.971230515743	-52.4182199420446	69.9507090531296
61323	1657020020304	7.72318876161089	-2.05756270252524	5.63643017269988	0.0921658615612898	-0.0808505797827133	-0.033345751080537	0.0221891758376998	-0.00680020810582379	-0.00778111773082806	0.587646484375	-0.505615234375	0.096435546875	0	0	0	0.128662835357205	-0.441671314360408	0.447633641785086	0.766809264166269	0.20910114562674	0.572845879743472	0.792542938242788	-0.800152614149686	0.566139995080131	-0.198094169626703	-0.562167684029426	-0.592733586049919	0.576744649737988	-18.9560310995265	-52.4237921122646	69.9468234678466
61324	1657020020305	7.74954494569247	-2.04074996996369	5.65361054274557	0.0732944160507806	-0.0669012494241184	-0.00587486348406685	0.0210529756044371	-0.00590617355904926	-0.00604021947766023	0.5927734375	-0.498779296875	0.0927734375	0	0	0	0.12867717604623	-0.441725038484683	0.447684784830578	0.766746051943974	0.208914647613809	0.572841221486225	0.792595486347587	-0.80020094365071	0.566041035591933	-0.198181724199095	-0.562168230864136	-0.592832591034081	0.576642349480946	-18.9669347480338	-52.4287295896079	69.9631354871184
61325	1657020020306	7.73780538586477	-2.01786885055704	5.65339110758428	0.0537806454357885	-0.0617567286325354	-0.0198557296229929	0.020270592751914	-0.00394280503987224	-0.00802795318859406	0.586669921875	-0.50146484375	0.1044921875	0	0	0	0.128777815835611	-0.441697291743351	0.447696032319725	0.766738572957155	0.20894353022353	0.572770008896386	0.792639336701481	-0.80029325886124	0.56596907358757	-0.19801441251506	-0.562026067899867	-0.592970087484404	0.576639553230397	-18.9521506849327	-52.4328502401494	69.9582926093904
61326	1657020020307	7.74352980005538	-2.01281535118792	5.67708945548879	0.0374114612845984	-0.0703742292714721	-0.00265822214307221	0.0191342911480546	-0.00304842521514201	-0.0062877178366748	0.591064453125	-0.497802734375	0.101806640625	0	0	0	0.128812562536265	-0.441717208869689	0.447712572081281	0.766711604139115	0.20887872037747	0.572735397485633	0.792681426955649	-0.800330299849119	0.565921553066409	-0.198000522520325	-0.56199741219768	-0.593048868342126	0.576586462242423	-18.9525365614543	-52.436805855228	69.9629000330471
61327	1657020020309	7.75066688309555	-2.03576678310447	5.65386911205527	0.0713923087635605	-0.0665973214318299	-0.00585876327989432	0.0181925069967638	-0.00448735298599589	-0.0078033782519979	0.58935546875	-0.506591796875	0.101318359375	0	0	0	0.12890599259375	-0.441696818740361	0.447719341460631	0.766703695484849	0.208902623193407	0.572661413585361	0.792728578653078	-0.800410880966273	0.565861272710958	-0.197847015839838	-0.561873754195467	-0.593177819406922	0.576574330776129	-18.9392605484694	-52.4412375632429	69.9584066965347
61328	1657020020310	7.75111420647104	-2.03416347293516	5.65383294567395	0.0700720079386315	-0.0655118332328486	-0.00584192918843662	0.0174468913873058	-0.00580282872281523	-0.00757055566669569	0.585205078125	-0.50390625	0.099609375	0	0	0	0.128931184293519	-0.441701662397209	0.447760354221411	0.766672717878841	0.208820613246117	0.572673058584067	0.792741773502245	-0.80046953233322	0.565774829808375	-0.197856942667021	-0.561820682504438	-0.59324902859362	0.576552782304425	-18.9408005090929	-52.4424778045497	69.9660235916724
61329	1657020020311	7.739310771392	-2.01126870228337	5.65368242224829	0.0505554233824588	-0.0603763023606267	-0.0198299402502826	0.021763419553358	-0.00131279340656813	-0.00848638327453521	0.5869140625	-0.5	0.09814453125	0	0	0	0.129032657278918	-0.441660694182467	0.447774465323416	0.766671006869395	0.208867718837181	0.572614094387787	0.792771956451669	-0.800568706331847	0.56569720311974	-0.197677567833723	-0.561661839962361	-0.593379956933969	0.576572809139606	-18.9242408806126	-52.4453149626331	69.9599647091469
61330	1657020020312	7.72887382056526	-2.01654047574764	5.60663673965748	0.0781507299432341	-0.0413201052175969	-0.0541789443948755	0.015761309732353	-0.00609945526680305	-0.00384936872472914	0.590087890625	-0.4990234375	0.103271484375	0	0	0	0.129018625780762	-0.441704578138588	0.447820657566492	0.766621104920658	0.208707448616254	0.572641299274815	0.792794515153167	-0.800593769964863	0.565621705716717	-0.197792066361519	-0.561685691811303	-0.593425672167091	0.576502519706111	-18.9365656445036	-52.4474355706312	69.9749952645935
61331	1657020020313	7.73461854557324	-2.01176132426508	5.6302021296652	0.0631086914345125	-0.0503235111023913	-0.0369946336740288	0.0191355448709004	-0.00304880033626134	-0.00628237573229515	0.581298828125	-0.504150390625	0.097412109375	0	0	0	0.129108617262501	-0.441678083977656	0.447836536832791	0.766611943136816	0.208725812822878	0.572584782023083	0.792830500458331	-0.800682568813108	0.565546802452355	-0.197646751136365	-0.561552276337896	-0.593551582957619	0.576502870164783	-18.9236327492261	-52.450818544313	69.9715536962867
61332	1657020020315	7.7524585442295	-2.02820474283507	5.65413046954975	0.065839158667829	-0.0631505492636409	-0.00579710856284876	0.0153708623763298	-0.00388886173059735	-0.00234137758159076	0.5908203125	-0.506591796875	0.10400390625	0	0	0	0.129085815513125	-0.44169693520673	0.44789395876181	0.766571373954811	0.208589638267312	0.572651756526583	0.792817966846445	-0.800718992889818	0.565455707875972	-0.197759795853455	-0.561550939125764	-0.593573759677349	0.576481339324586	-18.9343422386114	-52.4496402316614	69.9857377842077
61333	1657020020315	7.73508409165282	-2.0092828631095	5.63044759331043	0.0611477401336302	-0.0490369687465928	-0.0369756328765298	0.0189412172232851	-0.000714060340008117	-0.00302664175600443	0.59521484375	-0.505859375	0.095947265625	0	0	0	0.12916226660103	-0.44166426874477	0.44792375385955	0.766559908506179	0.208593968885033	0.57262806749712	0.792833937504761	-0.800813499608164	0.565362839229706	-0.197642603867308	-0.561414548252995	-0.593685064939854	0.576499565201264	-18.9233646874603	-52.4511416741786	69.9845929975204
61334	1657020020316	7.7445208641625	-2.05862731715129	5.66117760020876	0.0841080447665723	-0.0894225214661116	-0.00200894529493745	0.0174500543319431	-0.00334478758365088	-0.00256110606300089	0.59228515625	-0.50341796875	0.103515625	0	0	0	0.12916219597986	-0.441701567962559	0.448013016341688	0.766486261571269	0.20836812409568	0.572689355090434	0.792849057152085	-0.800893933033599	0.565202928636166	-0.197774006105642	-0.561383677079073	-0.593778201037394	0.576433703978155	-18.9370591738238	-52.4525631581402	70.0065160208732
61335	1657020020317	7.73258507990395	-2.03608341805714	5.66106177035872	0.0645625366267746	-0.0842841038506192	-0.016011613352358	0.0214115179160451	-0.00238116650274556	-0.00475154593014738	0.5908203125	-0.49658203125	0.09716796875	0	0	0	0.12925537152319	-0.441669142105376	0.448040623767166	0.766473102788761	0.208375936732458	0.572645956042146	0.792878350076131	-0.800998392254783	0.565105296773461	-0.197629904528217	-0.561231720946103	-0.593912967182192	0.576442835688606	-18.9239649855178	-52.4553172829487	70.0044305427389
61336	1657020020318	7.75325442120792	-2.02266016006479	5.65502531411906	0.0619062891553281	-0.061883597097912	-0.00576341708126904	0.0240399934981703	-0.000646774124211824	-0.00695221475836109	0.58544921875	-0.496826171875	0.103759765625	0	0	0	0.129319176511649	-0.44165373007317	0.448066574317706	0.76645605110665	0.208356655383301	0.572618081016146	0.792903548643132	-0.801075267721588	0.565025791131088	-0.19754561701408	-0.561129146990486	-0.59401547846001	0.576437066597608	-18.9166438827036	-52.4576865935634	70.0052379864926
61337	1657020020319	7.76855122953104	-2.01291408818447	5.62531041974672	0.0750186231102906	-0.0308346952192166	-0.0127001184154629	0.0138426994779201	-0.00324326570116193	-0.00409484920365539	0.593994140625	-0.5068359375	0.099609375	0	0	0	0.129384022275684	-0.441642218789902	0.448078960570805	0.766444499266506	0.208354791352239	0.572572415785504	0.792937014902267	-0.801138202480684	0.564970039747104	-0.19744982834678	-0.561039982039233	-0.594112517011473	0.576423850724195	-18.9085257822416	-52.46083347608	70.0039343971071
61338	1657020020319	7.71565351639092	-2.01391199913422	5.63792883374788	0.0573796627306292	-0.0688685311788922	-0.0471685940666191	0.021805184810516	-0.00213074297773478	-0.001251475103816	0.586181640625	-0.494873046875	0.093017578125	0	0	0	0.129404153996791	-0.441630065651661	0.448153809230369	0.766404340614793	0.20824209676964	0.572636519264016	0.792920327610648	-0.801231579364817	0.56482545640137	-0.197484581751448	-0.560948469435067	-0.594188203018351	0.576434900081769	-18.9112806587882	-52.4592643169185	70.0159536417358
61339	1657020020321	7.74836071448852	-2.02213158191674	5.63220519108533	0.074953207102927	-0.0519487102513074	-0.0229208465101482	0.0214142633375991	8.07742630354716E-05	0.000253928261525573	0.59228515625	-0.5048828125	0.098876953125	0	0	0	0.129480872241178	-0.441591724106454	0.448201797766191	0.766385413094161	0.208223795359689	0.572635276637596	0.792926031226236	-0.801346003084754	0.564699704405637	-0.197379905725673	-0.560791792366913	-0.594308912767064	0.576462905848707	-18.9011154890882	-52.4598006397613	70.0175310173101
61340	1657020020321	7.719726476438	-2.06544417548647	5.64557984024293	0.0949091438319841	-0.101579338540389	-0.0293606268071596	0.0159221034314941	-0.00270013122927339	-0.00431328812235177	0.594970703125	-0.507568359375	0.094482421875	0	0	0	0.129493341156535	-0.441668875438338	0.448196245523869	0.766342093691492	0.208097459934685	0.572556941628135	0.793015760096966	-0.801329655089575	0.564703200188851	-0.197436267110413	-0.560862042790164	-0.594381059834436	0.576320158130303	-18.9104794971495	-52.4682388922318	70.0261799230465
61341	1657020020323	7.72823978624244	-2.03133086867509	5.63902106419339	0.07383530514314	-0.0743482792056192	-0.0331385796459269	0.0195308378950288	-0.0028010816584444	-0.00277425513803102	0.5888671875	-0.50537109375	0.096435546875	0	0	0	0.129575847265938	-0.441644927832355	0.448226032596618	0.76632452735637	0.208086362845299	0.572520173727685	0.793045217041649	-0.801426236586012	0.56460704701602	-0.19731920781169	-0.560728145280222	-0.594507807463175	0.576319715050536	-18.900077067178	-52.4710094251043	70.0259795836076
61342	1657020020324	7.72702272724197	-2.08731002135681	5.62265317455954	0.1251463273831	-0.0973868927521994	-0.0324610848728319	0.020471606709985	-0.00382416961658457	-0.00625735137103589	0.59228515625	-0.498046875	0.100341796875	0	0	0	0.129580327130366	-0.441744114118101	0.448288657710226	0.766229962759984	0.207798834020757	0.572501709375384	0.793133934050156	-0.801467096636733	0.564492436378303	-0.197481093475738	-0.560776370390461	-0.594634410401847	0.576142152925603	-18.9198960380561	-52.4793546365547	70.0508082716467
61343	1657020020325	7.73424772619132	-2.02457790869441	5.66291661591176	0.0550035156960048	-0.0829348011954236	-0.0159417652495062	0.0259631063253298	-0.00350669224096668	-0.00668663504374743	0.58984375	-0.50439453125	0.09912109375	0	0	0	0.129697115183544	-0.441707314674066	0.448317056988841	0.766214802055766	0.20781292915258	0.572438001220464	0.793176223317206	-0.801590659095249	0.564380949451862	-0.197298147855116	-0.560594507401089	-0.594801545605368	0.576146612952985	-18.903477836195	-52.4833331555387	70.0475167103629
61344	1657020020326	7.76724824716025	-2.03217548284827	5.65702135992001	0.0711447321296922	-0.0655425017291744	0.00833170570923514	0.0202759014883611	-0.00395110362788989	-0.00800203670486633	0.58935546875	-0.5	0.101318359375	0	0	0	0.129741553951396	-0.44172761478966	0.448340511115642	0.766181851522913	0.207735000849605	0.572399871506516	0.793224152759697	-0.801641580170732	0.564315830541684	-0.197277521125499	-0.560550574313672	-0.59490001722926	0.576087687021029	-18.9034379671265	-52.4878427299015	70.0531847841242
61345	1657020020327	7.74995492633023	-2.01266516527723	5.63340243250045	0.0664277036745478	-0.0514722116088466	-0.0228567684108167	0.0240425561464507	-0.000649981803282758	-0.00694073907750238	0.589599609375	-0.507568359375	0.10009765625	0	0	0	0.129845131109126	-0.441684406111724	0.448365260417345	0.766174732405	0.20776695729724	0.572351127599049	0.793250955367558	-0.801753406080782	0.56421767035628	-0.197103770373873	-0.560378771272888	-0.595040004700381	0.576110254649975	-18.8872821896719	-52.4903647290862	70.0487933962312
61346	1657020020327	7.73506758092803	-2.01946779103291	5.66362139304487	0.0510019014276542	-0.0812833495274194	-0.0159062743886835	0.0127077576641853	-0.00234759678923446	-0.0023499283328693	0.59375	-0.5029296875	0.0947265625	0	0	0	0.129811996091956	-0.441714516615395	0.448434514610846	0.766122456000074	0.207589543833925	0.57243181716845	0.793239179556866	-0.801791189587001	0.564110663552714	-0.197256299181497	-0.560390461724221	-0.595063840238461	0.5760742629637	-18.9019580020802	-52.4892566629419	70.0670760446197
61347	1657020020328	7.73529943918938	-2.01836228798136	5.66369881473641	0.0507075318007822	-0.0813372288822586	-0.0159051935094237	0.017257377796299	-0.00347178424572068	-0.00429351735260504	0.592041015625	-0.503173828125	0.094970703125	0	0	0	0.129889701821769	-0.441699360945548	0.448452867463923	0.766107280714869	0.207583400407359	0.572381617066977	0.793277011086992	-0.80187041021931	0.564037382048074	-0.197143797434945	-0.560279374142966	-0.595181582457109	0.576060679801892	-18.8923562021531	-52.492816588228	70.0660090249079
61348	1657020020330	7.73552658041579	-2.017084669522	5.66384374329721	0.0475368305424438	-0.0817401861749158	-0.0158926490775926	0.0181995040098215	-0.0020296472269956	-0.0027784640345333	0.582275390625	-0.50390625	0.09912109375	0	0	0	0.129906788070199	-0.441800852006662	0.448481501018643	0.766029096590682	0.207352700820505	0.572313898824163	0.793386197683781	-0.801885617427614	0.563977139314699	-0.197254259505703	-0.560343032458847	-0.595303777531349	0.575872467158944	-18.9079294964663	-52.5030926008872	70.0842495332889
61349	1657020020331	7.75475337309756	-2.06156982224612	5.6411154337471	0.100687306473398	-0.0831693082194054	-0.00496601028234345	0.0185914328311639	-0.00424291277633888	-0.00427876345318429	0.594970703125	-0.501708984375	0.099365234375	0	0	0	0.129991075315473	-0.441787077144324	0.44850168711488	0.766010923852727	0.207340830246764	0.572257628955811	0.793429887396773	-0.801971137829692	0.563897113986867	-0.197135331499532	-0.560225021041305	-0.595433666279591	0.575852997613205	-18.8979323073384	-52.5072050975912	70.0834958012812
61350	1657020020332	7.72533325704322	-2.02134853462303	5.61689843254229	0.0747030789665561	-0.0628844441235971	-0.0501755620155286	0.0199253285730354	-0.00501377310102118	-0.00426482829062116	0.5859375	-0.4951171875	0.10009765625	0	0	0	0.129994105293568	-0.441826320702157	0.448560202168546	0.765953510308708	0.207166494730615	0.572282888361911	0.793457206879601	-0.802022157381215	0.563790555238876	-0.197232524936993	-0.560216478274793	-0.595510290013185	0.575782069847438	-18.9087514586742	-52.5097768660606	70.0997361104425
61351	1657020020333	7.75159431060497	-2.00461719960887	5.6340164047422	0.0579544973641504	-0.0498002241664406	-0.022794293459043	0.02106270569817	-0.00591225645608115	-0.00599828353305277	0.58984375	-0.498046875	0.095703125	0	0	0	0.130095018558252	-0.441812806897255	0.448578337679739	0.76593355114682	0.207157837252101	0.572207107668017	0.793514118588469	-0.802117688918304	0.56370552222162	-0.197087029865514	-0.560082889927367	-0.595663588068847	0.575753459615794	-18.8966650966184	-52.5151348351153	70.0980739667435
61352	1657020020334	7.73150841207822	-2.01481747392442	5.64046470365053	0.0581027300832832	-0.0721663346602974	-0.0330161099461783	0.0172585554549297	-0.00347259208411383	-0.0042884245397489	0.5859375	-0.495849609375	0.099365234375	0	0	0	0.130127646034921	-0.441853027521945	0.448550800607858	0.765920933961954	0.207136162687483	0.572114307532238	0.793586686647409	-0.802103484991573	0.56373795002292	-0.197052082121274	-0.56011124740669	-0.595722034862622	0.575665395614204	-18.8962372461068	-52.5219677235166	70.0970183588678
61353	1657020020335	7.74405044265604	-2.03474749528867	5.64077945776064	0.0770507472703716	-0.0774104723402243	-0.0189659958608441	0.0172987012563455	-0.00674558649314809	-0.00205812819028051	0.585205078125	-0.498291015625	0.098876953125	0	0	0	0.130207416747168	-0.441854278685404	0.448574594827742	0.765892719580593	0.207091258565057	0.572054624322145	0.793641428743227	-0.802185441147384	0.563653722998313	-0.196959383024315	-0.560010471899516	-0.595859033112523	0.575621650062861	-18.8893118665712	-52.5271228520485	70.0990812201741
61354	1657020020335	7.7620281624601	-2.05121350769496	5.66458025013469	0.0800616884762543	-0.0910887720861237	0.0122462404311214	0.0180441727976536	-0.00543062630222639	-0.00229149696547734	0.58984375	-0.501220703125	0.091552734375	0	0	0	0.130218505618847	-0.44188435517791	0.448576396401559	0.765872426736195	0.207034866480788	0.572021545802048	0.793679982864326	-0.802187627352509	0.563644714771572	-0.196976257535333	-0.560028190883133	-0.595899309152401	0.575562714886794	-18.8926126074253	-52.5307539028296	70.1030148124671
61355	1657020020336	7.75006235709435	-2.02913756921877	5.66424008742654	0.0604291650619058	-0.0860070657620128	-0.00180398448544494	0.0131027555970417	-0.00209161815819944	0.00115110064903979	0.58544921875	-0.507080078125	0.097900390625	0	0	0	0.13026459202716	-0.441879628146248	0.448606106142173	0.76584991468648	0.206989911522581	0.572007357262466	0.793701933830002	-0.802252435204803	0.563567395191909	-0.19693354535114	-0.559951968239989	-0.59598605211382	0.575547060586662	-18.8892837475042	-52.5328213923785	70.1065414943241
61356	1657020020337	7.7297738377437	-2.03967236419928	5.67086550352081	0.0579865997405947	-0.107523906517714	-0.0120007315129875	0.0198866344820887	-0.0017427513002259	-0.00648844285574488	0.590576171875	-0.5009765625	0.10546875	0	0	0	0.130233993733421	-0.441983014450833	0.448646782693158	0.76577162796246	0.206734158632067	0.571999528057583	0.7937742295871	-0.802244380594655	0.563510342510643	-0.19712952008219	-0.560057980443979	-0.596047509671368	0.575380243626396	-18.9118385363238	-52.5396313812719	70.1289456695324
61357	1657020020338	7.73276266350442	-2.00885612208311	5.64087161329932	0.0516965454482075	-0.0713710236268027	-0.0329743115304453	0.0181612144086336	0.00124195568911983	-0.00500157444834862	0.590087890625	-0.502685546875	0.09130859375	0	0	0	0.130304821168412	-0.441951582259457	0.448666361496742	0.765766249308433	0.206754589999274	0.571970269885612	0.793789991043734	-0.802323957451274	0.563438299283086	-0.197011548394276	-0.559936431047274	-0.596143685086039	0.57539890503726	-18.9007549447257	-52.5411161915686	70.1261986136428
61358	1657020020339	7.73278541963171	-2.00759902892043	5.64128793886948	0.0494896160868931	-0.0709244330104042	-0.0329596455422898	0.0178098490651661	0.000184286339018644	-0.00127075196986247	0.58349609375	-0.50732421875	0.098388671875	0	0	0	0.130299968180646	-0.441988853053209	0.448713267230035	0.765718078590664	0.206604515176911	0.571993454664977	0.793812359521404	-0.80235798862111	0.563356644207739	-0.197106442114105	-0.559943061752175	-0.596198607216941	0.575335544137662	-18.9111466015288	-52.5432235034511	70.1402378412182
61359	1657020020340	7.735317520543	-2.03207899505281	5.69567085759349	0.0400914583874635	-0.116209812470016	0.00515539813136456	0.0204375574495923	0.00191469931158457	-0.00347299176313073	0.59326171875	-0.505615234375	0.109130859375	0	0	0	0.130374428706045	-0.441951357261463	0.448743993230059	0.765709040494014	0.206615652709382	0.571976353529633	0.793821782932681	-0.802452976404932	0.563262673759025	-0.196988276322985	-0.559802815922127	-0.59630379116083	0.575363012308646	-18.8997760191395	-52.5441113038786	70.1387036050746
61360	1657020020341	7.74502558863852	-2.02628186793208	5.64248774048796	0.0664684311389583	-0.073567076295641	-0.0188588343301088	0.0163200045280323	-0.00244575921029195	-0.000798869154148712	0.5947265625	-0.501220703125	0.108642578125	0	0	0	0.130319403926031	-0.441931893397684	0.448885275819308	0.76564682701029	0.206396421501123	0.572190572398408	0.793724427021062	-0.802559776092362	0.563037724225975	-0.197196163494662	-0.559730580717285	-0.596310715950013	0.575426109116604	-18.9163768065945	-52.5349400533432	70.16498081016
61361	1657020020342	7.73687656886911	-2.05799686053171	5.64957909179676	0.0868764487921556	-0.100919909245719	-0.0150028623999603	0.0176137402968399	5.48678732248489E-05	-0.00301551117396941	0.58349609375	-0.499267578125	0.097412109375	0	0	0	0.130385610405815	-0.441907926314867	0.448911300348184	0.765634130429737	0.206392058159593	0.572166756732865	0.793742729616115	-0.802640495595793	0.56295647403761	-0.197099576785139	-0.55961643396025	-0.596410270559567	0.575433954518394	-18.9075303995549	-52.5366640724204	70.1646062366472
61362	1657020020343	7.72478392317812	-2.03557253178705	5.64951025099764	0.0669125527054311	-0.0946141889604224	-0.0290592527207991	0.021812724196075	-0.00212756548757349	-0.00122399688784837	0.587158203125	-0.505126953125	0.096923828125	0	0	0	0.130413288965168	-0.441867600310539	0.448979455662542	0.765612726024105	0.206340944377546	0.572237955869948	0.793704691012448	-0.802739584044523	0.562819644908509	-0.197086801975896	-0.559493141049476	-0.596471096673462	0.575490795714187	-18.9046572019208	-52.5330810892423	70.171410532649
61363	1657020020344	7.73708086649107	-2.05541643498135	5.65023866664423	0.0857854413516032	-0.0998433592411181	-0.0149822194266989	0.0160833880051666	0.000695393865122604	-0.00477564156673845	0.589111328125	-0.504638671875	0.09912109375	0	0	0	0.130476111267899	-0.44184320235061	0.448995900671379	0.765606459027915	0.206354531433711	0.572208357596401	0.793722497384068	-0.802808288927854	0.562757331137408	-0.196984866118779	-0.55938954100475	-0.596558280260974	0.57550113784993	-18.8952578488653	-52.5347582944842	70.1692609092447
61364	1657020020345	7.74537889224451	-2.02130391429046	5.64378807669568	0.0617123693466589	-0.0713805520543161	-0.0188115308128669	0.0212244419976031	-4.1964932499848E-05	-0.0014711828676397	0.59521484375	-0.5029296875	0.09130859375	0	0	0	0.13044048286667	-0.441895675344465	0.449088443444344	0.765527963242432	0.206095564153192	0.572297352314074	0.793725619449617	-0.802861693388575	0.562609700788493	-0.197188807663903	-0.559408365798731	-0.596612156357028	0.575426985082739	-18.9156946047578	-52.5350523724893	70.195051250554
61365	1657020020347	7.73722399938683	-2.05264639166921	5.65104961116251	0.082098191031307	-0.0987263588643733	-0.0149393099099395	0.0221652693641669	-0.00107247700752098	-0.00494994820618265	0.59814453125	-0.509765625	0.106201171875	0	0	0	0.130530290315931	-0.441865119836543	0.4491168333238	0.765513637505616	0.20609857179408	0.572256556739915	0.793754251624908	-0.802963686230906	0.562511826670482	-0.197052692065633	-0.559260849066799	-0.596743561443284	0.575434118363753	-18.9033471835165	-52.5377494266242	70.1934826339828
61366	1657020020349	7.72524449968031	-2.02983454250375	5.65094483379434	0.0601956929122642	-0.0933887685141222	-0.029003846492639	0.02122373222498	-0.00251765173221082	-0.00646046359565583	0.591064453125	-0.506103515625	0.10107421875	0	0	0	0.130581413658217	-0.441917942094911	0.449189116520621	0.765432011651619	0.205875340108045	0.572234918941418	0.793827778475599	-0.803059997340152	0.562355264012891	-0.197107071687006	-0.559204779135007	-0.59691184824989	0.575314053723241	-18.9118589248671	-52.5446761665901	70.2125793177012
61367	1657020020349	7.75283167224862	-2.04124816805619	5.62147474599559	0.0923965996342318	-0.0675496091471725	-0.0218257532374917	0.0197339292535205	-0.00514759012491448	-0.00598799458619055	0.586669921875	-0.49853515625	0.1005859375	0	0	0	0.130673238686045	-0.441908541179636	0.449205114137642	0.765412379934094	0.205863213330147	0.572163070423381	0.793882710632418	-0.803145551539255	0.562278540247776	-0.196977324125232	-0.559086362237618	-0.597052982590758	0.575282691847571	-18.9012511353277	-52.5498518707219	70.2113626573216
61368	1657020020350	7.72734186555106	-1.96901389467602	5.66746314386802	0.00293900045855808	-0.0688616252734548	-0.0298342149845094	0.0235004042757809	-0.00184308335481251	-0.0049309766334028	0.594482421875	-0.501708984375	0.096435546875	0	0	0	0.130690739400137	-0.441906215636215	0.449272070686528	0.765371435133402	0.205747006166237	0.572213918879381	0.793876187131427	-0.803226119147434	0.562149074272169	-0.197018323549603	-0.559013390692015	-0.597126158642916	0.57527765443425	-18.9050597210101	-52.549237194957	70.2232876401718
61369	1657020020351	7.70568592795328	-2.03681973981529	5.6578857144842	0.0590366113744798	-0.114542256470574	-0.0391876982806263	0.0138494967041265	-0.00325059508717896	-0.00406346682604093	0.587646484375	-0.50244140625	0.093994140625	0	0	0	0.130751268409656	-0.441904261352714	0.449283863805522	0.765355302674229	0.205729267044588	0.572164489764045	0.793916409538401	-0.803282660514043	0.562096231066496	-0.196938554727922	-0.55893866926415	-0.597223261162767	0.575249459215158	-18.898809239846	-52.5530272814934	70.2232846461793
61370	1657020020352	7.74160119260266	-2.01578452930148	5.62127647966256	0.0676744560888231	-0.0617306095696584	-0.0358711706678161	0.0211103661395709	-0.00918798207412974	-0.00373380997296466	0.59375	-0.504638671875	0.098388671875	0	0	0	0.13078988722514	-0.442027857227524	0.449301087876486	0.765267215596934	0.205479811735699	0.572045237773508	0.79406693226057	-0.80329633216214	0.562045075665283	-0.197028768598038	-0.559010777806577	-0.597385619898116	0.575010757668957	-18.9141425453645	-52.5672136782582	70.2416086205939
61371	1657020020353	7.74064459961982	-1.98606050007616	5.66781376507831	0.018089652382665	-0.0745534288180583	-0.0157366932374732	0.0172633534126932	-0.00347689398864415	-0.00426687725575143	0.581298828125	-0.502685546875	0.102783203125	0	0	0	0.130864177838728	-0.442020228011805	0.449318981507627	0.765248415773554	0.205461141770682	0.571992050097693	0.794110076656459	-0.803370505005101	0.561974039631085	-0.196928947766876	-0.558911040247137	-0.597503366857257	0.574985369973972	-18.9060161890385	-52.5712807777558	70.2415700129112
61372	1657020020354	7.7191270937876	-2.05412389974569	5.65801190602521	0.0723630028107023	-0.118589512928692	-0.0250345875106159	0.015225773141088	-0.0072903665378868	-0.00181037881281485	0.591552734375	-0.507568359375	0.094482421875	0	0	0	0.130829643489162	-0.442065241942586	0.449393808753873	0.765184377065051	0.205247053039862	0.572067767211848	0.794110897126908	-0.803408719221043	0.561857618076373	-0.197105167078767	-0.558934769984884	-0.597540364098356	0.574923852501484	-18.9236115492312	-52.5713581248265	70.2629773329168
61373	1657020020355	7.71955049060082	-2.05296333553596	5.65785548006855	0.071883394475533	-0.118667256037466	-0.0250319956384839	0.0178531416200678	-0.00556247572348187	-0.00401336217183909	0.5869140625	-0.500244140625	0.1005859375	0	0	0	0.130909825064095	-0.442064720668983	0.449413096409851	0.765159636426839	0.205213303030329	0.572004292409274	0.794165341553476	-0.803486753408412	0.561780972953996	-0.197005521557318	-0.558834982223368	-0.597673178160295	0.574882800883085	-18.9159796901991	-52.5764909935438	70.2639514259308
61374	1657020020355	7.73355704237545	-2.01522089928761	5.67444822163175	0.0330996457177907	-0.099594182568256	-0.0118012960628384	0.0201297712787407	-0.00488666988304894	-0.00248550100672172	0.591552734375	-0.500244140625	0.095458984375	0	0	0	0.130901699084116	-0.442139932643167	0.449477515353586	0.76507972678065	0.204964486307725	0.572018532449679	0.794219338650682	-0.803526006113389	0.561669416736917	-0.197163444385308	-0.558869856811116	-0.597764389066903	0.574754050278374	-18.9340022996844	-52.5815822829014	70.2864885101707
61375	1657020020356	7.77336101392057	-2.04814373999357	5.64527740423581	0.0844698656222676	-0.0789140318041834	0.00952361489996711	0.0193852126115198	-0.00620162313048379	-0.00224777599722966	0.590087890625	-0.499267578125	0.10498046875	0	0	0	0.130984804345517	-0.442140407540389	0.44950659903386	0.765048141279749	0.204911354890063	0.571961026617823	0.794274461799827	-0.803615725717522	0.561573596911158	-0.197070699576992	-0.558760326093952	-0.597909423978708	0.574709682101172	-18.9270869119681	-52.5867803557082	70.2893760996033
61376	1657020020357	7.76152915708693	-2.0257475542804	5.64477327339487	0.0640728174976748	-0.0735502245582698	-0.00458162139043416	0.0165193805323206	-0.00479290824049708	-0.0040261364629706	0.5927734375	-0.501953125	0.10107421875	0	0	0	0.131023365904947	-0.442162128422154	0.449519864138632	0.765021190243065	0.204849087867954	0.571917302319341	0.794322006813002	-0.803651583685606	0.561529538663449	-0.197050017122639	-0.55873158425069	-0.59799262245966	0.574651059552258	-18.9270351224206	-52.5912643110699	70.293513845922
61377	1657020020358	7.78228543496543	-2.01283209311431	5.63828742299301	0.0620117764699937	-0.0515108054659982	0.00562439365132228	0.0187961356243164	-0.00411659113300517	-0.00249850891523878	0.5908203125	-0.5	0.101806640625	0	0	0	0.131100192701724	-0.442155995733994	0.449547724396092	0.764995201553804	0.204809837853551	0.571870231574986	0.794366016743398	-0.803737176554784	0.561439165927731	-0.196958406741414	-0.558622843555601	-0.598122480099807	0.574621629820102	-18.9197617196698	-52.5954152828418	70.2955020798031
61378	1657020020359	7.73623549100122	-2.03863455315259	5.62784163983389	0.0790736229265499	-0.0862986155444589	-0.0318759563415405	0.0176590925097625	-0.00321428371135558	-0.000766780030568652	0.588134765625	-0.5029296875	0.10107421875	0	0	0	0.13113256117696	-0.442155675933235	0.449598657330844	0.764959905462696	0.204718811132652	0.571887880367805	0.794376774998396	-0.803811905264026	0.561330597450945	-0.196962893259571	-0.558548681248331	-0.598207499663606	0.57460521927839	-18.9206639578012	-52.5964300503051	70.3041467596491
61379	1657020020359	7.72429321513247	-2.01645366830388	5.62740038427598	0.0593365973392473	-0.0812323804476063	-0.0459936263221063	0.0131060614671664	-0.00456782788783294	-0.0038192842380494	0.59521484375	-0.502197265625	0.103759765625	0	0	0	0.131191651101999	-0.442163228278496	0.449608404636148	0.764939679138171	0.204687924077752	0.571830369611507	0.794426133839206	-0.803862865509292	0.561282066323338	-0.196893208310987	-0.558486658024997	-0.598308006309268	0.574560860478939	-18.9158022713047	-52.6010861016358	70.3050615628522
61380	1657020020360	7.72995999236922	-2.01173315287169	5.65096951546164	0.04327640321813	-0.0891434805553969	-0.0288747765127226	0.0212708122823011	-0.00330763805538293	0.000778062287537397	0.593017578125	-0.50341796875	0.1044921875	0	0	0	0.13122026414137	-0.442146147537605	0.449699716889032	0.764890966822231	0.204553897695157	0.571905433923923	0.794406619802484	-0.803979570999819	0.561102813817187	-0.196927605330952	-0.558367757264571	-0.598404384153997	0.574576052992647	-18.9184071805905	-52.5992452708006	70.3193512547857
61381	1657020020361	7.7219980116786	-2.04356096065221	5.65791941305096	0.0635744996330642	-0.11650933311499	-0.0249485746694091	0.0140908237497804	-0.0063882945115086	-6.95520367993491E-05	0.58642578125	-0.499755859375	0.095458984375	0	0	0	0.131278889169682	-0.442160829564362	0.449724864999606	0.764857633719123	0.204482693200083	0.571858227057392	0.794458933066031	-0.80404375721561	0.561026798118922	-0.196882117712698	-0.558301410229499	-0.598520759823088	0.574519308114659	-18.9160832901909	-52.6041803476015	70.3241765663515
61382	1657020020363	7.75769196739308	-2.02305105304968	5.6213477886342	0.0736072173082315	-0.0626346373916074	-0.0216337923876662	0.0165227141395362	-0.002311598426533	0.000966463044841357	0.583251953125	-0.50439453125	0.10009765625	0	0	0	0.131271443765322	-0.442189527518581	0.449781360215364	0.76480909893089	0.204330299511423	0.571900038253905	0.794468045264725	-0.804087469034984	0.560929072109171	-0.196982025077567	-0.558294251127922	-0.598572403563618	0.574472459609325	-18.9264327797636	-52.6050400220337	70.3390427157235
61383	1657020020364	7.73060115629324	-2.009206675352	5.65099127962389	0.0404743929883314	-0.088635377145511	-0.0288581674274138	0.0123640524195884	-0.00340037467829454	0.00140796239710344	0.591796875	-0.510986328125	0.091552734375	0	0	0	0.131313320208836	-0.442197958351219	0.449810282840797	0.764780025246755	0.204263350161391	0.571878874733136	0.794500494911619	-0.804144803135804	0.560855042772827	-0.196958768746072	-0.558236168096016	-0.598661986124267	0.574435555131491	-18.9254865464916	-52.6081015642065	70.3443193449749
61384	1657020020365	7.74293796898622	-2.02972425528362	5.65150289656804	0.055131907216624	-0.0924039329802698	-0.0146887967257499	0.0131089652484772	-0.00208578963977189	0.00117102943819656	0.585693359375	-0.50439453125	0.1005859375	0	0	0	0.131210164819288	-0.442323908766026	0.449912686040488	0.764664650236869	0.203856269347555	0.571989867471156	0.794525149355278	-0.804139439361964	0.560724935175858	-0.197350726207576	-0.558392678596634	-0.598677825363826	0.574266904764079	-18.9656319597206	-52.6104277917452	70.3840143457771
61385	1657020020366	7.7375788389504	-2.03269673190671	5.62814264148378	0.0695558419622485	-0.083550123779009	-0.0317797761155596	0.0138538976877244	-0.00077123147896155	0.000934061138977384	0.5859375	-0.50634765625	0.092041015625	0	0	0	0.131251916867245	-0.442319839163814	0.449945329536049	0.764640631034911	0.203804720621587	0.571982307897987	0.7945438158491	-0.804203614932636	0.56064426949474	-0.197318394509965	-0.558319067900817	-0.598760588661614	0.574252188401542	-18.9631980773094	-52.6121891188013	70.3883566959558
61386	1657020020367	7.75516891406009	-2.04982910402332	5.65231346749857	0.0698465518123272	-0.0963466187830483	-0.000504599521311988	0.00895285849026864	-0.000689856607164201	0.00659920949994178	0.57763671875	-0.51025390625	0.103759765625	0	0	0	0.131124477299407	-0.442434416611184	0.450034652414485	0.764543635168754	0.203441197248192	0.572114294982935	0.794541951528302	-0.804170221452573	0.560550366158263	-0.197720868723456	-0.558499717270423	-0.598722406859822	0.574116316901758	-19.0032803432229	-52.6120132026308	70.424848765196
61387	1657020020368	7.71713951532729	-2.04373585326674	5.63488829888666	0.0666041950506436	-0.104470525637129	-0.0419292315372672	0.0138965347489335	-0.00403803743866136	0.00317461071860943	0.593505859375	-0.507080078125	0.100830078125	0	0	0	0.131167971673556	-0.442445210832363	0.450074267176879	0.764506607325108	0.203350778873403	0.57210022032434	0.794575231577491	-0.80423878385058	0.560456234464482	-0.197708846034858	-0.558433916665277	-0.598823970090324	0.574074397237102	-19.0034957359788	-52.6151535940292	70.4324430395442
61388	1657020020369	7.72129364249631	-2.09682069035591	5.6424272257559	0.103776357130875	-0.133799183667377	-0.0237473963631327	0.0145962836356762	-0.00194252793881944	-0.00428851023668936	0.583984375	-0.49853515625	0.099365234375	0	0	0	0.13106764997798	-0.442452040764537	0.45020862000839	0.7644407506293	0.203096780186874	0.572333332416052	0.794472311967675	-0.804297929259928	0.560266939198781	-0.198004539920227	-0.558441168670359	-0.598778350849767	0.574114925505092	-19.0286274762894	-52.6054425624536	70.4623884421368
61389	1657020020370	7.73516066547219	-2.05900084180566	5.65915098006266	0.0674149222731596	-0.115508065639892	-0.0106315723891139	0.0214249392104869	-0.0023952294793277	-0.00469321781924511	0.592529296875	-0.5009765625	0.098388671875	0	0	0	0.131152734442118	-0.442434497577876	0.450237117608149	0.764419527176847	0.203076506561837	0.572287100781249	0.794510797133703	-0.804393077456701	0.560170996352522	-0.197889443339356	-0.558311480647119	-0.598912288340133	0.574101351202736	-19.0187787877586	-52.6090735975855	70.4627323840167
61390	1657020020371	7.72183889857525	-2.09408112260375	5.6426984512809	0.101614031667974	-0.13367782524897	-0.0237230535403441	0.0157764739973791	-0.00611265441270615	-0.00377569601500526	0.592041015625	-0.503173828125	0.09375	0	0	0	0.131173789249734	-0.44248234398104	0.450236606134259	0.764388520829306	0.202992747523498	0.572227215300152	0.794575332188644	-0.804395558244541	0.56016087102114	-0.197908020184351	-0.558338365446361	-0.598978975129069	0.574005624557822	-19.0233798826467	-52.615163088299	70.4682914507705
61391	1657020020372	7.74419865983169	-2.02333859231281	5.65206530837455	0.0444572817035379	-0.0881105032021778	-0.0145949972348678	0.023742531447662	-0.00746947882867853	-0.00590881230556856	0.58642578125	-0.507568359375	0.106201171875	0	0	0	0.131281817900739	-0.442478540101732	0.450262013068453	0.764357210619263	0.202953722273968	0.572143258460393	0.794645756556633	-0.804500806966875	0.560058407752443	-0.197770148140323	-0.558200894127542	-0.599154964682862	0.573955651676234	-19.0126154873743	-52.6218092577916	70.4691135449886
61392	1657020020372	7.73929914757828	-2.02545318437095	5.62838876716416	0.05701416962057	-0.0778469231760967	-0.0316515741623533	0.018446674297601	-0.00765358923755426	-0.00373753277273037	0.58203125	-0.497314453125	0.092041015625	0	0	0	0.131277155141892	-0.442526125438481	0.450343791609231	0.764282281752809	0.202722195326856	0.572192419601573	0.794669457367249	-0.804566702895684	0.559913555793748	-0.19791217908449	-0.558190050174158	-0.59924339377994	0.573873873684516	-19.0278043259424	-52.6240462049285	70.4912601233859
61393	1657020020373	7.74919408912258	-2.07420352791196	5.65930963056132	0.0814106840160349	-0.119249183786897	0.00358822959287508	0.0210735629040513	-0.00592931256977489	-0.00594177157691648	0.5869140625	-0.4990234375	0.097412109375	0	0	0	0.13137118280681	-0.442522760248584	0.450364495735318	0.76425587336375	0.202690855286096	0.572117945174858	0.794731070232119	-0.804656898906021	0.559826866618026	-0.197790683439814	-0.558071404236354	-0.599395475643203	0.573830437979829	-19.0182988597165	-52.6298619301315	70.4917009646923
61394	1657020020374	7.7456519023343	-2.01873427881214	5.65172032274432	0.0385818504380351	-0.0871037868158951	-0.0145610987658387	0.0176594315249763	-0.00570336410852384	-0.00573823976018421	0.593017578125	-0.50537109375	0.097900390625	0	0	0	0.131367817437304	-0.44263047773315	0.450318338578439	0.764221270747836	0.202583308243355	0.571990906316867	0.794849926911985	-0.804580505481008	0.559911780963427	-0.197861081919333	-0.558220577747815	-0.599437403428559	0.573641513446965	-19.0303962504965	-52.6410831640999	70.4972670710121
61395	1657020020375	7.73240102439486	-2.05389585047579	5.63518312838685	0.0737344132228168	-0.10552589828256	-0.0276360053886222	0.0180553279744335	-0.00543433978544689	-0.00224347139586392	0.586181640625	-0.50439453125	0.099365234375	0	0	0	0.131440751555225	-0.442635419479822	0.45034649749875	0.764189273964983	0.202523835225061	0.571939261509706	0.79490224386994	-0.804660590315267	0.559822722042412	-0.197787396662457	-0.558126715503944	-0.599569846664055	0.57359442850504	-19.0252680836644	-52.6460233095182	70.5009328557369
61396	1657020020375	7.74093554395369	-2.01986531439317	5.62814649809887	0.0503153131121935	-0.0772992379116259	-0.0316104765527179	0.0172673944760367	-0.00348447242835	-0.00424630804144731	0.589599609375	-0.5009765625	0.100341796875	0	0	0	0.13142957890087	-0.442687847201793	0.450411706990857	0.764122391986627	0.20231352829085	0.571974787164738	0.79493023537815	-0.804703896533795	0.559711119991046	-0.197927009429479	-0.558140551450829	-0.599640146259589	0.573507471459564	-19.0404096654203	-52.6486666992735	70.5207746530572
61397	1657020020376	7.72619606653013	-2.0265742498384	5.65829815244432	0.0362581011853229	-0.108420253572886	-0.0247163204901284	0.0174655131017634	-0.00334969170445106	-0.00249856454750862	0.587646484375	-0.503662109375	0.1044921875	0	0	0	0.131495764663083	-0.442686492963936	0.450439099583515	0.764095642174037	0.202266573027367	0.571934308316499	0.794971307913872	-0.804779903909744	0.559626962884128	-0.19785592909011	-0.558047972578334	-0.599757292063727	0.573475065645924	-19.0350621400409	-52.6525456905976	70.5236807177914
61398	1657020020377	7.74409962807233	-2.04310764567115	5.68228746840071	0.0394604832561509	-0.121116237988077	0.00655560601250649	0.0129577121414991	-0.00548256610604759	0.00167526557419948	0.58203125	-0.513427734375	0.09765625	0	0	0	0.131477960333664	-0.442686100478132	0.450508753014495	0.764057868127336	0.20214175980158	0.572022583684062	0.794939540279468	-0.804836445919776	0.559510818807649	-0.197954386049965	-0.558011652444234	-0.599781466363046	0.573485124779929	-19.0435421587717	-52.6495454468993	70.5375732317063
61399	1657020020378	7.72122919822187	-2.02872733679716	5.63470937656307	0.0496399433448891	-0.0981907428147246	-0.0417631934487481	0.014447063185048	-0.00285379619494655	0.00119791634048007	0.590087890625	-0.511962890625	0.104248046875	0	0	0	0.131523209193761	-0.442691885286071	0.450544166147668	0.764025846745738	0.202067698104334	0.572006261200928	0.794970114236851	-0.804903290948369	0.559423199587354	-0.197930230091143	-0.557942055775778	-0.599878755175064	0.573451080290478	-19.042434711995	-52.6524329519475	70.5436547642797
61400	1657020020379	7.74580257025902	-2.07014235172235	5.63584827405364	0.0840268536792525	-0.105007145755359	-0.0133177145473944	0.0163288898578083	-0.00244502078223873	-0.00076848097164455	0.589111328125	-0.51513671875	0.103515625	0	0	0	0.131394691766756	-0.442732178251954	0.450734176113214	0.763912531510867	0.201653841647644	0.57229765483294	0.794865474417818	-0.8049882872195	0.559148274918123	-0.198360943977142	-0.557969161861265	-0.599857150435671	0.573447306631598	-19.0809955739826	-52.6425512137372	70.5896665266302
61401	1657020020380	7.73369440635167	-2.04790756694748	5.63558764381216	0.0641753287691579	-0.0999060712254551	-0.0275096510673336	0.0176203026347702	4.8207904747625E-05	-0.00299270487882115	0.59033203125	-0.50537109375	0.1015625	0	0	0	0.13145366475734	-0.442717315036138	0.450763876334517	0.763893474760021	0.201626613518147	0.572277540552881	0.794886863207557	-0.805064794605001	0.559063723627491	-0.198288752609352	-0.557868609269971	-0.599955139575044	0.573442625978117	-19.0746976165952	-52.6445708982644	70.5914603036357
61402	1657020020381	7.72156389392621	-2.02571030293267	5.63533615004418	0.0424704860047568	-0.0922120051256359	-0.0416711478358902	0.0149942300428078	-0.00167478514543451	-0.00078568565049845	0.587646484375	-0.51123046875	0.097412109375	0	0	0	0.131389100571249	-0.442720217535211	0.450922834991651	0.763809079626412	0.201334811737337	0.572500688781693	0.79480013520833	-0.805175133528328	0.558811002268342	-0.19855293523766	-0.557814752341968	-0.59997768715873	0.573471426473308	-19.0973814771963	-52.636381989594	70.6244451408354
61403	1657020020382	7.73393240401049	-2.04586285157045	5.63600367174087	0.0609774563022814	-0.097362206911497	-0.0274635586875771	0.0176646318034231	-0.00321536849413823	-0.000746693331193898	0.5869140625	-0.494140625	0.10205078125	0	0	0	0.131450012523574	-0.442719215332957	0.450959902563763	0.763777295330389	0.201269725309304	0.572474976565325	0.794835139434869	-0.805256762165102	0.558712120974467	-0.198500158346509	-0.557720400076323	-0.600094298492115	0.573441181165046	-19.0936069166145	-52.6396869247364	70.6294370635285
61404	1657020020383	7.71365812109055	-2.05650263569986	5.64272654074391	0.0607030737467496	-0.118593305486629	-0.0375997306980178	0.0134613869007017	-0.00104058266151681	-0.00255034917365455	0.587890625	-0.504150390625	0.09423828125	0	0	0	0.131422396448619	-0.442745823363391	0.450998945676121	0.763743569927107	0.2011521737866	0.572521655360017	0.794831275884857	-0.805268523856152	0.558656209421458	-0.198609778614703	-0.557745826938632	-0.600101819542878	0.57340857921195	-19.1043945674988	-52.6393221341788	70.641369581485
61405	1657020020384	7.7396824212672	-2.03999130261789	5.65985302279791	0.0433943516441927	-0.105380604555897	-0.0103816921054882	0.0195467711197037	-0.00280730925390604	-0.00271170237536138	0.59423828125	-0.5029296875	0.10009765625	0	0	0	0.131493704421877	-0.442737974308155	0.451033058569721	0.763715700951712	0.201104532365507	0.572487544295905	0.794867900149512	-0.805356569615973	0.558557171549308	-0.198531312107757	-0.557635869397263	-0.600226538680922	0.573384983605846	-19.0981226086866	-52.6427802642138	70.6445461278368
61406	1657020020384	7.73307098272938	-2.01385599913711	5.68304655803776	0.00675154127200306	-0.109259447222605	-0.00753373491723508	0.0153433866523042	-0.000632908966493966	-0.00451582943362924	0.591796875	-0.5048828125	0.09375	0	0	0	0.131513251286028	-0.442800256947757	0.451066793315566	0.763656300406924	0.200933360830024	0.572451794316583	0.794936933152106	-0.805388200162537	0.55848602540838	-0.198603138098318	-0.557651891007733	-0.600326829824617	0.573264394366356	-19.1082586153389	-52.6492992300431	70.6586788774233
61407	1657020020385	7.76046880490561	-2.02607826534453	5.65360262327347	0.0386495029193117	-0.0833607167787932	-0.000213210041319911	0.0135060682254435	-0.00430325378158492	-0.00030286208195617	0.587646484375	-0.498046875	0.097900390625	0	0	0	0.131559423686661	-0.442813998961217	0.451095414409671	0.763623472309342	0.200857378845086	0.572421384381222	0.794978032442763	-0.805446802396115	0.558410090275603	-0.198579000874379	-0.557594621453036	-0.600426456596875	0.573215760726419	-19.1076081628298	-52.6531808044342	70.6644989649575
61408	1657020020386	7.71435222889682	-2.05236336687098	5.64328466182569	0.0544200989424976	-0.119233968986962	-0.0375705264643606	0.0115802798915117	-0.00144862996208203	-0.000581428978205726	0.583251953125	-0.494384765625	0.09619140625	0	0	0	0.131558783419488	-0.442905047237509	0.451102277100558	0.763566723496653	0.200683709452461	0.57235727700527	0.795068045024771	-0.80542947374494	0.55839804419975	-0.198683132290694	-0.557682177932331	-0.60049876910199	0.573054811273447	-19.1218801531889	-52.6616831414527	70.6779743924821
61409	1657020020387	7.76756693022907	-2.0493597001615	5.6307786830832	0.0696639612446551	-0.0801178849030986	-0.00303050023086548	0.0191993568111435	-0.00384896108254915	0.001024883670052	0.591552734375	-0.499755859375	0.095947265625	0	0	0	0.131622659756954	-0.442905877812829	0.451148394227917	0.763527985880625	0.200599019568839	0.572335950236814	0.795104768828953	-0.805521748875665	0.558281203648154	-0.198637382537772	-0.557579362455525	-0.600627719739683	0.573019717674706	-19.1188825398009	-52.6651524444585	70.6848580517533
61410	1657020020387	7.72953607735045	-2.04260278501137	5.61361368166534	0.065523460078325	-0.0890702691981445	-0.0444538610311476	0.0187627658082696	0.00163404023640842	0.000266458646863465	0.584228515625	-0.500244140625	0.09521484375	0	0	0	0.131649411903986	-0.442950969201862	0.451119784287703	0.763514120008715	0.200570758214696	0.572244181042442	0.795177947513793	-0.805501119433345	0.558318745139103	-0.198615521593673	-0.557619330314877	-0.600680261111819	0.572925742456932	-19.1198391940221	-52.6720664665561	70.6845100205745
61411	1657020020388	7.73221551921347	-2.06676279576416	5.66813322803994	0.0555032470932689	-0.134220617756073	-0.00629640114100027	0.0168775382260398	-0.00126816726133186	-0.00274594959486211	0.583251953125	-0.499755859375	0.099609375	0	0	0	0.131707089586331	-0.442945296600122	0.451147422840822	0.763491132650938	0.200530934167829	0.57221604199227	0.795208240480743	-0.805572185436895	0.558238490833565	-0.198552868028364	-0.557530984333788	-0.60078164805407	0.572905413545057	-19.1148745496608	-52.6749289076684	70.6871818555945
61412	1657020020388	7.72688098315266	-2.0692448283661	5.64495825394272	0.0682891235090814	-0.12467497562806	-0.0233150557305741	0.0225710214031466	-0.000813578102548613	-0.00141783726152487	0.5859375	-0.504638671875	0.0908203125	0	0	0	0.131688434270124	-0.442979075684795	0.451164490918484	0.763464666451037	0.20044028127942	0.57222585336455	0.795224035339627	-0.80556673692998	0.558217516827497	-0.198633925246743	-0.557571453710295	-0.600791791428742	0.572855389569857	-19.1236599635318	-52.6764214688632	70.6955729655561
61413	1657020020390	7.74066956881181	-2.03136442195898	5.66160559806754	0.0317506634183267	-0.106352647881424	-0.0103475598263145	0.0195487239536714	-0.00280903397176955	-0.00270312159697089	0.584716796875	-0.501220703125	0.104736328125	0	0	0	0.131759412474927	-0.44297373704752	0.451197244310831	0.763436161205853	0.200390630024933	0.572188665616233	0.795263306294542	-0.805652502957049	0.558121007901149	-0.19855725879063	-0.557465371011737	-0.600916859041017	0.572827451020833	-19.1176793575083	-52.6801326634406	70.6988396543894
61414	1657020020391	7.7150429422743	-2.04539382575413	5.64487060160865	0.045786951131687	-0.118609659209608	-0.037518681166409	0.0193508137756753	-0.00294654016664503	-0.0044485772832304	0.584716796875	-0.508544921875	0.093994140625	0	0	0	0.131734334810968	-0.443022970070357	0.451232670464148	0.763390981167413	0.200239450191667	0.57221122954444	0.795285150980565	-0.805656574617231	0.558070284275412	-0.198683269514048	-0.55751380822628	-0.600942481933173	0.572753426043903	-19.1312232072159	-52.6821971724532	70.7130295744764
61415	1657020020392	7.74790148504249	-2.05352380775689	5.63904204564455	0.0625936392755872	-0.101652666688096	-0.0131220006234187	0.0166802698332721	-0.0014062969828854	-0.00448874337571892	0.59423828125	-0.501220703125	0.0986328125	0	0	0	0.131794771553593	-0.443018042926904	0.451253366767608	0.763371174995002	0.200210825244228	0.572172702096337	0.795320076718048	-0.805722549143022	0.558001074344069	-0.198610107580996	-0.55742873917434	-0.601043426057254	0.572730303664704	-19.1254062664683	-52.6854981550752	70.7143804996173
61416	1657020020393	7.75356721320431	-2.04844931349156	5.66269949627632	0.0444978366393227	-0.11023054462682	0.00393037156656639	0.017271431238748	-0.00349068522442107	-0.00422665250986278	0.59228515625	-0.506591796875	0.09912109375	0	0	0	0.131793149291945	-0.443101656988516	0.451297748635819	0.763296685077292	0.199982527300544	0.57215262537114	0.795391954985339	-0.805743676695124	0.557921815751903	-0.198747012490559	-0.557480148741021	-0.601136108372314	0.572582974747484	-19.1421970214854	-52.6922924665343	70.7341241890313
61417	1657020020394	7.74438300340457	-1.99719262356158	5.63149406894856	0.0188897481595698	-0.0689587900529485	-0.0314369457886165	0.0169236846306149	-0.00452920213053765	-0.000492105411150965	0.59814453125	-0.497314453125	0.101806640625	0	0	0	0.131852401742887	-0.443111464823453	0.451332081230344	0.763260457739645	0.199903164388601	0.572117240071356	0.79543735672934	-0.80581848357848	0.557828593213838	-0.198705390254895	-0.557400481153994	-0.601256288288286	0.572534347793293	-19.1399870668149	-52.6965846228107	70.7401032971867
61418	1657020020395	7.74859146953954	-2.05013279614243	5.63932782577272	0.0582950112350211	-0.10177229099768	-0.0130967280671435	0.0149973690887082	-0.00167491786343565	-0.0007738893464872	0.588134765625	-0.503662109375	0.093505859375	0	0	0	0.131931552161061	-0.443108840800811	0.451376461060371	0.76322205887222	0.199827691209554	0.572080869587626	0.795482477794278	-0.805921018160184	0.557706711889977	-0.198631659109321	-0.557279289327632	-0.601403942591612	0.572497241497069	-19.1345514162448	-52.700850662617	70.745705656821
61419	1657020020395	7.70398237143212	-2.01859980416827	5.64475509617042	0.0208650017108342	-0.113703070964428	-0.0517455108586091	0.0139013337487207	-0.00652550024615205	-0.00177641534186233	0.5830078125	-0.50048828125	0.099609375	0	0	0	0.131986971808643	-0.443132279695969	0.451397311556677	0.763186536230588	0.199748499621716	0.572025325926016	0.795542307736118	-0.805976076756942	0.557639812784378	-0.198596079753079	-0.557228050796405	-0.601518799121888	0.572426443928476	-19.1335672876855	-52.7065080186908	70.7510433632445
61420	1657020020396	7.70285502740363	-2.07542120467654	5.62893913104609	0.0731395380071827	-0.136656584066911	-0.0503986946956481	0.0157871373653464	-0.00362094175291828	0.00123557211367098	0.587646484375	-0.504150390625	0.09423828125	0	0	0	0.131945347307169	-0.443210315874595	0.45142637089545	0.763131229138538	0.199557695125011	0.572036044457601	0.79558248482335	-0.805954200690376	0.557609313968309	-0.198770418738126	-0.557328047657689	-0.601536879016652	0.572310082452664	-19.1527509508382	-52.7103074661146	70.768413448461
61421	1657020020397	7.72345076333589	-2.06280043930509	5.62245410962307	0.0707614424110112	-0.114576105938091	-0.0402417840184874	0.0197489940055318	-0.00267166404391563	-0.000949412857085666	0.596923828125	-0.503662109375	0.09228515625	0	0	0	0.132012227473657	-0.443206972116829	0.451465902465861	0.763098218170611	0.199492237555435	0.572008172230976	0.795618940232135	-0.806043130714967	0.557502621416258	-0.198709080168011	-0.557222862580442	-0.601662262415535	0.572280703328952	-19.1481823655132	-52.7137552499722	70.773390574771
61422	1657020020398	7.72907719344372	-2.05785561812912	5.64611490333286	0.0523634118498723	-0.124369156235816	-0.0232130252049494	0.0161352188109694	-0.00258405535295272	-0.00249660453521854	0.59765625	-0.50439453125	0.10498046875	0	0	0	0.132039205794189	-0.443331155380799	0.451485722833566	0.763009683345774	0.199236257492356	0.571901769508152	0.795759561509558	-0.806050144149355	0.557452580421384	-0.198820989078977	-0.55730429642812	-0.601809759487983	0.572046269603931	-19.1654591553592	-52.7270571131893	70.7929425803962
61423	1657020020399	7.72929130054983	-2.05654349101316	5.64629989154138	0.0515810019414819	-0.124446730275701	-0.0232098572373154	0.0229667971188129	-0.0030367502802686	-0.00289178100174085	0.59326171875	-0.50244140625	0.10302734375	0	0	0	0.132123356977676	-0.443321730320775	0.451524150374486	0.762977852624138	0.199183570107984	0.571859542859063	0.795803096651465	-0.806152163783594	0.557338720339095	-0.198726544874631	-0.557175550635584	-0.60195532562791	0.572018523932687	-19.1578802705063	-52.7311760786363	70.796335801348
61424	1657020020399	7.72261669052542	-2.03003066469169	5.66962403476305	0.017713662279243	-0.127607983323166	-0.0204520747504109	0.0238648758234181	0.00167513172085604	-0.00363562942066146	0.58203125	-0.5087890625	0.10791015625	0	0	0	0.132230037536316	-0.443223991410517	0.451621653626769	0.762958447483673	0.199180750827105	0.571922061359761	0.795758873170731	-0.806352161444595	0.557106198297134	-0.198567055556918	-0.556887080325608	-0.60211115215458	0.572135421222549	-19.1399976032298	-52.7269919909067	70.7985332030425
61425	1657020020400	7.73485962829608	-2.04972367560089	5.67071238747292	0.0360792638820964	-0.132825528997	-0.00618670542274557	0.0176249186187842	4.34424296864469E-05	-0.0029757427465228	0.584228515625	-0.510986328125	0.100341796875	0	0	0	0.132287375145268	-0.443214352497714	0.451649751333573	0.762937474658002	0.199147079720708	0.571897714787437	0.795784797831437	-0.806424368061965	0.557025104994994	-0.198501312341194	-0.556794557475712	-0.602209296031058	0.572122176234415	-19.1345321603538	-52.7294447354533	70.8007841016202
61426	1657020020400	7.72955250902237	-2.05227338166895	5.64749586364663	0.0487934914149678	-0.120005161523719	-0.0231401119431602	0.0195521563143867	-0.00281082106961943	-0.00268930446212361	0.589599609375	-0.501708984375	0.098388671875	0	0	0	0.132178117123824	-0.443177319958012	0.451807043535864	0.762884790672757	0.198928516972432	0.572196756256605	0.795624482569867	-0.806510131072735	0.556798681529965	-0.198787918957698	-0.556748465298458	-0.60213461981181	0.57224561685687	-19.156314914849	-52.7142794424881	70.8296071848549
61427	1657020020401	7.72421927127602	-2.05467304194878	5.6243740097133	0.0630941960354932	-0.11116069853212	-0.0401498275659282	0.0202514844199526	0.00176145080001598	-0.00518124132402293	0.586669921875	-0.504638671875	0.107666015625	0	0	0	0.132245666709886	-0.443153430655783	0.451835013231246	0.762870396170141	0.198920315432659	0.572172869310829	0.795643711552341	-0.806593352878217	0.556712408909555	-0.198691864098146	-0.556630821281797	-0.602237080717166	0.572252241068936	-19.1475271251894	-52.7160981622891	70.8295979885482
61428	1657020020402	7.74190927782696	-2.07051600177874	5.64897723991123	0.0664251126667136	-0.123692617694561	-0.0088397852517037	0.0197058439025096	0.000587033160351335	-0.00319204682785809	0.59228515625	-0.50244140625	0.1015625	0	0	0	0.132251596905046	-0.443097736936893	0.45190587203379	0.762859746912136	0.198890956685567	0.572280831745778	0.79557340136851	-0.806682364925443	0.55658119587489	-0.198698098925913	-0.556512308459565	-0.60225577790075	0.572347821274938	-19.1451193254525	-52.7094484373906	70.8355732152403
61429	1657020020403	7.72706270835149	-2.07664192239821	5.67952982995764	0.0521929230385966	-0.154787432163334	-0.0019628591116323	0.0253969479124809	-0.00145906441530113	-0.00683510906930176	0.587158203125	-0.5087890625	0.103271484375	0	0	0	0.13234963648882	-0.443073119735942	0.451937061103843	0.76283856554946	0.198878206736561	0.572228906152149	0.795613937691619	-0.806791171492228	0.556472933044197	-0.198559513474897	-0.556359114679941	-0.602405140875394	0.572339568577473	-19.1329931051632	-52.7132821167111	70.8351000604553
61430	1657020020404	7.74504482821285	-2.0382136184478	5.61894194540562	0.0586605267650726	-0.0860449200706549	-0.0299629076240002	0.0206910699043531	-0.00372085356872189	-0.00440692323436903	0.585693359375	-0.50732421875	0.09716796875	0	0	0	0.132370345061789	-0.443049856263447	0.452030299827848	0.762793238466826	0.198750865804971	0.572317987875292	0.795581682856105	-0.806904637287965	0.556293399571539	-0.198601510357595	-0.556240055789721	-0.602486327104207	0.572369833226325	-19.135807305076	-52.7102316228265	70.849241130706
61431	1657020020404	7.73572417751058	-2.04063791915056	5.67280953287684	0.0293432373760213	-0.12602865199753	-0.00607453109952516	0.0223785259359775	-0.000953038256666446	-0.00314311726418684	0.591064453125	-0.500732421875	0.1025390625	0	0	0	0.132447376635419	-0.443032451429043	0.452069495969429	0.762766746926684	0.19871083558944	0.572290185738502	0.795611681115064	-0.807004129563044	0.556181726472685	-0.198510004800911	-0.556110005922876	-0.6026158232616	0.572359878806337	-19.1279397517349	-52.7130686945468	70.8519549657559
61432	1657020020405	7.75089258474827	-2.03126176712047	5.64299322356497	0.0409083260513879	-0.0940488838345431	-0.0129315580769482	0.0212376529243874	-0.00254792150326757	-0.00639211726544815	0.583740234375	-0.504150390625	0.091796875	0	0	0	0.132466834456567	-0.443042479545316	0.452122168537088	0.762726323004993	0.19859781207132	0.572314088724361	0.79562270762472	-0.807067827904985	0.556076164972756	-0.198546770081817	-0.556057937809734	-0.602690536342489	0.57233179817479	-19.1320952952613	-52.7141115680627	70.8627948439372
61433	1657020020405	7.75120531197827	-2.0297947194003	5.64309155033197	0.0401237751806244	-0.0940910297687096	-0.0129287190028791	0.0165316611355478	-0.00480909282527522	-0.00396445999781193	0.58544921875	-0.507080078125	0.100341796875	0	0	0	0.132531910873954	-0.443052650880188	0.452142820473196	0.76269686707281	0.198542436885163	0.572258596410897	0.795676441519749	-0.807133054166586	0.556004324989283	-0.198482803952714	-0.555983033578742	-0.602809496795664	0.572279282296274	-19.1280069763067	-52.7191940095719	70.8660225522745
61434	1657020020406	7.73782665412788	-2.06507004042259	5.62703066260787	0.0722573355907996	-0.111356902176051	-0.0257405438717075	0.0187646574847953	-0.000867692435509964	-0.00469023144771098	0.586669921875	-0.5078125	0.097900390625	0	0	0	0.132472629323819	-0.443133621467775	0.452193859100316	0.762629864217795	0.198306614633638	0.572306930776345	0.795700486098825	-0.807119234686833	0.555943432543996	-0.198709438149627	-0.556087248182412	-0.60281977140482	0.572167192009778	-19.1517364539473	-52.7214684673039	70.8885966316894
61435	1657020020407	7.70520276327708	-2.05434893884806	5.63345412353341	0.0539751417831988	-0.128423827983992	-0.0501621537230346	0.0187686556433811	0.00163874177940115	0.000283618107952298	0.58935546875	-0.505126953125	0.099853515625	0	0	0	0.132521672270386	-0.443117685206944	0.452240223465916	0.762603110218545	0.198250994672677	0.572314208649661	0.795709111226588	-0.807204995274488	0.555833573316318	-0.198668403069857	-0.555982588500044	-0.602914160848893	0.572169446871	-19.1479995015465	-52.7222843760995	70.8937935608813
61436	1657020020407	7.74331072012665	-2.05884823877969	5.65132043127493	0.0536877721300179	-0.11907364688326	-0.00870457146430681	0.0153488226398098	-0.000642377052956351	-0.00449263147010932	0.5859375	-0.51220703125	0.1044921875	0	0	0	0.132487955120521	-0.443157061420201	0.452311592603647	0.7625437586511	0.19805208421953	0.572388818081338	0.795704978538999	-0.807240709540464	0.55572232988867	-0.198834425901845	-0.556001626613545	-0.602945878996248	0.572117521322791	-19.1644470017496	-52.7218934355043	70.9138834853941
61437	1657020020408	7.74880534050534	-2.05387523255117	5.67513294470344	0.0377648025615946	-0.127998079780446	0.00829587980587654	0.0180248581565754	0.000325182323004352	0.000527724939907418	0.588134765625	-0.5087890625	0.0927734375	0	0	0	0.132536220373628	-0.443148340461988	0.452356606356413	0.762513737135646	0.197986098062992	0.572389840642298	0.7957206641173	-0.807322665081008	0.555615301949566	-0.198800781401865	-0.55590612464722	-0.603043536213579	0.572107397269719	-19.1617550269735	-52.7233772655831	70.9198142552002
61438	1657020020409	7.74605295467824	-2.02784933655366	5.62130174839066	0.043589152141158	-0.0809308337430796	-0.0298405001769151	0.020105467267851	0.000868939002169911	0.000309964537649454	0.591796875	-0.492919921875	0.102783203125	0	0	0	0.132464105534257	-0.443190544065901	0.452503014610066	0.762414863551586	0.197646326838747	0.572576370279369	0.795670930526467	-0.807403726283089	0.555388565027624	-0.199104908580224	-0.555909302198959	-0.603075320365757	0.572070804791161	-19.1900646301562	-52.7186727228599	70.9559550944351
61439	1657020020410	7.74058507417473	-2.08438892555405	5.68330698889566	0.0540325791126098	-0.153278944983464	0.012530127854669	0.0176283585959312	4.18273146870044E-05	-0.00296251145714156	0.587890625	-0.504150390625	0.107666015625	0	0	0	0.132518567926828	-0.443181962619257	0.452534240198812	0.762391853715168	0.197605018913255	0.572557158474905	0.795695014926847	-0.807476514544125	0.555303181204613	-0.19904787214062	-0.555818257130839	-0.603172178754276	0.572057154327133	-19.1853935270906	-52.7209509202922	70.9590557527634
61440	1657020020410	7.72024895345447	-2.04082976238589	5.60531888060206	0.0606205331638814	-0.0936439693317613	-0.05695132995411	0.0246602902447378	-0.000268679540043758	-0.00160433657896145	0.576416015625	-0.509033203125	0.10498046875	0	0	0	0.132608144617453	-0.443071998743568	0.452567773841023	0.762420286975023	0.19773922801992	0.572583792644378	0.795642506470755	-0.807603615385702	0.555194980123394	-0.198833936896411	-0.555585815259918	-0.603246495594266	0.572204567820991	-19.1617005129708	-52.7159841807734	70.9478781331203
61441	1657020020411	7.71755969373166	-2.06843570395314	5.63651245858268	0.0654422312005411	-0.129831473742287	-0.0357610759295603	0.015746959304245	-0.000360499332107694	-0.000995741059618245	0.5849609375	-0.5029296875	0.0966796875	0	0	0	0.132652381673483	-0.443069881762802	0.452601874252954	0.762393578759529	0.197681246594821	0.572572975202711	0.795664698734481	-0.807670075457208	0.555109778118131	-0.198801869831713	-0.555509832456334	-0.603335165811801	0.572184851022099	-19.1594475407343	-52.7180832630609	70.9527280826473
61442	1657020020412	7.7435272963522	-2.05151900801754	5.6536885778561	0.0459369768084101	-0.11397747754006	-0.00860462080724034	0.0256002490418753	-0.001323079645845	-0.00506920528656803	0.59130859375	-0.510498046875	0.090576171875	0	0	0	0.132581537806634	-0.443065968693734	0.452684635952128	0.762359038505611	0.197538335516745	0.572731712663051	0.795585942127764	-0.807701182579857	0.554997512411435	-0.198988846110078	-0.555515441423886	-0.603287780853522	0.572229366436622	-19.1747691665848	-52.7106344302726	70.9704027387188
61443	1657020020412	7.71096201468667	-2.04045689900342	5.66013206635203	0.0276532513933903	-0.13103375194722	-0.0330370688860526	0.018373670050306	0.00135467136792331	-0.00320131301258096	0.58935546875	-0.503173828125	0.09228515625	0	0	0	0.132636157236841	-0.44305001426161	0.452718071955491	0.762338954783982	0.197506064375381	0.572720340861962	0.795602140330145	-0.807778146283513	0.554907994236694	-0.198926077523742	-0.555414998826752	-0.603380915421733	0.572228669312462	-19.1691837847509	-52.712166359138	70.972937336478
