// Start Time : 05/07/2022 11:19:41																																
// Update Rate : 100Hz																																
// Filter Profile : 46.1 human																																
// Firmware Version : 4.4.0																																
PacketCounter	Time_Of_Arrival	Acc_X	Acc_Y	Acc_Z	FreeAcc_X	FreeAcc_Y	FreeAcc_Z	Gyr_X	Gyr_Y	Gyr_Z	Mag_X	Mag_Y	Mag_Z	VelInc_X	VelInc_Y	VelInc_Z	OriInc_q0	OriInc_q1	OriInc_q2	OriInc_q3	Mat[1][1]	Mat[2][1]	Mat[3][1]	Mat[1][2]	Mat[2][2]	Mat[3][2]	Mat[1][3]	Mat[2][3]	Mat[3][3]	Euler_X	Euler_Y	Euler_Z
61219	1657020020208	9.49902084332522	-0.354814019845692	-1.2088348227213	-8.67361737988402E-17	-1.38777878078145E-15	-0.230486618293034	-0.014084259985698	0.0262380323507099	0.00403594375815608	0.624267578125	0.369384765625	0.027099609375	0	0	0	-0.607494182657638	-0.440558324249297	-0.52020987141583	0.407726465480603	0.0705801052323533	0.111066573844699	0.991303518060836	0.959479902566681	-0.279334984562692	-0.037017333372252	0.272794364523943	0.953748490207854	-0.12628163805644	-163.662390381484	-82.4382090112324	57.5650346039266
61220	1657020020209	9.50372749766278	-0.354790149508923	-1.16488527075028	-0.0238079243837508	0.0336877447370112	-0.23135299511272	-0.00181376617154413	0.0143919878463591	0.00349899513470857	0.626708984375	0.3681640625	0.0302734375	0	0	0	-0.607789416549318	-0.438943800754073	-0.523025793090184	0.405418776911715	0.0675447190839039	0.109481838460713	0.991691200914447	0.957659747772321	-0.285927910213954	-0.0336606247317809	0.279866965575663	0.951976342777457	-0.124159270179586	-164.831248260231	-82.6089196511401	58.3275274765858
61221	1657020020210	9.51965717749824	-0.364917050966968	-1.18022698142099	-0.0364371687058196	0.0231577824349946	-0.21330670658778	0.00214830688993729	-0.0047670503313264	0.00561697476017135	0.6259765625	0.36767578125	0.0390625	0	0	0	-0.607809855414794	-0.438942012100042	-0.522995204826336	0.405429531981667	0.0676118514844522	0.109511159577215	0.991683388721873	0.957661964062804	-0.285913609221387	-0.0337189953790387	0.279843170590629	0.951977265479619	-0.124205820651571	-164.811590528118	-82.6054409764363	58.3089461727713
61222	1657020020211	9.54751355725191	-0.345118771357376	-1.2404251273525	-0.031912560548452	-0.03661473162953	-0.178871009304172	0.0133260908191956	-0.00393739248415382	0.00254937616284657	0.63134765625	0.37451171875	0.03271484375	0	0	0	-0.607796809753935	-0.438973663543061	-0.522953808270943	0.405468217229711	0.0676428742610024	0.109531287868725	0.9916790501667	0.957695881201154	-0.285795295064288	-0.0337586796166847	0.279719575096302	0.95201047593865	-0.124229678462956	-164.797327231125	-82.6035097730572	58.3019039061607
61223	1657020020212	9.5830668807295	-0.265036692581166	-1.21637408873576	0.0544406020199776	-0.0329123443170397	-0.149306268621984	0.0143835699711034	0.00397343252968466	0.00563391626748833	0.631103515625	0.369873046875	0.02734375	0	0	0	-0.607769623510749	-0.438986094969196	-0.52292288990403	0.40553537993092	0.0676857192762269	0.109477361668154	0.991682081459698	0.957732292995376	-0.285664528095961	-0.0338324155438535	0.279584510228803	0.952055925179762	-0.124185413677404	-164.760485271256	-82.6048590273624	58.2730631856528
61224	1657020020215	9.54881656820562	-0.266504139431419	-1.2119699482407	0.0524360561369677	-0.0329649704478865	-0.183774801775344	0.00231632538695735	0.011194581831381	0.00764385716518506	0.62646484375	0.365478515625	0.023193359375	0	0	0	-0.607752642202392	-0.438946693143748	-0.522936105717486	0.405586434451659	0.0677272598303985	0.109350443960248	0.991693248278702	0.957733606216213	-0.285650889533917	-0.0339103056985676	0.279569951532625	0.952074603019206	-0.124074947051641	-164.714075128048	-82.6098315869342	58.2275940635827
61225	1657020020216	9.56741165870353	-0.256826551623307	-1.19839920970608	0.0670664106699714	-0.0223677243235784	-0.167352331020686	0.0065300057668852	0.0184551809271295	0.00694572485356589	0.6318359375	0.373046875	0.028076171875	0	0	0	-0.607706386126033	-0.438905232388716	-0.522963766744236	0.405664940457177	0.0677421913089754	0.109154894658384	0.991713771452618	0.957747155848629	-0.285596306131364	-0.0339872827390121	0.27951991159937	0.952113417034041	-0.123889709513112	-164.659177920997	-82.6189791980965	58.1760103103721
61226	1657020020217	9.53076003860094	-0.278292971023571	-1.22084359836469	0.0377535566867124	-0.043525776528356	-0.2001969025152	-0.00162599241749219	0.0200613591611413	0.00524609071720665	0.62744140625	0.365966796875	0.03369140625	0	0	0	-0.6076680876824	-0.438846438064132	-0.523018465367666	0.405715397656153	0.0677309773657496	0.108952662293021	0.991736775603457	0.957739240925635	-0.285617639806267	-0.034031018537299	0.279549747086755	0.952130180810775	-0.123693401978322	-164.617145947415	-82.6292460524977	58.1326390851891
61227	1657020020219	9.51699591419475	-0.289084931265803	-1.18908273329558	0.0354667223760329	-0.0136861431454714	-0.217414904107489	-0.00471466064355069	0.0191709866935082	0.00951897167154149	0.626708984375	0.3701171875	0.02880859375	0	0	0	-0.607648401018641	-0.438766294469349	-0.523067745302868	0.40576802905219	0.0677685453228216	0.108742938365712	0.991757227158149	0.957719610654984	-0.285672890873476	-0.0341195953501452	0.279607889072707	0.952137580802051	-0.12350488084575	-164.556594398105	-82.6383856289741	58.0688598651783
61228	1657020020220	9.50256229670828	-0.340003059410397	-1.17136353887141	-0.0090888706779613	0.0144041041724836	-0.232181399435596	-0.00402663309941288	0.0157484126702716	0.00910114774332259	0.63330078125	0.36376953125	0.0341796875	0	0	0	-0.607634263239244	-0.438699981983604	-0.523107336551697	0.405809859898791	0.06780208050675	0.108574050755206	0.991773438534004	0.957702510587501	-0.285721366833019	-0.0341935922282039	0.279658325628531	0.952142308711087	-0.123354144109427	-164.506702584562	-82.6456383412764	58.0161387039321
61229	1657020020221	9.52363239307468	-0.310196773736278	-1.13017122873087	0.0328010256158299	0.0461287881775692	-0.21738230413384	0.00151052029316479	0.00740942120038492	0.00680271217775735	0.62353515625	0.368408203125	0.031005859375	0	0	0	-0.607626739660282	-0.438668230374306	-0.523112730614511	0.40584849387317	0.0678465094586092	0.10848406553821	0.991780247171008	0.957702120921332	-0.285714367362309	-0.0342629226065026	0.279648884741324	0.952154665906258	-0.12328014217982	-164.467933605967	-82.6486865393768	57.9779209180565
61230	1657020020222	9.50079812291667	-0.321724964621986	-1.18390011618553	0.00571963374412379	-0.0048829121489409	-0.233009143323317	0.0083054308574072	0.00235424125886667	0.00906466423737437	0.62744140625	0.37158203125	0.029052734375	0	0	0	-0.607621144979402	-0.438660538915283	-0.523086172774202	0.405899410722547	0.0679155749019815	0.108438099253649	0.991780546953805	0.957719576398295	-0.285645199947285	-0.0343516044828688	0.279572329942011	0.952180654275927	-0.123253048455052	-164.426423620454	-82.6488207797636	57.9407851074718
61231	1657020020222	9.5497833913472	-0.271858332209279	-1.20313077025801	0.0521823102000848	-0.0328371328213679	-0.183772986489007	0.00605871825114927	0.00695736257256635	0.0085658532433863	0.631103515625	0.360595703125	0.03466796875	0	0	0	-0.607609438612316	-0.438636240323711	-0.523076635993689	0.40595547990073	0.0679781631044108	0.108347385896859	0.991786173179616	0.957730693055569	-0.285596794026495	-0.0344440244612592	0.27951903140976	0.952205500515044	-0.123181962432188	-164.377995058896	-82.6513406119539	57.8954554770314
61232	1657020020223	9.5517564292791	-0.292633765658456	-1.18819911741653	0.0371094142350936	-0.0134721948736517	-0.18294469766307	-0.000217690743627474	0.0099686495159404	0.0105139353973271	0.629638671875	0.367431640625	0.03173828125	0	0	0	-0.607603780136732	-0.438588293520847	-0.523089737140078	0.405998869516591	0.0680348713703927	0.108228126264766	0.991795305979431	0.957723494003175	-0.285610453475444	-0.0345308253579717	0.279529900568733	0.952214966040111	-0.123084089699949	-164.328715542236	-82.6554327729964	57.8455178661218
61233	1657020020223	9.51562752183066	-0.274427433276359	-1.19771126091277	0.0500263103978605	-0.0328497493561439	-0.218240638293743	-0.00327106111100703	0.0107851909690069	0.00917374543580391	0.626220703125	0.360107421875	0.0283203125	0	0	0	-0.607602328103094	-0.438529973253359	-0.52311105201458	0.406036575572088	0.068092579637217	0.108099224975632	0.991805403372061	0.957708105791282	-0.285651523712201	-0.0346177859282379	0.279568568870009	0.952217288522197	-0.122978253115784	-164.278344784325	-82.6599597830647	57.7928409948462
61234	1657020020225	9.51563269689152	-0.275300792348459	-1.19746967199166	0.04978710398844	-0.0327496671638117	-0.21823905188964	-0.0116397405571312	-0.00527666635946193	0.011058649735989	0.6279296875	0.365478515625	0.02685546875	0	0	0	-0.607659604026891	-0.438484431368615	-0.523103379692253	0.406009929971874	0.0681885152037692	0.108128218761013	0.991795651685303	0.957668884988623	-0.285774680423152	-0.0346862905726733	0.279679518590389	0.952177042538107	-0.123037581837551	-164.255994569632	-82.6555877190068	57.7633846499563
61235	1657020020225	9.53518524923365	-0.325443934279763	-1.18584633540614	0.00732368347167453	-0.00465977720284991	-0.19854010196801	-0.0112725290493511	-0.0112828909803669	0.00790657677671516	0.623779296875	0.35986328125	0.0322265625	0	0	0	-0.607729330530749	-0.438453828589955	-0.523077760239764	0.405971621853068	0.0682957938747241	0.10821305007562	0.991779017892773	0.957631956794849	-0.285890564889601	-0.0347508306717277	0.279779770291369	0.952132617181261	-0.123153397985083	-164.242251514593	-82.6481361037125	57.7430156288043
61236	1657020020226	9.56562548115953	-0.285736717839401	-1.21838094516767	0.0388573626224228	-0.0430711161095727	-0.165722897201585	-0.0112162051421245	-0.0025292675688837	0.0086733916784954	0.625244140625	0.3701171875	0.031005859375	0	0	0	-0.607772598077555	-0.438413323145706	-0.523083260246455	0.405943505877772	0.0683553218765555	0.108226703819318	0.991773427024317	0.957595713941003	-0.286007256248004	-0.034789337667012	0.279889261339147	0.952096019293167	-0.123187545771204	-164.229814272897	-82.6456331895016	57.7237448014019
61237	1657020020227	9.54653043637285	-0.336701091218575	-1.24429274932278	-0.0179477272791652	-0.0554865769533813	-0.179698494300005	-0.013593100315876	0.0051601065725387	0.00719141397018821	0.625	0.3583984375	0.0322265625	0	0	0	-0.607802454384917	-0.438345443141192	-0.523114139848143	0.405932316540529	0.0684097383365798	0.108157003211995	0.99177727860489	0.957552741626647	-0.286144453730783	-0.0348439177246626	0.280022953887733	0.952062715505293	-0.123141102157955	-164.200646989713	-82.6473573703127	57.6864827821609
61238	1657020020228	9.5465900679882	-0.337371825669177	-1.24365342606599	-0.0182615743933279	-0.0552307198882343	-0.179697613803965	-0.00469575657566653	0.00887916878055055	0.00924381924920997	0.628662109375	0.37158203125	0.030517578125	0	0	0	-0.607805891777188	-0.438300601189685	-0.52313673860431	0.405946466470818	0.068441071438412	0.108072354510174	0.991784344467581	0.957534396580124	-0.286200098713235	-0.0348910140648269	0.280078023247629	0.952055602203548	-0.123070838164606	-164.17178085419	-82.6505214877535	57.6543550386035
61239	1657020020228	9.5511044219052	-0.337801157529118	-1.20070511364968	-0.0059180849307029	-0.014793839410579	-0.180494253207264	-0.00215916898244608	0.0101076321247154	0.00637345872048986	0.6298828125	0.358642578125	0.02734375	0	0	0	-0.607797801147563	-0.438255068189393	-0.523159252183673	0.405978724788772	0.0684737841218611	0.107957881448627	0.991794553685972	0.957523985700527	-0.286227540450385	-0.03495156499928	0.280105618822987	0.95206033995795	-0.122971343747006	-164.133509886238	-82.655095604913	57.6145198089276
61240	1657020020229	9.54744723077556	-0.298701584551511	-1.22793183306044	0.0236440531577003	-0.0530698482826109	-0.18214156817559	0.00138278719898052	0.0104943818319128	0.0058204646038868	0.633544921875	0.3662109375	0.031982421875	0	0	0	-0.607780160676704	-0.438234765105134	-0.523177000564379	0.406004178576412	0.0684722334674144	0.107876695171009	0.991803494591023	0.957524888627856	-0.286221795263482	-0.0349738698796907	0.280102911270476	0.952071269682648	-0.122892866117905	-164.114267903924	-82.6591037977438	57.5956077203964
61241	1657020020230	9.54752099347813	-0.299492099165464	-1.22716551636713	0.0236440922406404	-0.0530697622846014	-0.182141567797643	0.0040783952554533	0.00538727030277015	0.0100370727315832	0.630859375	0.362060546875	0.031982421875	0	0	0	-0.607779782541104	-0.438203998087954	-0.523164054801946	0.406054631493359	0.0685532556458393	0.107796686366727	0.991806596846739	0.957529436299429	-0.286193784605051	-0.0350784303174483	0.280067544996657	0.95208875219792	-0.122838016011959	-164.062429388048	-82.6604950425186	57.5456972272362
61242	1657020020231	9.5354279759856	-0.330446401238074	-1.18250645296412	0.00612040150776644	-0.00345084980687416	-0.198538750720646	0.0018998166119578	0.00844932101993054	0.010030331455308	0.627197265625	0.357666015625	0.0283203125	0	0	0	-0.607776973475199	-0.438180951051211	-0.523164685013618	0.406082894251637	0.0685923329809175	0.107736125607626	0.991810475390986	0.95752904344993	-0.286188274264141	-0.0351340664252701	0.280059320155744	0.952097263367966	-0.122790790701632	-164.032612444009	-82.6622347924608	57.5163254730412
61243	1657020020232	9.51706096061448	-0.341693144823542	-1.19389734576112	-0.00850659323324869	-0.0140507982552676	-0.214962395659359	0.00300847227114771	0.00777201497231784	0.00722786109937498	0.629150390625	0.367919921875	0.03271484375	0	0	0	-0.607766374013188	-0.438151063201328	-0.523167035284045	0.406127976906924	0.0686397980152981	0.107641426655184	0.991817473830773	0.957532505152393	-0.286167424378071	-0.0352094703368839	0.280035854320482	0.952114241303247	-0.122712639131185	-163.990428057199	-82.6653750331858	57.4755304046485
61244	1657020020232	9.55398980804471	-0.321838313159347	-1.16880389833262	0.0204501799652019	0.00762059201247708	-0.182114831359819	0.00495314392136819	0.00763200150368166	0.0113706239887323	0.621826171875	0.365478515625	0.030029296875	0	0	0	-0.607763251911477	-0.438132889252395	-0.523155056460308	0.406167684437531	0.0686967165107198	0.107584783314275	0.991819678943641	0.957539494851353	-0.286134766948005	-0.0352847126023078	0.279997994529358	0.952130458258127	-0.122673198037331	-163.953081955429	-82.6663647572451	57.4403188480107
61245	1657020020233	9.51900066282113	-0.363445502405478	-1.17865235475816	-0.0237195057862736	0.00572918073987183	-0.214141006837602	0.0074307583966849	0.000105399986955472	0.00773356959605098	0.62890625	0.364501953125	0.033935546875	0	0	0	-0.607764831719636	-0.438128602600574	-0.523123388610586	0.40621073003633	0.0687704957436916	0.107561645689024	0.99181707551939	0.957554980035364	-0.286072340773241	-0.035370553487215	0.279926917470686	0.952151830445747	-0.122669526183858	-163.915602947507	-82.6651962726626	57.4068230971474
61246	1657020020233	9.56549521037176	-0.33357393367943	-1.22605621118758	-0.00482522717253032	-0.0429304916549599	-0.163266774871317	0.00934900791584714	0.00321443465526441	0.00577295277237556	0.624267578125	0.372802734375	0.03076171875	0	0	0	-0.607750742966237	-0.438146312318894	-0.523101123699558	0.406241378751107	0.0687860467712275	0.107556850243527	0.991816517172041	0.957578137115373	-0.285991502383508	-0.0353973428815655	0.279843869127479	0.952176656156889	-0.122666313149319	-163.903651661494	-82.6649456959452	57.3997839845123
61247	1657020020234	9.56808262964325	-0.314083106265288	-1.1975575730061	0.0224341945315815	-0.0218037301802025	-0.164888712913221	0.00710609161088018	0.00781968250390962	0.00527351169907209	0.624755859375	0.36328125	0.03173828125	0	0	0	-0.607727387426396	-0.438133000629416	-0.523098634017068	0.406293878148353	0.0688145856978836	0.107467302297804	0.991824244376019	0.957594392973407	-0.285929516677271	-0.0354582858947812	0.279781220494018	0.952205382482968	-0.122586207337297	-163.867389963132	-82.6684142893314	57.3673273267338
61248	1657020020234	9.53385890183383	-0.315284862315773	-1.19295086718424	0.0200979874452417	-0.0213777425055794	-0.199355952479381	-0.00228587512307895	0.0131968536553297	0.00538601549995006	0.626708984375	0.362060546875	0.026611328125	0	0	0	-0.607710318932293	-0.438105088665755	-0.523132112022421	0.40630640275455	0.0687934493122633	0.107378113115412	0.991835370490232	0.957585819520294	-0.285958076731657	-0.035459506561427	0.279815760073248	0.952206867847374	-0.122495800903236	-163.855576729129	-82.6734114568832	57.35371584931
61249	1657020020235	9.55055570492147	-0.28572062715831	-1.19375161414336	0.0496374714360646	-0.0300850896270834	-0.183750539560902	-0.003264609377904	0.0107900955744566	0.00917191968264924	0.632568359375	0.362548828125	0.0283203125	0	0	0	-0.60770874863465	-0.438046833224968	-0.523153485601795	0.406344040484388	0.0688508048085398	0.107249183459184	0.991845340425893	0.957570387990882	-0.285998985328799	-0.0355462013988896	0.279854459889795	0.95220911203277	-0.12238990253103	-163.804900936146	-82.6778922214439	57.3007366791256
61250	1657020020236	9.53403473274683	-0.316598803185556	-1.19119631437812	0.0197507190564372	-0.0207591707509398	-0.19935387708561	-0.00582435286203368	0.00251466945179471	0.00566335724075621	0.636962890625	0.36328125	0.030029296875	0	0	0	-0.607730034461579	-0.438033560549079	-0.523158969746221	0.406319452426409	0.0688625844135373	0.107272969457142	0.991841950358894	0.957551633934138	-0.286062204825198	-0.0355426971487726	0.279915724492125	0.952187442153274	-0.122418389907951	-163.809984716864	-82.6763683257413	57.3020568445425
61251	1657020020237	9.4996849426775	-0.317762842141187	-1.18760387405099	0.0177603913887324	-0.0208374405583203	-0.233823100575035	-0.00358204235383562	-0.00209079604041377	0.00616305040563474	0.62451171875	0.369384765625	0.021240234375	0	0	0	-0.607756270977051	-0.438009793900036	-0.523147907559227	0.406320073774508	0.0689273745281027	0.107275405195335	0.991837186478124	0.957537390773113	-0.286102836191054	-0.0355993313821263	0.279948499392446	0.952174960059133	-0.122440528928563	-163.788319589764	-82.6742274089969	57.2781487604526
61252	1657020020238	9.55054689497121	-0.287453204669429	-1.19340605918589	0.0488429986554161	-0.0287545177514614	-0.183742411440608	-0.00351734097179505	-0.00363351634734853	0.00665497530175075	0.63134765625	0.366455078125	0.0341796875	0	0	0	-0.607789187423732	-0.438018155330969	-0.523127923766483	0.406287551651566	0.0689545419524485	0.107364670715601	0.991825639226098	0.957526124106206	-0.286141041946863	-0.0355953054167366	0.27998034359268	0.952153418097995	-0.122535201497491	-163.801923784148	-82.6690405846342	57.2895528147142
61253	1657020020239	9.54726719305147	-0.348089490032812	-1.2354749226018	-0.0205942041755689	-0.051694142451239	-0.179682690519806	-0.0035818231029292	-0.00209057696161414	0.00616298793507259	0.62451171875	0.363037109375	0.03369140625	0	0	0	-0.60781545457135	-0.437994488028742	-0.523116752444317	0.406288155073188	0.0690193835371036	0.107367357204913	0.991820838308507	0.957511918158829	-0.286181527007331	-0.0356519309933166	0.280012948414816	0.952140947657743	-0.122557596718674	-163.780318384812	-82.6668851699725	57.2657135544906
61254	1657020020240	9.53389519714775	-0.318653928498175	-1.19176498418525	0.0188437875348584	-0.0194526140754589	-0.199349323954802	-0.00322116912663199	0.00219870175116002	0.00328629582269179	0.6279296875	0.363525390625	0.039794921875	0	0	0	-0.607823907039831	-0.437996709817177	-0.523125335150043	0.406262063136983	0.0689975318269664	0.10739778698877	0.991819064119914	0.957501698737899	-0.286220036490019	-0.0356172377605141	0.280053276209767	0.95212594023142	-0.122582039559674	-163.798334909064	-82.6660887916501	57.281349556391
61255	1657020020241	9.53138373266929	-0.339076017724031	-1.21940143195252	-0.00841765786614096	-0.0405774497209521	-0.19772657955065	-0.000297693242886877	0.00446547987122755	0.00364367701530304	0.625732421875	0.3671875	0.0341796875	0	0	0	-0.607820793650562	-0.437975890888346	-0.523132128393205	0.406280417998894	0.0690197904867096	0.107345027614649	0.991823226975242	0.957498386783618	-0.286226681902407	-0.0356528522548779	0.28005911488102	0.952129892196201	-0.122537996386879	-163.777463288107	-82.6679575043833	57.2601388771461
61256	1657020020242	9.51550165278006	-0.329753997730307	-1.20340507281842	0.00374230777387182	-0.029503013980902	-0.2157707361934	0.00343792780299316	0.000221528640084416	0.00456774029349974	0.63037109375	0.366943359375	0.024169921875	0	0	0	-0.607822798140986	-0.437994293650396	-0.523119565824616	0.40627375578693	0.069013837162312	0.107386332806346	0.991819169912812	0.957505335739127	-0.286205268176945	-0.0356381326512102	0.280036823134452	0.952131671563428	-0.122575110420494	-163.78846096738	-82.666136276395	57.272413270084
61257	1657020020242	9.49958705651648	-0.320380080501275	-1.18768368396484	0.0163764705270153	-0.0189850637756429	-0.233816784118581	-0.00253799655518425	-0.00122604958731557	0.00286906005789087	0.6259765625	0.3701171875	0.02392578125	0	0	0	-0.607837331605716	-0.437981404836648	-0.52311576510082	0.406270800854238	0.0690443706406009	0.107389575163686	0.991816693764028	0.957496218471636	-0.286232650781146	-0.0356631636190043	0.280060469355032	0.952123074383224	-0.12258786535248	-163.779272333001	-82.6650249464806	57.2616724642479
61258	1657020020243	9.53388171570425	-0.320048228981564	-1.19149918513792	0.0178350648746283	-0.017902837651329	-0.19934438855342	0.00262705815859992	-0.00356540910553061	0.00372589317414283	0.635498046875	0.35986328125	0.031494140625	0	0	0	-0.607853762307996	-0.438026103440215	-0.523083109253306	0.406240073314892	0.0690343870377511	0.107516988624803	0.991803584669553	0.957506271236183	-0.286204271076185	-0.0356210016862311	0.280028559167995	0.952117226172704	-0.122706127294009	-163.812239770701	-82.6591441908736	57.2963370043663
61259	1657020020243	9.53197145975053	-0.300712921669879	-1.20597866132766	0.0327473286354833	-0.0372089539407899	-0.200152016724797	0.00363138987463334	-0.00440690861525466	0.00604330105134819	0.624755859375	0.358642578125	0.034912109375	0	0	0	-0.607871045657883	-0.438026469091218	-0.523049494461441	0.40625709910093	0.0691040774382219	0.107542074972392	0.99179601158305	0.957512356196845	-0.286175963611155	-0.0356848088350576	0.279990560933364	0.952122901710625	-0.122748791547456	-163.790105409084	-82.6557490292953	57.2761274624952
61260	1657020020244	9.5256791653286	-0.281694279608011	-1.26242706661752	0.0350547918826953	-0.0962895317384423	-0.200136358449306	0.00200864521943534	-0.00168305737688786	0.0046348376891804	0.620361328125	0.35791015625	0.032470703125	0	0	0	-0.607890845953507	-0.43804124174299	-0.523025931532008	0.406241879775171	0.0691274909546687	0.107612446817895	0.991786746878672	0.957512597204787	-0.28617481129799	-0.0356875828924129	0.279983957019782	0.952115296940673	-0.122822820123621	-163.798169583181	-82.6515976043017	57.2843453375219
61261	1657020020245	9.5134590386812	-0.312153722309559	-1.21845856991719	0.0178606199814629	-0.0471519652758656	-0.2165713884662	-0.00426447840599924	0.00133554597443143	0.00657999709298955	0.626708984375	0.364013671875	0.03076171875	0	0	0	-0.607910429992769	-0.438007382768983	-0.52302595978291	0.406249045708465	0.0691867560660637	0.107580918713078	0.991786034744343	0.957496106883322	-0.286222491001655	-0.0357476005920748	0.280025709691696	0.952104527651066	-0.122811116508255	-163.770889879432	-82.6512786002812	57.254376244297
61262	1657020020246	9.52936923910107	-0.322510196130393	-1.2339320476794	0.00480534146111633	-0.0568776652645965	-0.198519638997777	-0.00345298588126192	0.00512249579885114	0.00742163473466912	0.631103515625	0.364501953125	0.03466796875	0	0	0	-0.607928498283606	-0.437991768075139	-0.523031738184678	0.406231403173817	0.0692020238998564	0.107591521838597	0.99178381934604	0.957479189467406	-0.286278516347691	-0.0357521022403603	0.280079777251061	0.952086485308042	-0.122827695853893	-163.77102931167	-82.6502862899362	57.2511935125678
61263	1657020020247	9.53378883743395	-0.322736240444005	-1.19151729345104	0.0171498119632226	-0.0164424962330448	-0.199340533006623	-0.00172643980491776	0.0025613104505152	0.00371079014463387	0.623046875	0.3623046875	0.032958984375	0	0	0	-0.60793343119108	-0.437970720168721	-0.523035803026816	0.406241480239555	0.0692303940539701	0.107556407667002	0.9917856480656	0.957471763026595	-0.286299016015333	-0.0357868192969924	0.280098153413898	0.952084288599713	-0.122802816969737	-163.752983485843	-82.6511053914354	57.2319968322536
61264	1657020020248	9.53121955042223	-0.343305370085249	-1.2195013626296	-0.0106295565731099	-0.0367378837753292	-0.197713333181639	2.44671521258832E-05	-0.0032482751296	0.00610287925935621	0.6201171875	0.36572265625	0.02197265625	0	0	0	-0.607960174607655	-0.437990105914599	-0.523012520927821	0.406210531823922	0.0692451401472865	0.107654693983209	0.991773954804906	0.957467471089851	-0.28631534191249	-0.0357710328386032	0.280109179376166	0.952068270581956	-0.122901813576104	-163.772165324562	-82.6458694295588	57.2502582062755
61265	1657020020249	9.53367121608219	-0.323680915051976	-1.1922020084549	0.0166305678102774	-0.0156164460120747	-0.199338243348478	0.00194336836453898	-0.0104379665114029	0.00386759107854725	0.626953125	0.36181640625	0.032470703125	0	0	0	-0.607991942131534	-0.438004464796924	-0.522968858738883	0.406203717253346	0.069311323214621	0.107742581573381	0.991759787746076	0.957470159283278	-0.286301257815048	-0.0358117837530552	0.280083620649785	0.952062564062586	-0.123004225757828	-163.767466031236	-82.6395307227438	57.2466275176897
61266	1657020020250	9.51330159921469	-0.314671238983604	-1.21904011537008	0.0164348859439049	-0.0444623930458313	-0.216556002060484	0.00350287730850413	-0.00132164578408753	0.00505915099031319	0.62939453125	0.36328125	0.029541015625	0	0	0	-0.608008543672709	-0.438041176315341	-0.522937630944854	0.406179483498426	0.0693123239881137	0.107852481682199	0.99174777233849	0.957478629038484	-0.286276310074449	-0.0357847624659403	0.280054417351258	0.952057622460505	-0.123108922653472	-163.792140222149	-82.6341589715852	57.2728240007809
61267	1657020020250	9.56536079670084	-0.344109481868343	-1.22419177180266	-0.00914964656456305	-0.035560415925398	-0.16323993129078	0.0012623733290775	0.00328474101798257	0.00455986602717366	0.630859375	0.364990234375	0.031005859375	0	0	0	-0.608007320547667	-0.438024025065342	-0.522935644527081	0.406202367434078	0.0693465302972065	0.107808233985834	0.991750192044647	0.957479021276097	-0.286269180313015	-0.0358312743156438	0.280044608146465	0.952064777779207	-0.123075896747993	-163.768056517788	-82.6352404408938	57.2492691939807
61268	1657020020251	9.53105091653002	-0.345315416412742	-1.22025160329364	-0.0115662283459578	-0.0345662166208051	-0.197706361838891	0.000154591377993865	0.00396411070722234	0.00736160224099288	0.625	0.37158203125	0.034423828125	0	0	0	-0.608022811086547	-0.438034732427995	-0.522920194306891	0.40618752414518	0.069360087145556	0.10786290062676	0.991743299941846	0.957477536830891	-0.286274536831087	-0.0358281457292459	0.280046326123751	0.952056975306902	-0.123132331229703	-163.776446685507	-82.6321604833874	57.2573882920382
61269	1657020020251	9.52924979217245	-0.326122098421825	-1.23390517957583	0.00334944333799095	-0.0538759794846889	-0.198501732099039	0.00213874441023038	0.00552882465099087	0.00589334917902911	0.629150390625	0.364990234375	0.028564453125	0	0	0	-0.608016901536222	-0.438011243486429	-0.522920347389397	0.40622150153816	0.0694009217312498	0.107793500802539	0.991747988779199	0.957479455608046	-0.286260484535111	-0.0358890941964767	0.280029648700585	0.952069060614017	-0.123076803948471	-163.743359299386	-82.6342557016872	57.2252629523577
61270	1657020020252	9.56544653216634	-0.345974015082652	-1.2229957646718	-0.0103028809012144	-0.0334005100931449	-0.16323337569567	0.00226679856498364	0.00244338444401256	0.00687713840648018	0.62841796875	0.3623046875	0.029296875	0	0	0	-0.608021218635274	-0.438038741223374	-0.522904994576206	0.406205152015551	0.0693848556694014	0.107860292873158	0.991741851000074	0.957487104119232	-0.286238871326931	-0.0358574118816917	0.28000747713071	0.952067994295997	-0.123135482246564	-163.764285969523	-82.6315131400899	57.247451018416
61271	1657020020253	9.54956082252143	-0.336854058580906	-1.20702703881592	0.00233361895920978	-0.0228908836250048	-0.181282097607712	-0.000721513740068254	0.00172059348067756	0.00602788770880187	0.63330078125	0.372802734375	0.033203125	0	0	0	-0.60803119459867	-0.438015280403056	-0.522899744295222	0.406222276523998	0.0694369430988485	0.10782685934904	0.991741841073578	0.957480957434725	-0.286252152378187	-0.0359154758946394	0.280015583643072	0.95206778837527	-0.123118638943305	-163.737276535821	-82.631508705427	57.2197997698406
61272	1657020020253	9.54770790230963	-0.317663826980516	-1.22112705581578	0.0166933968967368	-0.0410561485096966	-0.182068302969313	-0.00264181682538376	-0.00138644985151296	0.00798790413024629	0.62451171875	0.363525390625	0.035400390625	0	0	0	-0.608062715862048	-0.43803523997566	-0.522873122825185	0.406187837761025	0.0694576519330114	0.107936388958334	0.991728476210393	0.9574752016932	-0.28627313798898	-0.0359016518910982	0.280030128255014	0.952049067225308	-0.123230275764126	-163.757156037223	-82.6255403575445	57.238499169093
61273	1657020020254	9.53102933046924	-0.348391633341091	-1.21954558700339	-0.0128501449922221	-0.0323630863932986	-0.197700324107455	-0.000298568163288232	-0.00583123079839699	0.00336842408543639	0.627197265625	0.365478515625	0.03125	0	0	0	-0.608085681215798	-0.438036379636108	-0.522849461925094	0.406182686214282	0.0695051405598619	0.107982502755795	0.991720129136416	0.957472098477503	-0.286279511070084	-0.0359335800966383	0.280028955775722	0.952041921682059	-0.123288131168779	-163.750699520535	-82.621815239855	57.2318153943058
61274	1657020020254	9.53097578511441	-0.348891056411261	-1.21982125145012	-0.0132706531306748	-0.0315529576347583	-0.19769820261668	-0.00270527318612107	0.0001565275593888	0.00749600339223205	0.63330078125	0.364013671875	0.02978515625	0	0	0	-0.60811486363339	-0.438034098267603	-0.522837668332559	0.406156637217225	0.0695338026549209	0.108042113508663	0.991711627438606	0.957458070230451	-0.286325829598567	-0.0359383229335199	0.280069802083209	0.952021229287075	-0.123355117233937	-163.757027600524	-82.6180230385586	57.2354554940927
61275	1657020020255	9.5475486546623	-0.319232904791857	-1.22196268508919	0.016247305491802	-0.0402433603588416	-0.182064109374714	-0.00445853520287441	-0.0043311001778646	0.00482889789730523	0.622314453125	0.36181640625	0.02587890625	0	0	0	-0.608145432357308	-0.438016814375578	-0.522824941828974	0.406145889587405	0.0695907010516018	0.10806944772119	0.991704658049151	0.957442252111636	-0.286373573391052	-0.0359793042545032	0.28010974313391	0.952003766238599	-0.123399193145572	-163.744984731495	-82.6149157712358	57.2207220583784
61276	1657020020256	9.52907408114365	-0.330152990556457	-1.23419016946874	0.00146843946585906	-0.0496200128657059	-0.198478353239107	-0.00338618389414352	0.00358202877772488	0.00791314703590252	0.630126953125	0.37060546875	0.039306640625	0	0	0	-0.608181394751238	-0.438015185907161	-0.522803012559167	0.406122023599084	0.0696394139475511	0.108141738566027	0.991693358052256	0.957429008182931	-0.286415197725001	-0.0360004000255181	0.280142903381275	0.951983034981226	-0.12348382401369	-163.746515657066	-82.6098804853675	57.2199124937565
61277	1657020020257	9.55010952286581	-0.300364820699094	-1.19372628352043	0.0433331685889564	-0.0178683478933454	-0.183689684133649	-0.00133806814922682	0.00360338863797445	0.00693686131270344	0.622802734375	0.374755859375	0.034912109375	0	0	0	-0.608189613589442	-0.437983666234237	-0.522803044323483	0.406143667782768	0.0696945699162289	0.108087941551902	0.991695348287601	0.957420525350049	-0.286435258463954	-0.036066332598762	0.280158177754333	0.951983108883641	-0.123448595932117	-163.713923857256	-82.6107670879496	57.1862773787745
61278	1657020020258	9.54941104475882	-0.341006197189004	-1.20704613077558	-5.10452595146697E-05	-0.0190027479625161	-0.18127335894426	-0.000524633743994816	0.00739009717866169	0.00777861892189287	0.6279296875	0.367431640625	0.03955078125	0	0	0	-0.608165467712301	-0.437993179520062	-0.52283061704256	0.406134072024353	0.0696202411536073	0.108065998798233	0.99170296053075	0.957423308712231	-0.28643418046965	-0.0360009471153707	0.280167146461246	0.951985924350996	-0.123406522847629	-163.73663842823	-82.6141591380538	57.2088201534242
61279	1657020020259	9.53362008936216	-0.33206651504019	-1.19030321431642	0.0125670651454028	-0.00850370587172772	-0.199323149503426	-0.0110184950806453	0.0134565121059241	0.0106917078716677	0.6279296875	0.365234375	0.035400390625	0	0	0	-0.60817525601202	-0.43790507033361	-0.522874990118626	0.406157299650366	0.0696817881691254	0.107907068435625	0.99171594369516	0.957385044600795	-0.286550794633677	-0.0360904207448582	0.28028258021555	0.951968858039189	-0.12327598529834	-163.68201878889	-82.6199480722655	57.147348188614
61280	1657020020260	9.52932531434022	-0.333284881891201	-1.23140550998862	-0.000388537357572275	-0.0484438158622875	-0.198472250412694	0.00197385015529288	0.00690917925376565	0.010520801115176	0.625732421875	0.361083984375	0.02783203125	0	0	0	-0.60817221789807	-0.437886978705132	-0.522881182446497	0.406173382068284	0.0697005258476899	0.107860553467256	0.991719687059955	0.957382226643884	-0.286556355159407	-0.0361210108407297	0.28028754664265	0.951972455653783	-0.123236905485131	-163.664021807664	-82.6216180028894	57.1290672843335
61281	1657020020261	9.5345281256821	-0.294006895215716	-1.17465903370548	0.0540962598321141	-0.00620461353280019	-0.201728750445874	-0.00325234024424572	0.0107956231496716	0.00917157421011628	0.629638671875	0.365966796875	0.02685546875	0	0	0	-0.608169604640697	-0.437828915134475	-0.522904107773676	0.406210373004879	0.0697542702911685	0.107730331106141	0.991730062837619	0.957366621764254	-0.286597947870812	-0.0362045274508359	0.280327475121233	0.951974680354473	-0.123128853873305	-163.614674635311	-82.6262486464648	57.0773624396681
61282	1657020020263	9.53316996397182	-0.374649481520382	-1.20099869883533	-0.0304660667913154	-0.00851664294471977	-0.196914450726041	-0.0198481657118848	0.0185073468116035	0.00939971395162997	0.63525390625	0.361572265625	0.033447265625	0	0	0	-0.608202073377534	-0.437754602517813	-0.522958617968501	0.406171675287945	0.0697703837338945	0.107664557830715	0.991736072017522	0.957308469696853	-0.286790956336512	-0.0362138262305779	0.280521990938847	0.951923993998842	-0.123077708172519	-163.604247050314	-82.6289318281513	57.0553569870179
61283	1657020020264	9.50157662407764	-0.355929137579281	-1.1677532964926	-0.00519971886747614	0.0124747438328708	-0.233015724928105	-0.0209546022455928	0.0191889577045066	0.0122002641667675	0.62646484375	0.366455078125	0.043212890625	0	0	0	-0.60822022243886	-0.437624259940865	-0.52303927273877	0.406181101604361	0.069829852568217	0.107446513484994	0.991755533602016	0.957241185418504	-0.287003839621356	-0.0363057706319058	0.280736717635722	0.951884469241156	-0.122893663744733	-163.54158070466	-82.6376283687457	56.9800241915379
61284	1657020020265	9.50448628188923	-0.436433686928777	-1.15264916182564	-0.0775346013603167	0.0495927556061759	-0.229062639393886	-0.00823442825237914	-0.0017877034557837	0.0095110000591795	0.628173828125	0.360107421875	0.03076171875	0	0	0	-0.608264589313061	-0.437585894331461	-0.523040321429913	0.40615464619827	0.0698948144812586	0.107465495213838	0.991748900804571	0.957206522005021	-0.287113976907387	-0.0363488444861191	0.280838724430379	0.951849111783411	-0.122934451060103	-163.528282852208	-82.6346633112879	56.9603027011867
61285	1657020020266	9.52632904106851	-0.397274773385642	-1.26962274670437	-0.0704637730867489	-0.0697846263732343	-0.194429787430462	-0.00217196672292306	-0.0207806894509814	0.00553751778780684	0.631103515625	0.362548828125	0.029541015625	0	0	0	-0.608334423279296	-0.437605538275781	-0.522972330284462	0.406116441529582	0.0700026692544079	0.107645701914528	0.99172174986565	0.957196349088764	-0.287141657579427	-0.036398046289334	0.28084653387286	0.951820398679219	-0.123138755352378	-163.533077954533	-82.6225383897476	56.9638002670562
61286	1657020020267	9.54450913319029	-0.387487044692403	-1.25930047306692	-0.0555641072674788	-0.0582003142410387	-0.178001921019586	0.0114438004766937	-0.018917384047732	0.00473658436345272	0.6328125	0.353759765625	0.02734375	0	0	0	-0.608399870768823	-0.437678386697155	-0.522849517500503	0.406098028948857	0.0701320237353342	0.107910630822081	0.991683818060155	0.957223264797342	-0.287044041404058	-0.0364601100539049	0.280722497455234	0.951819843273929	-0.123425545866689	-163.542772530355	-82.6056321133092	56.9798227134038
61287	1657020020268	9.55741878234701	-0.318274457921224	-1.29021369557364	0.00377154473711295	-0.105518027630092	-0.163902181144827	0.0165632306312126	0.000877641256915129	0.00565770825709656	0.6318359375	0.361083984375	0.026123046875	0	0	0	-0.608375519693329	-0.437702594251848	-0.522805822658065	0.406164668352501	0.0701810215600511	0.107884579352834	0.991683186179261	0.957265593643512	-0.28689340233461	-0.0365343526452295	0.280565870053936	0.951868212114857	-0.123408667953852	-163.508946771816	-82.605350808308	56.9552132664479
61288	1657020020269	9.54162844038502	-0.309197414399643	-1.27359663175509	0.0173932878582216	-0.0936919904551567	-0.181942647045624	0.00569545111164566	0.0162066229160373	0.00562049576767304	0.623291015625	0.36474609375	0.03173828125	0	0	0	-0.608389025259182	-0.437682801198873	-0.522769538422162	0.406212468022302	0.070291550465174	0.10785181676949	0.991678921603521	0.957273834406874	-0.286850392715876	-0.0366559430203215	0.280510078059885	0.951884886852537	-0.12340688104222	-163.45683151825	-82.6034525539025	56.9060267066634
61289	1657020020269	9.56384641910026	-0.33935803179183	-1.23172762716596	0.00216541850051877	-0.0444458933911936	-0.16398305611215	-0.00448150191564458	0.0145638052124219	0.0109895078769182	0.626953125	0.36474609375	0.02392578125	0	0	0	-0.608383906119694	-0.437607794559873	-0.522801826939336	0.406259388400908	0.0703553357786725	0.107680777871016	0.99169298515446	0.957253379740024	-0.286905454953129	-0.0367590382686935	0.280563885245003	0.951887656183875	-0.123263118170026	-163.394575792627	-82.6097143800207	56.8406239270528
61290	1657020020271	9.51557517457021	-0.350978029485487	-1.19680280915661	-0.00232838481933834	-0.0134541321367289	-0.215734370537703	0.00254130773077178	0.0168679093114257	0.00939722954392187	0.62890625	0.3623046875	0.031982421875	0	0	0	-0.60837073887356	-0.43760132632314	-0.522801300669509	0.40628675009276	0.0703677584369968	0.10763320166795	0.991697268560955	0.957262167241083	-0.286872311798584	-0.0367888555440606	0.280530785728516	0.95190302584982	-0.123219753434664	-163.376323000774	-82.6116226244142	56.8243957743977
61291	1657020020271	9.49902925670398	-0.382235691735151	-1.19365702028224	-0.0318682099526219	-0.00477578122477298	-0.231380590597839	0.000805828519303662	0.0091334536474635	0.012830350588766	0.627197265625	0.3662109375	0.0244140625	0	0	0	-0.608373045136821	-0.437546117107181	-0.522801534336235	0.406342452927404	0.0704639022002159	0.107509611591783	0.991703847881061	0.957255443017368	-0.28687841270674	-0.0369160281786283	0.280529597904289	0.951915153644612	-0.123128733289238	-163.310400930576	-82.6145546462061	56.7583825091489
61292	1657020020272	9.48136797262044	-0.353778104859396	-1.19154362397169	-0.00433774475293285	-0.0122995395790214	-0.250203187029431	0.0027791522357982	0.000397227088416725	0.011087165017135	0.632080078125	0.365478515625	0.02880859375	0	0	0	-0.608410363341031	-0.437565030012861	-0.522738938264067	0.406346744433415	0.0705616938647996	0.107611666286541	0.991685825570763	0.957264729295275	-0.286838335596419	-0.0369865824255421	0.280473323876221	0.951915699267173	-0.123252651421842	-163.296155424848	-82.6065259010528	56.7468745011125
61293	1657020020273	9.49897803540869	-0.384448270967679	-1.19335398993497	-0.0319148347882863	-0.00346724126318101	-0.231380182905527	0.0091106415160012	-0.00417290254935644	0.00963678962058234	0.638916015625	0.364501953125	0.02880859375	0	0	0	-0.608423644514085	-0.437568660969929	-0.522686704422202	0.406390138602599	0.070664551914481	0.107624794353196	0.991677076846671	0.957283683376693	-0.286761444367088	-0.0370920957247376	0.280382721727779	0.951937381167971	-0.123291328533636	-163.256128843057	-82.6026315630359	56.7117996794424
61294	1657020020274	9.49269953586385	-0.36590564467088	-1.25028280621438	-0.0290442977814893	-0.0618502048490725	-0.23125900898223	0.00848125328427076	-0.0125880838228363	0.0102695493438436	0.631591796875	0.365966796875	0.03662109375	0	0	0	-0.608485965008091	-0.437634293317445	-0.522556150822112	0.4063940513082	0.0708225891010389	0.107861228242565	0.991640114313167	0.957316072917032	-0.286640200747699	-0.0371931694001975	0.280232220502458	0.951947136535073	-0.123557888598574	-163.247250783901	-82.5862008052714	56.7107608113015
61295	1657020020275	9.53919843899162	-0.336486634716739	-1.29867519626604	-0.00989167669527383	-0.110787255906784	-0.180256951886152	0.00767933973193251	-0.00607516259476806	0.00970268883713987	0.63330078125	0.3681640625	0.018310546875	0	0	0	-0.608507501727646	-0.437637939668257	-0.522500684311341	0.406429193093067	0.0709321373142064	0.107892875627064	0.991628841495124	0.957331001687999	-0.286576689529283	-0.0372981799219514	0.280153502749995	0.951962671751031	-0.123616691791797	-163.210152569206	-82.581196960706	56.6778344903082
61296	1657020020276	9.52941248046783	-0.3473475542213	-1.22683606324692	9.46941863927062E-05	-0.0389702910026914	-0.198429175661206	0.0148418383860351	0.003439687518702	0.00936881311168211	0.6318359375	0.36376953125	0.029541015625	0	0	0	-0.608502713832901	-0.437710727187938	-0.522409753496496	0.406474865169215	0.0709947375126733	0.108003462504123	0.991612323104462	0.957389198966408	-0.28637500658055	-0.0373534109346141	0.279938687837117	0.952010823306706	-0.123732466874797	-163.20153766024	-82.5738707366711	56.6815768719045
61297	1657020020277	9.51354862687453	-0.338655148546057	-1.21065660646039	0.0127383477535918	-0.0284607865385152	-0.216489583441444	0.00918925963449439	0.00458493102094192	0.010402259522906	0.631103515625	0.3642578125	0.031005859375	0	0	0	-0.608494902054019	-0.437695030305723	-0.522381639920563	0.406539588347611	0.0710809654391511	0.107932755483513	0.991613844521129	0.957408022898135	-0.286297247103654	-0.0374668385529539	0.279852414751994	0.95204222941769	-0.123685970760117	-163.147438872856	-82.5745452137039	56.6324131598299
61298	1657020020278	9.53017896099147	-0.309697129872471	-1.21266339938173	0.042399144616281	-0.0360686949631247	-0.200836497347153	0.0066340506706265	-0.00693447863845662	0.0129959842617041	0.626953125	0.369384765625	0.028564453125	0	0	0	-0.60854841405404	-0.437720485145167	-0.522286315475591	0.406554558827624	0.0712355631024227	0.108072448928344	0.991587535385611	0.957423979207881	-0.286228335161511	-0.0375854252126667	0.279758500473583	0.952047102791296	-0.123860790726815	-163.119635177409	-82.5628903713707	56.6092708903703
61299	1657020020279	9.49482523664945	-0.351334354138713	-1.22422461437076	-0.00174426410427114	-0.0380257429240846	-0.232895161250857	0.0012548386712099	-0.0205564346604054	0.0101140113676871	0.624267578125	0.365478515625	0.0341796875	0	0	0	-0.608621819743698	-0.437736081451626	-0.522199518072127	0.40653937921496	0.0713895726412293	0.108242125114341	0.991557951543345	0.957420796727915	-0.286225712285782	-0.0376863319969238	0.279730132290013	0.952028615104204	-0.124066792945508	-163.103400017674	-82.5498065024896	56.593713387161
61300	1657020020280	9.56062568661667	-0.371488641918044	-1.26114180433496	-0.0259257083639761	-0.0579598526470014	-0.162298037416646	0.0015818640522102	-0.0179705209220177	0.0128472127227768	0.624267578125	0.36279296875	0.034912109375	0	0	0	-0.608681868912076	-0.437788665816379	-0.522116856570519	0.406499021678205	0.0714701443352691	0.108468063800044	0.991527456808013	0.957428029390507	-0.286199258914755	-0.0377034843755409	0.279684799383355	0.952010852528539	-0.124305066919165	-163.126707544917	-82.5363436494774	56.6189149514864
61301	1657020020282	9.54014902507847	-0.363085885492702	-1.2888512535948	-0.0256295708613526	-0.0878860875198235	-0.179461977413036	0.00338266241074716	-0.0117807125092663	0.00990321510987275	0.628173828125	0.36962890625	0.03271484375	0	0	0	-0.608727145787774	-0.437793098220488	-0.522052936384052	0.406508544491215	0.0715958695265917	0.108555127616997	0.9915088581222	0.957431044884379	-0.286176012812281	-0.037803227143605	0.27964231753856	0.952007916962314	-0.124423069736847	-163.099743592475	-82.5281445205135	56.5937647030344
61302	1657020020283	9.55590202903623	-0.373920575307172	-1.30514498061057	-0.0390112046401286	-0.0978371890026433	-0.161397835847341	0.00278536217279944	0.000401727533702268	0.011085012161065	0.628173828125	0.368896484375	0.02880859375	0	0	0	-0.608736742856428	-0.437794096174954	-0.522038349112391	0.406511831693631	0.0716245828207282	0.108573173270635	0.991504808451124	0.957432235318626	-0.286168920094888	-0.0378267622789141	0.279630888688172	0.952007991152212	-0.124448185498195	-163.093040339702	-82.5263604309171	56.5875826951594
61303	1657020020283	9.52335814989485	-0.395288103200572	-1.28701271495879	-0.0559241554789407	-0.0786722489659976	-0.195115531962129	0.00397130836342189	0.0084746827012988	0.0090493975280504	0.626220703125	0.364013671875	0.030517578125	0	0	0	-0.608725647593903	-0.437761594389093	-0.522037165933193	0.406564963841872	0.0716839677247178	0.108469377088995	0.991511877389861	0.957437463055964	-0.286139433308353	-0.0379173976287143	0.279597770213214	0.952028685985826	-0.124364255121393	-163.044068910052	-82.5294749397776	56.5405500821821
61304	1657020020284	9.54452524866214	-0.365744049106926	-1.245967717439	-0.0145323747180147	-0.0456525530864726	-0.180352702502757	0.00745273484675667	0.0103953461557044	0.00800606170902524	0.62841796875	0.3603515625	0.0341796875	0	0	0	-0.608704861407267	-0.437792413731973	-0.522014596842929	0.406591877514551	0.0716771263232951	0.108478951011012	0.991511324569511	0.957466531092483	-0.28604169523585	-0.0379208441932534	0.279499966725869	0.952056965614008	-0.124367611644214	-163.043047505207	-82.5292313257227	56.54539133256
61305	1657020020285	9.53051252294764	-0.376668091395775	-1.21517099915903	-0.0168490617962776	-0.0158348525332315	-0.197665073882792	0.00397172519664585	0.0084755035203125	0.00904901125432917	0.63818359375	0.36279296875	0.02880859375	0	0	0	-0.608693514242505	-0.437760413764658	-0.522013530475376	0.406644685026544	0.0717353882824572	0.108375793941818	0.991518391839226	0.957471904660834	-0.286011840560516	-0.0380102465703865	0.27946660954955	0.952077682936989	-0.124283948280592	-162.99459087765	-82.5323462893529	56.4988915958805
61306	1657020020286	9.49622383982093	-0.378229800978132	-1.2108888571364	-0.018131604765635	-0.0151587788492717	-0.232133195682312	0.00503696339729167	0.00609179005132503	0.0118582286104631	0.625	0.351318359375	0.023681640625	0	0	0	-0.608731616084748	-0.437731213071449	-0.521957500510798	0.406691003517865	0.0719035055270351	0.108370818134615	0.991506758257228	0.957472496840268	-0.285987625521258	-0.0381771638964494	0.279421372996747	0.952085523377783	-0.124325590636304	-162.929636018381	-82.5272193685005	56.4359215093104
61307	1657020020287	9.54465961353177	-0.368923716317572	-1.24399944855479	-0.0139320348971059	-0.0447389002297481	-0.18034752853897	0.000183443355544911	0.000727526381168199	0.0134607094761978	0.62548828125	0.353515625	0.02783203125	0	0	0	-0.608758089911112	-0.43769123676283	-0.521932008868529	0.406727116562518	0.0720267187589714	0.108328360507586	0.991502454911007	0.957463964542705	-0.285998867827528	-0.0383067122517557	0.279418876218094	0.952086978122856	-0.124320061542402	-162.87437674617	-82.5253237692923	56.3803631703023
61308	1657020020288	9.50764184802073	-0.390677587133458	-1.26855945207818	-0.041410464080725	-0.064916359583133	-0.213145887807119	0.00407474393712615	-0.00490800916687574	0.00976097900007959	0.638427734375	0.369384765625	0.029052734375	0	0	0	-0.608874486134575	-0.437649768762328	-0.521823593458949	0.406736619136056	0.0723256344237412	0.108458027746316	0.991466519264561	0.957437084501997	-0.286056005112104	-0.0385511499130877	0.279433770016297	0.952055049961232	-0.124530919926723	-162.798996217355	-82.5095129467078	56.3025151700998
61309	1657020020288	9.54194181348869	-0.391048882616612	-1.27214636959162	-0.0394522624271664	-0.0647016611110503	-0.178675407524615	0.00165924032748524	0.00433030034451714	0.00778307542794462	0.626220703125	0.359619140625	0.030029296875	0	0	0	-0.608876891249959	-0.437623341750575	-0.52181629787427	0.406770811796565	0.0723871240557019	0.108398201537028	0.99146857447651	0.957436757917007	-0.286046634850846	-0.0386287105645264	0.279418966536482	0.952064678787132	-0.124490515886311	-162.761175830113	-82.5104162959345	56.2654376434379
61310	1657020020289	9.54635990191414	-0.391666747519467	-1.22942480192342	-0.0269392267103512	-0.0230129595508312	-0.179587129565709	0.0069644773564672	0.00919500279113144	0.00989759905001963	0.63037109375	0.365966796875	0.038818359375	0	0	0	-0.608880088874398	-0.437639168999548	-0.521763993121875	0.406816089420276	0.0724685864778016	0.108415577666428	0.991460723626087	0.957463526795023	-0.285945254292358	-0.0387157126360184	0.279306102387945	0.952093154090992	-0.124526009740621	-162.729288877996	-82.5069661111558	56.2399122690628
61311	1657020020290	9.52801084632932	-0.402947528365091	-1.24032327751687	-0.0415560681716244	-0.0336325942311678	-0.195988298901359	0.00610655428344589	0.0172506351457213	0.00883599322790308	0.628173828125	0.37255859375	0.033203125	0	0	0	-0.608842074606565	-0.437595020835387	-0.521784010183191	0.406894793092758	0.0725040889144497	0.108230126920643	0.991478389435406	0.957474914371039	-0.285894450188156	-0.0388091703310375	0.279257847590461	0.952129509561779	-0.124356148142299	-162.667857762107	-82.5147318644288	56.1816037887658
61312	1657020020291	9.52643737515459	-0.383858733777311	-1.25287408795651	-0.0278709354587387	-0.052604187608607	-0.196736765698921	0.0113705910614861	0.0150586184606576	0.0045773954806056	0.63037109375	0.367431640625	0.031005859375	0	0	0	-0.60875844994055	-0.437621180056106	-0.521824541173943	0.406939799750386	0.0723737019898117	0.108108833883896	0.991501148409095	0.957513531044541	-0.285775404290834	-0.0387331404487729	0.279159246894857	0.952179026411879	-0.124198295215439	-162.679110823881	-82.5247483573126	56.1995807120085
61313	1657020020292	9.52653270261243	-0.384574450321721	-1.25192934747299	-0.0279022057386198	-0.0525753402283308	-0.196736698617043	0.0103017580995618	0.00390136914491232	0.00759961963533252	0.6337890625	0.3623046875	0.02783203125	0	0	0	-0.608743290465758	-0.437619002007155	-0.521798367644859	0.406998377046327	0.0724321452108455	0.108053084950592	0.991502957722676	0.957537440058114	-0.285683860327835	-0.0388173007193981	0.279062063396495	0.95221282431022	-0.124157569209633	-162.638382754583	-82.5255452302714	56.1645302715244
61314	1657020020293	9.54326197066955	-0.355115971405155	-1.25367180253471	0.00180449837920834	-0.059917497896457	-0.181069844682437	0.0105878292566147	-0.000569985624181467	0.00395967380942413	0.63134765625	0.358642578125	0.0234375	0	0	0	-0.608750463605694	-0.437686893517705	-0.521717307849292	0.407018558536538	0.0724824678666173	0.108186945477314	0.991484683028565	0.957581451894842	-0.285532152499319	-0.0388478168765246	0.278897929068918	0.952243127944431	-0.124293887394652	-162.643465277805	-82.5175004153925	56.1789329841213
61315	1657020020293	9.50891830499179	-0.356129361371404	-1.24999611532238	-0.000188564780142543	-0.0600750989050387	-0.215540043150899	0.00636978753362428	0.00248160238578554	0.00492447756226186	0.63134765625	0.365478515625	0.02880859375	0	0	0	-0.608741174961618	-0.43768575143166	-0.521700678063579	0.407054993100507	0.0725191710034097	0.108152945361535	0.991485708543801	0.957596409000335	-0.285474831171298	-0.0389003629466632	0.278837026426982	0.95226417614932	-0.124269270199897	-162.61816609165	-82.5179516359475	56.1571892669026
61316	1657020020294	9.52568454609251	-0.326525198303387	-1.25154008196535	0.0301030854519872	-0.0670028586642453	-0.199870827321053	0.0042001213656043	0.00555006119868035	0.00491409851314939	0.635986328125	0.3671875	0.0341796875	0	0	0	-0.60877129603244	-0.4377219575112	-0.521620898559204	0.407073255355636	0.0726222521977034	0.108269292275846	0.991465465276437	0.957620961227955	-0.285381705373457	-0.038979184893818	0.278725856537534	0.952278868078162	-0.124406005920908	-162.603058995731	-82.5090497180847	56.1480389213872
61317	1657020020297	9.5107663436309	-0.376887948330063	-1.2347638580072	-0.0143779239310299	-0.0390090362110816	-0.214789974626141	-0.00251579721936192	0.00908323139501684	0.00313605868695477	0.63134765625	0.371826171875	0.02978515625	0	0	0	-0.60875929407105	-0.437690032645352	-0.521646692630481	0.407092477543751	0.0726243267811835	0.108178861579347	0.991475184292062	0.95761263960113	-0.285406300100403	-0.0390035426487867	0.278753905148855	0.952281774355887	-0.124320885589944	-162.581646609289	-82.5133223134318	56.1251298590654
61318	1657020020298	9.49496758195714	-0.367400418022083	-1.21839040785597	-0.00247777335747115	-0.0274534239606328	-0.232859191345353	-0.00233396727786006	0.00445555366752511	0.00461418238317724	0.62646484375	0.35791015625	0.024658203125	0	0	0	-0.608741836410148	-0.437738808465776	-0.521633813837061	0.407082640785338	0.0725657996495292	0.108243711347456	0.991472391786555	0.95763599318633	-0.285336918268395	-0.0389377403957318	0.278688911288653	0.952295196893707	-0.124363775666074	-162.614895768656	-82.512094446475	56.1623864473159
61319	1657020020299	9.50735579905146	-0.337978283978322	-1.26233008361907	0.0146953002931538	-0.0764820192868804	-0.2162580583931	-0.00657747638238167	-0.00279255990787224	0.00530987422890585	0.6328125	0.36767578125	0.032958984375	0	0	0	-0.608773436855727	-0.437714207622701	-0.521628365340914	0.407068819115225	0.072620241833995	0.108260279677445	0.991466596673904	0.957614850462767	-0.285402497898735	-0.0389770748817098	0.278747374246187	0.952273661316601	-0.124397649951806	-162.602845892925	-82.5095469692987	56.146566149384
61320	1657020020301	9.50642773728684	-0.378394574610507	-1.27642381160826	-0.0272317258132817	-0.0770642240415245	-0.213837012186991	-0.00862573186229138	-0.00280898581685333	0.00628467077695438	0.632080078125	0.3662109375	0.030517578125	0	0	0	-0.608838326720416	-0.437717050080341	-0.52158270113128	0.407027224968853	0.0727105398991234	0.108401113829375	0.991444590437675	0.957594551562271	-0.285465244406237	-0.0390162665351416	0.278793565574659	0.952238831783623	-0.124560648029504	-162.607822089193	-82.4998810708071	56.1480871742439
61321	1657020020302	9.5222870476552	-0.388665368902614	-1.29208219832093	-0.0399110840180339	-0.0874751418531612	-0.195762543255244	0.00121017430309866	0.00483116869828193	0.0040646587147646	0.6259765625	0.368896484375	0.02978515625	0	0	0	-0.608831549924936	-0.437701288590914	-0.521585677118594	0.40705049712117	0.0727319267811834	0.108349289549084	0.991448686660538	0.957596126198707	-0.285454949518524	-0.03905292414925	0.278782578214505	0.952247816090741	-0.124516548436293	-162.586675529139	-82.5016793348619	56.1276139071074
61322	1657020020303	9.51085865313471	-0.378956284136344	-1.23341908894071	-0.0157585722358766	-0.0352743436374904	-0.214777689772271	-0.000198001333195349	0.0132297696189211	0.0044013755571829	0.628662109375	0.36328125	0.02978515625	0	0	0	-0.608792691745547	-0.437740555559074	-0.521595995874325	0.40705316800624	0.0726416462134089	0.108351897129972	0.991455020474324	0.957621107290027	-0.285381848869834	-0.0389745456453112	0.278720300853794	0.952269429690973	-0.12449067100791	-162.616121845316	-82.5044607579074	56.1611753767686
61323	1657020020304	9.50662422687209	-0.379683108145266	-1.27457643434359	-0.028127632969697	-0.0756558183449572	-0.213828391630802	0.00624912091540981	0.00556594854192705	0.00394026406482251	0.630859375	0.364990234375	0.029052734375	0	0	0	-0.608773088746041	-0.437737459058548	-0.521590691110426	0.407092611456557	0.072658135767828	0.108294136910684	0.991460122857957	0.95763700313298	-0.285323045268893	-0.0390144853736604	0.278661381495948	0.95229362055474	-0.124437513288857	-162.592398017066	-82.5067021588226	56.1410264959801
61324	1657020020305	9.5286093981045	-0.409441680354737	-1.23357991522707	-0.0433773286941575	-0.0251114427289457	-0.195970315564752	0.00680248826847326	0.00522341707795804	0.00254037287911494	0.63037109375	0.37060546875	0.02197265625	0	0	0	-0.608767598499811	-0.437785900739392	-0.521547699280161	0.407103811706723	0.0726630049787395	0.108371630172743	0.991451298592705	0.957667855628043	-0.285219983215312	-0.0390107609697957	0.278554062982835	0.952315678201488	-0.124508967738856	-162.603345686457	-82.5028262111677	56.1582103056225
61325	1657020020306	9.49342807840586	-0.350351087232254	-1.23021464504061	0.0117190168948221	-0.0427286080281065	-0.233575317326325	0.00515949934266828	-0.00235080015429396	0.00086124553399936	0.6279296875	0.365234375	0.03271484375	0	0	0	-0.608764081297096	-0.437805770434434	-0.521526829614989	0.407114439302455	0.0726717467320998	0.108398649610384	0.9914477041123	0.957683060889958	-0.285167881371518	-0.0390183843658471	0.278499501097124	0.952328206133119	-0.124535198606371	-162.603595036243	-82.5012479517668	56.1616288134154
61326	1657020020307	9.52512104815099	-0.370310106966934	-1.26193199080387	-0.0142617267274242	-0.0617815524741307	-0.197412403496626	0.00411327343339413	-0.00320783840793179	0.00415358075556769	0.632568359375	0.370361328125	0.033447265625	0	0	0	-0.608762173249753	-0.437920533269166	-0.521449939515182	0.407092352594715	0.0726311342417238	0.108622345812042	0.991426197116583	0.957735476362472	-0.285002846000299	-0.0389375793865004	0.278329796564275	0.952352121729153	-0.124731554077027	-162.663147941323	-82.4918115817614	56.2310403646587
61327	1657020020308	9.53920098547814	-0.360606676209969	-1.2921666560468	-0.0120389419158568	-0.0914603276503611	-0.180056499179143	0.000180663237593387	-0.00462786218146161	0.00147836143375839	0.634033203125	0.35791015625	0.031494140625	0	0	0	-0.608775813556458	-0.437931187071708	-0.521431641356261	0.407083931899986	0.07265063756496	0.108670943821909	0.991419442431033	0.95773671494339	-0.284997895557623	-0.0389433483045585	0.278320444291915	0.952348059008145	-0.124783431562726	-162.667510060141	-82.4888503406548	56.2357741986438
61328	1657020020309	9.52238795948942	-0.390943629490535	-1.2906503827014	-0.04134510960625	-0.0822204406352604	-0.195722240637027	-0.000372486007052466	-0.00428499532947404	0.00287815421899297	0.62548828125	0.3623046875	0.03076171875	0	0	0	-0.608809721873989	-0.437947081964306	-0.52138899620131	0.407070743963327	0.0727117360782801	0.108768469176508	0.991404268474512	0.957737295488347	-0.284991525616186	-0.0389756739213774	0.278302490587399	0.952338831740027	-0.124893848098667	-162.668402161763	-82.4822023363329	56.2372671733865
61329	1657020020310	9.52231151875435	-0.391110583858809	-1.29116367906897	-0.0414114915764457	-0.0821455329647565	-0.19572188612155	0.000794092460797733	-0.00651319789578592	0.000571256203835691	0.627197265625	0.36767578125	0.028564453125	0	0	0	-0.608825023731276	-0.437965636078682	-0.521365657454685	0.407057788673365	0.0727279056820789	0.108836974330696	0.991395564219267	0.957740780785653	-0.28498011658909	-0.0389734521046822	0.278286270870817	0.952334419291568	-0.124963615814388	-162.678427750068	-82.4783914702807	56.2480476768581
61330	1657020020312	9.52395743358837	-0.411159185102235	-1.27757101388442	-0.056947636451848	-0.0616417889860658	-0.194997306876855	0.00472706432263886	-0.00509312207493324	0.00324610752111444	0.63134765625	0.3701171875	0.032470703125	0	0	0	-0.608835943483738	-0.438036549169382	-0.521316938581617	0.407027548283821	0.0727052622793428	0.109004080608398	0.991378865645022	0.957765502167208	-0.284905113059685	-0.0389142571668301	0.278207094976548	0.952337748366181	-0.125114448971907	-162.722776467161	-82.4710859287651	56.2968795599858
61331	1657020020313	9.52389790153292	-0.411421457371951	-1.27793031536051	-0.0570261755889426	-0.0615608706423659	-0.194997253956128	0.00161588398181808	-0.00272604756347616	0.00141055537861001	0.62451171875	0.360595703125	0.026611328125	0	0	0	-0.608841250823953	-0.438047525486914	-0.521301780353288	0.407027211019618	0.0727176384305682	0.109034787162059	0.991374581200066	0.9577708261891	-0.284886429808767	-0.0389200027217775	0.278185530828132	0.952339822384499	-0.125146606580168	-162.724553302144	-82.4692126417083	56.299827320365
61332	1657020020314	9.54061509485501	-0.381470159438563	-1.28006104593351	-0.0279298919816852	-0.0689174852959516	-0.179313993813389	0.0101989138861526	-0.00161651011528784	0.000735508353450857	0.627685546875	0.35595703125	0.03271484375	0	0	0	-0.608828580286046	-0.438135780775201	-0.521247241277448	0.407021020209071	0.0726767021303095	0.109182002911947	0.991361380732373	0.957816338615589	-0.284741853424944	-0.0388579256929043	0.278039490807492	0.952366193828962	-0.125270405137234	-162.766507949528	-82.4634439141617	56.3503872189106
61333	1657020020315	9.51061766175933	-0.381805606245339	-1.23439817852621	-0.0176654913846643	-0.0286224916953647	-0.214758868228861	0.0115739701100572	0.00182781328806008	0.00017455128065165	0.63720703125	0.361328125	0.026123046875	0	0	0	-0.608798813076791	-0.438167687925356	-0.52122674857616	0.407057439464215	0.0726635076537446	0.109173485363777	0.991363285959784	0.957850387986457	-0.284626636469969	-0.0388627333828497	0.27792561754838	0.952401610616717	-0.125253835091123	-162.762357048708	-82.4642762452	56.3531238834996
61334	1657020020316	9.50891438964246	-0.362197318702416	-1.24828120122761	-0.0010660189495369	-0.0471016479950306	-0.2154676598614	0.0145650883669835	0.00254641668045937	0.00102416909892529	0.634521484375	0.3642578125	0.03466796875	0	0	0	-0.608839974138334	-0.438166984266975	-0.521139587401264	0.407108229139203	0.0728464486832487	0.109226721616226	0.991343995896082	0.957867579861281	-0.284545167331053	-0.0390352046137348	0.277818455767309	0.952419850188726	-0.125352840420765	-162.703273904933	-82.4558532698111	56.2995350323023
61335	1657020020317	9.54500362662504	-0.381692571032387	-1.2374905599014	-0.0141115252448616	-0.027477621776946	-0.180283083564273	0.00708802340945019	0.000750625601072006	-0.00110019745824227	0.632568359375	0.369384765625	0.02734375	0	0	0	-0.608819895920563	-0.438192724963588	-0.521127662418486	0.407125815421357	0.0728261905024601	0.109231849409456	0.991344919314912	0.957889947412462	-0.284471412412962	-0.0390238922446876	0.277746637464884	0.952441294040932	-0.12534905975948	-162.707497113299	-82.4562562660752	56.3081322289439
61336	1657020020318	9.54499559750302	-0.381786465918167	-1.23752352704343	-0.0143183038537172	-0.0264916206648924	-0.180280626490983	0.00665548805342723	-0.00199099744280558	0.00128583315538263	0.625	0.369384765625	0.035400390625	0	0	0	-0.608810199618745	-0.438268111977826	-0.52107092830146	0.407131785227622	0.0728122994048923	0.109355118940326	0.991332349425216	0.957933268018677	-0.284329542961522	-0.0389944229647002	0.27760083407373	0.952469510777557	-0.125457594272848	-162.733838025635	-82.450772380535	56.3429946221817
61337	1657020020318	9.52913344167731	-0.371983195800811	-1.22177065022329	-0.00175082461325712	-0.0159554919857537	-0.198363593631313	0.00553242216145583	0.00193384705311367	-0.00201835535101173	0.636474609375	0.35888671875	0.02880859375	0	0	0	-0.608788024357498	-0.438290303508665	-0.521068084901248	0.407144694361259	0.0727793214952571	0.109351563599127	0.991335163252629	0.957951988273227	-0.284269615407519	-0.0389714500555631	0.277544876598473	0.95248780637575	-0.125442497501647	-162.741452401651	-82.4519996293303	56.3541083377941
61338	1657020020319	9.52914400906547	-0.371686871207955	-1.22177842127277	-0.00181816157723931	-0.0154809739431508	-0.198362830351169	0.00581684332355599	-0.00253987115366056	-0.00565603173160094	0.6259765625	0.367431640625	0.021240234375	0	0	0	-0.608778963083262	-0.438341298105468	-0.521051197879827	0.407124955843387	0.0727251111264217	0.109440030016498	0.991329379188188	0.957971813732372	-0.284212353409468	-0.0389017000112068	0.277490652646102	0.952494733843416	-0.125509839035035	-162.779208535285	-82.4494771289602	56.3951590746335
61339	1657020020320	9.52911510373171	-0.37128590956194	-1.22212573229758	-0.00189641020660498	-0.0154017176624152	-0.198362718175472	-0.00325961228540479	-0.00484933415674773	-0.00308731054058766	0.633544921875	0.36376953125	0.029052734375	0	0	0	-0.608789875391017	-0.438357471908867	-0.521049474422255	0.407093428646727	0.0727003440519175	0.109503547325978	0.991324181636744	0.957966815474503	-0.284235334348638	-0.0388568547023196	0.277514396787576	0.952480576091054	-0.125564771113887	-162.804969850159	-82.44721112849	56.4194751045913
61340	1657020020321	9.52908606282284	-0.370938068334752	-1.22245774356815	-0.00187443865742355	-0.0132667859630835	-0.198359530840909	-0.00542882544318304	-0.00178067076762858	-0.00309878714806067	0.634765625	0.360107421875	0.026611328125	0	0	0	-0.608813110650206	-0.438458434787095	-0.520983124676478	0.407034864682136	0.07266156953277	0.10976189583837	0.991298452805714	0.957995078455837	-0.284153639794492	-0.038757433428158	0.277426974116488	0.952475215012711	-0.125798405471058	-162.876373644442	-82.4360039508932	56.4957331811819
61341	1657020020322	9.54233337490791	-0.400587524156978	-1.26622767672437	-0.0418321934046629	-0.0447679088455999	-0.178572196253416	0.00315477431880523	-0.000670042160391112	-0.00377470049143702	0.62890625	0.36376953125	0.023681640625	0	0	0	-0.608798627081551	-0.438485832230053	-0.520980845271302	0.40702993189388	0.0726182675878358	0.109789549375148	0.991298563531968	0.958008741250323	-0.284113618951963	-0.038713088406776	0.27739112981585	0.952483966465589	-0.125811186805728	-162.896458121582	-82.4360521465828	56.5180938078438
61342	1657020020323	9.52821909818304	-0.410287414575929	-1.23631063536437	-0.042911894490797	-0.0132075194994967	-0.195944511162256	0.00254129315232959	0.00121552616332702	-0.00286813146140482	0.6337890625	0.3681640625	0.030517578125	0	0	0	-0.608839758863031	-0.438545062935022	-0.520888734578996	0.407022483398174	0.0727063079280209	0.109980488090912	0.991270944306732	0.958034193380813	-0.284021851567403	-0.0387565755117735	0.277280141915448	0.952489307064131	-0.126015248394152	-162.904476420544	-82.4240398029156	56.531959178239
61343	1657020020324	9.54066510862315	-0.380258633835713	-1.28004875882919	-0.0257319832218339	-0.0621322733525449	-0.179261720247204	0.00186736220685078	0.00464348590008162	-0.00245484372995574	0.630126953125	0.36328125	0.0283203125	0	0	0	-0.608817418903902	-0.438554618926636	-0.520901813255785	0.407028865811921	0.0726622943298972	0.109955233788847	0.991276973174075	0.958043530784348	-0.283994697227949	-0.0387247345848247	0.277259416620923	0.952500319427162	-0.125977606685392	-162.912896643905	-82.4266603033052	56.5418662461174
61344	1657020020325	9.55920563507324	-0.369691200451812	-1.26745599044592	-0.0111715853611465	-0.0503952786180345	-0.162875750415241	0.009569238663899	0.00350968096155606	-0.00446195725627771	0.630615234375	0.36474609375	0.0302734375	0	0	0	-0.608782040685415	-0.438639222858685	-0.520862184276914	0.407041329718634	0.0725964343204233	0.110046490256695	0.991271671998219	0.958096234609603	-0.283825976141632	-0.0386577352434246	0.27709450184163	0.952540070154234	-0.126039881782338	-162.948681753389	-82.4243560526197	56.5876118085796
61345	1657020020326	9.58208027419798	-0.358771963066218	-1.21284619144173	0.015645310043521	0.000877676506944728	-0.147506037955749	0.00752071336097462	0.0034934954239574	-0.00348702108501247	0.630126953125	0.360107421875	0.0302734375	0	0	0	-0.608748853519559	-0.438669185165189	-0.52086146462203	0.407059595141702	0.072545361316607	0.110035413259422	0.991276640691322	0.95812204091525	-0.283743663979167	-0.0386223751739083	0.277018637033394	0.952565872252679	-0.126011641349737	-162.959778048257	-82.4265157632571	56.6034933840166
61346	1657020020327	9.56112906688402	-0.388936021605774	-1.25203255894461	-0.0257140802476945	-0.0304559330908949	-0.162171478114722	-0.0153944740559559	0.0158057258280721	-0.00182713347717363	0.6328125	0.3623046875	0.0263671875	0	0	0	-0.60876402998581	-0.438599680364254	-0.520924796285291	0.407030751657585	0.0725353539990052	0.109942595159909	0.991287671763219	0.958072240716216	-0.283912575178871	-0.0386164631253646	0.277193441461463	0.952526259703535	-0.125926647640379	-162.951402440647	-82.4313127600405	56.5849037218181
61347	1657020020328	9.51460178722238	-0.4187794151474	-1.20289226981111	-0.044990340362805	0.0184190684967764	-0.213332720939862	-0.00631709196079028	0.0181174197476493	-0.00439536417814363	0.63525390625	0.363037109375	0.025146484375	0	0	0	-0.608719011481639	-0.438566392205332	-0.521000761725058	0.407036719437846	0.0724354518198149	0.109794519710224	0.991311388394817	0.958060283218971	-0.283961257314549	-0.0385551301738921	0.277260886239016	0.952528827797847	-0.12575863062237	-162.955487435952	-82.4416364770169	56.5857066780004
61348	1657020020330	9.46104672526549	-0.469038403566498	-1.22452731851204	-0.102332035139483	0.00723234767224523	-0.261753107020658	0.00221397028014806	-0.00137224094470409	-0.0055987920394365	0.62353515625	0.364013671875	0.0283203125	0	0	0	-0.608759106291178	-0.438636441309622	-0.520900499860073	0.407029596108591	0.0725214832015132	0.110004015855159	0.991281872612422	0.958091696138394	-0.283849960493817	-0.0385940632521987	0.277129818433363	0.952537829392301	-0.125979154274407	-162.967409278052	-82.4287905515568	56.6046471968713
61349	1657020020331	9.54636652541783	-0.437517021646989	-1.23450583194878	-0.0689063670014121	-0.000674756827028639	-0.177139073930547	0.00808299502928943	-0.0189925196786562	-0.00492111029520122	0.635986328125	0.36669921875	0.028564453125	0	0	0	-0.608780785197572	-0.438717987993489	-0.52083206937321	0.406996852687576	0.0725209650467282	0.110212136394643	0.991258792959749	0.958120188449258	-0.283760177826704	-0.038546931988365	0.277031431636646	0.952540522219966	-0.126175034829655	-163.011897466842	-82.418760849315	56.6545832011334
61350	1657020020332	9.56293889129201	-0.406936243059545	-1.23788425983548	-0.0394952915594602	-0.00812086518659841	-0.161463147181594	0.0164254454602067	-0.0117096240442099	-0.00756987677018116	0.629150390625	0.369873046875	0.02734375	0	0	0	-0.60876409765851	-0.438865550267807	-0.520738002217567	0.406983089619964	0.0724579236691836	0.110468059354308	0.991234915224461	0.958194303454441	-0.283523587103047	-0.0384454468523978	0.27679148492143	0.952581326406683	-0.12639339561969	-163.081659764939	-82.4083981897461	56.7384336332504
61351	1657020020333	9.55771313398318	-0.346915417020929	-1.28061435954659	0.00529029294342896	-0.0658661037455432	-0.163550747039416	0.0141599343619149	0.00474421418582443	-0.00830553258585511	0.633544921875	0.366943359375	0.0244140625	0	0	0	-0.608704071220993	-0.438925311556763	-0.520735284192421	0.407011901976866	0.0723586693436747	0.110460331321846	0.991243026797707	0.95824216510433	-0.283371765047945	-0.0383718098319205	0.276651723267681	0.952627397242951	-0.126352150892425	-163.107019768153	-82.4119169403587	56.7726051611218
61352	1657020020333	9.51916984978569	-0.347086363608133	-1.31831963710077	-0.00935549040214766	-0.104671500926799	-0.196971764914561	0.0026708373634603	0.0116695404532061	-0.00772327240934667	0.625732421875	0.373779296875	0.027099609375	0	0	0	-0.608635685671399	-0.439056209508383	-0.52070805599951	0.407007822328573	0.072185530618683	0.11058605036223	0.991241632819456	0.958315058127452	-0.283148554910967	-0.0381987593779002	0.276444385972077	0.952679180688396	-0.126415505961127	-163.186846992952	-82.41131212574	56.8653298087183
61353	1657020020334	9.50612901021126	-0.316336392801031	-1.27311859858321	0.0304383900651932	-0.0729239870030471	-0.216795343163602	-0.000294894157910993	0.0212508285473615	-0.0083107287967897	0.62890625	0.3681640625	0.026611328125	0	0	0	-0.608561946049035	-0.439045684939862	-0.52078698222478	0.407028455395819	0.0720396113617891	0.110422750932464	0.991270452737975	0.958323234793271	-0.283133446067563	-0.0381055031887405	0.27645410478089	0.952702612463309	-0.126217511286602	-163.200753081466	-82.4238261779495	56.8796403270429
61354	1657020020335	9.51158629761572	-0.375166543304499	-1.22895851391461	-0.0161865696897018	-0.0131578515434654	-0.214722600965239	0.00299929121276364	0.014259356300413	-0.00499270209033735	0.630126953125	0.362060546875	0.019287109375	0	0	0	-0.608449335741283	-0.439199632135419	-0.520800491025464	0.407013436529728	0.0717410633594955	0.110515853663935	0.991281728832415	0.958407044058512	-0.282887491232747	-0.0378233420399208	0.276241122440298	0.952764878337239	-0.126213822063793	-163.317751375846	-82.428728028331	57.0104927698895
61355	1657020020336	9.51431023283399	-0.354648889858507	-1.20004545106136	0.0109459412697438	0.00817309245705888	-0.216448647065098	0.00535144591020267	0.00656420068276664	-0.00349881202816881	0.626953125	0.35986328125	0.0234375	0	0	0	-0.608412322803725	-0.43922036342687	-0.520812727540324	0.407030736730965	0.0716791503663525	0.110480586691274	0.991290138842867	0.95842773944968	-0.282822903414831	-0.0377819210387946	0.276185386391341	0.952788142909198	-0.126160164376512	-163.328312243474	-82.4323860135062	57.0247316186005
61356	1657020020337	9.49842591813659	-0.344479157877913	-1.18444939332531	0.0252366794404097	0.0211197259355096	-0.234556115868298	0.00307230385617782	-0.00942801817168103	-0.00452925873471188	0.633056640625	0.3671875	0.03076171875	0	0	0	-0.608503953792524	-0.439316797049544	-0.520660198766075	0.406984824618643	0.0718274185020024	0.110850416582793	0.991238118261581	0.958453615305668	-0.282728208720525	-0.0378342080818201	0.276057039864651	0.952773291574184	-0.126552619902008	-163.355423625659	-82.4097874538078	57.0580917556207
61357	1657020020338	9.52747540995685	-0.384034321103139	-1.24490158841829	-0.0273060279932936	-0.0207354552803296	-0.196613616347358	0.00120525446968474	-0.0140722326262857	-0.00207349560298418	0.6298828125	0.365234375	0.01806640625	0	0	0	-0.608532884043643	-0.439365133275394	-0.520614380755224	0.406948000671188	0.0718378924255018	0.111010300662577	0.991219466293246	0.958462226138603	-0.282703208823238	-0.0378028674372539	0.276024416089041	0.952762094579675	-0.126707982601157	-163.387717909166	-82.4017010191181	57.0919566085167
61358	1657020020339	9.50452569064313	-0.394544588430375	-1.3004159170832	-0.0537455213767878	-0.0699318988758503	-0.211907371773616	-0.000904277442970857	-0.0125466055966531	-0.00159267429164054	0.624267578125	0.358154296875	0.02685546875	0	0	0	-0.608580032761501	-0.439491614496355	-0.520487517677739	0.406903192974771	0.0718797294581062	0.111355576604024	0.991177703568949	0.958507707990362	-0.282553824668647	-0.037766518083912	0.275855538672133	0.95276611596147	-0.127045070977204	-163.444436155514	-82.3836260227176	57.1578645580904
61359	1657020020339	9.50442777599157	-0.394414823603625	-1.3011706564644	-0.0538106517569252	-0.069731767130167	-0.211906280926948	0.0027243114882719	-0.00341070725565611	-0.00138710394221221	0.6337890625	0.363037109375	0.03564453125	0	0	0	-0.608579796141383	-0.439520845238486	-0.520468705468233	0.406896037038432	0.0718675064581378	0.111413705475158	0.991172057590298	0.958520320105346	-0.282514083286532	-0.0377437238480153	0.275814897097011	0.952771105238328	-0.127095883341281	-163.460135447285	-82.3811857021981	57.1759260804523
61360	1657020020340	9.52550169121232	-0.363692790084243	-1.26098295029766	-0.0111479246525391	-0.038135102077471	-0.197285429555215	0.00950919461709222	0.00505614373426896	-0.00495603488232717	0.635986328125	0.364501953125	0.037353515625	0	0	0	-0.608585502294479	-0.439477611466374	-0.520483522599871	0.406915246849781	0.0719126634436822	0.111334043682942	0.991177733584467	0.958504768002821	-0.282558821801987	-0.0378037291511203	0.275857170565302	0.952767150430302	-0.127033769166424	-163.427624810099	-82.3836389981851	57.140854741306
61361	1657020020341	9.51321618296788	-0.393134171171955	-1.21623813908091	-0.0284959502170981	0.0110518791863134	-0.214034456865509	0.0123785795503345	0.00886190121972686	-0.00509416710364148	0.624755859375	0.368408203125	0.025146484375	0	0	0	-0.608525697087921	-0.439517563099596	-0.520488533548737	0.406955125480609	0.071831996342556	0.111284509972044	0.991189145492285	0.958546415898221	-0.282423675144109	-0.0377575990599332	0.275733445323774	0.952813006606426	-0.126958424578695	-163.437454379532	-82.3885738677602	57.1585404669083
61362	1657020020343	9.51236298315217	-0.333114903494297	-1.21632728026921	0.0281221776151052	-0.00620709883428563	-0.217134343714225	0.00981380799762689	-0.00265519598468166	-0.00248644868966443	0.628173828125	0.36083984375	0.026123046875	0	0	0	-0.608489981296492	-0.439578543659443	-0.520472313829703	0.406963410090874	0.0717585489819955	0.111331904231301	0.99118914327601	0.958584655007395	-0.2823029736029	-0.0376893921324613	0.275619610754302	0.952843239045748	-0.126978706767925	-163.468235538616	-82.3885729090641	57.196352042581
61363	1657020020343	9.51396917697523	-0.352790504822758	-1.20329289803931	0.0130971597631896	0.0132597308607291	-0.216457022380716	0.00765890187152	-0.0217314419313727	-0.00252598917801614	0.6298828125	0.36376953125	0.02734375	0	0	0	-0.608524764956564	-0.439660535739335	-0.520389875822858	0.406928250296081	0.0717859809089428	0.11156596506213	0.991160838807051	0.958611331623693	-0.282216024848743	-0.0376620525360096	0.275519668676471	0.952841618926425	-0.12720755250408	-163.507677824752	-82.3763389931594	57.2411587271418
61364	1657020020345	9.53764432889407	-0.333231755708508	-1.30700113915216	0.0063637566040645	-0.085655560974561	-0.180523684773094	0.00233196720030831	-0.0179942544311938	0.00123518196121582	0.638427734375	0.363525390625	0.01708984375	0	0	0	-0.608614575926548	-0.439705941643734	-0.52027887297875	0.40688681126931	0.0719371584303173	0.111833667217541	0.991119708266185	0.958612113605998	-0.28220361539658	-0.0377350646606285	0.275477514299832	0.952813911702477	-0.127506034294109	-163.514023372383	-82.3585960255623	57.2487945083781
61365	1657020020346	9.57175566657366	-0.33279761709694	-1.31220491289651	0.00827363563466578	-0.085148626035083	-0.146052809501819	0.00282498857678804	-0.0167947463339025	-0.000658863191675151	0.638427734375	0.355712890625	0.034912109375	0	0	0	-0.608650693553666	-0.439759671349925	-0.520217826750827	0.406852771185712	0.0719696883697037	0.112015929060563	0.991096763990614	0.958624186795694	-0.282164508065424	-0.0377208016681968	0.275427000212873	0.952804083757462	-0.127688470618306	-163.542187896846	-82.3487160543846	57.2794528526936
61366	1657020020349	9.53823168101942	-0.393013379880833	-1.30890641661779	-0.0475928031261111	-0.0672774261898316	-0.17739972772539	0.005532341798379	0.00193726479241707	-0.00202054018345223	0.632568359375	0.361328125	0.0244140625	0	0	0	-0.60873978435076	-0.439722164138535	-0.52009853105531	0.406912535206305	0.0722838727188638	0.112083527086299	0.991066256463541	0.958621974401465	-0.282133214114601	-0.0380099945803863	0.275352414079484	0.952805401144043	-0.127839413372172	-163.44141222358	-82.3355989003929	57.1815949060609
61367	1657020020349	9.54265597864156	-0.392545959926985	-1.26631501925249	-0.0353573002258982	-0.0266323916396784	-0.17847905503611	0.00418089614944695	0.00879249707657641	-0.00119727992952108	0.627685546875	0.368408203125	0.02587890625	0	0	0	-0.608706375776458	-0.439728230823178	-0.520112339435443	0.406938306716383	0.0722444747682164	0.11202348599763	0.991075917601877	0.958638024846253	-0.282080595087841	-0.0379957259933736	0.275306870935577	0.95282804139038	-0.127768737787587	-163.438633207308	-82.3397504312586	57.1818393862295
61368	1657020020350	9.49430265529065	-0.40296128090671	-1.23206603461867	-0.0393322560111636	0.00425867513824882	-0.230381678673675	0.0077867115991209	0.00762844424696204	-0.00125415704864318	0.6357421875	0.361083984375	0.02587890625	0	0	0	-0.608686167920891	-0.439802977244353	-0.520053530183783	0.40696291714623	0.0722353339007767	0.112118974286552	0.991065785980515	0.958688981149703	-0.281909050549668	-0.0379832152447645	0.275131775624679	0.952867578849819	-0.127851019622431	-163.453860164388	-82.3353967841093	57.2073715629063
61369	1657020020351	9.5110418953429	-0.372712118151576	-1.23390860582686	-0.0097954596940843	-0.00407275633409754	-0.214705795556679	0.00688428787816518	-0.00491781187663717	-0.00284304503413988	0.6298828125	0.36181640625	0.024169921875	0	0	0	-0.608679410166246	-0.439849428080314	-0.5200225620919	0.406962395280531	0.0722180310655935	0.112195325954096	0.991058406363148	0.958713835829449	-0.281828178889907	-0.0379560083884294	0.275049699105803	0.952882514488357	-0.127916287485817	-163.473040968163	-82.3322272440526	57.2313745474953
61370	1657020020352	9.52943847817797	-0.362324172624149	-1.22229402645716	0.00661011004556176	0.00785304421307489	-0.198355674239686	0.00794855776957534	-0.00729781774627581	-3.04756566297445E-05	0.635498046875	0.359130859375	0.023193359375	0	0	0	-0.60875176343185	-0.439884857449867	-0.519893642556436	0.406980593068422	0.0724238252314236	0.112388119398907	0.991021543740007	0.95873461131939	-0.281736218103971	-0.0381136257358255	0.274923143072946	0.952886989115944	-0.128154794590153	-163.437362086384	-82.3164142357665	57.2019362084962
61371	1657020020353	9.54259754390315	-0.39251219278506	-1.26676576977925	-0.033215659758138	-0.02354164033141	-0.178463385153028	0.000981742619522729	-0.0111378955403398	0.00206021428919228	0.62158203125	0.364501953125	0.028564453125	0	0	0	-0.608784506225413	-0.439913584694277	-0.519845924717746	0.406961518494885	0.0724725051115656	0.112510575066892	0.991004090052595	0.958739722692937	-0.281716720931537	-0.0381291657167159	0.274892488317751	0.952878302641895	-0.128285074037379	-163.446884595852	-82.3089383775836	57.2128156373755
61372	1657020020354	9.54076323859879	-0.373021574736379	-1.28144601590757	-0.0174458566024927	-0.0418931069848881	-0.179133876436778	0.00548997276681776	0.000244291284556287	0.00359105763316026	0.63330078125	0.36083984375	0.022705078125	0	0	0	-0.608824767694504	-0.439921024583229	-0.519782403507508	0.406974381718719	0.0725914902672005	0.112593386600149	0.990985976103949	0.958745875783101	-0.281682689508617	-0.0382257517923147	0.274839628164649	0.95287858183774	-0.128396211257249	-163.420829836118	-82.301187343081	57.1892134543006
61373	1657020020354	9.52488852523153	-0.363535604193171	-1.26565134932645	-0.00482796233637877	-0.0312631638852631	-0.197255380541183	0.00038860720039333	0.00104767971696537	0.00322380129205252	0.629638671875	0.3662109375	0.023193359375	0	0	0	-0.608829831101399	-0.43991993031719	-0.519770312206317	0.406983432365137	0.0726185549173324	0.112596942339858	0.990983589196831	0.95874856515276	-0.281669881380021	-0.0382526697223733	0.274823096371543	0.952881947829362	-0.12840661665848	-163.411067053352	-82.3001665538452	57.1803100583544
61374	1657020020355	9.55841851998327	-0.403334781983479	-1.28255875926373	-0.0439029322054406	-0.0309895829195307	-0.160324301020537	0.00319642504058984	0.00639525695908836	0.002589277727829	0.630615234375	0.3681640625	0.021728515625	0	0	0	-0.608853404414702	-0.439972565701475	-0.519674117903602	0.407014108531635	0.0727259052223483	0.112728193301833	0.990960794958355	0.958786984603826	-0.28152731377252	-0.038339141283204	0.274660628528907	0.952908561213999	-0.128556653274624	-163.393967608299	-82.2904250937921	57.1721621398847
61375	1657020020356	9.52417785683702	-0.404186439630489	-1.27815270002117	-0.0458788739017457	-0.0311104672877482	-0.194790917994366	0.0090568273027255	0.0109224097134413	0.00329755576031334	0.6318359375	0.369140625	0.028564453125	0	0	0	-0.608815693444213	-0.439974111225473	-0.519672029297977	0.407071510711226	0.0727275268333544	0.112638931165083	0.990970826021983	0.958813643327868	-0.28143113323727	-0.0383785697118452	0.274567121500453	0.952947526588308	-0.128467534265205	-163.366937433777	-82.2947105112542	57.1509009992867
61376	1657020020356	9.55866603032942	-0.404077859683501	-1.28047860345461	-0.0445668933631117	-0.0291582326745088	-0.160321637880868	0.00893517533411834	0.0140069479000811	0.00230848093360784	0.633544921875	0.363037109375	0.02685546875	0	0	0	-0.608733471193029	-0.440087157416521	-0.519630487566629	0.407125301740877	0.0726149005366277	0.112682127834617	0.990974174379292	0.958901004011909	-0.281144565118893	-0.0382961879181495	0.274291707357348	0.953027004638784	-0.128466290147334	-163.400522853025	-82.296141506055	57.2013563878145
61377	1657020020357	9.52277727627254	-0.385176334707706	-1.28951161303206	-0.0315816757885765	-0.048550589335649	-0.195456305064322	0.014796403661971	0.0185349189803616	0.00301668603920744	0.63037109375	0.36669921875	0.02685546875	0	0	0	-0.608663479914821	-0.440089706331873	-0.519639390931975	0.407215817461149	0.0725919075451438	0.112522305534543	0.99099401901129	0.958943822988055	-0.280992656780348	-0.0383388991570712	0.274148060930607	0.953090686971976	-0.128300362802588	-163.362726777167	-82.3046279789701	57.1725829712471
61378	1657020020358	9.52553123065434	-0.365325794027101	-1.26028758157132	-0.00397155337387469	-0.0265809903213142	-0.197240905260989	0.0102262011287351	0.00869429134869971	0.000992660457546503	0.62744140625	0.36279296875	0.02783203125	0	0	0	-0.60863582888902	-0.440127573555767	-0.519597464893983	0.407269715623731	0.0726123869433182	0.112522197563686	0.990992530909206	0.958987444628423	-0.280838195463357	-0.0383795390010571	0.273990004028326	0.953136224799123	-0.128299706423022	-163.345986723165	-82.303991275805	57.1651951498379
61379	1657020020359	9.50973666743691	-0.355864093384088	-1.24383079010688	0.00864262732655097	-0.0159280212123337	-0.215369126373401	0.00924028712164161	0.00629818609736004	0.00478111409627669	0.63720703125	0.365234375	0.03173828125	0	0	0	-0.608612893874386	-0.440135267981648	-0.51957761186713	0.407320999378892	0.0726401022503463	0.112474254043744	0.990995942333955	0.959013742526213	-0.280741098687408	-0.0384327614627804	0.27389059346923	0.953170487208396	-0.128257417422862	-163.318980504045	-82.3054509743086	57.1441055568249
61380	1657020020360	9.54413902717005	-0.35579271393071	-1.24678432976294	0.0110221721318185	-0.0157204341737049	-0.180902442145424	0.00885260270849219	0.00524960641484189	0.00155749448859194	0.635009765625	0.362060546875	0.02978515625	0	0	0	-0.608599367934037	-0.440120061677935	-0.51956906652917	0.407368538015527	0.0726846328292356	0.112401400644401	0.991000943129549	0.959025764764722	-0.280690411087406	-0.0385029302913947	0.273836678821373	0.953194008718456	-0.128197718682198	-163.282874102552	-82.3075912388443	57.1111751152009
61381	1657020020361	9.53990932140892	-0.356524770532322	-1.28806350555665	-0.00119883399120769	-0.0559545180603638	-0.179777369597339	0.00756294462604962	0.0105640591244174	0.00287156566985746	0.626708984375	0.365234375	0.019775390625	0	0	0	-0.608564573545426	-0.440120082846083	-0.519570003274767	0.4074192977733	0.0726826487452305	0.112317289295455	0.991010625117965	0.959048672808563	-0.280607656954936	-0.0385355166359101	0.273756964761653	0.953228288178432	-0.128113054997939	-163.259078216274	-82.3117366660411	57.092327970115
61382	1657020020363	9.52589335427875	-0.36681821863189	-1.25711303790458	-0.00282210196552793	-0.024965405668511	-0.197236168792383	0.0111086204636413	0.010942266574505	0.00232118307082749	0.62255859375	0.35791015625	0.0244140625	0	0	0	-0.608549570100789	-0.440162409838867	-0.519504983941391	0.407478889459369	0.0727432492497919	0.112346662713849	0.991002849171305	0.959095918414031	-0.280436015219601	-0.0386090747014025	0.2735752893997	0.953275337321182	-0.128151052610028	-163.233608860509	-82.3084071515687	57.0773796172189
61383	1657020020364	9.5217313410522	-0.367527834968519	-1.2979671005998	-0.0150331100392071	-0.0651932396624082	-0.196103419192866	0.00949225304330523	0.0136658565503951	0.000906158463433822	0.633056640625	0.357177734375	0.01953125	0	0	0	-0.60849867237544	-0.440167340475106	-0.519514629998051	0.407537271073932	0.0727145231941209	0.112239335419482	0.991017118773054	0.959125633789039	-0.28033217012937	-0.0386250307356932	0.273478731760675	0.953318522832296	-0.128035843807201	-163.212824973279	-82.3145182259126	57.0627187384297
61384	1657020020365	9.5261803915807	-0.367345175073786	-1.25478190459305	-0.00051887893137087	-0.0231043721304822	-0.19723111679507	0.0117238849135506	0.00905689111351068	0.00141691095585959	0.6259765625	0.359375	0.02783203125	0	0	0	-0.608561998354363	-0.440155709726959	-0.519412723932234	0.407585166034042	0.072946746824107	0.112314233948814	0.990991566553556	0.95913391924527	-0.280274567247519	-0.0388367339953318	0.273387814433979	0.953326638569754	-0.128169509292597	-163.142629426952	-82.3035786920872	56.9967598492675
61385	1657020020366	9.54220868320234	-0.377455467972027	-1.26932782614609	-0.0130767250174614	-0.033267164022837	-0.179093305543528	0.0130388092586177	0.0140447218693275	0.0003555773096606	0.6298828125	0.361572265625	0.022216796875	0	0	0	-0.608502357564647	-0.440170835666039	-0.519415687306966	0.407654093621982	0.0729139584169869	0.112206120023651	0.991006226669239	0.959173844912291	-0.280135550764602	-0.0388536797997973	0.273256454460161	0.953380228359625	-0.128050967465345	-163.120966805518	-82.3098531567959	56.9833193934641
61386	1657020020367	9.52472070152592	-0.3480682330447	-1.26678810983255	0.0155290073649118	-0.0411677776966407	-0.197892924977451	0.0082390827311005	0.00713777486987597	0.00246179282738665	0.622314453125	0.35693359375	0.030029296875	0	0	0	-0.608528323625195	-0.440164371001828	-0.519365465807118	0.40768629946741	0.0730296788550422	0.112228603958418	0.990995159655119	0.959181343262705	-0.280094415454269	-0.0389649736056026	0.273199225370577	0.953389667913847	-0.128102788307049	-163.081833424468	-82.3051160532101	56.9470406309795
61387	1657020020368	9.54246756978166	-0.377918118812749	-1.26724223375951	-0.0119875929587158	-0.0320487195186139	-0.179087758179779	0.0028963019351793	0.0141092997453087	0.000108950219834629	0.6337890625	0.36083984375	0.028564453125	0	0	0	-0.608488924974124	-0.440153799856153	-0.519390980803942	0.407724011698531	0.0729952830634183	0.112121076328658	0.991009865184699	0.959193773662328	-0.280051525513292	-0.0389672635054143	0.273164773017887	0.953414918752891	-0.127988278687952	-163.066624478018	-82.3114112136873	56.9342710558703
61388	1657020020369	9.52420351940268	-0.388513200369914	-1.27792520062533	-0.0255548561180647	-0.0432573626488554	-0.19541313723319	0.00266884415547519	0.0170466175402439	0.00423553774813186	0.624267578125	0.36669921875	0.029052734375	0	0	0	-0.608512600647081	-0.440016577278625	-0.519446769012131	0.407765717951604	0.0731209317657225	0.111886094127542	0.991027159707843	0.959136432943033	-0.280225061966833	-0.0391307762125924	0.273332457529339	0.953391533729227	-0.127804346852541	-162.976606563833	-82.3188212355477	56.8341750139706
61389	1657020020369	9.54368033794962	-0.33858272560199	-1.25054068941308	0.0312824002867071	-0.0303308882491027	-0.181569777378264	0.00123368033606542	0.0151437685087456	0.00430584467140416	0.634033203125	0.3681640625	0.024169921875	0	0	0	-0.608483330739694	-0.439986146242472	-0.519470597977651	0.407811874720891	0.0731249779028802	0.111755914642587	0.991041549658289	0.95914102833718	-0.28020333190266	-0.0391737227098158	0.273315249056837	0.953413188671652	-0.127679545346748	-162.943314649753	-82.324992182481	56.8021694685046
61390	1657020020371	9.51293283718103	-0.378951845245137	-1.21731965568878	-0.00174215187267387	0.00901133435277715	-0.214704321333562	-0.001142762316672	0.012534959981902	0.0025519762612833	0.6318359375	0.364990234375	0.021484375	0	0	0	-0.608420613562953	-0.440050681580773	-0.519482977301988	0.407820047233385	0.0729856678675197	0.111760666691867	0.991051283065877	0.95918295605281	-0.280076413429715	-0.0390545702593187	0.273205324076462	0.953449923184714	-0.127640490736045	-162.987293006416	-82.3291690280522	56.8533240154145
61391	1657020020371	9.52722181047863	-0.369130534753438	-1.24632264387839	0.000676942155569075	-0.0204200871401779	-0.197225051404221	-0.00434045133457259	0.00613573540999643	-3.49600072778861E-05	0.628662109375	0.359130859375	0.031005859375	0	0	0	-0.608416258516205	-0.440037906395212	-0.519500676386367	0.407817783504555	0.0729713763388501	0.111729204482547	0.991055882935423	0.959175661974568	-0.280102592785501	-0.0390459599765179	0.273234748359102	0.953445920008333	-0.127607405383077	-162.986671846758	-82.3311437325192	56.8510754539768
61392	1657020020372	9.52303455777441	-0.369637230312932	-1.28776707957713	-0.0107155301486909	-0.060100292805617	-0.196064461305111	-0.00190376847538266	0.00720277557264888	0.00221454631483216	0.624267578125	0.368896484375	0.01806640625	0	0	0	-0.608444176993312	-0.4400170145488	-0.519476111983994	0.407829963916932	0.073059191971108	0.111735732548118	0.991048677180119	0.959167428572678	-0.28011949487815	-0.0391268776480683	0.273240184515027	0.953440189346529	-0.127638579219015	-162.957378186957	-82.3280505565454	56.8210526204788
61393	1657020020373	9.50899253600369	-0.37963848032729	-1.25679921335303	-0.0130381709499371	-0.0301701390747373	-0.213545303022554	0.00283895597585137	0.0156532332527177	-0.000386340225360849	0.627197265625	0.366943359375	0.024169921875	0	0	0	-0.608399890742075	-0.440004514959973	-0.51950737836308	0.407869689467346	0.0730162212823164	0.111614771477445	0.991065474233509	0.959180023833224	-0.280076686457298	-0.0391245649483264	0.27320745470969	0.953466933087424	-0.12750880048026	-162.941988566692	-82.3352628626505	56.8080657035906
61394	1657020020374	9.52590980049182	-0.349594475723875	-1.25739187594109	0.0152982964501842	-0.0357226000753684	-0.197870782357954	-0.00120194249703623	0.0140782223875385	0.0020559750626737	0.63427734375	0.36181640625	0.02490234375	0	0	0	-0.608325809216249	-0.440174071360708	-0.519453354865063	0.407866042791705	0.0728299980423379	0.11180372778565	0.991057878147581	0.959273264840404	-0.279784156078348	-0.038931084880319	0.27292965164596	0.953530677252053	-0.127627006513732	-163.036302988891	-82.3320004258107	56.9194012929401
61395	1657020020374	9.5252724233518	-0.389922259658123	-1.26950145238213	-0.026831936916055	-0.0373740918815125	-0.195391952745071	0.000560417639453659	0.0185750140986467	0.00471330547010184	0.62890625	0.361572265625	0.024658203125	0	0	0	-0.608289579420793	-0.440135627800133	-0.519487649006962	0.407917882959642	0.0728264233404035	0.111643227832097	0.99107623407217	0.959276435858503	-0.279767259805413	-0.0389743498672926	0.272919460042797	0.953554439987671	-0.127471166581886	-162.998971027578	-82.3398864609517	56.883033337429
61396	1657020020375	9.52628716893666	-0.35028489077183	-1.25433703816588	0.0167460759628958	-0.0342944055440053	-0.197867994748311	0.000354077492329411	0.0128978485894521	0.0029768213315783	0.62744140625	0.36474609375	0.029052734375	0	0	0	-0.60831629458533	-0.440114073988946	-0.519440777797617	0.407960985855061	0.0729617604757182	0.111633981760348	0.991067321439172	0.95928026897489	-0.279734871794039	-0.0391122366764652	0.272869835386301	0.95356502432645	-0.127498224762347	-162.945719273695	-82.3360564261952	56.8321640334978
61397	1657020020376	9.52818232755961	-0.370231141172291	-1.23862972082988	0.00181973957280989	-0.014743876912341	-0.197214820760079	-0.00137906058990967	0.018706855703726	0.00056810839322948	0.6298828125	0.3642578125	0.030517578125	0	0	0	-0.608274921117227	-0.440082934059633	-0.519487599596522	0.407996648705279	0.072919290029817	0.111484424641661	0.991087281829338	0.959281223358984	-0.279731491589451	-0.0391130045385276	0.272877832834471	0.95358351269066	-0.12734273702141	-162.925790384747	-82.3446366686438	56.8122627791254
61398	1657020020377	9.54684026027963	-0.359880776502721	-1.2247352570794	0.0158124190521748	-0.00396132126222956	-0.180897100682802	-0.000763925298522686	0.0168202493016453	-0.000335123265140191	0.624267578125	0.35693359375	0.02294921875	0	0	0	-0.60822136935902	-0.44005136378083	-0.51956693591518	0.408009512381001	0.0728099926766864	0.111320781790074	0.991113711189624	0.959273790478248	-0.279766070082499	-0.0390479312139528	0.272933141754379	0.953592486113561	-0.127156873820659	-162.929078617048	-82.3560124156229	56.8130783548465
61399	1657020020378	9.54280759726995	-0.360231771283959	-1.26536304654699	0.00364278233323341	-0.0441510298494277	-0.179716652830088	0.00196131617907561	0.0134073655059314	-0.00171509723926683	0.632568359375	0.35546875	0.031494140625	0	0	0	-0.608181697913457	-0.440046550044857	-0.519595360875483	0.408037641735908	0.0727593895005924	0.11122758451738	0.991127890679064	0.95928544735158	-0.279728633440437	-0.0390297595819573	0.272905664541762	0.953614343472232	-0.127051887766552	-162.923281354885	-82.3621225049487	56.8093433155622
61400	1657020020379	9.54046181240626	-0.380258919973777	-1.29198526570859	-0.0213192055982668	-0.0652646285081472	-0.177879618229479	-0.00102942305576643	0.0126853173127608	-0.0025675022479097	0.63037109375	0.35107421875	0.0263671875	0	0	0	-0.608254054891584	-0.439916024885487	-0.5196111301078	0.408050449362568	0.0729563290340939	0.111106301628211	0.99112701698237	0.959216522165327	-0.279937443647917	-0.0392261551636715	0.2730952904371	0.953567206536787	-0.126998208486205	-162.835560489847	-82.361745879501	56.709680738284
61401	1657020020380	9.54481895044928	-0.379488501247168	-1.24893229985448	-0.0090325998548032	-0.0245274447686745	-0.179062448909091	-0.00689267092178539	0.00815557392828067	-0.0032810008623225	0.63134765625	0.362548828125	0.0244140625	0	0	0	-0.608243173569611	-0.439903061237896	-0.519645767586342	0.408036536046832	0.0729071458862597	0.111067150105993	0.991135024225283	0.959204986015306	-0.279982963928861	-0.0391833473938569	0.273148939009649	0.953558403076048	-0.126948922961008	-162.846926751521	-82.365198261989	56.7181430912709
61402	1657020020381	9.50713682950157	-0.339987415354989	-1.27354179450085	0.0215723034539856	-0.0627911869769709	-0.214836418686415	-0.00548532341139985	-0.000246768704881186	-0.00359952951008694	0.62890625	0.355712890625	0.024169921875	0	0	0	-0.608357540172091	-0.439829834726017	-0.519584076931241	0.408023537066376	0.073164206968788	0.111142526950728	0.991107631653412	0.959152658442141	-0.280133019369456	-0.039391233318157	0.273263932164495	0.95350554804991	-0.127098360398706	-162.780371639724	-82.35339416685	56.6434203723922
61403	1657020020382	9.54072565540826	-0.379010346879077	-1.29040281266005	-0.0184783660969255	-0.0640321627587676	-0.17786548135266	-0.0057221204251734	0.00592397230686603	-0.00558232573175562	0.6279296875	0.375244140625	0.02978515625	0	0	0	-0.608345666199397	-0.439831020158005	-0.519613241897991	0.408002822254258	0.0731015051020558	0.111131251596234	0.991113522695795	0.959145928296494	-0.280164741478656	-0.0393294528877979	0.273304332538052	0.953497541974205	-0.127071551753639	-162.80237138689	-82.3559312243721	56.6633086540688
61404	1657020020383	9.52323523360352	-0.348644813996704	-1.28820328382398	0.00837887545831351	-0.0718710574961923	-0.196669764372611	-0.00739497098239339	0.0101911083454508	-0.00749579030833808	0.630615234375	0.36328125	0.018798828125	0	0	0	-0.608297426094198	-0.439889284736086	-0.519652966909457	0.407961337094273	0.0729164223131478	0.111170400931982	0.991122766015226	0.959163677753534	-0.280129929221255	-0.0391441187512164	0.273291482917718	0.95350320645036	-0.127056682836904	-162.876777005352	-82.3599136735164	56.7392190034357
61405	1657020020383	9.52592482117243	-0.327844712658304	-1.25910665059871	0.0356545737026101	-0.0503989184477929	-0.198517407554039	-0.00114793765053846	0.0157720956094919	-0.0035576961556905	0.636474609375	0.366455078125	0.02734375	0	0	0	-0.608254903458552	-0.439876493030697	-0.519697964242086	0.40798121189618	0.0728453936832948	0.111060057061218	0.991140359557961	0.959168078147072	-0.28012000323748	-0.0391073094176254	0.273294980712741	0.953518981201629	-0.126930713404713	-162.875952555254	-82.3674994922306	56.738733598098
61406	1657020020384	9.5076940453518	-0.337839334453883	-1.26994861930812	0.0220174993743816	-0.0591332592160917	-0.214814195778244	-0.00613013382074296	0.0134904171030075	-0.00294356336979645	0.631103515625	0.36279296875	0.01904296875	0	0	0	-0.608244528398293	-0.439948974152464	-0.519632447615877	0.408001976956566	0.0728540390538557	0.111170980769242	0.991127288509576	0.95921524444147	-0.279958573883458	-0.0391064155891575	0.273127083652703	0.953553464648913	-0.127033012368534	-162.889304972841	-82.3618629250716	56.7618421980701
61407	1657020020385	9.56064138077868	-0.32667233583778	-1.25995739675415	0.038745753971142	-0.0476166439911107	-0.164044847265231	-0.00607067500254362	0.0119479456625298	-0.00244811879757973	0.62744140625	0.371826171875	0.025146484375	0	0	0	-0.608224705390666	-0.439928298841821	-0.519673646876943	0.408001348493114	0.0728047852395218	0.111095422507912	0.991139379877531	0.959205617316419	-0.279995983011886	-0.0390747131254401	0.273174023206554	0.953551286819433	-0.12694840073884	-162.891636441219	-82.3670768857746	56.7617476619661
61408	1657020020386	9.53064791870776	-0.326470164880645	-1.2131796922156	0.0484240461618079	-0.00488105610800885	-0.199713389536301	-0.00879579917994646	0.0153616513173594	-0.00106939953612128	0.624755859375	0.3681640625	0.02294921875	0	0	0	-0.608170522286172	-0.440061916522303	-0.519628619712648	0.407995371327189	0.0726632144044928	0.111253227915452	0.991132068167911	0.959277514523039	-0.279770573204614	-0.0389239835996216	0.272959168014025	0.953599048681968	-0.127051749102235	-162.966861804578	-82.3639235551371	56.8500997334395
61409	1657020020386	9.5467943578222	-0.335864203187875	-1.22728866989677	0.0359301132201136	-0.0149595914227626	-0.181549852975003	-0.0286412207973086	0.0182330256486241	-0.00398039222369542	0.633056640625	0.368408203125	0.022705078125	0	0	0	-0.608176993485674	-0.439975473894716	-0.519741180900447	0.407935573151026	0.0725813744946592	0.111124088799816	0.991152551812725	0.959207754883076	-0.280020301058128	-0.0388473160911462	0.273225963350184	0.953540805568239	-0.126915346068307	-162.981257752896	-82.3727608338532	56.8491943108968
61410	1657020020387	9.52877162958046	-0.445400743319868	-1.25067294518526	-0.0789049156444251	-0.00789884418758852	-0.192200654132259	-0.0311588541721757	0.0273275796433788	-0.000864624608633188	0.62548828125	0.36669921875	0.021484375	0	0	0	-0.608122277966955	-0.440032995466434	-0.51979619309799	0.407885002889241	0.0723657610833486	0.11115359172016	0.991165009304978	0.959221878614521	-0.280001574637763	-0.0386329624492115	0.273233570796226	0.953542865973041	-0.126883484117761	-163.065771405055	-82.3781403628573	56.9341447086324
61411	1657020020387	9.48044711017335	-0.455173297794436	-1.21548480414586	-0.0832760348188558	0.0216362310509047	-0.24419426284444	-0.0152729771358113	0.0159583079630946	-0.00699240556373841	0.62646484375	0.369140625	0.02587890625	0	0	0	-0.60810060586618	-0.439996133100675	-0.519878190704962	0.407852574873536	0.072260139371577	0.111056512835366	0.99118359712762	0.959191147633821	-0.280119360050961	-0.0385420085822404	0.273369373849584	0.953519582956474	-0.126765887996724	-163.088585583906	-82.3861741823869	56.949517419579
61412	1657020020388	9.49474748948891	-0.444268678331947	-1.24532607858715	-0.0821782585327959	-0.00568642264632407	-0.226673815424959	-0.0112563495730956	-0.0149324639695587	-0.00969613891270541	0.626220703125	0.361328125	0.015625	0	0	0	-0.608089477669954	-0.440210024970844	-0.519804610851447	0.407732127259832	0.0720366009054901	0.111492088815337	0.991150968451112	0.959256247783055	-0.279939292630682	-0.0382288311436305	0.273199888761247	0.953521634035132	-0.127115357875497	-163.261800158816	-82.3720773596617	57.1329311532815
61413	1657020020389	9.57173471523483	-0.412745582261684	-1.33955382782929	-0.072818283343489	-0.0938183463335074	-0.13959250081048	-0.00011983043591842	-0.0125973622234383	-0.013219645371642	0.623779296875	0.366943359375	0.03515625	0	0	0	-0.608097156417477	-0.440290766860048	-0.519778926849075	0.407666231344213	0.0719478156428283	0.111686494167527	0.991135530008279	0.959271759130334	-0.279904568878795	-0.0380936274955452	0.273168819522322	0.953509076695834	-0.127276222050461	-163.337618529706	-82.3654163862091	57.2105918408879
61414	1657020020390	9.58926671856978	-0.341431588136136	-1.32785262421848	-0.00147039126707259	-0.098807131463477	-0.126406387276136	0.00436077940994823	0.0106459132489385	-0.0119228176852511	0.62841796875	0.35791015625	0.025634765625	0	0	0	-0.608034039477229	-0.44039192407018	-0.519787952748737	0.407639600907523	0.0717508747820821	0.111774253861015	0.991139913504556	0.959318868321149	-0.279769817971441	-0.0378966731423405	0.2730551608211	0.953538339620406	-0.127300879898464	-163.42206177669	-82.3673070745111	57.3025123082705
61415	1657020020391	9.60382434077036	-0.330503249969327	-1.35573948500904	0.00101709662471418	-0.128088505434112	-0.108858454529374	0.000372017119085798	0.0296851887254689	-0.00897756025327669	0.637451171875	0.364990234375	0.0244140625	0	0	0	-0.607940074707554	-0.440375353212292	-0.519880922289752	0.407679090078066	0.0715867498446112	0.111554487566428	0.991176540052516	0.959332812958556	-0.279734615592538	-0.0378034233941702	0.273049246890939	0.953574402520897	-0.127043172304554	-163.428910826922	-82.3831230608434	57.3108974748271
61416	1657020020392	9.55649375739334	-0.300063557945706	-1.30526895709068	0.0407919619480957	-0.0957865733264604	-0.163361091072185	-0.00332215458441619	0.0442480737506681	-0.00966675849628963	0.633544921875	0.359619140625	0.029296875	0	0	0	-0.607888382663135	-0.440296046451629	-0.519948950919708	0.407755066356948	0.0715849598331206	0.111278065171925	0.991207740959121	0.959325341109889	-0.279750394678611	-0.0378762007276093	0.273075966408777	0.953602070514088	-0.126777788595473	-163.365930045037	-82.3966219565518	57.2469032222923
61417	1657020020393	9.53101776063388	-0.299054156098568	-1.21316677958241	0.0631623053776329	-0.0149268850087661	-0.20033633689218	-0.00988582857838513	0.0517651573475072	-0.00411575070819116	0.638916015625	0.369140625	0.031005859375	0	0	0	-0.607769077333878	-0.440192841434804	-0.520120997372925	0.407824912282311	0.0714088208826951	0.110834593916015	0.991270131241538	0.95930779443522	-0.279818206542958	-0.0378196618561957	0.273183703459737	0.953633820750164	-0.126305978027438	-163.330779571171	-82.4236864659107	57.2070136354449
61418	1657020020394	9.48044598667624	-0.328963760507306	-1.20417139147513	0.0327368286575417	-0.00707143192951384	-0.250471109423847	-0.0147424900389669	0.0274713018173521	-0.00864061719118212	0.62890625	0.364013671875	0.021240234375	0	0	0	-0.607743178018144	-0.440091351764647	-0.520221720167229	0.407844570321367	0.0713779279364289	0.110585825612603	0.9913001395022	0.959264241346388	-0.27996481712269	-0.0378393505176524	0.273344666451791	0.953619670700557	-0.126064336651257	-163.292396100363	-82.436738150436	57.1596673653592
61419	1657020020395	9.44636715899576	-0.328607012857687	-1.19884578962976	0.030786253522394	-0.00718364329354431	-0.284934915086444	-0.010168467408818	0.0151578410990952	-0.00661965667808126	0.622802734375	0.370361328125	0.029296875	0	0	0	-0.607714328464618	-0.440069123038894	-0.520288192404654	0.407826750926021	0.0712787275841533	0.110497737064064	0.99131710017416	0.959247509278315	-0.280033016353809	-0.0377587830198132	0.273429257646899	0.953609857255843	-0.125955076146846	-163.31233315124	-82.4441248779421	57.175169098159
61420	1657020020396	9.49439796185178	-0.357229353352594	-1.24512888521204	-0.0079317933766576	-0.0363676303258689	-0.23040340633184	-0.0154392287588072	-0.0015733547483178	-0.00850367231742722	0.62939453125	0.363037109375	0.02392578125	0	0	0	-0.607695074898262	-0.440203013563501	-0.520275786920457	0.407726756956553	0.0710688247878238	0.11075768794763	0.991303160846254	0.959279125244017	-0.279960397022609	-0.0374931456404621	0.273372972355263	0.95360102278649	-0.126143994411982	-163.446735932155	-82.4380534838577	57.3133169017274
61421	1657020020397	9.4961253949111	-0.375992614303069	-1.23089737655817	-0.0228668094106544	-0.0167583582020091	-0.229782141040005	-0.0105741134855821	0.00379986402243029	-0.0100997115980709	0.638671875	0.36572265625	0.01904296875	0	0	0	-0.607688738728057	-0.44021425713545	-0.520315585528271	0.407673271253046	0.0709661985421126	0.110788979704993	0.991307016337728	0.959264007050009	-0.280027823441049	-0.0373762341231595	0.273452671303174	0.953577589960458	-0.126148390724427	-163.496084061498	-82.4397322913538	57.3582902900547
61422	1657020020398	9.49457499105864	-0.355024380947313	-1.24440948340559	-0.00595608252698292	-0.0333715736353671	-0.230391072065572	-0.00576796918799014	0.0107173680134522	-0.0121901273195283	0.63525390625	0.365966796875	0.03173828125	0	0	0	-0.607700066126033	-0.440320335525695	-0.520214211163915	0.407671198708051	0.0709903532512899	0.11101269193089	0.99128025904661	0.959318096131517	-0.27984439173296	-0.0373618368152648	0.273256583049445	0.953605420834984	-0.126362736494091	-163.528562873833	-82.4280889164114	57.4019140198472
61423	1657020020399	9.51316816483887	-0.343552805993408	-1.23080740305854	0.00872425346570343	-0.0221296665880902	-0.21410841601149	-0.000524826199786738	0.0171387447292554	-0.0105603107452444	0.63671875	0.366943359375	0.02880859375	0	0	0	-0.607638028055192	-0.440332427391796	-0.520272259205849	0.407676534214675	0.0708482593761815	0.110919872776054	0.991300815074168	0.959331038700372	-0.279814393675921	-0.0372540370677095	0.273248023468479	0.95362502427061	-0.126233239503106	-163.55758109365	-82.437032239003	57.4322581135912
61424	1657020020399	9.49741011341868	-0.332644045167686	-1.21373216626608	0.0219325583775346	-0.0116377645909202	-0.232291755841858	0.000709317317725305	0.0133654371979068	-0.0123670493115187	0.621826171875	0.3603515625	0.03857421875	0	0	0	-0.607581394135415	-0.440351756277418	-0.520301156561678	0.407703184589524	0.0707540744479467	0.110842191026407	0.991316230895813	0.959355944929641	-0.279736888037908	-0.0371946824024886	0.27318497740024	0.953656794742916	-0.126129639512281	-163.569608104756	-82.4437461144905	57.4486230083951
61425	1657020020400	9.55028089453761	-0.320578208673988	-1.20403033405002	0.0386543933191848	8.67092221891463E-05	-0.18154878390248	-0.00640821635867161	0.00229306344755119	-0.0115449240248251	0.624267578125	0.362548828125	0.0283203125	0	0	0	-0.607567885917516	-0.440381462838166	-0.520329104952924	0.407655557706657	0.0706435794548108	0.110893165806516	0.991318410229135	0.959353371688876	-0.279762226918782	-0.0370702659638338	0.273222606881271	0.953643435549604	-0.126149137619526	-163.624013769801	-82.444695733005	57.5011608536638
61426	1657020020400	9.53025670594031	-0.30989132189264	-1.23054859476059	0.0385101869233846	-0.0310050961448774	-0.19844631748202	-0.00511498193043854	-0.00302458665243049	-0.012856757667964	0.630615234375	0.36962890625	0.026611328125	0	0	0	-0.60758165274526	-0.440315953014729	-0.520453130756593	0.407547464050177	0.0705008004127838	0.110837081731937	0.99133484678705	0.959274496119236	-0.280053852134	-0.0369090910223149	0.273536246659091	0.953564356096669	-0.126067206463861	-163.681387059988	-82.4518615931954	57.5405420136856
61427	1657020020401	9.53028217850781	-0.308446195465765	-1.23071441334772	0.0385966252070301	-0.0306404030711131	-0.198445494915512	-0.0133194689036683	0.000142673532851277	-0.015089818052828	0.627197265625	0.3642578125	0.036865234375	0	0	0	-0.607579817315288	-0.44034233650363	-0.520497589062009	0.407464908985154	0.0703617729263178	0.110917227229838	0.991335760282211	0.959255238246414	-0.280141949256487	-0.0367406609030376	0.273639560019163	0.953529158951325	-0.126109215452711	-163.757045175951	-82.4522600488646	57.6104742861778
61428	1657020020402	9.56064574716745	-0.306908301377718	-1.27590965392038	0.0276146649622422	-0.0707288969899571	-0.162696688852311	-0.01268246873529	0.00532511072576676	-0.00962838304762661	0.630126953125	0.365478515625	0.0302734375	0	0	0	-0.60754367523778	-0.440345544155984	-0.520589958822987	0.407397323497863	0.0701637930293016	0.110884388813518	0.99135346595712	0.959232212270908	-0.280246445097496	-0.0365443969997531	0.273771081543688	0.953502271799952	-0.126027031158917	-163.829284455691	-82.4599871877957	57.6757913032989
61429	1657020020403	9.55671606382386	-0.306017750882859	-1.31727258236532	0.0155496728314585	-0.110852978445181	-0.161410481451824	-0.0159057832712361	0.0107795070146826	-0.0124657726599556	0.627197265625	0.363525390625	0.033447265625	0	0	0	-0.607524949389999	-0.440335443715997	-0.52066752122465	0.407337041303505	0.0700200586984283	0.110855201119411	0.991366892610724	0.959203871513326	-0.280362463579085	-0.0363981028312377	0.273907145313363	0.953471558779097	-0.125963734247771	-163.88297992315	-82.4658521224174	57.7220474762027
61430	1657020020404	9.52189858806717	-0.345124196667793	-1.32645718338243	-0.0287406572210875	-0.113604692353221	-0.193362039451859	-0.0202456220340816	0.0169190908145221	-0.0125071168223483	0.62548828125	0.362548828125	0.02587890625	0	0	0	-0.607506046973528	-0.440253117981543	-0.520816367711805	0.407263926860223	0.0698550064620228	0.110693424570701	0.991396612778661	0.95913230092025	-0.280626571971841	-0.0362485370016516	0.27419975821218	0.953412656125428	-0.125772810003747	-163.922676517273	-82.4788504451173	57.7453143850734
61431	1657020020404	9.49183570933789	-0.343759042572563	-1.27970408678582	-0.0185467738350708	-0.0732531443417825	-0.229105171873927	-0.0184502959314749	0.0128055531184634	-0.015713247572275	0.6298828125	0.36962890625	0.03173828125	0	0	0	-0.607479995014952	-0.440241799306819	-0.520912584477502	0.407191961036435	0.0696744749521264	0.110653338492656	0.991413791623142	0.959099005700463	-0.280763730020793	-0.0360669539772013	0.274362105263332	0.953376927864966	-0.125689572400543	-163.989028279137	-82.4863739288091	57.8028368750389
61432	1657020020405	9.54477981723553	-0.331122971690514	-1.26950290888697	-0.00221346144350975	-0.0610165981100509	-0.178354301252433	-0.0134097832032044	0.0135502825354048	-0.0158220436199738	0.625732421875	0.366943359375	0.0234375	0	0	0	-0.607434102634559	-0.440277034258859	-0.52099169304355	0.407121112005246	0.0694475777676781	0.110665135596498	0.991428394643613	0.959092005266041	-0.280817066527672	-0.0358371396955479	0.27444409153226	0.953359849642412	-0.125640111878456	-164.079918913797	-82.4927752237469	57.8897953253837
61433	1657020020405	9.49461489396104	-0.320409989642908	-1.24941755670235	0.00839057785008502	-0.0507736786864714	-0.230998045022478	-0.0108625908420479	0.0115272341722431	-0.0125760214979512	0.628662109375	0.361328125	0.028564453125	0	0	0	-0.607402756581973	-0.440278722029888	-0.521060936082494	0.407077436261438	0.0693002956331282	0.110628718857792	0.991442764656158	0.959077318843577	-0.280885215629088	-0.0356958277788443	0.274532631038601	0.953343999931234	-0.125566923551301	-164.130751595195	-82.499079680927	57.9360537396551
61434	1657020020406	9.48046575181943	-0.329139383849314	-1.21872914840998	0.00657526749695122	-0.0195630846683323	-0.248564913778578	-0.00869120334369709	0.00845876557949348	-0.0125560255009374	0.625244140625	0.3623046875	0.027587890625	0	0	0	-0.607404924999709	-0.440330652151968	-0.521058450142732	0.407021210007997	0.0692140166205533	0.110754331766904	0.991434767343831	0.959081695214852	-0.280885302758097	-0.0355773607551114	0.274539107973813	0.953329389397683	-0.125663652276959	-164.192346224724	-82.4955704250236	57.9973848854255
61435	1657020020406	9.49723417869951	-0.297816926121257	-1.21996384369746	0.0362589513390238	-0.0275776620013941	-0.232896737118351	-0.00757884848538837	0.00452822809223474	-0.00924587000260932	0.63134765625	0.36474609375	0.030029296875	0	0	0	-0.607392622836178	-0.440345317945386	-0.521091989717572	0.406980762370837	0.0691182784315179	0.11077616475977	0.991439007154641	0.959073825722145	-0.280925320047258	-0.035473389618624	0.274590714339273	0.953315061182536	-0.125659594624469	-164.235759413382	-82.4974306694355	58.0380884472698
61436	1657020020407	9.53670891519553	-0.355647006828674	-1.18099461774697	-0.00597784867181075	0.0313168341359929	-0.196605343770051	-0.00492678396862377	-0.00765044491963359	-0.0113804375667278	0.629150390625	0.356201171875	0.032958984375	0	0	0	-0.607439612923301	-0.440374701369925	-0.521069688025759	0.406907384137569	0.0691130052281769	0.11094786886684	0.991420174750463	0.959056283698604	-0.280993006255341	-0.0354115113177894	0.274653303651265	0.953275144346842	-0.125825521910118	-164.281621960733	-82.4891713319755	58.0798904267084
61437	1657020020408	9.55101237670188	-0.344475237268179	-1.21116127678038	-0.00344011389117301	0.00206435028642787	-0.179027826101546	-0.00273681656043755	-0.00040569868517878	-0.0110975556722105	0.6298828125	0.36376953125	0.022705078125	0	0	0	-0.607426385718417	-0.440417554152944	-0.521081154846531	0.406866063945871	0.069013616115489	0.111022009314581	0.991418798610566	0.95906296318969	-0.280984768006267	-0.0352957899228365	0.274654971607063	0.953268940853639	-0.125868872146	-164.335592816507	-82.488568151594	58.134046632284
61438	1657020020409	9.52868331807581	-0.354012297143159	-1.26545311624954	-0.0279731577641747	-0.0487184379159497	-0.193989634981282	0.000690083127583858	0.00306712687305522	-0.0126229477085396	0.632080078125	0.377685546875	0.029296875	0	0	0	-0.607489454194858	-0.440381228501774	-0.521057197285748	0.406841902687056	0.069127541479979	0.111078101175371	0.991404578589492	0.959029707385444	-0.281088079602489	-0.0353767134931357	0.274742430944193	0.953231948134692	-0.125958126749395	-164.312023573098	-82.4823381452042	58.1046426577734
61439	1657020020409	9.58149967239922	-0.341697085908563	-1.25599737910955	-0.011225536887699	-0.0369843968679617	-0.143254689030375	0.00318303729573684	0.00583712855898339	-0.015976821086079	0.62939453125	0.3681640625	0.036376953125	0	0	0	-0.607437628337805	-0.44044126038302	-0.52108399738612	0.406819974312547	0.0689659276406376	0.11110643239575	0.991412659544428	0.959055946120952	-0.281018009305111	-0.0352217355653902	0.274691450603604	0.953249305862051	-0.125937952336882	-164.375006017639	-82.485877903842	58.1713195900516
61440	1657020020410	9.57826049630707	-0.300532667546316	-1.28333741325096	0.0167519962604984	-0.0753041076161864	-0.144471536365385	0.000273465211950996	0.0138818878376928	-0.0160810550533762	0.6201171875	0.360595703125	0.03662109375	0	0	0	-0.607277511279765	-0.440559679532163	-0.521186671766978	0.406799270201942	0.0685432438859553	0.111047256085434	0.991448602113839	0.959120686940577	-0.28084304506737	-0.0348524306171305	0.274571177657498	0.953307762977509	-0.125757613871255	-164.509833528148	-82.5016422140688	58.3152930216916
61441	1657020020411	9.54590076581423	-0.319572260889776	-1.26402302935863	-0.000214607179321175	-0.0562040442210553	-0.178324772319925	0.00271698448586511	0.0252624854482626	-0.0135598073922442	0.6259765625	0.369384765625	0.0263671875	0	0	0	-0.607180849658737	-0.44057180865656	-0.521269212399771	0.406824661775689	0.0683497792424186	0.11088318817432	0.991480320660885	0.959143872288787	-0.280780351976368	-0.034719248190286	0.274538412482451	0.953345327006078	-0.125544205550437	-164.541217783696	-82.5155813020204	58.3498021357637
