// Start Time : 05/07/2022 11:19:41																																
// Update Rate : 100Hz																																
// Filter Profile : 46.1 human																																
// Firmware Version : 4.4.0																																
PacketCounter	Time_Of_Arrival	Acc_X	Acc_Y	Acc_Z	FreeAcc_X	FreeAcc_Y	FreeAcc_Z	Gyr_X	Gyr_Y	Gyr_Z	Mag_X	Mag_Y	Mag_Z	VelInc_X	VelInc_Y	VelInc_Z	OriInc_q0	OriInc_q1	OriInc_q2	OriInc_q3	Mat[1][1]	Mat[2][1]	Mat[3][1]	Mat[1][2]	Mat[2][2]	Mat[3][2]	Mat[1][3]	Mat[2][3]	Mat[3][3]	Euler_X	Euler_Y	Euler_Z
61219	1657020020208	7.80601916419754	2.78224457782019	5.66431355169289	-1.38777878078145E-15	9.64939933512099E-16	0.225204239780822	0.00990557568059136	-0.00615093254617475	-0.0145369927450973	0.628173828125	-0.206787109375	0.21875	0	0	0	0.337883455937924	-0.321977282390936	0.398332472724271	0.789618034875699	0.475323741595031	0.411479414863932	0.777658042985049	-0.846642602494934	0.454332022753625	0.277089726877782	-0.239298232999546	-0.790105755101072	0.564330799655184	26.1513086069581	-51.0466453493603	40.8821638492966
61220	1657020020209	7.78560299658027	2.77309152256017	5.69926587491625	-0.0155560329569312	-0.0305463427044155	0.226541040767451	0.00489053487875209	-0.00350248566354925	-0.0118651192566435	0.6298828125	-0.2119140625	0.216064453125	0	0	0	0.338202572428699	-0.32119325710953	0.400364223264054	0.78877271778387	0.473086760635085	0.414335981372441	0.777505377120916	-0.848849524577223	0.450655017465563	0.276341346631546	-0.235888536255632	-0.790718502232779	0.564907823179964	26.0669341783505	-51.0327341509948	41.2123275506409
61221	1657020020209	7.79622375066504	2.78425819506887	5.6408305978704	-0.00508701137228451	0.0242009200753077	0.204875042251078	0.00811099626372827	-0.00307148541782245	-0.0138108444136646	0.626708984375	-0.21044921875	0.230224609375	0	0	0	0.338262888281976	-0.321165778482114	0.400317585911865	0.788781713500516	0.473196746283349	0.414249455026523	0.777484551818929	-0.84880331041328	0.450648097641663	0.276494543026452	-0.235834220456466	-0.790767779504311	0.564861522286226	26.0813249510481	-51.0308368342971	41.199795618498
61222	1657020020211	7.80549096845483	2.78676512731833	5.66281899682815	-0.00655630297918107	0.0108127446523385	0.225196274929965	0.00983837041551687	-0.00267535543920666	-0.0167446565297964	0.639404296875	-0.20361328125	0.2197265625	0	0	0	0.338332315680321	-0.321126109258649	0.400265616794311	0.788794461270529	0.473330915929345	0.414159922786988	0.777450578739616	-0.848749283470549	0.450637360357324	0.276677832972598	-0.235759406670692	-0.790820793737278	0.564818532237588	26.0980438827831	-51.0277418386422	41.1856078322622
61223	1657020020211	7.77533595090817	2.79836768720992	5.64803971927831	-0.0256606635493988	0.0140434756045144	0.196618684394597	0.0103180679607109	-0.00517950446590041	-0.0158242948383927	0.635986328125	-0.2060546875	0.22119140625	0	0	0	0.338408782087439	-0.321099116345584	0.400211009336041	0.788800356043536	0.473453010976625	0.4140476515299	0.777436035092112	-0.848698695097348	0.450621288424647	0.276859132698508	-0.235696354102535	-0.790888738496816	0.564749707376363	26.1156337038695	-51.0264169549212	41.1705867968089
61224	1657020020215	7.80507954287162	2.79028512619055	5.66165260941792	-0.00654797350621069	0.0108069124007215	0.225196286647723	0.00810818287432561	-0.00306863415790211	-0.0138127950324161	0.631103515625	-0.211669921875	0.213623046875	0	0	0	0.338469471401711	-0.321071410538219	0.400164121146967	0.788809382811031	0.473563650963347	0.41396068563597	0.777414959486928	-0.848652168064261	0.450614186151443	0.277013272026633	-0.235641605252751	-0.790938307320407	0.564703132528089	26.1301086207229	-51.0244970961692	41.1579889116422
61225	1657020020216	7.79539290706924	2.79094396606088	5.63867444361107	-0.00507477620590377	0.0242574830938559	0.204874911649327	0.00918459663032934	-0.0039987960154417	-0.0115407087934782	0.632568359375	-0.205810546875	0.218994140625	0	0	0	0.33853222273373	-0.321049273419021	0.400126580076919	0.788810508375762	0.473652167906135	0.413877053815078	0.777405562215225	-0.84861915036544	0.450589308173818	0.277154853813675	-0.235582600102084	-0.790996245051006	0.564646596416157	26.1439553260299	-51.0236410878125	41.1469467128526
61226	1657020020217	7.77489518617337	2.78160000221591	5.67386081552126	-0.0140574415930248	-0.0170595836275773	0.206219840603156	-0.000487955588658932	-0.00206933410070772	-0.014466732330846	0.628662109375	-0.212646484375	0.22412109375	0	0	0	0.338558722147911	-0.321033824318237	0.400064690873715	0.788836813553538	0.473771053519452	0.413793909273326	0.777377379073618	-0.848549114583084	0.450652469547385	0.277266571788067	-0.235595816998802	-0.791003762531596	0.564630550602362	26.1537340880267	-51.0210739476026	41.1341186531374
61227	1657020020218	7.79505755171492	2.7721473816971	5.66536599133922	0.00652015038716345	-0.0068397772638429	0.214476032826404	0.00548219099257855	-0.00192401739114433	-0.0105167609968235	0.631591796875	-0.20751953125	0.220703125	0	0	0	0.338601074150531	-0.321012643561884	0.400028752983673	0.788845480461063	0.473855758919477	0.413731295839379	0.777359076992039	-0.848512199543201	0.450652618740869	0.27737927905371	-0.235558415186563	-0.791036429037921	0.564600390515035	26.1641594869996	-51.0194069274825	41.1247481456985
61228	1657020020220	7.79481035928512	2.77343721534307	5.66507481895803	0.00653724196664727	-0.00684541105430517	0.214476017853526	0.00571588939566938	-0.00156350159295978	-0.0144387821875314	0.6376953125	-0.211181640625	0.221923828125	0	0	0	0.338650482841256	-0.320982371814292	0.399977950658733	0.788862349489882	0.473975911942625	0.413653421404708	0.777327268181386	-0.848456762198475	0.450666978916449	0.277525488548353	-0.235516363715642	-0.791068973651792	0.564572334911711	26.1772379546944	-51.0165098079767	41.1122082195622
61229	1657020020220	7.7959223575813	2.74139547691843	5.63894113924315	0.0416431921253006	-0.000801182312749966	0.191690519931297	0.00291064997458319	-0.00102841896127911	-0.0137779458132355	0.626708984375	-0.2099609375	0.2255859375	0	0	0	0.338686131626197	-0.32095727689405	0.399926535111874	0.78888332291046	0.474090385844334	0.413583190821196	0.77729482844036	-0.848398304935292	0.450700941514987	0.277649018547567	-0.235496543993524	-0.791086345216287	0.564556261305677	26.1879797977197	-51.0135554102842	41.1005344336974
61230	1657020020221	7.78312729782972	2.80880823724512	5.66812922898836	-0.0271155463978217	0.000561297487211548	0.216940117381332	0.00803672282187666	0.000409211011868899	-0.0160229231458059	0.631103515625	-0.205810546875	0.219482421875	0	0	0	0.338742315021135	-0.320913236630779	0.399877264963841	0.788902092489504	0.474225735040391	0.413514236743438	0.777248948687544	-0.848341807532379	0.450703633958321	0.277817227560604	-0.235427546854859	-0.791120856979043	0.56453667713856	26.2025120078537	-51.0093773062539	41.0877003853709
61231	1657020020222	7.78263638102707	2.81019515601412	5.66811584270427	-0.027115546352539	0.000561297485177394	0.216940117381458	-0.000377524628997425	0.00201151846554957	-0.0140392811280042	0.634521484375	-0.216064453125	0.22705078125	0	0	0	0.338759330174394	-0.320882277689284	0.399824687037569	0.788934027482681	0.474349567000495	0.413466870353392	0.777198581706512	-0.848274332172814	0.450764671710212	0.277924212897599	-0.235421209034378	-0.79111083790968	0.564553360169467	26.2105816160124	-51.0047909998327	41.0770394744093
61232	1657020020223	7.77408281978008	2.75600996250813	5.64721703349963	0.0210754742772367	-0.0110213865180058	0.183434335754471	0.00343641657801007	0.00402035429908787	-0.0146353698980321	0.633544921875	-0.2080078125	0.220458984375	0	0	0	0.338788952679785	-0.320833597021965	0.399778760786548	0.788964378782752	0.474485490891838	0.413432646669876	0.777133814475135	-0.848212159948114	0.450797975932212	0.278059915506667	-0.235371303793147	-0.791109746851195	0.564575697128163	26.2207676952124	-50.9988941046425	41.0665595998029
61233	1657020020223	7.79237953828122	2.78058593751987	5.66491468949037	0.00654716113845793	-0.00684581467602366	0.214476011106225	0.00868210194731518	0.00174105208150316	-0.0212324257990909	0.632080078125	-0.213623046875	0.22265625	0	0	0	0.338853779989238	-0.320773405599197	0.399711876798035	0.78899490086685	0.474669675613771	0.413350703204518	0.777064923422134	-0.848131827233754	0.450817062667195	0.278273929144028	-0.235289401983707	-0.791141689059837	0.564565076094596	26.2386717233503	-50.9926225681844	41.0499213808317
61234	1657020020224	7.76189268376124	2.7921498307409	5.65055855294286	-0.0125571647959021	-0.00359702801830707	0.185898529545499	0.00612654088360898	-0.000590355056864178	-0.0157273236917507	0.63330078125	-0.2119140625	0.22021484375	0	0	0	0.338903646561358	-0.320736477404274	0.399658941813615	0.789015310775484	0.474801684581439	0.413276524803435	0.777023728315309	-0.848071571913647	0.450834097151672	0.278429929708272	-0.235240237269359	-0.791170734349946	0.564544860819425	26.2522216047675	-50.9888727529332	41.0369386143215
61235	1657020020225	7.77109802579357	2.77359729492291	5.70004343680013	-0.00244820042765853	-0.0481244205533006	0.215820969943593	0.00576290932041525	-0.00180282026518547	-0.0210019659366181	0.627197265625	-0.215576171875	0.2236328125	0	0	0	0.338963662710719	-0.320696483596118	0.399582272006651	0.789044617666721	0.474975546614175	0.413167572687399	0.776975409519613	-0.847985391480152	0.450875286519473	0.27862564821322	-0.235199927625031	-0.791204166372743	0.564514801541637	26.269407415107	-50.9844748846116	41.0190699961614
61236	1657020020226	7.77036978267496	2.81805017543259	5.64508727579116	-0.0255947729802416	0.0141072289772954	0.196618763448409	0.0134580979234965	-0.00125398628865166	-0.0199871905045062	0.6279296875	-0.206787109375	0.22216796875	0	0	0	0.339048584891762	-0.320638414553751	0.399523823334865	0.789061327643956	0.475143443400697	0.413073595499222	0.776922720027336	-0.847921598364771	0.450853543341571	0.278854882479908	-0.235090772298407	-0.791265623642084	0.564474128390702	26.2897523925445	-50.9796796801141	41.0025894064707
61237	1657020020227	7.76998762454555	2.82017047190004	5.64455440099293	-0.0255947813570901	0.0141072355236638	0.196618763417762	0.0092297898216482	-0.00423053767945236	-0.0181059764865502	0.631103515625	-0.217529296875	0.22412109375	0	0	0	0.339122475420049	-0.320605972088989	0.399460013305223	0.789075063030156	0.475287016862131	0.412958488575153	0.776896092354712	-0.847857252132229	0.450855288870339	0.279047645581232	-0.23503261818114	-0.791324709086837	0.564415514651706	26.3078417275592	-50.9772565174515	40.9861124871265
61238	1657020020228	7.78853146667628	2.86591169692407	5.63438665550416	-0.051622083354157	0.0493993021252046	0.218059365072779	0.00660617201033198	-0.00309108649888631	-0.0148078458141655	0.6357421875	-0.20458984375	0.216796875	0	0	0	0.339178551467107	-0.320575809185027	0.399406166590989	0.789090473189945	0.475411729308913	0.412870324790984	0.776866643988848	-0.847800079170077	0.450865248627533	0.279205217249327	-0.234986623863402	-0.791365037442911	0.56437812158008	26.3222027431608	-50.974576814239	40.9726137042965
61239	1657020020228	7.76973507648429	2.80187084037085	5.67095466935978	-0.0139297169314372	-0.0169300583881792	0.206220238708784	-0.00173560483637734	-0.00496924201312833	-0.0106140141975977	0.62890625	-0.21875	0.2197265625	0	0	0	0.339198639663616	-0.320580879527566	0.399353079956335	0.789106646823529	0.475490034421443	0.412783143170152	0.776865048692799	-0.847745536121816	0.450922800759483	0.27927787907523	-0.235024962826142	-0.791377725533006	0.564344365063369	26.3294909908317	-50.974431652027	40.9619520875123
61240	1657020020229	7.74130956907455	2.75794578475187	5.65782489342173	0.0138213696558045	-0.0387417562611319	0.164457983291772	0.00189442341836859	-0.00356392129839184	-0.0138485508987477	0.635009765625	-0.206787109375	0.220703125	0	0	0	0.339239124475854	-0.320561260542546	0.399292327106099	0.789127956784212	0.47561223150714	0.412691633763039	0.776838864027021	-0.847679319232357	0.450964907878104	0.279410850913596	-0.235016546197424	-0.791401457721987	0.56431458932846	26.341536455869	-50.9720490719646	40.9483755941309
61241	1657020020230	7.78997582405203	2.79346786477376	5.66188211921	0.00681677009508191	-0.00671967826728124	0.214475916765837	0.00536472879467333	-0.00599225531206137	-0.010950938879997	0.634765625	-0.211669921875	0.227783203125	0	0	0	0.339289808714078	-0.32055562396496	0.399247547470261	0.789131112988318	0.475690975566834	0.41259481031154	0.776842080649766	-0.847639835660713	0.450967643083493	0.279526195360648	-0.234999584606769	-0.791450382143886	0.564253035294399	26.3534270282731	-50.9723417504678	40.9370257275222
61242	1657020020231	7.79939129037515	2.79556499175678	5.68389821233421	0.00548820467967947	-0.0201079581824344	0.234797517700162	0.00230592509171328	-0.00259486284526025	-0.015135626292881	0.63232421875	-0.21533203125	0.218994140625	0	0	0	0.339328814860898	-0.320528627229612	0.399185781703283	0.789156553680788	0.475824221624479	0.412510953121038	0.776805010070502	-0.847569349948297	0.451013334182075	0.279666174962559	-0.234984057211718	-0.79146805743829	0.564234709062797	26.3655793685311	-50.9689688333632	40.9233186792254
61243	1657020020231	7.78969447618505	2.79589466801969	5.66107128800558	0.00696085212174534	-0.00665771241854327	0.214475859114119	0.00446589344304619	-0.00445432169902031	-0.0105881757128344	0.633544921875	-0.206787109375	0.225341796875	0	0	0	0.339372302589457	-0.320519309759	0.399143596160021	0.789162975532424	0.47590352343212	0.412427943666118	0.776800506995348	-0.8475294483753	0.451021659759152	0.279773652377703	-0.234967381824697	-0.791506572121443	0.564187624613487	26.3762431747574	-50.9685591316252	40.9128859823391
61244	1657020020232	7.77863224629619	2.80833902179362	5.69151951622525	-0.0149871345919136	-0.0302281058682757	0.226542869425071	0.0015888706501426	-0.000451050274412512	-0.0121353438384057	0.624755859375	-0.2099609375	0.223388671875	0	0	0	0.339397052943243	-0.320491295552251	0.399097441639174	0.789187051341916	0.476013123104613	0.412377463921852	0.77676015209431	-0.847472668739435	0.451061745061017	0.279881006647772	-0.234950169976217	-0.791510031137883	0.564189939857363	26.3848994236707	-50.9648876968315	40.9028854697797
61245	1657020020233	7.78919842868402	2.81908408377464	5.63323361323615	-0.00451944599778632	0.0245186226346131	0.204874541828389	0.00106628470334877	-0.00549775303049375	-0.0112776741904303	0.63134765625	-0.211181640625	0.225341796875	0	0	0	0.339430302999817	-0.320491713043095	0.399045320781891	0.789198937681896	0.47609578766556	0.412283087961703	0.776759587226236	-0.847421485030296	0.451099802735061	0.279974632210559	-0.234967290651611	-0.791537505967438	0.56414426255231	26.3943764166086	-50.9648363079507	40.8914719060362
61246	1657020020233	7.76898733626303	2.80933498273331	5.66828571796134	-0.0133865328653386	-0.016660215495067	0.20622143154576	0.00214659260986743	-0.00642726774367293	-0.00900393876240432	0.62841796875	-0.203369140625	0.223876953125	0	0	0	0.33946417820421	-0.320489811067443	0.399002695796059	0.789206691219463	0.476166259498865	0.412201574000042	0.776759651183523	-0.847380815347371	0.451121840927236	0.280062204553999	-0.234971162264829	-0.791567398918316	0.56410070543619	26.4032743692644	-50.9648421264628	40.8816690421693
61247	1657020020234	7.77070530025242	2.75573968796353	5.6691590038504	0.0333009223217273	-0.0416923701210951	0.193034929754381	0.00595749080596398	-0.00441370497173724	-0.00960199065801857	0.626953125	-0.209228515625	0.222900390625	0	0	0	0.339511859049072	-0.320479005406115	0.398966897017025	0.789208666794503	0.476237244357028	0.412123419956637	0.776757602994956	-0.847349111603148	0.451114225299299	0.280170374590123	-0.234941631373797	-0.791612431974043	0.564049809317902	26.4141475850906	-50.964655792933	40.8720667731381
61248	1657020020234	7.77035460326001	2.7782447283588	5.64145020828671	0.0218308991218556	-0.01042498527996	0.18343335427889	0.00551745270650751	-0.00215275469374317	-0.017087358711186	0.629638671875	-0.211669921875	0.217529296875	0	0	0	0.339559995620524	-0.320439222301829	0.398905688945213	0.789235050863768	0.476385912275488	0.412044021566136	0.776708559806738	-0.847277385251949	0.45114652140267	0.280335243354971	-0.234898903841784	-0.791635358304489	0.564035428369578	26.4281612640394	-50.9601943222385	40.8577557447179
61249	1657020020235	7.789046446395	2.80277324410959	5.65856102718935	0.00730623999586968	-0.00624664643721188	0.214475877906194	0.011975986417571	-0.00450187373057412	-0.0122149001261772	0.635498046875	-0.215087890625	0.218505859375	0	0	0	0.339635804396758	-0.32041227846836	0.398869051532466	0.789231887285399	0.476478903072611	0.411953384769011	0.776699596822399	-0.847247312513809	0.451102000202717	0.280497730563434	-0.234818752157595	-0.791707897011558	0.563966984356962	26.444168150036	-50.9593790036859	40.8459863402859
61250	1657020020236	7.76865580900134	2.81472184378978	5.6660672628865	-0.0133030926862218	-0.0162887446263012	0.206222153508884	0.00924590625226264	-0.00744471919665414	-0.00934287804055974	0.6416015625	-0.213134765625	0.220947265625	0	0	0	0.339694101079196	-0.32040552406151	0.398836898212305	0.789225789281656	0.476538857550513	0.411864998618741	0.776709688466184	-0.847224464526275	0.451074092632769	0.280611599303541	-0.234779522004409	-0.791769780850664	0.563896435685732	26.4563004442443	-50.9602969918451	40.8363372585419
61251	1657020020237	7.78913350953905	2.80527217667507	5.65720269196421	0.00727371467056665	-0.00606833203716543	0.21447601105231	0.00165858322773313	-0.00392174287930649	-0.0099278278748037	0.62744140625	-0.20458984375	0.210205078125	0	0	0	0.339724342843673	-0.320400886462746	0.398793738739835	0.789236464423195	0.476613651791581	0.411789159594095	0.776704007306954	-0.847181081994443	0.451101849642677	0.280697943632796	-0.234784244012707	-0.79179341326494	0.563861285666641	26.4647567142948	-50.9597802019613	40.8266689163277
61252	1657020020238	7.77021653057216	2.78299450496702	5.63929883156335	0.0218173851352929	-0.0101000237338704	0.183433717404799	-0.00644901550058707	-0.00544628220595783	-0.00965369133588458	0.634765625	-0.2080078125	0.224609375	0	0	0	0.339718643521895	-0.320416637627876	0.39873503620578	0.789262182343019	0.476687098466443	0.411709958711216	0.776700920595342	-0.847115980698371	0.451203228291236	0.280731476726431	-0.234870018097416	-0.791776835148373	0.563848843149779	26.4679917843561	-50.959499419892	40.8168494765411
61253	1657020020239	7.79063513606166	2.77332341502506	5.63062990916473	0.0423930470100203	0.000117421006086242	0.191687401951876	0.0057712014899819	-0.00501591192210376	-0.0122423071494096	0.628173828125	-0.212890625	0.22265625	0	0	0	0.339771057207989	-0.320404332990469	0.398687355416425	0.789268702480819	0.476778912063981	0.411614665501677	0.776695072827831	-0.847071141318446	0.451208042629646	0.280859010558304	-0.234845375846647	-0.791823635294038	0.563793384169397	26.4806251667881	-50.9589674836086	40.8048303357611
61254	1657020020240	7.76864329202891	2.81841623342297	5.66424766666233	-0.0133461175981843	-0.0158657572135061	0.206222775052039	0.00595425414254629	-0.0044093409096446	-0.00960463549901536	0.631591796875	-0.21435546875	0.230224609375	0	0	0	0.339807210854856	-0.320389488177344	0.398658540618684	0.789273718875958	0.476843887714481	0.411560101102025	0.776684099187198	-0.847042734561057	0.451204854885649	0.280949790451863	-0.234815912102789	-0.791853813597251	0.563763270633006	26.4892376961656	-50.9579692938736	40.7972111670001
61255	1657020020241	7.80016200649681	2.77623411235342	5.65211537307298	0.040862501232748	-0.0130533685391557	0.212010697852106	-0.00364656919279138	-0.00597428311269194	-0.0103171809760643	0.6259765625	-0.209228515625	0.22265625	0	0	0	0.339821250773699	-0.320402940464313	0.398601799130184	0.789290870968746	0.476917122944005	0.411466066450036	0.776688955762181	-0.846984978370652	0.451276246505559	0.281009244962371	-0.234875507997918	-0.791861999025076	0.563726946528841	26.4955518041481	-50.9584110574079	40.7863832352851
61256	1657020020242	7.77166927332406	2.75353574421338	5.61157849855343	0.0567542672010928	-0.00339698347475441	0.160646223251335	0.00898401453689417	-0.00457279526206074	-0.0141941712909446	0.633056640625	-0.210205078125	0.21337890625	0	0	0	0.339872726310456	-0.320373486743762	0.39856479058646	0.789299351708028	0.477013873392832	0.4114014408927	0.776663774758536	-0.846946282401456	0.451265275230138	0.281143461773203	-0.234818566806631	-0.791901828387129	0.563694717803885	26.5077854627538	-50.9561205897588	40.7761838903078
61257	1657020020242	7.77802441170612	2.8229693651492	5.68510884046141	-0.0149285379892219	-0.0289236677177441	0.226546799645297	0.0117862440109812	-0.0050990885365986	-0.0148584930934699	0.626953125	-0.203857421875	0.217041015625	0	0	0	0.339953100156164	-0.320344862652832	0.398516503880986	0.78930073786905	0.477127530212827	0.411294282776651	0.776650714844355	-0.846903199488375	0.451232971657377	0.28132503618698	-0.234743031013405	-0.791975894989546	0.563622117332301	26.5255117196148	-50.9549327025789	40.7620514676468
61258	1657020020243	7.78879179134951	2.8130235764804	5.65382312566121	0.00691897862764024	-0.00511098598183479	0.214476795777493	0.00147122163184039	-0.00452491873960891	-0.0125680868063342	0.6376953125	-0.213134765625	0.22216796875	0	0	0	0.33997636408228	-0.320345905235058	0.398462026359197	0.789317798110651	0.477213029097708	0.411206266332176	0.776644791000714	-0.846846410774023	0.451288170830231	0.281407433142516	-0.234774107214884	-0.791990147285846	0.563589145729048	26.5335565090127	-50.9543938991006	40.7509104535403
61259	1657020020243	7.78855200330372	2.81413754026991	5.65359909803532	0.006915923388396	-0.00511244984207091	0.214476797138962	0.00348267154463626	0.000561897896048232	-0.0124405469599265	0.629150390625	-0.212890625	0.2255859375	0	0	0	0.340008892534793	-0.320315770755005	0.398419442092365	0.789337512199755	0.477319510336871	0.411154401514727	0.776606813752516	-0.84679524341808	0.451311802320144	0.281523485363225	-0.234742200671895	-0.792003608073605	0.56358352000578	26.5432280674837	-50.9509398250792	40.7410154844136
61260	1657020020244	7.79001213527551	2.76076523734687	5.65486596697877	0.0533550252569632	-0.0297556363850307	0.201297388696027	0.000387443589266318	-0.00359471567272645	-0.0148433181903627	0.62548828125	-0.21533203125	0.224365234375	0	0	0	0.34002230960835	-0.320304424923549	0.398369502924886	0.789361541679336	0.477413629027548	0.411093829293079	0.776581026252831	-0.846736430654196	0.451373136215966	0.281602039952759	-0.234762952404631	-0.792000098118502	0.563579808685997	26.5497699031019	-50.9485945689029	40.7312555263426
61261	1657020020245	7.79925908281333	2.76324960925861	5.6769643535686	0.0518775850704898	-0.043200967676042	0.22162163030556	0.0102120199338438	-0.00166080070433947	-0.0180591376456972	0.630859375	-0.21435546875	0.22216796875	0	0	0	0.340094722834364	-0.320260085387069	0.398311874687239	0.789377417773793	0.477562256382009	0.410999268269252	0.776539691684503	-0.846674328167752	0.45136645996671	0.281799398222931	-0.234684625190934	-0.792052978215005	0.563538114416169	26.5675189777303	-50.9448356241459	40.715920343997
61262	1657020020246	7.79702396701446	2.81994447745541	5.67509627606677	0.00468168161937722	-0.0176193393611443	0.23480259813004	0.0119301175783696	-0.0012561671916292	-0.0209989017614955	0.635498046875	-0.20654296875	0.225341796875	0	0	0	0.340148444171908	-0.320212326727048	0.398269121509431	0.789395216980434	0.477691545328312	0.410944029699345	0.776489402359307	-0.846622928662833	0.451361485559073	0.281961745661136	-0.234606914186725	-0.792084473909425	0.563526203478961	26.5812063846236	-50.940262748121	40.7044449546742
61263	1657020020247	7.74745632491435	2.82983807590803	5.61559615086611	-0.0114832025164538	0.0124997384782313	0.165573744690098	0.0102092034922367	-0.00165778867821666	-0.0180611294811588	0.6259765625	-0.211181640625	0.226806640625	0	0	0	0.340220620790703	-0.320167984426816	0.398211766188205	0.789411033749927	0.477839702034681	0.410850023158032	0.776447987717434	-0.84656102483403	0.451354636916118	0.282158506811822	-0.23452857052258	-0.792137141033902	0.563484781873717	26.598890089452	-50.936497196662	40.6891808144961
61264	1657020020248	7.75507748666149	2.86598859201899	5.66349123632184	-0.0482522059497958	-0.00646528250711942	0.208683806392154	0.008488995156705	-0.00206009185296028	-0.0151228681787309	0.62548828125	-0.208740234375	0.212890625	0	0	0	0.340259816930789	-0.320128642173784	0.398177719391373	0.789427269115072	0.47794431248051	0.41081087292249	0.776404315325588	-0.846518525643905	0.451355521525023	0.282284570833306	-0.234468803701477	-0.792156941443763	0.563481818884391	26.6092584314474	-50.9325266936429	40.6802817100912
61265	1657020020249	7.76572367197318	2.85601840390348	5.63238475922351	-0.0262068136950703	0.0172109547164259	0.196612324052266	0.00337184347504891	-0.00351266777982192	-0.0128709618166883	0.628662109375	-0.21240234375	0.220947265625	0	0	0	0.340300363945808	-0.320113812397811	0.398126842000393	0.789441465271039	0.478044329581867	0.410725981298934	0.776387652684309	-0.846465368751153	0.45138135995429	0.282402633469999	-0.234456815766994	-0.792186238312585	0.563445618820981	26.6203285583746	-50.9310118884468	40.6685023678661
61266	1657020020250	7.76585081148486	2.83603495569253	5.65928062497387	-0.0149504605962634	-0.0136764333432054	0.206223737232792	0.00445542116826921	-0.00444075609450457	-0.0105963159839449	0.635009765625	-0.212158203125	0.224365234375	0	0	0	0.340328614581501	-0.320115197178628	0.398089990326372	0.789447309346402	0.478101240274473	0.410653420357206	0.776390991960197	-0.846430866606353	0.45140158739797	0.282473706653579	-0.234465332414047	-0.792212329646239	0.563405389264648	26.6277435824886	-50.9313154589622	40.6601273781251
61267	1657020020250	7.78639470107589	2.80513105228015	5.67817783570449	0.0171972267216843	-0.0345191379401462	0.224090949188275	-0.00575122534193629	0.000201611825014758	-0.00787565320317338	0.634033203125	-0.208740234375	0.223876953125	0	0	0	0.340317692083883	-0.320112625467424	0.398050565303035	0.78947293996247	0.478167308956573	0.410620320275048	0.776367810526973	-0.846380279898994	0.451479231833267	0.282501194725517	-0.234513211660517	-0.792185240837306	0.563423550942104	26.6292374009304	-50.9292080969427	40.6539314810236
61268	1657020020251	7.76731764680803	2.78288063414107	5.66053688696596	0.0315822784924067	-0.0382411272424812	0.193054287709769	0.00545932703019688	-0.00189583293358175	-0.0105335958222172	0.627685546875	-0.203125	0.226806640625	0	0	0	0.340340081882386	-0.320086283313196	0.398027969882307	0.789485360909501	0.478237012852228	0.410598127164735	0.776336613529847	-0.846350894653701	0.451484727711321	0.28258043768512	-0.23447712608495	-0.792193611822417	0.56342679979807	26.6355441259369	-50.9263722121647	40.6482731293296
61269	1657020020251	7.78749507063124	2.7735642867499	5.65206904943355	0.0521489003367695	-0.0280085625630926	0.201308781219057	0.00496911884882514	0.000607898923284606	-0.0114579554413221	0.631103515625	-0.2119140625	0.219482421875	0	0	0	0.340376382162593	-0.320054592859113	0.397992297627485	0.789500542802148	0.478334377237965	0.410552221192134	0.776300906367224	-0.846308318839761	0.451492098990199	0.282696151392342	-0.234432192787138	-0.792213202505253	0.563417952111383	26.6453061002822	-50.9231265542656	40.6393424548729
61270	1657020020252	7.77754891783918	2.77400600508809	5.62948903126581	0.0534914440357945	-0.014069835030838	0.180983821560448	0.00459782926353572	-0.000602194057699074	-0.0167364851477169	0.632568359375	-0.213623046875	0.220703125	0	0	0	0.340400742645349	-0.320014068639012	0.397943840430049	0.789530892456644	0.478463391473778	0.410511857721363	0.776242744049544	-0.84624396420808	0.451536068540558	0.282818549335665	-0.234401228795421	-0.792209059199081	0.563436660559201	26.6544861218003	-50.9178402849622	40.6289222435552
61271	1657020020253	7.77572474154823	2.78802025281301	5.68248763480501	0.0299580502216129	-0.0511670315368043	0.21338375542634	0.00989724812360141	0.00145995086479429	-0.016351427590083	0.63671875	-0.200927734375	0.225830078125	0	0	0	0.340462647275495	-0.319960709556311	0.397898202068807	0.789548827458312	0.478604330261266	0.410450777383018	0.776188156570842	-0.846189458181768	0.451524413201146	0.283000185769208	-0.234310255680818	-0.792247350029672	0.563420660300768	26.6698901966798	-50.9128794726366	40.6163699224291
61272	1657020020253	7.77492360068526	2.81109093353547	5.65494876434535	0.0181527335555987	-0.0196059820290953	0.20376911973284	0.00762194777433067	-0.000759717064518476	-0.0213298605835654	0.6259765625	-0.20751953125	0.226806640625	0	0	0	0.34050469375199	-0.319911306281162	0.397836169795836	0.789581972722607	0.478766276231319	0.410385932789471	0.776122566939083	-0.846111138281736	0.451565871070085	0.283168158097447	-0.2342622342999	-0.792257313158566	0.563426619292688	26.6832856350151	-50.9069195036143	40.6023183400855
61273	1657020020254	7.78546727768021	2.7809198579395	5.65124829998999	0.0517831780303193	-0.0270031960025587	0.201313440559787	0.0142283396317701	0.000740443303363259	-0.0225977007779033	0.630859375	-0.20703125	0.224609375	0	0	0	0.340595223963929	-0.319841420388589	0.397771444562509	0.78960384820961	0.478958687388929	0.41029080624852	0.776054141205763	-0.846036647089291	0.451545542607231	0.283423031409677	-0.234137924216869	-0.792318166685253	0.563392718433541	26.7053578533301	-50.900702638144	40.5843804062993
61274	1657020020254	7.77374157777588	2.81557871720199	5.65434107703805	0.0179136012384395	-0.0188527987141592	0.203770996201566	0.00590190930327828	-0.00116262523416765	-0.0183916253487459	0.63427734375	-0.20751953125	0.22314453125	0	0	0	0.340618612037515	-0.319794577338803	0.397728321955746	0.789634454258805	0.479087220437926	0.410264002761058	0.775988971088853	-0.845975943042124	0.451582286095808	0.283545662422251	-0.23409429511855	-0.792311104884287	0.563420778876667	26.7141636439613	-50.8947823355343	40.5749354964618
61275	1657020020255	7.79364233173889	2.80722126938303	5.64580019166486	0.0384909245729818	-0.0086129029339144	0.212024882861113	0.00933384196151905	-0.000349221022673642	-0.0242738792490546	0.625	-0.212646484375	0.216552734375	0	0	0	0.340694607867177	-0.319735515257001	0.397647447900868	0.789666316637285	0.479291414922533	0.410153259024803	0.775921415926181	-0.845881922991578	0.451607382696314	0.283786088894884	-0.234016050598302	-0.792354135475747	0.563392768907141	26.7348134100377	-50.8886461605642	40.5552323458982
61276	1657020020256	7.7613753500072	2.85258408543643	5.65710238754562	-0.016419086795592	-0.0109860937698001	0.206224749340407	0.0138140347306042	-0.000221983859413594	-0.0213133303603104	0.63330078125	-0.203369140625	0.229736328125	0	0	0	0.340751897205784	-0.319691789496099	0.397603704551621	0.789681327122699	0.479416907711219	0.410089274574636	0.775877706523046	-0.845831609742267	0.451598877354972	0.283949541173311	-0.233940839874994	-0.792392100446855	0.563370608558881	26.748976351973	-50.8846763758457	40.5434071549992
61277	1657020020257	7.79087244033584	2.84509634812376	5.67098937288107	0.00267461714658322	-0.0141843412007768	0.23480876932865	0.00458999538126283	-0.000595862156132752	-0.0167420847374067	0.626708984375	-0.199462890625	0.22705078125	0	0	0	0.340797493126962	-0.31965618856494	0.397544642600117	0.789705797705993	0.479556356504162	0.410010562765636	0.775833125973015	-0.845762673667441	0.451630651636647	0.284104301856132	-0.233904255556319	-0.792414722807991	0.563353979581027	26.7622059535986	-50.8806278200515	40.5297438833922
61278	1657020020258	7.77158843368604	2.82333847819467	5.65343148123151	0.0175458490592339	-0.0176285625847802	0.203773876565082	-0.00381720503618064	0.000968273404640911	-0.0147476630616608	0.6328125	-0.205078125	0.2294921875	0	0	0	0.340782775783051	-0.319604483422179	0.397491525196899	0.789759812413043	0.47970692314617	0.410014258723918	0.77573808436141	-0.84567707077719	0.451735174252485	0.284192935001538	-0.23390502313406	-0.792353229302534	0.563440147812082	26.7658684285785	-50.8719978474811	40.5211152689859
61279	1657020020259	7.76189016662166	2.80254014447493	5.6582820526246	0.030616795399184	-0.0352430553796278	0.193068297806578	0.0075768412927578	-0.000509394147104839	-0.0147684146953597	0.63134765625	-0.205322265625	0.225830078125	0	0	0	0.340837061282312	-0.319565176358237	0.397445082717762	0.789775665577915	0.479831008565201	0.409945598271969	0.775697627736955	-0.84562422066439	0.451735007759818	0.284350417952886	-0.233841571678445	-0.792388849758548	0.563416391431133	26.7796051414795	-50.8683247881252	40.5090574457366
61280	1657020020260	7.75934634006322	2.87958406448032	5.62917430457247	-0.0277006023065261	0.0216643586315463	0.19659965313995	0.00735473691850527	-0.000873687373365213	-0.010840177845675	0.628662109375	-0.21044921875	0.21875	0	0	0	0.340856072077273	-0.319517368771456	0.397434113593976	0.789792323673248	0.479909552810271	0.409961953605	0.775640392010252	-0.845599694724616	0.451726526959647	0.284436813936964	-0.233769068533631	-0.792385222879217	0.563451578362836	26.7851675426579	-50.8631288473724	40.5055548547526
61281	1657020020261	7.75019522412987	2.83700633686536	5.66134953308778	-0.00303741147098073	-0.0270147347162768	0.195522791615126	-0.0144492978137552	-0.0029256101444504	-0.00894874402361666	0.628662109375	-0.2080078125	0.22119140625	0	0	0	0.340818937998608	-0.319540768867216	0.397371401263293	0.789830436227484	0.479979332979591	0.409900963423059	0.775629447672865	-0.845523145393392	0.451876841919097	0.284425614777025	-0.23390265179457	-0.792331067119087	0.563472297066499	26.7834124799849	-50.8621353707913	40.4972310938901
61282	1657020020262	7.81365965387158	2.73068696966745	5.66534690134089	0.116287820287338	-0.0520425574790517	0.216761904390024	0.00227734368136024	-0.00257353889233882	-0.0151541566361797	0.6396484375	-0.210205078125	0.226318359375	0	0	0	0.340827878839101	-0.319539880703584	0.397328132635981	0.789848704918849	0.480049239311887	0.409842022491304	0.775617331186144	-0.845474421470112	0.451933424044087	0.284480549197246	-0.233935312588454	-0.792329285607964	0.563461243291956	26.7883161711037	-50.8610355165778	40.4890417224548
61283	1657020020263	7.74173943296291	2.80507477546921	5.61260590427994	0.0328919759946004	-0.00713340914927506	0.152411014960895	0.0212774446552907	2.73395202854281E-06	-0.0163819400349808	0.629150390625	-0.209716796875	0.233642578125	0	0	0	0.340937732935913	-0.319468365702306	0.397298258808284	0.789845250111643	0.480188113726808	0.409770644500128	0.775569077736755	-0.845445925889269	0.451831111616853	0.284727647010817	-0.233753207106828	-0.792424548762234	0.563402851152036	26.8107253633153	-50.8566556461972	40.4759302944409
61284	1657020020265	7.7584970361463	2.86363190487303	5.65546872450858	-0.0171875994101886	-0.00784802036945781	0.206226409983159	0.00489108887676366	-0.00369751499890246	-0.0184605576978253	0.631591796875	-0.21142578125	0.220458984375	0	0	0	0.340950732993997	-0.319425940259982	0.39727612738776	0.789867928813208	0.480277494593621	0.40977432687553	0.775511785352473	-0.84540836075128	0.451848552557281	0.284811497527267	-0.233705438016981	-0.792412699661986	0.563439332719766	26.8160237325556	-50.8514558636194	40.4709190081174
61285	1657020020266	7.80141051991574	2.76867731376828	5.66747096212675	0.0822565793063189	-0.0434581103748778	0.219219354630409	0.000780575478160069	-0.00261510128905046	-0.0161431102074002	0.63232421875	-0.21142578125	0.220947265625	0	0	0	0.340984240026493	-0.319405394298703	0.397210411539693	0.789894822815616	0.480408166114716	0.409684484016717	0.775478315290796	-0.845333306557938	0.451907274036046	0.284941075482516	-0.233708354052906	-0.792425667952059	0.563419884292891	26.8273142769296	-50.8484184324015	40.4570200327181
61286	1657020020267	7.76916207103567	2.83431505748751	5.65127362845858	0.0153707186122266	-0.014731074599147	0.20378213094836	0.0115802571042773	-0.00566055417447786	-0.017516436342749	0.63427734375	-0.217041015625	0.219482421875	0	0	0	0.341030240189189	-0.319406478288406	0.397182123622832	0.789888750127737	0.480451724603711	0.409604846385683	0.775493397871756	-0.845313918420395	0.451889471901922	0.285026813666644	-0.233688937799968	-0.79247698704856	0.563355753807804	26.8368841361784	-50.8497871625602	40.4489559675015
61287	1657020020267	7.76913497190844	2.81508613929704	5.67815548201207	0.0269597684486679	-0.0457628084559714	0.213418389378619	0.00648151777818735	0.000426233930120349	-0.0170503181208953	0.632568359375	-0.212890625	0.220458984375	0	0	0	0.341081420776483	-0.319361500428542	0.39712732155145	0.789912391928686	0.480596245042804	0.409535036318923	0.775440715514742	-0.845248133548829	0.451906709756935	0.285194527312295	-0.233629711259032	-0.79250323639965	0.563343392890253	26.8509699201	-50.8450064626186	40.4356274666366
61288	1657020020269	7.77044031043318	2.78316510722489	5.65210366070738	0.0605409160347415	-0.0391695652855854	0.190653419832612	0.000184352136371964	-0.00418872267793175	-0.0174957575805417	0.62744140625	-0.206787109375	0.225830078125	0	0	0	0.3410701046252	-0.319392796814525	0.39709895765489	0.789918883749054	0.480601318344791	0.409481261485197	0.775465969142257	-0.845222599989457	0.45196720312071	0.285174339256365	-0.233711637006613	-0.792496526046477	0.563318850147902	26.8503413970344	-50.8472980608245	40.4316146594722
61289	1657020020269	7.77761190713041	2.8405239204011	5.67261699291686	0.0123442702946756	-0.0275268394288171	0.224119703772082	0.0133895114554101	-0.00116827849778988	-0.0200366621991115	0.630859375	-0.207275390625	0.2177734375	0	0	0	0.341156057238324	-0.319336054009268	0.397041065043895	0.789933808548666	0.480765754557199	0.409385463080993	0.775414619325047	-0.845159179560378	0.451941874556821	0.285402353225924	-0.233602762076726	-0.792560461188942	0.563274058438783	26.8706357326769	-50.8426385257663	40.4153217107561
61290	1657020020270	7.76573488898645	2.87508488836727	5.67578460184791	-0.0218922706392035	-0.0195559585195762	0.226556647641335	0.00788322563884618	0.00394630461581033	-0.0182812536124864	0.633056640625	-0.208740234375	0.227783203125	0	0	0	0.341174088973695	-0.319286232090394	0.397007153660508	0.789963203543602	0.480883243879803	0.409377707160196	0.775345857431314	-0.845106464581332	0.451971121910703	0.285512116173069	-0.23355164156666	-0.792547788993851	0.563313086020977	26.8779183742906	-50.836399729685	40.4078754017034
61291	1657020020271	7.79663297069055	2.85498526830231	5.63666263383528	0.0207157788278026	0.0143748230619948	0.222737702308697	0.00507179066013568	-0.00308600411418182	-0.0158249023735195	0.629638671875	-0.205810546875	0.21923828125	0	0	0	0.341224194800665	-0.319260803990331	0.396949416271895	0.789980853463859	0.4810073999137	0.409285855750877	0.775317334715622	-0.845043898842931	0.451994419608081	0.28566038169738	-0.233522354939737	-0.792581940827211	0.563277175836171	26.891388684249	-50.8338120961884	40.3942292927801
61292	1657020020272	7.75731124356473	2.82264910919882	5.65456454703642	0.0257576179808441	-0.0304814817817972	0.193097625158616	0.00236729131895987	0.00150949429170118	-0.0147349473627574	0.635498046875	-0.20654296875	0.22119140625	0	0	0	0.341220201899964	-0.319230422278206	0.396921905611168	0.790008678530448	0.481089876676154	0.409287761978572	0.775265153643768	-0.844999238548094	0.452043549322693	0.28571474650232	-0.233514062559123	-0.792552936661214	0.563321422614852	26.8939714963313	-50.8290785041513	40.3895126637784
61293	1657020020273	7.78683307764061	2.81459700435854	5.66879079479382	0.0448266790351802	-0.0336362693038825	0.221692226730891	0.00576130746635527	0.00256865977210274	-0.0140504247114072	0.638671875	-0.2099609375	0.2216796875	0	0	0	0.341258902104062	-0.319184253704946	0.396882032392658	0.790030648953204	0.48121212910138	0.409249003241567	0.775209739458619	-0.844946875194584	0.452054028197207	0.285852993144355	-0.23345163290203	-0.792566974416965	0.563327547843094	26.9049030588154	-50.824052146579	40.3796500827144
61294	1657020020274	7.7750639092119	2.84844509675289	5.67213787644831	0.0103477657339167	-0.0259139078462631	0.224126254708981	0.00177282582372347	-6.45528417314115E-05	-0.0160869028394785	0.635986328125	-0.205078125	0.226806640625	0	0	0	0.341262466091834	-0.319180764343194	0.396840403548468	0.790051430618098	0.481282667569567	0.409199827563391	0.775191908509895	-0.84489748663873	0.452115246696819	0.285902152450504	-0.23348496947058	-0.79255744575795	0.563327137820428	26.9088958939512	-50.8224349009698	40.3721078116522
61295	1657020020275	7.77656481053271	2.79545904938634	5.6736907573014	0.0570302787336272	-0.0509187552480215	0.211008208956942	0.0059771616529136	0.00293752441223208	-0.0179825580728792	0.63427734375	-0.203857421875	0.21435546875	0	0	0	0.34130760895979	-0.319126357916156	0.396785799203234	0.790081333344847	0.481438794467642	0.409145598220765	0.775123581526273	-0.844826614926402	0.452140291233604	0.286071927590227	-0.233419531945253	-0.792571155480544	0.563334967498641	26.9223036652848	-50.8162382442158	40.3591900791266
61296	1657020020276	7.75505584480552	2.82865013458156	5.65465943547791	0.0244325392495848	-0.0299503487916405	0.193102552469393	0.00597602954991218	0.00293870591315349	-0.017983360369267	0.634521484375	-0.207275390625	0.224853515625	0	0	0	0.341334974677864	-0.319092570316293	0.396726418007674	0.79011297665929	0.481576161647484	0.409082473285229	0.775071564814319	-0.844752290920455	0.452197168632925	0.286201480892412	-0.233405157435562	-0.792571290630191	0.563340733261207	26.9325411579584	-50.8115213368918	40.3467622888212
61297	1657020020277	7.7640969669653	2.83124054877213	5.67701444679396	0.0229261162928072	-0.0433515455970836	0.213439140207427	0.0041670255028871	-0.00154931484031616	-0.0154645080713023	0.631103515625	-0.210205078125	0.223876953125	0	0	0	0.341378115560343	-0.319063973439	0.396670783933313	0.790133819199961	0.481700940054095	0.40900308695694	0.775035921238942	-0.844688918940145	0.452226542780399	0.286342075540107	-0.233377022370948	-0.792595501415811	0.563318326139571	26.9448264499693	-50.8082894306365	40.3339518708253
61298	1657020020278	7.74521558246178	2.78861158161855	5.68672999064937	0.0482720953611817	-0.077723815376781	0.192073781070761	0.00407411531444647	0.00192523837838168	-0.0176822439101844	0.631591796875	-0.2041015625	0.220947265625	0	0	0	0.34137265554799	-0.319025620575762	0.396652471677377	0.79016085715036	0.481778940256956	0.409025267455223	0.774975730786499	-0.844651760590396	0.452263053512683	0.286394018371418	-0.23335050044178	-0.792563222090558	0.563374726920727	26.946707362436	-50.8028322954374	40.330907797261
61299	1657020020279	7.77213716547994	2.8565727205997	5.67206159099508	0.00904286030517405	-0.0247814701857796	0.224130375153717	0.00787180175871267	0.0039581336488977	-0.0182884079998945	0.625732421875	-0.20751953125	0.23046875	0	0	0	0.341423783967317	-0.318963076609959	0.396601296292724	0.790189703349695	0.481939935076881	0.408977360207245	0.774900908385069	-0.844583682455363	0.452274423040739	0.286576777833279	-0.233264447158649	-0.79258145644538	0.563384711001896	26.9610650179327	-50.7960494508681	40.318152394353
61300	1657020020280	7.76410344978464	2.80274398703561	5.6511370747786	0.0569334063435229	-0.0352775517644935	0.190689084801258	0.00456967032286174	-0.000575203688037909	-0.0167566076497836	0.628662109375	-0.211181640625	0.229248046875	0	0	0	0.341424426018592	-0.318911704358428	0.396577292240798	0.790222207622662	0.482043552204318	0.408999875512708	0.77482457086029	-0.844536857957457	0.452311625193663	0.286656046972697	-0.233219873359002	-0.792548607686151	0.563449372282155	26.9648115256181	-50.7891302707967	40.3136319634514
61301	1657020020281	7.76185880119498	2.83783154162414	5.67678412061694	0.0217885387444302	-0.0412588953104856	0.21345050682652	0.0049731229657056	0.000397389489762317	-0.0180477926860303	0.632568359375	-0.202880859375	0.224853515625	0	0	0	0.341470603577575	-0.318868938272542	0.396516711519405	0.790249912738461	0.482194195381558	0.408925855726973	0.774769902912017	-0.844463330983234	0.452344648756407	0.286820503740831	-0.233174699667511	-0.792567954978881	0.563440854194618	26.9784448801202	-50.7841758352993	40.2996848172793
61302	1657020020282	7.77020181982001	2.88259648098724	5.64435084576813	-0.00331395263594297	0.00873452606490434	0.214476133587025	0.00606254599914282	-0.000528355448266667	-0.0157702283374487	0.629150390625	-0.2001953125	0.2216796875	0	0	0	0.34146929235762	-0.318814403584446	0.39651362391975	0.790274031263781	0.482268644226243	0.408978182481348	0.774695941031341	-0.844439497622938	0.452351336845627	0.286880119402329	-0.233107034751212	-0.792537137494659	0.563512196887761	26.9803262277013	-50.7774736687832	40.2989378016853
61303	1657020020283	7.77200539077281	2.82943738378003	5.64569208889534	0.0433781839322633	-0.016253451672569	0.201376593370815	-0.00112959879026824	-0.00362252755781293	-0.0158498060948253	0.629150390625	-0.20751953125	0.227783203125	0	0	0	0.341495566405547	-0.318802905189748	0.39644559792881	0.790301444798629	0.48239119105089	0.408883500295376	0.774669621182285	-0.844362615013403	0.452423332016446	0.286992862306476	-0.233131965127547	-0.792544895784042	0.563490971535863	26.9903020477147	-50.7750888879748	40.2852135739414
61304	1657020020284	7.7807493610103	2.85297923616812	5.64064362206594	0.0301476394961957	0.00222929498443499	0.21205689786601	0.00895567342904025	0.00303811303927073	-0.0160141621589541	0.62890625	-0.213134765625	0.2265625	0	0	0	0.341515384069792	-0.318733571544479	0.396421330560044	0.7903330193603	0.482518078095011	0.408904898036795	0.774579297859823	-0.844314570444592	0.452434742241334	0.287116196248109	-0.233043366021137	-0.792527342351377	0.563552305628326	26.9977362758447	-50.7669058245624	40.2792599105624
61305	1657020020285	7.73979997043495	2.85398918395335	5.68425500688223	0.000587717357877601	-0.0492530293737132	0.205200964849945	0.00254620085066008	-0.00543001129319201	-0.0103058219496956	0.638671875	-0.208740234375	0.227783203125	0	0	0	0.341550920558202	-0.318730999534821	0.396378092227811	0.790340386544443	0.482589915874751	0.408821496655046	0.774578567331119	-0.844272961861262	0.452454753335372	0.287207002098209	-0.233045358173069	-0.792558944216111	0.563507037202758	27.0069274838571	-50.766839646354	40.2692886239411
61306	1657020020286	7.76935656357399	2.86653213469198	5.67084635093821	0.00696892899568601	-0.0199814395947426	0.224142733180987	-0.00315160154999908	-0.000929362681461641	-0.0111918011173047	0.62744140625	-0.216796875	0.221435546875	0	0	0	0.341496492781997	-0.318721365951674	0.396407887278182	0.790352847282239	0.482554955579095	0.408919747496528	0.774548484572421	-0.844288662085265	0.452481864642487	0.287118124199662	-0.233060871705939	-0.792492777428939	0.563593672606989	26.9961908284196	-50.764114546467	40.2781264214868
61307	1657020020286	7.74876218604855	2.87733092026337	5.678992224274	-0.0136138875291899	-0.0301568503964667	0.215882154328904	-0.00476649849061779	-0.00481687779176589	-0.00602875102666698	0.6259765625	-0.216552734375	0.2216796875	0	0	0	0.341494579046772	-0.318738076988653	0.396371677752616	0.790365095278644	0.482591062706304	0.408862026850568	0.774556459656521	-0.844251328560239	0.452541891114489	0.287133298331615	-0.233121342695753	-0.792488283690154	0.563574981518487	26.9981841790981	-50.7648369680999	40.2720228442668
61308	1657020020288	7.79161775014427	2.8229714908529	5.63672215250816	0.0601031849776501	-0.0022878411439572	0.209662370899389	-0.0104909079038685	-8.19468183353831E-05	-0.000339708592295677	0.641845703125	-0.20068359375	0.224609375	0	0	0	0.341366960950343	-0.318813532784991	0.39646435319981	0.790343308902237	0.48234789591002	0.409021083946136	0.774623947602128	-0.844350711132755	0.452569229226767	0.286797784800894	-0.233264622094279	-0.792390589068685	0.563653058569361	26.9678889971376	-50.7709507987999	40.2972583117024
61309	1657020020288	7.73405534841643	2.76581489457095	5.63737223077754	0.0802198750782067	-0.0519575187160555	0.149048180548926	-0.00566960453659204	-0.00328600744871674	-0.00566586424333242	0.627197265625	-0.2109375	0.224853515625	0	0	0	0.341356698227842	-0.318827515835388	0.396432091576245	0.790358283621868	0.482381223829438	0.40897895872215	0.774625436078211	-0.844314591161162	0.452634402686939	0.286801270319008	-0.233326436670113	-0.792375106137733	0.563649239442443	26.9683273488444	-50.7710856510094	40.2923946849585
61310	1657020020289	7.77136906353673	2.81262054165587	5.67232815825732	0.0506628315472157	-0.0428177109723854	0.211080292563674	0.00304185916658892	-0.000377718634592481	-0.0111740936932894	0.631103515625	-0.2041015625	0.232177734375	0	0	0	0.341355508236839	-0.318802976060272	0.396418056847349	0.790375735746521	0.482434773320971	0.408988122846918	0.774587248062411	-0.844288730528802	0.452658282403482	0.286839709373708	-0.233309298984863	-0.792356734521569	0.563682158902966	26.9700784881893	-50.7676260352574	40.2898907636364
61311	1657020020290	7.74316920635815	2.76824166346378	5.65973306174389	0.0782666412894867	-0.0646024319156339	0.169402119379297	-0.00405618908309171	0.000602776892980982	-0.0108292721756661	0.632080078125	-0.200927734375	0.232421875	0	0	0	0.341352191621369	-0.318789429241962	0.396374571186873	0.790404441027057	0.482520998240013	0.408953502077662	0.774551818405894	-0.844231383427538	0.452731761183421	0.286892529794316	-0.233338504095416	-0.792332623053079	0.563703962157745	26.9734471101763	-50.7644165398467	40.2824477883276
61312	1657020020291	7.78193757597471	2.78222543693405	5.66904508818743	0.0851033243719984	-0.0483674163490032	0.208680845212429	0.00686324647108315	0.00142522574559385	-0.018355872362859	0.634765625	-0.2041015625	0.224853515625	0	0	0	0.341364026967262	-0.318657978641412	0.396355200479269	0.790462047661937	0.482719295402416	0.40905074511604	0.774376891291448	-0.844164228373161	0.452746312291466	0.287067121491862	-0.23317126191137	-0.792274109526804	0.563855387481727	26.9813177005529	-50.7485734991748	40.2775554431742
61313	1657020020291	7.74776076122995	2.86044604343408	5.70614131265246	-0.00425600184631898	-0.0571443309019411	0.225575090090786	0.0165466197075349	-0.000433885611954674	-0.0154353161007234	0.63671875	-0.210205078125	0.2216796875	0	0	0	0.341451591254923	-0.318598294495452	0.396324896819712	0.790463480329683	0.482843405810867	0.408988925309671	0.77433216673402	-0.844132503815978	0.452674773980651	0.287273153989257	-0.233029100041884	-0.792346898760642	0.56381187514814	26.9997301243562	-50.7445236842702	40.2660198609469
61314	1657020020292	7.76006956110552	2.81754260929814	5.64931859448499	0.0519598234587987	-0.0269363701798581	0.190742093118994	0.00287539575895359	-0.00121209599936581	-0.0203936712839162	0.634521484375	-0.21044921875	0.2177734375	0	0	0	0.341461420077113	-0.318586530143751	0.396281193103354	0.790485886909101	0.482927677607095	0.408939362790753	0.7743057895698	-0.844079398792053	0.452730629183007	0.28734116644575	-0.233046833782104	-0.792340567533843	0.563813442819773	27.0051524787711	-50.7421353925825	40.2576640679045
61315	1657020020293	7.76879900355995	2.84161435365016	5.64398911245235	0.0388460048460524	-0.00919624227747306	0.201404167481094	0.017446968273283	-0.00195917735442932	-0.0158007801984202	0.631103515625	-0.20556640625	0.22607421875	0	0	0	0.341556109745786	-0.318530747296503	0.396248233513984	0.790483981089499	0.483051000927558	0.408863516493607	0.774268916710058	-0.844048008017654	0.452653522664744	0.287554774922325	-0.232904896179354	-0.792423758666838	0.563755173844112	27.0247783318773	-50.7387969836875	40.2452085545926
61316	1657020020294	7.73478444908269	2.91958679926497	5.68088829398741	-0.051831991098396	-0.01752558245096	0.218283454310415	0.00733438307856533	-0.000840086175161587	-0.0108555352458754	0.637451171875	-0.202392578125	0.227783203125	0	0	0	0.341559456978695	-0.318539311390802	0.396257140316399	0.790474618944443	0.483025971693886	0.408862195541222	0.774285228921738	-0.84406265244126	0.452634832193377	0.28754120998406	-0.232903734240139	-0.792435116424357	0.563739688894186	27.0243213143299	-50.7402738355122	40.2465813031835
61317	1657020020295	7.71780852562409	2.86369333229924	5.63735871307642	-0.00215747502299701	-0.0156488988816703	0.164530268796673	-0.00626109166211218	-0.00486456572213649	-0.00701696926116679	0.634521484375	-0.19873046875	0.222900390625	0	0	0	0.341551980785916	-0.318557466873892	0.396216345317625	0.79049098187345	0.483067496004068	0.408803028079034	0.774290564670507	-0.844018763298722	0.452709704248724	0.287552170707734	-0.232976654418542	-0.792422871901389	0.563726769440212	27.0257368144524	-50.7407569260559	40.2400635162018
61318	1657020020298	7.75748152325119	2.85568011433979	5.67381609749042	0.0159598252422011	-0.0318864510870939	0.213495667438238	-0.000781357320225858	-0.0021782681019091	-0.00399373630827686	0.62939453125	-0.212158203125	0.218994140625	0	0	0	0.3415528952132	-0.318538210763637	0.396176799422263	0.790518166555654	0.483154703766066	0.408774617977644	0.774251150419524	-0.843965210467055	0.452771126742025	0.287612639343365	-0.232989818983631	-0.792402434679493	0.563750056109963	27.0296554364781	-50.7371885375232	40.2330000092264
61319	1657020020299	7.74833595319299	2.83384552164962	5.67861168181949	0.0290185780806874	-0.049437021582066	0.202837337966969	-0.00227665621180661	-0.00222422314643169	-0.00498161556342454	0.6337890625	-0.201904296875	0.227783203125	0	0	0	0.341553227556474	-0.318540989889315	0.396154318459707	0.790528169309491	0.483186787452121	0.408744889860543	0.774246823335163	-0.843939702683462	0.452806297422961	0.287632117901772	-0.23301567901377	-0.7923976729061	0.563746061012182	27.03139060631	-50.7367967993825	40.2290693278397
61320	1657020020301	7.7574493665684	2.85619466867365	5.67360105620401	0.014952844108591	-0.0309817604096558	0.213500056184195	-0.0037720429026043	-0.00227012307597444	-0.00596953410958177	0.634033203125	-0.204345703125	0.226806640625	0	0	0	0.341506159353475	-0.318564199747966	0.396164517503886	0.790534040274984	0.483141051419702	0.408779800544991	0.774256933517203	-0.843946345998756	0.452854436389104	0.287536822890661	-0.233086442137704	-0.79235215283932	0.563780787525153	27.0222768956812	-50.7377120960862	40.2341565249243
61321	1657020020301	7.75978622770408	2.80194346035958	5.67492240017519	0.0616480392318933	-0.0559168593874479	0.200453329091184	-0.000872543427593044	-0.00625512201713418	-0.00441750987175674	0.6240234375	-0.202392578125	0.224853515625	0	0	0	0.341518873587573	-0.318581271024784	0.396139913948413	0.790533997569145	0.483158284658355	0.408721105887708	0.774277165857243	-0.843927173193635	0.452876055120839	0.287559046186324	-0.233120137078283	-0.792370075343659	0.563741665471417	27.0256785157393	-50.7395438274238	40.2290919689881
61322	1657020020303	7.78040101057269	2.79230137035883	5.66619943278118	0.0822530872135222	-0.0445520445892033	0.208722332862205	0.00444053298723671	-0.00440384923559937	-0.0106135651105732	0.633544921875	-0.20361328125	0.224609375	0	0	0	0.341522530063763	-0.318543882647491	0.396122715730729	0.790556101974312	0.483233177819947	0.408734634626916	0.774223284531302	-0.843894285579339	0.452898311081916	0.287620504459758	-0.233083956162952	-0.792350375954697	0.563784312573415	27.0288803533892	-50.7346658497272	40.225648257383
61323	1657020020303	7.75018532873575	2.80288224100391	5.65155735936732	0.0631685197629199	-0.0413054122982319	0.180106314435086	0.00804511374059969	-0.00296809632820434	-0.0138638972224568	0.62939453125	-0.20849609375	0.222900390625	0	0	0	0.341578977219957	-0.318513589394934	0.39608081190937	0.790564915822438	0.48333816761594	0.408660095259669	0.774197095233522	-0.843850279644385	0.452887585517165	0.287766468561793	-0.233025580719712	-0.792394952928645	0.563745791384247	27.0422348877649	-50.7322950668466	40.2143588518437
61324	1657020020305	7.77776628196637	2.84976045018351	5.66366770512573	0.0346503973946512	-0.0185701013138201	0.221771719674638	0.00785421820673338	-0.00356968700318843	-0.0165073182114701	0.63427734375	-0.201904296875	0.220458984375	0	0	0	0.341598054361633	-0.318495505967087	0.396062461062346	0.790573152132271	0.483390279232015	0.408637806244085	0.774176324393879	-0.843827586889208	0.452890592387169	0.287828273336611	-0.23299965997557	-0.792404729059097	0.563742763870232	27.0473423480163	-50.730414874523	40.2097725759388
61325	1657020020306	7.73874951196574	2.81754134905344	5.68127042915464	0.04024136721574	-0.0640096853090967	0.192206445988022	0.00595592476923277	-0.00458781573573959	-0.0162042440121977	0.62890625	-0.205322265625	0.231201171875	0	0	0	0.341652986044585	-0.31847180892261	0.396005446659116	0.790587522204021	0.483510786275748	0.408540240728194	0.77415256329793	-0.843767618685915	0.452905846686265	0.287980033499716	-0.232966789933904	-0.792446317262656	0.563697888096759	27.0614236013407	-50.7282640944444	40.1959865112532
61326	1657020020307	7.74768483142644	2.84113448674821	5.67585728081752	0.0270575107166021	-0.0453499149541016	0.202862168053389	0.00464982105664043	-0.00403094452280974	-0.0145496855261189	0.63671875	-0.20166015625	0.230224609375	0	0	0	0.341664884324756	-0.318432350638269	0.39597717147379	0.790612436379516	0.483605835477207	0.408534648086958	0.774096142094029	-0.843723257071294	0.452934372981936	0.288065130219657	-0.232930164146683	-0.792432896265625	0.563731889772677	27.0668820772021	-50.7231574191039	40.1900478454808
61327	1657020020308	7.74748236114429	2.8423889366209	5.67550556523492	0.0270362153921202	-0.0452374358248102	0.202862734229488	0.00393596611123538	-0.00189916326450257	-0.0115435789546097	0.633056640625	-0.210693359375	0.2275390625	0	0	0	0.341699079378242	-0.318409526734551	0.395940081344114	0.790625426116539	0.483693650539792	0.408480106757699	0.774070058076599	-0.843681075359529	0.452946382274557	0.288169772642066	-0.232900612939679	-0.79245414830614	0.563714224873483	27.0760424908603	-50.7207967464186	40.1811485982837
61328	1657020020309	7.76781240825541	2.83312487622381	5.66699320479083	0.0472893677030803	-0.0333937995931392	0.211132600539292	0.000543018818192319	-0.0029650736651342	-0.0122275722032641	0.62841796875	-0.206298828125	0.2255859375	0	0	0	0.341675514403958	-0.318360794701639	0.395961674902289	0.790644420243579	0.48372151281103	0.408577601192124	0.774001189823309	-0.843681954375065	0.452944389730729	0.288170331008118	-0.23283955399734	-0.792405024981257	0.563808494507464	27.0722047188298	-50.7145645584293	40.1862620623293
61329	1657020020310	7.74713337483196	2.84452865461996	5.67490990718786	0.026719884783619	-0.0435325171879093	0.202871138669332	0.00633423727745023	-0.00337968730957525	-0.010920229486555	0.632568359375	-0.201416015625	0.226318359375	0	0	0	0.341720896886073	-0.318339527327795	0.395928814119538	0.790649826485778	0.483800638981225	0.408515558783181	0.773984483018506	-0.84364863395415	0.452934405562548	0.288283552574539	-0.232795885162635	-0.792442718743612	0.563773547944189	27.0827662612387	-50.7130528118394	40.177353279905
61330	1657020020312	7.7675030554025	2.83528092521853	5.66633889783357	0.0470666234979169	-0.0321029771949073	0.211137866093214	0.00262954813056285	-0.00134228959535916	-0.00988913737458913	0.6318359375	-0.200439453125	0.22900390625	0	0	0	0.341705815983694	-0.31830079669667	0.395929430467824	0.790671628575736	0.483848977823379	0.408569868251126	0.773925596822155	-0.843630802105108	0.452954042824684	0.288304881728122	-0.232760040382287	-0.792403494342391	0.563843476290366	27.0816039842817	-50.7077247725648	40.1782859995407
61331	1657020020312	7.73761487154843	2.82459180232852	5.67931458170014	0.0395944580254241	-0.0598822065421247	0.192234582563049	0.00224754610737005	-0.00254629400499152	-0.0151758806372128	0.6240234375	-0.20751953125	0.224365234375	0	0	0	0.341740050069282	-0.318276612630637	0.395874933738782	0.790693855337404	0.483966069379366	0.408496024106163	0.773891363163425	-0.843567486251264	0.45299355003192	0.288428049553442	-0.232746084455166	-0.79241898129647	0.563827472062025	27.0921843210659	-50.7046275800006	40.1663473573963
61332	1657020020314	7.74646276940082	2.84800979693374	5.67407931111387	0.0263030561664644	-0.0407021604014432	0.202884144209726	0.00523816845180817	-0.00245145655668582	-0.0132010075752763	0.633056640625	-0.212646484375	0.22802734375	0	0	0	0.341731950925107	-0.318219645927015	0.395880269552651	0.790717612578553	0.484030138250011	0.408567362364581	0.773813631099973	-0.843550644065923	0.452996171791682	0.288473186341551	-0.232673883712035	-0.792380703167695	0.563911061326011	27.0923756924055	-50.6975957529558	40.16754045928
61333	1657020020315	7.75577989957357	2.85019097786584	5.69629657171824	0.0248010620420753	-0.0539427206178915	0.223247079418511	-0.000363207291659173	-0.00143523522813122	-0.0118654509967976	0.637939453125	-0.210205078125	0.222412109375	0	0	0	0.341748122203503	-0.318201287733949	0.395837132565933	0.790739606910402	0.484121809932874	0.408518812079826	0.773781915867906	-0.84349758234308	0.453042370904719	0.288555780996344	-0.232675528856599	-0.792379322257919	0.563912322909673	27.0989746816135	-50.6947270205732	40.1588363795931
61334	1657020020316	7.76848324464031	2.80615089866372	5.6396184422035	0.0798111531599899	-0.0228763082295731	0.188423464550661	-0.00175677922161528	-0.00495660625738649	-0.0106330336965225	0.634521484375	-0.20703125	0.226806640625	0	0	0	0.341694804716227	-0.318237781757611	0.395908038309092	0.79071246347467	0.483963078928484	0.408618447179627	0.773828600439769	-0.843579233943596	0.453002971264372	0.288378889804343	-0.232709721097331	-0.792350473370314	0.563938749383869	27.0836410866824	-50.6989498330083	40.1749844443379
61335	1657020020316	7.7552221975997	2.87291812338481	5.66819970092318	0.0109910173144217	-0.021358155776597	0.213530301122036	0.00493877515015855	-0.00689712223327712	-0.00968981161491182	0.634521484375	-0.201171875	0.222900390625	0	0	0	0.341738571254615	-0.318234784124136	0.395873433452597	0.790712081466301	0.484021693719833	0.408537612224821	0.773834620191049	-0.843550014025234	0.452997947206614	0.288472240717578	-0.232693734008051	-0.792395027258649	0.563882742180637	27.0934662170564	-50.6994943720619	40.1659766918035
61336	1657020020317	7.72574580155932	2.86173344006757	5.68086699306448	0.00310947518169097	-0.0486043408052676	0.194637165355683	0.00121624638619797	-0.00463107054630549	-0.00207892184854463	0.62744140625	-0.1982421875	0.228271484375	0	0	0	0.341724415040755	-0.318246879986588	0.395886491397843	0.790706793617307	0.483985618615016	0.408554818695264	0.773848099496742	-0.843565734303112	0.452996620187519	0.288428351602849	-0.232711780714884	-0.792386914467651	0.563886695087713	27.0897687565437	-50.7007137158625	40.1692710695946
61337	1657020020318	7.75782737966472	2.81951341180518	5.66889514789504	0.0572776691875724	-0.0455458939707011	0.200531826435148	-0.000262175408355741	-0.00490872394489553	-0.00964583625043033	0.637451171875	-0.205810546875	0.2265625	0	0	0	0.341743658095932	-0.3182463132244	0.395847138804032	0.790718406875007	0.484048653639476	0.408489919408608	0.77384293409668	-0.843524556436009	0.453032629703744	0.288492216728884	-0.232729937049888	-0.792399786828126	0.563861112540576	27.0959661000306	-50.7002464478006	40.1611067294373
61338	1657020020319	7.74822178940537	2.81902532429042	5.64621795521868	0.0592192330016766	-0.0309985937130754	0.180167786975478	-0.00396685176911252	-0.00287350290324331	-0.00861384819653622	0.6298828125	-0.201171875	0.218994140625	0	0	0	0.341714817563388	-0.318204503137679	0.39582440686317	0.79075907618689	0.484137866228645	0.408533097131608	0.773764327836087	-0.843473872081769	0.45310804477808	0.288521969480268	-0.23272806792255	-0.792334404342915	0.563953755281047	27.0945451879339	-50.6931362090102	40.1588872687985
61339	1657020020320	7.75548725087167	2.87526315056037	5.66664777591578	0.010962218442271	-0.0191975102414641	0.213534702514003	0.00662517770933455	-0.00624605695064758	-0.00605988695525714	0.635498046875	-0.207763671875	0.226318359375	0	0	0	0.341758332755799	-0.318200966520871	0.395807968394317	0.790749921942914	0.484168394121495	0.408474576625465	0.773776121616879	-0.843465903823291	0.453074588295081	0.288597793700508	-0.232693436137274	-0.792383706099444	0.563898773794321	27.1029157822734	-50.6942029331461	40.1530612149166
61340	1657020020321	7.75620987347869	2.85483766623167	5.69338347276965	0.0216481102355599	-0.0497886134657949	0.223275844166546	3.23237320355647E-05	-0.00778070949718008	-0.00478221979091311	0.63671875	-0.2080078125	0.224609375	0	0	0	0.34174641018765	-0.31825111046361	0.395798915583202	0.790739426256017	0.48411889822368	0.408425265763687	0.773833118100118	-0.843469963920374	0.453105219094031	0.288537831824378	-0.232781683873222	-0.792391609442965	0.563851243625068	27.1000461371718	-50.6993584942324	40.1525389972797
61341	1657020020322	7.7698294547729	2.78932164614069	5.66371128013882	0.0904236927129856	-0.0509916882954016	0.198177427201211	-0.0014639878407345	-0.00782791748281798	-0.00576991449004942	0.630615234375	-0.208740234375	0.22021484375	0	0	0	0.341760565000934	-0.318270627782668	0.395768028591948	0.790740912844094	0.484142950070539	0.408355245258196	0.773855023610439	-0.843444643555022	0.453134767509371	0.288565444453368	-0.23282340336688	-0.79241080011844	0.563807047402137	27.104091136882	-50.7013400864971	40.1462945273493
61342	1657020020323	7.74892090530317	2.82136402967926	5.64408998743978	0.0562968220264139	-0.029487220038034	0.180189252391845	0.00443200875908528	-0.00439288730724915	-0.010620448555324	0.635498046875	-0.202880859375	0.224609375	0	0	0	0.341746597308482	-0.318311986974095	0.395802394172101	0.790713100273614	0.484035887432472	0.408368199521285	0.773915158978815	-0.843496353244881	0.453099455991414	0.288469729855444	-0.232858673319351	-0.792424316007547	0.563773484353356	27.0977659994704	-50.7067804167993	40.1534355831934
61343	1657020020324	7.75712991068994	2.83573572792231	5.71920581063744	0.0312121556572255	-0.079734049729579	0.233030377979395	-0.0006644595949028	-0.00588059045439176	-0.00835469054467826	0.630615234375	-0.205810546875	0.224609375	0	0	0	0.341763737142747	-0.318318505480197	0.395766287402633	0.790721140983731	0.484084749648782	0.408302096606598	0.773919474534744	-0.843460984745023	0.45313318745952	0.28852015810985	-0.232885212863406	-0.792439090611659	0.563741754086155	27.1031352944986	-50.7071708610621	40.1460138187811
61344	1657020020325	7.74946796480944	2.8019399935486	5.67058903387459	0.0672945221264539	-0.0594797421530491	0.189944040780583	-0.000457352008144941	-0.0055081432682563	-0.0122911301918526	0.630126953125	-0.205322265625	0.228515625	0	0	0	0.341752334060697	-0.318319500670646	0.39574514418764	0.790736250913515	0.48411695268939	0.408287198601868	0.773907190544563	-0.843432927926783	0.45318224603194	0.288525125370912	-0.232919883667311	-0.792418712133481	0.563756075313714	27.1029450443232	-50.7060594917055	40.1431050915693
61345	1657020020326	7.75666043604346	2.8585797629986	5.69089147508129	0.0189993834777387	-0.0476749694668857	0.223291471325144	0.00533466380534235	-0.0059182756700035	-0.0109858442560989	0.6328125	-0.21240234375	0.2255859375	0	0	0	0.341797375716085	-0.31830972574942	0.395708239508963	0.790739186857237	0.484187815356093	0.408209165231935	0.773904023042483	-0.843398880936168	0.45317908627663	0.288629595497582	-0.232895871788901	-0.792460720277116	0.563706944893854	27.1133837718057	-50.7057729225845	40.1335751409127
61346	1657020020327	7.74711254781582	2.85852077171904	5.66790326028415	0.0190450313091133	-0.0322296325279065	0.202931423187199	0.00761518433337305	-0.00369369724168303	-0.00600330814930044	0.6337890625	-0.205322265625	0.221923828125	0	0	0	0.341761641834522	-0.318285078639913	0.395820046468934	0.790708593414215	0.48404219905703	0.408401362282387	0.773893711576676	-0.843511886472014	0.453050941967805	0.288500504960579	-0.232789275767717	-0.792434963431053	0.563787177771512	27.0996802855522	-50.7048400394508	40.1553605046828
61347	1657020020328	7.75624040737493	2.88138791916174	5.66250439695686	0.00588403700748086	-0.0143992840371512	0.213547007907167	-0.00216187842142633	-0.00592766603298701	-0.00934255905391674	0.63720703125	-0.208984375	0.220458984375	0	0	0	0.341773716590593	-0.318292847205405	0.395778723411598	0.790720931909872	0.484097731025126	0.408332783305051	0.773895164020732	-0.843469300719422	0.453099857485079	0.288548189893632	-0.232828103029284	-0.792442336845623	0.563760780131461	27.104608632556	-50.7049714416206	40.147378777486
61348	1657020020330	7.74727613540073	2.85967710034442	5.66709630129477	0.0171307028891917	-0.0318276829673239	0.202936165781017	-0.00177657953885857	-0.00472475022986011	-0.00405470439222889	0.62646484375	-0.20556640625	0.2255859375	0	0	0	0.341743029219476	-0.318371599797321	0.395802656050606	0.790690510810442	0.483959563811562	0.408312258721191	0.773992403046259	-0.84351735844994	0.453103918886365	0.288401291057191	-0.232941208438865	-0.792450590300631	0.563702452844782	27.095180725174	-50.7137694643377	40.1540200902095
61349	1657020020330	7.75893556098595	2.82753486968018	5.66338054732548	0.0507163227317213	-0.0390092961270342	0.200594807444503	-0.000872554721336657	-0.00625159595789905	-0.00441911790388071	0.640869140625	-0.202880859375	0.225341796875	0	0	0	0.341752812380598	-0.318387365462775	0.395782324332522	0.79069011154154	0.483971674519241	0.408262785198598	0.774010927884695	-0.843501895492008	0.453122733951797	0.288416955599769	-0.232972038160018	-0.792465321763629	0.563669001487251	27.0978213572409	-50.7154457476845	40.1498916797134
61350	1657020020332	7.74821931196675	2.83919603206789	5.69360729616652	0.0283351277766027	-0.0616503940748504	0.212705247550076	0.000623719590862676	-0.00620352368275651	-0.00343199097781177	0.630126953125	-0.197021484375	0.2255859375	0	0	0	0.341733958218419	-0.318389587793935	0.395800621774272	0.790688206556718	0.483939876375016	0.408300699384762	0.774010810606705	-0.84351883575417	0.453119539206943	0.288372427455914	-0.232976758029771	-0.792447614717088	0.56369194436956	27.0932886189342	-50.7154351351961	40.1543694156901
61351	1657020020332	7.75707546898492	2.88258715876129	5.66074986897426	0.00354479237053042	-0.0128058049206837	0.2135502697035	0.000224325356687218	-0.00717699925364644	-0.00213962118338993	0.632568359375	-0.203125	0.221435546875	0	0	0	0.341746215270815	-0.318410497487708	0.395789617080514	0.790679997501495	0.483930668201781	0.408254702050833	0.774040830077563	-0.84351703172652	0.453120206718668	0.288376655522795	-0.23300241535456	-0.792470931023099	0.563648558875407	27.0954173952323	-50.7181516763453	40.1517252951294
61352	1657020020333	7.7693382090028	2.82939345691808	5.68430418505563	0.0493166012336368	-0.0508529020328871	0.220974952444294	-0.00236973893368607	-0.00629900730011653	-0.00540657452471023	0.627685546875	-0.19873046875	0.224365234375	0	0	0	0.341743513531059	-0.318416639312713	0.395720199808763	0.790713436228042	0.484032734544221	0.408168915780311	0.774022252961999	-0.843436200122225	0.453233788845519	0.288434583523054	-0.233083007130561	-0.7924501680481	0.563644429536489	27.1002542987641	-50.7164705655569	40.1398361244839
61353	1657020020334	7.77146699970145	2.7962084584008	5.65806587010063	0.0844223107658241	-0.044668216417511	0.198260048112328	0.00211981761671333	-0.00615503302593085	-0.00244531412975512	0.6279296875	-0.203125	0.2236328125	0	0	0	0.341762070437246	-0.318428883933885	0.395712373309314	0.790704401592009	0.484029526973061	0.408129201359658	0.774045200240763	-0.843436860000722	0.453220809640714	0.28845304800043	-0.233087280241452	-0.792478045567285	0.563603466174135	27.1034305364006	-50.7185471570775	40.1372757349595
61354	1657020020335	7.7603061139632	2.82884644892699	5.66084715377826	0.0510323431696366	-0.0363862183658151	0.200603077139103	0.000223972792931162	-0.00717646870554068	-0.00214000060014354	0.633544921875	-0.20654296875	0.216064453125	0	0	0	0.341744036960215	-0.318429668301594	0.395689187494091	0.790723482924175	0.484065226491205	0.408118584314952	0.774028473403129	-0.843404345648108	0.453282160204802	0.288451716898957	-0.233130792140176	-0.79244842379604	0.563627119094944	27.1023481343185	-50.7170334691953	40.1344587373425
61355	1657020020336	7.76096353722701	2.80812597466734	5.68788702260743	0.0625979592285813	-0.0672186560513968	0.210373469388655	-0.00397318907377478	-0.00287251008947898	-0.00861420434794655	0.62744140625	-0.209716796875	0.2216796875	0	0	0	0.341741887146172	-0.318429978573082	0.395652925743888	0.79074243193724	0.484122222192496	0.408077389808652	0.774014546314445	-0.843360837014573	0.453342489840148	0.288484116539565	-0.233169836319962	-0.792435127207579	0.563629662631438	27.1048532040054	-50.7157731806716	40.1282842795991
61356	1657020020337	7.7814399766962	2.79858838191739	5.6793282518768	0.0803887211323403	-0.0565442536550453	0.218664228620888	0.008011769979903	-0.0027165504120439	-0.00729908928706606	0.635986328125	-0.202392578125	0.22900390625	0	0	0	0.341725679116731	-0.318509204980507	0.395697414411242	0.790695265448802	0.483950885141886	0.408066595496817	0.77412737608873	-0.843437693004392	0.453294232920933	0.288335215365818	-0.233247505431065	-0.792468290873686	0.563550893149789	27.0961045593245	-50.7259843348572	40.1375320484392
61357	1657020020337	7.76983365369545	2.83195037269073	5.68235336280737	0.0466651453268053	-0.0490052129168117	0.22099682868593	0.00261718314896365	-0.00133382128063952	-0.00989572423239191	0.63037109375	-0.203125	0.21826171875	0	0	0	0.341748080078756	-0.318489368798366	0.39566956975155	0.790707508056883	0.484020227070083	0.408031538399701	0.774102501906691	-0.843404059649047	0.453307682670215	0.28841244251881	-0.233225238673972	-0.792478648610379	0.563545543449805	27.1025474759531	-50.7237330170336	40.1310608089304
61358	1657020020339	7.75099519409946	2.80947516813902	5.66477044372911	0.0610335260577766	-0.0527268922937002	0.190022078739201	-0.00357503992159587	-0.0018988550799917	-0.00990709261202554	0.631103515625	-0.2109375	0.221435546875	0	0	0	0.34172496102147	-0.31848707821282	0.395632197229785	0.790737122273558	0.484082291053187	0.408012161456255	0.774073905769012	-0.843352099008726	0.453398431060014	0.288421739489058	-0.233284317060263	-0.792436709659587	0.563580064052672	27.1018731565318	-50.7211449652988	40.126099751847
61359	1657020020339	7.76934364104336	2.83362754253424	5.68218726177803	0.0463373033052876	-0.0482571105492909	0.221001973967402	0.00680601831672113	0.00168498281930709	-0.0118001343970593	0.633056640625	-0.2080078125	0.23388671875	0	0	0	0.341761083896752	-0.318443674663999	0.395608531887335	0.790750831234564	0.484175031128873	0.407992240040324	0.77402640219713	-0.843318861693257	0.45338650206333	0.288537653104699	-0.233211999570657	-0.79245379159523	0.563585975200412	27.1109670520225	-50.7168460397126	40.1193127190638
61360	1657020020340	7.74802848691056	2.86600682872057	5.66286858492936	0.012559244925707	-0.0250523186485202	0.202962180557011	0.00312201872167823	-0.0038328849203723	-0.0089683857949216	0.639404296875	-0.2041015625	0.23486328125	0	0	0	0.341701759098601	-0.318412411031895	0.395733873363534	0.790726340652992	0.4840164759471	0.408230233177514	0.774000082513938	-0.843438557051214	0.453269218603233	0.288372009644107	-0.233108239861049	-0.792398316622801	0.563706888659555	27.0926390768995	-50.7144643599539	40.1450262265092
61361	1657020020341	7.74983948180495	2.83334914741583	5.63682024975377	0.0476454102781798	-0.0188478192997842	0.180259977667232	0.000720584984431795	-0.00235458245364133	-0.00959095367865013	0.625244140625	-0.20458984375	0.222900390625	0	0	0	0.341717463849065	-0.318400590356741	0.395703530414135	0.790739498810343	0.484079560156537	0.408190738184812	0.773981460177692	-0.843402907083814	0.453295781836705	0.288434516817287	-0.233106232780734	-0.792403467577716	0.563700477922084	27.0979385949636	-50.7127792896235	40.1386142407799
61362	1657020020342	7.75925459393253	2.83519305271617	5.65911320079184	0.0462897272988297	-0.0301404791299744	0.200646872317522	-0.000184058223239636	-0.000828041541796922	-0.00922644772694837	0.630126953125	-0.209228515625	0.22265625	0	0	0	0.341676130891797	-0.318317879824799	0.395749568320522	0.790767619555061	0.48411201311593	0.408368645017089	0.77386730679345	-0.843415131305958	0.453279401505865	0.288424514309443	-0.232994581570031	-0.792321168426915	0.563862297925313	27.0904647762792	-50.7024512709773	40.1490255850958
61363	1657020020343	7.77016166918809	2.82449726330092	5.62813590852702	0.0682563738905257	-0.00626789219614535	0.188533198088981	0.000827908072405471	-0.00582810985089851	-0.00737046901269767	0.6328125	-0.207763671875	0.226318359375	0	0	0	0.341695335850061	-0.318322523698188	0.395722822214944	0.790770836806069	0.484148437769312	0.408313491244958	0.77387362215861	-0.843390777819723	0.453295490873107	0.288470438420907	-0.233007051597533	-0.792340388230628	0.56383013672946	27.0954885210533	-50.7030225937072	40.1430870582076
61364	1657020020345	7.7482909423784	2.84785280445905	5.68918469932586	0.0221917443236512	-0.0519793669120259	0.21277553494777	0.000321434790092126	-0.00332771435016497	-0.00829871799798213	0.640380859375	-0.20703125	0.2138671875	0	0	0	0.341638698153477	-0.318341081185009	0.395808175853137	0.790745119416977	0.483989687915544	0.408451501472776	0.773900092347875	-0.843482031652043	0.453237775703619	0.288294261051757	-0.233006532680002	-0.792302271623571	0.563883911907914	27.0790830281197	-50.705417308616	40.161891020314
61365	1657020020346	7.77784797177326	2.86039283597356	5.67565289429153	0.0294972198374143	-0.0237901084132437	0.231632720809241	0.00181816471446298	-0.00327897904618503	-0.00731187163048083	0.639892578125	-0.21484375	0.232666015625	0	0	0	0.341656032984944	-0.318334078964946	0.395788393055944	0.790750350753463	0.484029924183466	0.408418104100116	0.773892553742582	-0.843461138432433	0.45324540609437	0.288343388702802	-0.232998584650665	-0.792315122976722	0.563869138589061	27.0836487763414	-50.7047352908179	40.1572342477146
61366	1657020020348	7.75922127648056	2.83776648735759	5.65786887907474	0.0413434245179887	-0.0274162916728994	0.20067634575031	-7.7076483250896E-05	-0.00430138125648979	-0.00700612504674603	0.63427734375	-0.2109375	0.22412109375	0	0	0	0.341623229200832	-0.318405330505377	0.395886887911879	0.790686528755616	0.483783234970418	0.408495543961805	0.77400592512261	-0.843594172769825	0.453134282499686	0.288128779701526	-0.233029296935714	-0.792338761254834	0.563823229552316	27.068249908602	-50.7149930497427	40.1769855275403
61367	1657020020349	7.7502887062976	2.81622381587799	5.66238552374943	0.0543697283805242	-0.0448391595970727	0.190098987549288	0.0038212497181145	-0.00572993179805577	-0.00539719100739561	0.630615234375	-0.201171875	0.223876953125	0	0	0	0.341649804645592	-0.318408311765441	0.395874065538496	0.790680265479247	0.483799742465408	0.408451347448263	0.774018931265963	-0.843587897497046	0.453118270439302	0.288172330716551	-0.233017742644029	-0.792370702235888	0.563783115968621	27.0734110339673	-50.7161699795499	40.1729660426032
61368	1657020020350	7.7690799159938	2.83998447693539	5.67937347264815	0.038495311070684	-0.0394588235249219	0.221073582799002	-0.000475447984403026	-0.00527520865854132	-0.00571337416544634	0.63818359375	-0.20654296875	0.22412109375	0	0	0	0.341613662517336	-0.318433653019026	0.395912153335508	0.790666605496711	0.4837071509324	0.408506463752151	0.774047712489078	-0.843631609658567	0.453107344845467	0.288061523345252	-0.233051709544807	-0.792348536390271	0.563800228412901	27.0637773258391	-50.7187745061168	40.182182649345
61369	1657020020350	7.76916644949353	2.84035732149098	5.67906863510502	0.0383746891581776	-0.0392265582165572	0.221074955568856	-0.00287722179296131	-0.00379785252673868	-0.00633547931518281	0.6328125	-0.20849609375	0.220703125	0	0	0	0.341611129021916	-0.318440796475369	0.395888617964158	0.790676607618395	0.483735322613122	0.408473898872093	0.774047292868213	-0.843605578914449	0.453148077389601	0.288073683599397	-0.233087461869564	-0.792342030879555	0.563794591337009	27.0649893876347	-50.7187365319274	40.1782862007942
61370	1657020020352	7.80066801070618	2.81915040585372	5.63986289432125	0.079007060185873	-0.00468927054605563	0.217258787766216	-0.000982487298733628	-0.00277485472361907	-0.00664165976783151	0.636474609375	-0.2080078125	0.221435546875	0	0	0	0.341578531026393	-0.318491813106192	0.395934959016491	0.790646937864678	0.48359694642588	0.40850959455044	0.774114916900456	-0.843669457209422	0.453119230740922	0.287931953254088	-0.233143390169064	-0.792340125131241	0.563774144252364	27.0544084205117	-50.7248566624407	40.1888348297087
61371	1657020020352	7.74868986200369	2.85154692541099	5.68679050434754	0.0158041886502411	-0.0487655141687938	0.212803786987466	0.00382075843621016	-0.00572872668999739	-0.00539804474675268	0.623779296875	-0.2041015625	0.228759765625	0	0	0	0.341604531043127	-0.318495565053665	0.395922697232496	0.790640333671447	0.483611585714585	0.408465850617054	0.774128854288685	-0.843663963174946	0.453103124373902	0.287973394469964	-0.233132905018938	-0.792371887160503	0.563733838823904	27.059408128011	-50.7261181275023	40.1849551988016
61372	1657020020354	7.7512901706446	2.79752204195636	5.68801689518031	0.061610796598615	-0.0721110207752755	0.199963095401138	-0.00138052429317184	-0.00374888978703311	-0.00534878410828298	0.634765625	-0.210205078125	0.220947265625	0	0	0	0.341546291787097	-0.318494634680815	0.395975834868002	0.790639258098538	0.483528611760246	0.408586757751335	0.774116879417741	-0.84370940346861	0.453098537534144	0.287847455752284	-0.233140567271877	-0.792312171227145	0.563814596492034	27.0459322477724	-50.7250342867067	40.1981611583365
61373	1657020020354	7.75073472338798	2.81915134498081	5.66031786985339	0.0498394879166529	-0.0408803198949994	0.190139548289743	0.00311826415632901	-0.00382845851178618	-0.00897132914158356	0.629150390625	-0.20263671875	0.227783203125	0	0	0	0.341571020327321	-0.318486013188919	0.39595218436422	0.790643892768915	0.483577054200462	0.408543167822325	0.774109625748514	-0.843685537762003	0.453102211539512	0.287911617114079	-0.233126459292041	-0.792332547560495	0.563791794951162	27.0520426470774	-50.7243777721894	40.1923179105712
61374	1657020020355	7.75067296030464	2.81998756657441	5.65998588492563	0.0486000403751987	-0.0395910839579401	0.190150832956153	0.00371070802124399	-0.00225382681302625	-0.0076195893593692	0.633544921875	-0.206298828125	0.221435546875	0	0	0	0.341542184407521	-0.318481594628621	0.396005041658764	0.790631657052632	0.483498961727303	0.408638445529631	0.774108115733033	-0.843738043621829	0.45305788650196	0.287827492126074	-0.233098407874931	-0.7923087607199	0.5638368203059	27.0434083941848	-50.7242411049852	40.2034664180111
61375	1657020020355	7.789758555422	2.83389327626644	5.66882679908318	0.0542899787612808	-0.0246982886939686	0.229390571857337	0.00501237765324616	-0.00280471980721827	-0.00927802002028814	0.6328125	-0.201416015625	0.228759765625	0	0	0	0.341572508090525	-0.318464721085239	0.395985399753969	0.79063519167979	0.483551569211581	0.408602397834886	0.774094283919342	-0.843717571912624	0.453047569796875	0.287903731040449	-0.233063379274572	-0.792333250586347	0.563816886281698	27.0503742113506	-50.7229892454373	40.1979012885741
61376	1657020020356	7.75951681296472	2.84416360041788	5.6542502666459	0.0350294050518972	-0.020715938548568	0.200716528094649	0.0057210692094266	-0.00492967813172539	-0.0122885635612909	0.635498046875	-0.20556640625	0.22607421875	0	0	0	0.341587003858595	-0.318436162339262	0.395973622438521	0.790646330316196	0.483606601695118	0.408602873738659	0.774059652978637	-0.84369749219345	0.453046418255647	0.287964380735209	-0.233021879795401	-0.792333663602802	0.563833458619102	27.05458043756	-50.7198550906658	40.1947197128847
61377	1657020020357	7.76960834073672	2.82498082321464	5.70381721887245	0.0449980226089603	-0.0647796373941171	0.23094943255731	-0.00468768669075104	-0.000747201967212009	-0.00560547624046121	0.633056640625	-0.205810546875	0.22900390625	0	0	0	0.341569023861087	-0.3184363936246	0.395956673192147	0.790662493171739	0.483633152339931	0.408600164563781	0.774044494506738	-0.84367219709258	0.453097829786383	0.287957601906684	-0.233058357092638	-0.792305662078292	0.563857730307885	27.0530350608933	-50.7184832909966	40.1929817511178
61378	1657020020358	7.78042273658172	2.81418051357035	5.67301370427539	0.0666242784994489	-0.039383674006377	0.218847140033832	0.00560415795558976	-0.00122905393712588	-0.00792683689981151	0.63037109375	-0.207763671875	0.2255859375	0	0	0	0.341551755164032	-0.31837504984044	0.39602089225625	0.790662493786085	0.483609561071322	0.408754618378557	0.77397768339572	-0.843720846672311	0.453019702881866	0.287937982370137	-0.232931160068727	-0.792270667609894	0.563959452366933	27.0472678126267	-50.7124375491688	40.2050350088627
61379	1657020020359	7.75081491159144	2.80315364897735	5.68589157246135	0.0591298897814354	-0.0671053905425898	0.200012852945251	0.000629587737072773	-0.0064244537864183	-0.0100179873390893	0.639404296875	-0.205078125	0.23193359375	0	0	0	0.341572798978679	-0.318379225202977	0.3959857381007	0.790669328593102	0.483659928359992	0.408688189174561	0.773981290295848	-0.843686921531537	0.453046636437431	0.287995006292417	-0.232949462621072	-0.792289536244137	0.563925383914047	27.0532650680245	-50.7127639178861	40.1975023316971
61380	1657020020360	7.76166899325364	2.79293795347103	5.65474689378288	0.0807313404261982	-0.0413876067848331	0.187909606709271	0.00860340216959903	-0.00135494688003346	-0.0125378819970781	0.638427734375	-0.20947265625	0.22998046875	0	0	0	0.341568259556497	-0.3182920704245	0.396058232048518	0.790670069494877	0.483656069462975	0.408865842664579	0.773889868892086	-0.8437397167667	0.452938001780296	0.288011209666779	-0.232766184876744	-0.792259988416339	0.564042563936862	27.0497489771657	-50.7044923947261	40.2100039260316
61381	1657020020361	7.7293425838096	2.83693732978475	5.66599103297333	0.0264156546965641	-0.0441445081650887	0.181899067111907	0.00820594372757394	-0.00232871227372592	-0.0112449772225877	0.627685546875	-0.205810546875	0.219970703125	0	0	0	0.341612751265849	-0.318262419465028	0.396037887214945	0.790672974382688	0.48372604849318	0.408827907029004	0.773866172179311	-0.843717909980899	0.452909440125801	0.288119987891153	-0.232699803151266	-0.792295892630537	0.564019521057689	27.0594611167855	-50.7023486282682	40.2032960864143
61382	1657020020362	7.75877657430065	2.85004563498064	5.65230393136338	0.0320975078027565	-0.0147035506189615	0.200736988894302	0.00291965806920832	-0.0044254570180523	-0.0116185997203832	0.62353515625	-0.210205078125	0.22509765625	0	0	0	0.341585350834754	-0.318265694168624	0.3961009884839	0.790651884796678	0.483621909674883	0.408926188626734	0.773879332155623	-0.843785783831758	0.452846910034351	0.288019490791453	-0.232670151686559	-0.792280915034279	0.564052792020925	27.0499954008195	-50.7035391574911	40.2161682118301
61383	1657020020363	7.7676991468937	2.87311910789048	5.64697748229106	0.0187769208064299	0.00323209174277025	0.211281664906377	0.00370802054170417	-0.00225079458531188	-0.00762158025375797	0.637451171875	-0.214111328125	0.21728515625	0	0	0	0.341605679676764	-0.318251008821114	0.39608851641545	0.79065526126165	0.483660365096302	0.40890623450609	0.773865842777004	-0.843771643210699	0.452838893552768	0.288073515963239	-0.232641495327961	-0.79229579568994	0.56404370999384	27.0547217811723	-50.7023188289768	40.2125435736032
61384	1657020020365	7.76827067727869	2.85267115171332	5.67411980668476	0.026473476066606	-0.0263440248524197	0.221155507634828	-0.00287904375002501	-0.00379819293708343	-0.00633593584307115	0.63037109375	-0.208251953125	0.225341796875	0	0	0	0.341513888396678	-0.318352139089912	0.396231636168724	0.790582487832936	0.483304812071867	0.409064231560778	0.774004465804796	-0.843950939160761	0.452737509062475	0.287707421137473	-0.232730038709761	-0.792272176935108	0.564040359138118	27.0253572346088	-50.7148609974807	40.2442336121587
61385	1657020020365	7.74070270355384	2.80738882408973	5.66151665251198	0.0541602521901014	-0.0480255944383109	0.179681795082837	-0.00548183940589132	-0.00269767178023868	-0.00301846108438761	0.629638671875	-0.21044921875	0.220458984375	0	0	0	0.341490497986912	-0.318366405037325	0.396222961287879	0.790591194535156	0.483300394183748	0.409062564136683	0.774008105644738	-0.84393897293068	0.45278320946583	0.287670601894826	-0.232782600188551	-0.792246921008687	0.564054143856521	27.0218225002878	-50.7151903637812	40.2443767144463
61386	1657020020367	7.74075158694805	2.80769334338768	5.66129880592553	0.0515753922919054	-0.0465340471898735	0.179702528482702	0.00480873423998521	-0.00317495979463363	-0.00534185432841423	0.623291015625	-0.214599609375	0.226318359375	0	0	0	0.341439400417787	-0.318406263702637	0.396336982525359	0.790540058036253	0.483068895035241	0.409207634799229	0.774075935726885	-0.844073409870814	0.452672264250071	0.287450691298128	-0.232775689019471	-0.792235402390436	0.564073174154538	27.0033104601103	-50.7213286789624	40.2679334729567
61387	1657020020367	7.75943550448621	2.83150923438995	5.67837136973911	0.0366568763686546	-0.0418976601974507	0.21063973739286	-0.00197459984401421	-0.00532249856354345	-0.00670149059011091	0.63818359375	-0.208740234375	0.230712890625	0	0	0	0.341440255763516	-0.318418204864101	0.396315631950307	0.790545582763636	0.483087533365904	0.409169557819872	0.774084432126068	-0.844052731054106	0.452704943231946	0.287459947772671	-0.232811989181298	-0.792236396113465	0.564056797110536	27.0047298350827	-50.7220976212679	40.2642137131443
61388	1657020020368	7.75951452350083	2.83198279184907	5.67802722251688	0.0344881925336739	-0.0387222983695632	0.2106602040641	-8.09086968428814E-05	-0.00429797636432072	-0.00700858933863411	0.625244140625	-0.203857421875	0.228759765625	0	0	0	0.341340556695758	-0.318393183709722	0.396493118277263	0.790509716626298	0.482837975451919	0.409502311996051	0.77406417429783	-0.844224338298495	0.452559663026805	0.287184640998666	-0.232707447422638	-0.792147465987838	0.564224809843636	26.9756272044145	-50.7202642652892	40.3017897706104
61389	1657020020369	7.73896745136282	2.84280792999807	5.68601039621961	0.0137750581445587	-0.0487611764328018	0.202367351702728	0.00181276225322753	-0.00327341070647192	-0.00731571249015666	0.636474609375	-0.204833984375	0.2236328125	0	0	0	0.341352284328219	-0.318388289211128	0.396480296325332	0.790513054859244	0.482864543837976	0.40948056082813	0.774059107954957	-0.844210840130418	0.452563985219367	0.287217507629076	-0.232701288587832	-0.79215624064085	0.564215030554236	26.9786794208874	-50.7198057668383	40.2987333408265
61390	1657020020370	7.76862008178737	2.85531474634065	5.67231146498534	0.0209264391172026	-0.0192786366415245	0.221184672435024	0.000427597747069978	-0.00679679274226543	-0.00608065361835906	0.63427734375	-0.20703125	0.218505859375	0	0	0	0.341323193012831	-0.318372962687073	0.396488387847133	0.790527730597582	0.482871229864474	0.409533978519563	0.774026676418267	-0.844206283292789	0.452590872427814	0.287188532925681	-0.232703946288294	-0.792113263765333	0.564274269082764	26.9739108464298	-50.7168708547415	40.3020287628252
61391	1657020020371	7.75920079146815	2.85454401131901	5.64945088090072	0.0222313301852168	-0.00563488623830277	0.20077296355711	-0.000280728441363081	-0.00467272660354903	-0.00306960795023014	0.632568359375	-0.2109375	0.229248046875	0	0	0	0.341322510894939	-0.318384576546741	0.396486936576736	0.790524075596386	0.482858741082295	0.409521291852424	0.774041179576347	-0.844208584241046	0.452594105360738	0.287176673994321	-0.232721512658691	-0.792117975627516	0.564260409947053	26.9735232963057	-50.7181833043399	40.3018841988312
61392	1657020020372	7.74849071521083	2.86574488557846	5.67992064576704	-0.00190983727015037	-0.0281256396685694	0.212895210952656	-0.00607742683719003	-0.00404807928422971	0.00221491835157186	0.626708984375	-0.2041015625	0.21875	0	0	0	0.341241550721274	-0.318447450161504	0.396604210909762	0.790474873373987	0.482592642748563	0.409676323364274	0.774125087592237	-0.844346330229663	0.45251860789997	0.286890543817626	-0.2327737437785	-0.792080942567743	0.564290851093953	26.9491931866088	-50.7257772026055	40.3281638370703
61393	1657020020373	7.76243097561936	2.79921945943457	5.65059342667525	0.0667425606586573	-0.0290182413401714	0.188056289656398	-0.010854431734627	-0.00864530961507047	0.00277029378063156	0.629638671875	-0.204833984375	0.224365234375	0	0	0	0.34119719582372	-0.318506127929046	0.396602734803974	0.790471119510185	0.48252023443531	0.409659220158474	0.774179272972124	-0.84435281096672	0.452581488616079	0.286772255936055	-0.232900309087586	-0.792053861489992	0.564276640067353	26.9402315411503	-50.7306817774895	40.3312253377662
61394	1657020020373	7.76148857151814	2.81128454491195	5.703403847121	0.0421080202362575	-0.0654429860868341	0.220596507420844	-0.00158214786855915	-0.00412259109458245	-0.00141090191399939	0.63623046875	-0.208740234375	0.2236328125	0	0	0	0.341152337586783	-0.318560996313757	0.396601922962438	0.790468777934433	0.482451612660165	0.409647217628304	0.77422838912752	-0.844358531853955	0.452643994523141	0.286656735325666	-0.233021696687325	-0.792024350201131	0.56426794837332	26.9312650624666	-50.7351279566306	40.3344175979803
61395	1657020020374	7.7822567318531	2.80088394487418	5.69489766621325	0.0623458900421142	-0.0547199593506055	0.228898610446828	-0.0041839027113583	-0.00302331184675444	0.00190761338038283	0.62939453125	-0.207275390625	0.226318359375	0	0	0	0.341124437285501	-0.318582986322412	0.396617356509345	0.790464212743425	0.482399106682866	0.409670769071141	0.774248644067417	-0.84437653682301	0.45265758160438	0.286582235804759	-0.233065153839764	-0.79200440326095	0.564277998225088	26.9248398646288	-50.736961632901	40.3391195526828
61396	1657020020375	7.77342731889527	2.77864396086389	5.69969012071669	0.074101912912007	-0.0709427873654151	0.218413177624164	-0.00477566328635704	-0.00482046107116525	-0.00602981098911077	0.63134765625	-0.205810546875	0.224365234375	0	0	0	0.341063603388221	-0.318605296408404	0.396684129409253	0.790447964776417	0.482264733150674	0.409786984598052	0.774270853392498	-0.844445666404542	0.452634639837333	0.286414733053171	-0.233092779059542	-0.791957391576949	0.564332567088712	26.9090816542149	-50.7389723218517	40.3550143199428
61397	1657020020376	7.73240805594841	2.79955212105907	5.71595045829791	0.0328948544649229	-0.0913556873724997	0.201816523106512	0.00421390092469472	-0.00474643580258993	-0.00669637215497328	0.63232421875	-0.205322265625	0.230712890625	0	0	0	0.341085644626121	-0.318602865435305	0.396676471260841	0.790443277101175	0.482279982568921	0.409758772311237	0.774276285913052	-0.844442227258158	0.452616720356063	0.286453188631936	-0.233073686280977	-0.791982230209814	0.564305594332793	26.9132915131762	-50.7394641603414	40.3521738824142
61398	1657020020377	7.77035713319677	2.85547053029456	5.66985323761634	0.0152114845029912	-0.0128701861097996	0.221205230316848	0.00460943752042866	-0.0037713438925287	-0.00799010987525889	0.626708984375	-0.219970703125	0.224609375	0	0	0	0.341063926846896	-0.31854479274349	0.396714619390109	0.790456908111975	0.482293451556336	0.409883347112398	0.774201955787903	-0.8444598986713	0.452585817131873	0.286449921743982	-0.232981772080854	-0.791935426591722	0.564409225639564	26.9087815544511	-50.7327350588509	40.359978350415
61399	1657020020378	7.78187725636006	2.8237744820815	5.66624729349231	0.0486461199884294	-0.0197678264186965	0.219008263456731	-0.00398465174398353	-0.00287088882775499	-0.00861695312162766	0.6318359375	-0.21533203125	0.229248046875	0	0	0	0.341052689852883	-0.318547392377355	0.39668993820972	0.790473095352947	0.482329303465511	0.409862556672176	0.774190627466274	-0.844428336735851	0.452640311334563	0.286456860054833	-0.233021945610277	-0.791915041650996	0.564421243107401	26.9088492939335	-50.7317095915073	40.356442638268
61400	1657020020379	7.73171740621312	2.82281226455737	5.68754297555136	0.0165334510420167	-0.0544838990466229	0.191942879167652	0.00590951119191912	-0.0043196222145085	-0.00965019148985539	0.6318359375	-0.219482421875	0.2265625	0	0	0	0.340942469405476	-0.318554379683112	0.396981098383197	0.790371651355788	0.481858229422357	0.410307778874144	0.774248134213649	-0.844742646270502	0.452328480164335	0.286022390039893	-0.232857270253389	-0.791862660205411	0.564562679480809	26.8679798232408	-50.7369154750451	40.4147732505567
61401	1657020020380	7.7702528636298	2.85760465180455	5.66892085719399	0.0102763245354062	-0.00840116530665259	0.221216235437923	-0.00288250464393093	-0.00379600327212268	-0.00633709665777184	0.63330078125	-0.206787109375	0.22607421875	0	0	0	0.340932282323336	-0.318562829835738	0.396967536353839	0.790379451528195	0.48186899705642	0.410293262037135	0.774249125800454	-0.84472667259425	0.452363907901928	0.286013537154348	-0.232892933090908	-0.791849944089549	0.564565804633695	26.8671370104885	-50.7370052449851	40.4131406443813
61402	1657020020381	7.76134582583895	2.83592990022513	5.67355249420875	0.0206987775038544	-0.023626189570684	0.21074511623392	0.000820973097930345	-0.00581902601437815	-0.00737655662050027	0.63037109375	-0.21337890625	0.2236328125	0	0	0	0.34086064502187	-0.318577638742652	0.397149394956991	0.790313018274232	0.481561292356904	0.41056351520576	0.774297308328938	-0.844925832931219	0.45217275752114	0.285727377409329	-0.232806912588596	-0.791819043303214	0.564644617536861	26.8407999620185	-50.7413674937198	40.4498321428796
61403	1657020020382	7.75176528775791	2.83533825906791	5.65081350523774	0.0219310258820736	-0.00993824228791871	0.190318267997974	-0.000989236235888818	-0.0027710111139325	-0.00664459895111311	0.631591796875	-0.1982421875	0.228515625	0	0	0	0.340855539434477	-0.318578050256642	0.397140468045957	0.790319540294776	0.48157494906983	0.410557557932643	0.774291973387801	-0.844913930621489	0.45219389975414	0.285729114489386	-0.23282185951954	-0.79181005844175	0.564651054263017	26.8406771609294	-50.7408844699996	40.4486195007369
61404	1657020020383	7.75250124018224	2.8147968452659	5.67783483019063	0.0333078876348397	-0.0394137441651532	0.200279341882629	0.000425275281460427	-0.00679347399689643	-0.00608324483245841	0.633544921875	-0.204345703125	0.219482421875	0	0	0	0.340825094689653	-0.318568419209322	0.397154741753096	0.7903293795724	0.48156454677101	0.410613898003621	0.774268567139015	-0.844918344572222	0.452212731865641	0.285686254734015	-0.23282735728124	-0.791770087781096	0.564704834224525	26.8350164968978	-50.7387653352312	40.4531121033588
61405	1657020020383	7.77320016343946	2.80500969280501	5.6691210940401	0.0534651733079948	-0.0285843571211719	0.208588930631681	-0.00138495570132427	-0.00374571783808478	-0.00535109426032003	0.638916015625	-0.20947265625	0.22705078125	0	0	0	0.340818138718771	-0.318575355851133	0.397148931237603	0.790332503052624	0.481564938122307	0.410606898173672	0.774272035878511	-0.844911937465086	0.452231445474205	0.285675581128852	-0.232849797724315	-0.791763029508519	0.564705477929193	26.8341279117878	-50.739079378924	40.4526068825199
61406	1657020020384	7.74307783986701	2.81452208024419	5.65472300136442	0.0333745789037377	-0.0255156605294515	0.179855670212051	0.00141353955956795	-0.0042444212095727	-0.00602481075985069	0.635986328125	-0.207275390625	0.22021484375	0	0	0	0.340826844052348	-0.318604158941268	0.397183880503829	0.790299574431471	0.481472709946496	0.410610803478623	0.774327319447931	-0.844966203454242	0.452164054882474	0.285621747232881	-0.232843605445592	-0.791799492004686	0.564656904557289	26.8317637319936	-50.7440847828793	40.458294136421
61407	1657020020385	7.77325480578904	2.80602269094334	5.66854483405478	0.0519856536543907	-0.0279636991743785	0.208598466017944	0.000903450379482463	-0.0017455260038401	-0.00695244588937662	0.62890625	-0.199462890625	0.226318359375	0	0	0	0.340827524797252	-0.318596269121291	0.39717868010667	0.790305075088915	0.481491026741435	0.410611897582338	0.774315349667893	-0.844957408839334	0.452171388818605	0.285636153841515	-0.232837643895909	-0.79179473646753	0.564666031285145	26.8325547162057	-50.7430009872072	40.4572933447955
61408	1657020020386	7.77312603459606	2.80670741859396	5.66838242295945	0.0519527653854858	-0.0277884232627992	0.208599124134999	-0.000793677686964022	-0.00239361388370403	-0.0105851571235369	0.627197265625	-0.201416015625	0.224609375	0	0	0	0.340829596764644	-0.318596508947956	0.397112369205196	0.790337406858401	0.481596061420822	0.410531280867351	0.774292774765053	-0.844879759568771	0.452273904386972	0.285703530397471	-0.232902180099215	-0.791777988352781	0.56466290091085	26.8381260618864	-50.7409570261001	40.4455689133954
61409	1657020020386	7.76217020140001	2.81891914950314	5.69870597423893	0.0296533541931383	-0.0510726862489622	0.220724487091074	0.00850885024707416	-0.00519057125899479	-0.00638659624219028	0.633544921875	-0.201171875	0.222900390625	0	0	0	0.340866473361112	-0.318588048265473	0.397115376514981	0.790323402523372	0.481602066475524	0.410507182188836	0.774301816437162	-0.844891120057842	0.452218850147447	0.28575707658556	-0.232848544796635	-0.791821927546025	0.56462340568151	26.8440664019224	-50.7417756601588	40.4435557118046
61410	1657020020387	7.75246568935418	2.81861583518206	5.67598851512212	0.0318868697766652	-0.037512147082257	0.200291272653489	-0.00319814611180469	-0.000920024301866757	-0.0112054351727798	0.62646484375	-0.206787109375	0.219482421875	0	0	0	0.340854438866657	-0.318568529726404	0.397002858566868	0.790392986850585	0.481805644315385	0.410405555460836	0.774229036624641	-0.844747545222713	0.452413963589264	0.285872682132541	-0.232948290283567	-0.791763149935848	0.564664686745708	26.8517166402577	-50.7351865733243	40.4245988209971
61411	1657020020387	7.7631807706696	2.80788280079467	5.64526250363776	0.0535934271203362	-0.0134199414663816	0.188168494556482	-2.59583115050159E-06	-0.000221301611365103	-0.00658672735307918	0.62744140625	-0.201904296875	0.222900390625	0	0	0	0.340848427193502	-0.31855665811326	0.396999661815544	0.790401969740569	0.48182584818011	0.410419557590846	0.774209040745749	-0.844737701150538	0.452427236396119	0.285880765393329	-0.232942199441027	-0.791748307553546	0.564688010502855	26.8514158055948	-50.7333764179514	40.4243777715073
61412	1657020020388	7.75013609075688	2.85335302887389	5.70160779509891	-0.00465743097090524	-0.0426549518774998	0.222885525929069	0.00220235911766092	-0.00229261162744721	-0.00861335680678028	0.630126953125	-0.210693359375	0.2138671875	0	0	0	0.340824744118819	-0.318588834706837	0.396963284019233	0.790417484205118	0.481842611081612	0.410367524416427	0.774226189850478	-0.844699356688707	0.452517289874016	0.285851533448327	-0.233046551048794	-0.791723813756672	0.564679296392963	26.8494111420665	-50.7349288607739	40.4198078708261
61413	1657020020389	7.76113483708187	2.84246394552631	5.67057052302342	0.0170464226974396	-0.0185652466004065	0.210762644511243	-0.00217481846292526	-0.00569563756877869	-0.00276384653068983	0.628173828125	-0.2060546875	0.23046875	0	0	0	0.340814837142385	-0.318609630018279	0.396962457241977	0.790413789090016	0.481817422400055	0.410355421576878	0.774248280239763	-0.844702978243579	0.452532108648043	0.285817370341593	-0.233085499373501	-0.791721616873645	0.56466630088645	26.8471830860824	-50.736928695012	40.4204522609872
61414	1657020020390	7.75178412569676	2.84145569718222	5.64771403255559	0.0164606155732012	-0.00422338827920825	0.190332811100397	-0.00126974018001291	-0.00721873983504753	-0.00313034150564302	0.6298828125	-0.213134765625	0.220458984375	0	0	0	0.340760297435814	-0.318681498308701	0.397029358185612	0.790374728256096	0.481619582748886	0.410415937869363	0.774339289624129	-0.844791946473218	0.452500216860353	0.285604833494332	-0.233171920879811	-0.791708476450862	0.564649044654354	26.830718362297	-50.7451686395097	40.4362391274329
61415	1657020020391	7.77337322003183	2.81035394552561	5.66623628543779	0.0482964253914983	-0.0243124197140894	0.208626448326102	-0.00316323025982857	-0.00824394414439138	-0.00282277851209645	0.635009765625	-0.20556640625	0.223388671875	0	0	0	0.340751237029018	-0.318714648205486	0.397022805947084	0.790368558990267	0.481587729154315	0.410383864774763	0.774376098972921	-0.844793507315913	0.452522972042197	0.285564160515593	-0.233232049952119	-0.791712096223511	0.564619134964895	26.8286542429575	-50.7485017515736	40.4358994189144
61416	1657020020392	7.74411843409	2.79851309508328	5.67911006247652	0.0387251437557551	-0.0516476559028502	0.189870802648585	-0.00178087644668884	-0.00471984000475488	-0.0040580534800476	0.635986328125	-0.212890625	0.228515625	0	0	0	0.340707038710742	-0.318784951838119	0.397104980190049	0.790317975857051	0.481367578379658	0.410453854440484	0.774475879456458	-0.844902962145732	0.452452696962435	0.285351610419123	-0.233290032025099	-0.791715978357371	0.564589736509051	26.8126771736875	-50.7575381373528	40.4536568927929
61417	1657020020393	7.77373427144286	2.81064773305155	5.6655951956605	0.0456042195244631	-0.0231685304326493	0.208641771296135	-0.00568394048031143	-0.00329678947898051	-0.00566384938250303	0.638916015625	-0.202392578125	0.230224609375	0	0	0	0.340682384763684	-0.318799305654563	0.397091911864797	0.790329380041928	0.481370032491457	0.410448193624731	0.774477354200475	-0.844885424470344	0.452507052486579	0.285317344315895	-0.233348476182596	-0.791687847450056	0.564605030851795	26.8092824650666	-50.7576717071745	40.4531225382561
61418	1657020020394	7.77384317946462	2.81123610176871	5.66515384349694	0.0455688178531949	-0.0213367414164754	0.208645999873351	0.00941269108403491	-0.00670971403449643	-0.0067560884937316	0.6337890625	-0.21240234375	0.222900390625	0	0	0	0.34070241296304	-0.318726849965083	0.397177006147176	0.790307210330555	0.481327241798604	0.410601689752808	0.774422584042258	-0.844965717189658	0.452344583178257	0.285337194987714	-0.233145926571142	-0.791701099179121	0.564670121824996	26.8082282781	-50.7527113459517	40.4662146059326
61419	1657020020395	7.76221819428672	2.84435679559009	5.66813800364809	0.0115498761974425	-0.0137033739210527	0.210778311101368	-0.00300254969619422	-0.000320724283030719	-0.0085595018146883	0.628173828125	-0.205078125	0.2265625	0	0	0	0.340686914610655	-0.31871868631909	0.397162169069471	0.79032464004619	0.481361220902133	0.410607524877963	0.774398370042965	-0.844940668361211	0.452389275346211	0.285340516753301	-0.233166554121552	-0.791672535879149	0.564701650408212	26.807209065643	-50.7505185276439	40.4646195997525
61420	1657020020396	7.77369284111116	2.81259219455568	5.66468701018113	0.0437009615905192	-0.0193748556227474	0.208658304347226	0.000306674642405399	-0.00331614972668075	-0.00830693594072404	0.63232421875	-0.21240234375	0.22021484375	0	0	0	0.340639410980059	-0.31872300005703	0.397232836727414	0.790307860486847	0.481243445320277	0.410733236607878	0.77440490357557	-0.845011696628775	0.452341730225302	0.285205525292448	-0.233152265476514	-0.791634491064151	0.56476088184361	26.7938790958688	-50.7511101938414	40.4802026377525
61421	1657020020396	7.75304716405092	2.82350254297559	5.67276459846641	0.0229267852114827	-0.0293848132369928	0.20034294689955	0.00219952525957844	-0.0022901721543673	-0.00861502485098381	0.64013671875	-0.206787109375	0.21728515625	0	0	0	0.340648087174077	-0.318712280007394	0.39722320601352	0.790313284641902	0.481272414353658	0.410724096274249	0.774391748356026	-0.844999010447879	0.452345210617965	0.28523759004222	-0.233138447117385	-0.791637244683883	0.564762726554262	26.7963957127221	-50.749918885962	40.4778700173528
61422	1657020020398	7.74328470721881	2.82294095696862	5.65024136380857	0.0215407217061878	-0.0167177833594356	0.179906779417271	-0.00339745142426043	-0.00129588917123897	-0.00726585812312346	0.636962890625	-0.20849609375	0.229248046875	0	0	0	0.340636558649564	-0.318816543479636	0.397283727609984	0.790245775876971	0.481043302760026	0.41070243471399	0.774545577090029	-0.845104715559798	0.452264749375397	0.28505195352953	-0.233228129967887	-0.791694452798812	0.564645493030159	26.7861733146001	-50.763851175445	40.4898498610119
61423	1657020020399	7.75543442604069	2.77012425000948	5.67422580872787	0.0666003622861549	-0.0544087482619382	0.187802329084958	0.00129375684435756	-0.000766728831238844	-0.00824862564586951	0.636962890625	-0.20654296875	0.22607421875	0	0	0	0.340637928302003	-0.318803343763107	0.397276559540739	0.790254114223428	0.481071526489872	0.410705850212763	0.774526236483772	-0.845091892433627	0.452274274083186	0.285074857441826	-0.233216379664153	-0.791687239762988	0.564660459615163	26.787414383821	-50.7620992661103	40.4884251712029
61424	1657020020399	7.75339027857418	2.80433990997555	5.69970436742378	0.0310496016602652	-0.0590637530029797	0.210364087140723	0.002710466038879	-0.00478752419897463	-0.00768825688012161	0.625244140625	-0.212646484375	0.2333984375	0	0	0	0.340635697033544	-0.31875965748469	0.397335528738167	0.790243051389303	0.481033516725209	0.41082144508392	0.774488538356855	-0.845145117537804	0.452183599017666	0.285060911177668	-0.233101879205186	-0.791679059365973	0.564719205333429	26.7838887853145	-50.7586846857353	40.4986231921896
61425	1657020020400	7.7437436418087	2.80418105706443	5.67682482626797	0.0322554569685961	-0.0453873892652351	0.189924123241681	0.00929421523793147	-0.00323167072709103	-0.00897939996787356	0.625244140625	-0.212890625	0.22705078125	0	0	0	0.34067463994782	-0.318738769580341	0.397334233238712	0.790235340616603	0.48106220772603	0.410802675155673	0.774480673989158	-0.845147537412449	0.452132593586056	0.285134631047898	-0.233033886598992	-0.791717929506519	0.564692772925667	26.7909282228241	-50.757972386909	40.4956428357449
61426	1657020020400	7.76355373656868	2.81616916637948	5.64062008398323	0.0391330747087725	0.000232034099134908	0.188244532703791	0.00440267706807833	-0.00435842196229258	-0.010643697544786	0.632080078125	-0.203369140625	0.22216796875	0	0	0	0.340557543823772	-0.318667464280486	0.397507097530992	0.790227634271449	0.480878309243064	0.411192968712229	0.774387754410642	-0.845291404439877	0.452017333514412	0.284890806770916	-0.232891591259957	-0.791581121985704	0.56494321310753	26.7609964024183	-50.7495572090118	40.5333342840914
61427	1657020020401	7.74356108574339	2.80642945617167	5.67596269252229	0.0300644198274452	-0.0406620311246266	0.189951274089113	0.00538947045037891	-0.00180917720886715	-0.0105854568113356	0.628173828125	-0.207763671875	0.230712890625	0	0	0	0.340579748626749	-0.318645432995424	0.397497208536025	0.790231922958423	0.480922114474453	0.411181604002771	0.774366585241854	-0.845278329885343	0.452002808062816	0.284952639099156	-0.232848587789718	-0.791595319612892	0.564941045712999	26.7660841292664	-50.7476402538866	40.5299742437711
61428	1657020020402	7.75431721349469	2.79647237308014	5.64478955854578	0.0519810703554502	-0.0154308533856245	0.177828237987576	0.00889226274491122	-0.00442443478426884	-0.014274856809506	0.634033203125	-0.20703125	0.2294921875	0	0	0	0.340588444355186	-0.318588608092956	0.397482987788955	0.790258239301225	0.481017146423517	0.411213215325253	0.774290769923318	-0.845243609003908	0.452013571980159	0.28503854508432	-0.232778320048551	-0.791572752365571	0.565001620730215	26.7705586988857	-50.7407755094315	40.5265582611906
61429	1657020020402	7.75220628901789	2.83150726517334	5.66992323973791	0.0163693747950859	-0.0210296398664491	0.200376847795424	0.00699887215108827	-0.00545009351406965	-0.0139670813351816	0.628662109375	-0.2109375	0.230224609375	0	0	0	0.340629507302244	-0.31857161636659	0.397456358322316	0.790260784317285	0.481081136949481	0.411158561472508	0.774280037841123	-0.845218132366233	0.451999963968386	0.285135654192726	-0.232738583803225	-0.791608912216402	0.564967328001216	26.7798067728305	-50.7398038477849	40.5190324798941
61430	1657020020404	7.76310604991768	2.82160306418716	5.6385202860753	0.0377967291258229	0.00541716019421279	0.188248208011553	0.00810411467325481	-0.00637396278729878	-0.011687259399511	0.62890625	-0.2099609375	0.2216796875	0	0	0	0.340604694274982	-0.318493980963906	0.397544365143353	0.790258504585922	0.481040123665063	0.411364540980225	0.774196108133094	-0.845286721038758	0.451893839961229	0.285100537776835	-0.23257420033152	-0.791562487633935	0.565100052655218	26.7715555824695	-50.7322057120513	40.5356188974798
61431	1657020020404	7.77074012549852	2.8574799820706	5.68605904395499	0.000632236722337629	-0.0134020490673063	0.231250176127295	0.0044000362360124	-0.00435601772862323	-0.0106454355673571	0.63232421875	-0.202880859375	0.2294921875	0	0	0	0.340627571675926	-0.318482937557892	0.397529337143219	0.790260654473656	0.481078089189938	0.411335449005437	0.774187974908455	-0.845271727567678	0.451886567049271	0.28515651333115	-0.232550163784315	-0.791581757566406	0.565082951797316	26.7767766812661	-50.7314694787382	40.5313839147424
61432	1657020020405	7.73101104714843	2.86617652139855	5.64897378678042	-0.0173112677462991	0.00390310861215346	0.182015710085444	0.000734965381276019	-0.00988301192969322	-0.00780594633021084	0.62890625	-0.2080078125	0.217529296875	0	0	0	0.340607987248419	-0.318495731557437	0.397537401569705	0.790259882795199	0.481048966665801	0.411351340596383	0.774197627391949	-0.845280100888348	0.451900426751576	0.285109725095317	-0.232579970573455	-0.791565587232859	0.565093336004548	26.7725719652756	-50.7323432392268	40.5341904887668
61433	1657020020405	7.77374394958825	2.80426181454965	5.68669699311096	0.0466467796300688	-0.0364362275564431	0.218763105798569	-0.00170028191399148	-0.000648682362325511	-0.00363313557384963	0.633056640625	-0.209228515625	0.227294921875	0	0	0	0.340588064448366	-0.318493956075226	0.397546932016618	0.790264390658621	0.481036073575453	0.411383887900306	0.774188344458337	-0.845284848052962	0.45191241439898	0.285076648226691	-0.232589384046632	-0.791541828640858	0.565122740597735	26.7686998019206	-50.7315029307704	40.5371881646779
61434	1657020020406	7.74354420455592	2.8135541655432	5.67245741167474	0.0257755656667366	-0.0329370816493596	0.189991665298853	-0.00198224970427323	-0.00531676906523303	-0.0067056122114738	0.6298828125	-0.21240234375	0.220458984375	0	0	0	0.340550845384795	-0.318552784667675	0.397599736208291	0.79023015309166	0.480877146295134	0.411423760589648	0.774265884172434	-0.845357441062678	0.451879142949597	0.284914087063273	-0.232654179010413	-0.791540099672411	0.565098490176342	26.756548456666	-50.7385224332424	40.5492832319054
61435	1657020020406	7.76418088250659	2.80373087213944	5.66386921035684	0.0458321949606256	-0.0219836890455332	0.198318688015105	-0.000794864790436191	-0.00217037561966322	-0.00400018444249909	0.632080078125	-0.208251953125	0.225830078125	0	0	0	0.340537846954078	-0.31855502212064	0.397606906174862	0.790231245165397	0.480862892087546	0.411442718367102	0.774264663093888	-0.845362883844588	0.45188544590787	0.284887940065224	-0.232663864042448	-0.791526647232634	0.565113345347199	26.753829239596	-50.7384118834912	40.5514263350679
61436	1657020020407	7.77373973781976	2.80559367448364	5.68604579170581	0.0419037058104756	-0.0340398504030296	0.218792457879442	0.00538462248635693	-0.00180496892381087	-0.0105887400058483	0.632080078125	-0.21533203125	0.228759765625	0	0	0	0.340515229555036	-0.318573302210218	0.397702252896737	0.790185641226679	0.480687938319474	0.411559097180569	0.774311446048739	-0.845475341709443	0.451764592963882	0.284745850023279	-0.232616750289989	-0.791535130030306	0.565120859119916	26.7420350228242	-50.7426475420645	40.5697313331242
61437	1657020020408	7.73442956750482	2.79336844994959	5.67674140257709	0.0359577106009642	-0.0484484621589807	0.179612709524216	0.000694518814843198	-0.00233740619815106	-0.00960418475707167	0.63232421875	-0.210205078125	0.219970703125	0	0	0	0.340516968558724	-0.318564122507813	0.397689807174151	0.79019485650325	0.480719434241227	0.411551901649706	0.774295717275581	-0.845457858801427	0.451782022786728	0.284770105308895	-0.232615207013	-0.791528923119834	0.565130187948809	26.7436161421278	-50.7412234397793	40.5673818305107
61438	1657020020409	7.76369882033559	2.80639643117534	5.663209853227	0.0402078723800516	-0.0186537422040512	0.198349615806965	0.0042767068505195	-0.000879390328200689	-0.012869903492131	0.632568359375	-0.1953125	0.22802734375	0	0	0	0.340479664443745	-0.318568185959991	0.39783645629818	0.790135471317762	0.480480929868533	0.41175741369288	0.77433449380847	-0.845621369925322	0.451599504280762	0.284574043895418	-0.232513601232898	-0.791526196662069	0.56517581798887	26.7259032275074	-50.7447343925468	40.595562196721
61439	1657020020409	7.76214990367699	2.82017336318501	5.71607665137648	0.0162783176562965	-0.0550946140347092	0.2309464750176	0.00518191165528541	-0.00240034184215958	-0.0132373472916175	0.62939453125	-0.208251953125	0.233642578125	0	0	0	0.340504470049273	-0.318544593216447	0.397817363051626	0.790143906933214	0.480541375574439	0.411734215174506	0.774309319597575	-0.845597646775415	0.45159610306223	0.284649924410472	-0.232474958068404	-0.791540204761351	0.565172096018065	26.7321911961571	-50.7424550080534	40.5904059899886
61440	1657020020410	7.75155607281189	2.84136129585023	5.66588119276195	0.00824568998263817	-0.0090939720826225	0.200404786778947	0.00608708994814367	-0.00392111698469014	-0.0136048501568315	0.623779296875	-0.213134765625	0.2294921875	0	0	0	0.340510131100019	-0.318417037360155	0.397722708123125	0.790240525650411	0.480854475523979	0.411744749588674	0.77410931692799	-0.845441658132618	0.451738996122912	0.284886437156692	-0.232394870990152	-0.791453182802385	0.565326881874059	26.7450077510499	-50.7243498216902	40.5726921007533
61441	1657020020410	7.74170910393272	2.84141539444405	5.64313565037125	0.00942482043462273	0.00462569615892502	0.179938465967028	0.00747542309641369	-0.000177169898254954	-0.00825200061765954	0.62890625	-0.2060546875	0.22119140625	0	0	0	0.340531797590704	-0.318387456903562	0.3977308099764	0.790239030238094	0.480879260163999	0.411762713083719	0.774084365723827	-0.845446925202529	0.451696595250322	0.284938032745466	-0.232324415009947	-0.791468037227785	0.565335044232253	26.7488453051811	-50.7220916116742	40.5724680611373
61442	1657020020411	7.7704973803879	2.84590516372618	5.71007035814333	0.0029215439031496	-0.0328880232159011	0.241347599749895	-0.00140037348843882	-0.00396143598106285	-0.0119437957312849	0.636962890625	-0.213134765625	0.218017578125	0	0	0	0.340454349278841	-0.318391719174161	0.397795363589955	0.790238190626585	0.480771123735315	0.411910485591519	0.77407291545567	-0.845501867860362	0.451699369526913	0.284770558544293	-0.232348268827038	-0.791389557315958	0.565435098436886	26.7312352027426	-50.7210553409948	40.5889915798242
61443	1657020020412	7.77180071082732	2.8341443623339	5.65653547920553	0.0260609743068178	0.00454749026238473	0.208737400449756	0.00381399524265559	-0.00570569934140239	-0.00541103294085644	0.6337890625	-0.205810546875	0.219970703125	0	0	0	0.340467498382343	-0.318396114300366	0.397800153890476	0.790228343270736	0.480757903926284	0.411898856062421	0.774087314317238	-0.845512970184437	0.451673840219966	0.284778087834791	-0.232335221312433	-0.791410180902051	0.565411593887396	26.7328006483046	-50.722358468602	40.5889707423693
61444	1657020020413	7.74238298156704	2.82255408370228	5.66957063357947	0.0161237716181409	-0.024269545687771	0.190036665355663	-0.003794889463001	-0.00227401231236592	-0.00597205315071353	0.622314453125	-0.206298828125	0.220947265625	0	0	0	0.340461703716933	-0.318502617513357	0.397865421094878	0.790155059236033	0.480518378668271	0.411874863152585	0.774248787448231	-0.845626638340186	0.451577869998318	0.284592719262562	-0.232417030984163	-0.791477431409653	0.565283821878608	26.7230160314978	-50.7369746133977	40.6014298605577
