// Start Time : 24/05/2022 11:25:21																																
// Update Rate : 100Hz																																
// Filter Profile : 46.1 human																																
// Firmware Version : 4.4.0																																
PacketCounter	Time_Of_Arrival	Acc_X	Acc_Y	Acc_Z	FreeAcc_X	FreeAcc_Y	FreeAcc_Z	Gyr_X	Gyr_Y	Gyr_Z	Mag_X	Mag_Y	Mag_Z	VelInc_X	VelInc_Y	VelInc_Z	OriInc_q0	OriInc_q1	OriInc_q2	OriInc_q3	Mat[1][1]	Mat[2][1]	Mat[3][1]	Mat[1][2]	Mat[2][2]	Mat[3][2]	Mat[1][3]	Mat[2][3]	Mat[3][3]	Euler_X	Euler_Y	Euler_Z
45975	1653391556940	9.15193531042918	-2.02959858239759	2.8593172640989	1.12757025938492E-15	1.6154612370034E-15	-0.0120299831509829	0.0198459669869108	0.00839097572898726	0.0277829279734784	0.2421875	-0.418212890625	0.091796875	0	0	0	-0.362922256410681	0.471639213651198	-0.616307295228905	-0.51576080288821	-0.204556460011777	0.293397555566138	0.933849307466288	-0.978071026086346	-0.0230944927011761	-0.206987227473768	-0.0391627705589371	-0.955711524883262	0.291687775896519	-35.3602409529527	-69.0430307218395	124.884167095782
45976	1653391556941	9.10040531275339	-2.07182462036394	2.83707272197953	0.0435888881176676	0.00254123775686041	-0.057847079510065	0.0150026762618398	0.0106477927764048	0.020765746741595	0.243896484375	-0.41650390625	0.09814453125	0	0	0	-0.365464752808685	0.469889886028785	-0.619459559319803	-0.511770323318621	-0.20905330124967	0.29058565582219	0.93373266723778	-0.977498420001435	-0.0345892623564084	-0.208087534043525	-0.0281701283506239	-0.956223592869369	0.291278018924673	-35.5418203555757	-69.0243536962517	125.732017257334
45977	1653391556942	9.12375209757134	-2.07557226502472	2.84180568873833	0.0410351522844341	0.00645499564315017	-0.0338844548571711	0.01553465523413	0.0136462217777415	0.0133911805761827	0.237548828125	-0.42138671875	0.103515625	0	0	0	-0.365430772599849	0.469831318376826	-0.619555254616726	-0.511732517225711	-0.209180362501817	0.290711496678768	0.933665037174668	-0.977474783342966	-0.0347767261722491	-0.208167305899219	-0.0280468157231231	-0.956178542436248	0.291437765418729	-35.5373488876441	-69.0135316970948	125.736761007266
45978	1653391556943	9.14854641105632	-2.05576684548767	2.85511263405889	0.0155649591768774	0.00199792550934771	-0.0109783057384991	0.0106390683959489	0.0148422466154413	0.00446914848458536	0.24609375	-0.423095703125	0.092041015625	0	0	0	-0.365400169539495	0.469765091942464	-0.619624007035367	-0.511731926303443	-0.209226303404553	0.290858284929107	0.933609025262591	-0.977467261887158	-0.034902387988112	-0.208181592009354	-0.0279661563767338	-0.956129322529555	0.291606948985593	-35.5234828267621	-69.0045728389528	125.729014371244
45979	1653391556944	9.12006095345247	-2.06124778814316	2.87583153562296	0.0262521083930059	-0.0244808456711166	-0.0303884165841595	0.0128041712928803	0.00966071970980086	0.00287653358589023	0.250732421875	-0.42578125	0.09765625	0	0	0	-0.365396243295723	0.469705958452203	-0.619679089965812	-0.511722310866952	-0.209251723892719	0.290949646482368	0.933574860019115	-0.977464817170574	-0.0350331783109676	-0.20817110176758	-0.0278612139294362	-0.956096741773142	0.291723795959741	-35.5112636896545	-68.9991100508598	125.723784156603
45980	1653391556945	9.10102090414403	-2.02729561030895	2.85961383682593	-0.00221670021163219	-0.0142840859824594	-0.0599599951125	0.00574459627480857	0.016037571399087	-0.00445408674392438	0.24462890625	-0.413330078125	0.10400390625	0	0	0	-0.365371196474531	0.469639144045758	-0.619710827406764	-0.511763083429785	-0.209204870450417	0.291105015794471	0.933536925868026	-0.977475479679564	-0.0350752416368131	-0.20811394486993	-0.0278389799567019	-0.956047905286874	0.291885926333474	-35.4887755057827	-68.9930462293898	125.703205453323
45981	1653391556946	9.0980046096018	-2.01191369987791	2.89218759967308	-0.0169607901697861	-0.0453079988912369	-0.0564640640543477	0.00300605262242094	0.014602899616926	-0.00617730402455484	0.2373046875	-0.4208984375	0.1015625	0	0	0	-0.365348144861297	0.469581176930325	-0.619728755004824	-0.51181102131481	-0.209140423014198	0.291246790367792	0.933507145426269	-0.977489237780908	-0.0350859934668429	-0.208047501991597	-0.0278401415934124	-0.956004330619325	0.292028502638278	-35.4669041746343	-68.9882869593016	125.681621613899
45982	1653391556947	9.12311146159372	-1.9909618498889	2.90526434286986	-0.0423956441858739	-0.0498235855799013	-0.0335579138420794	-0.00220950247452099	0.0145089774126949	-0.0089167056114044	0.24755859375	-0.42041015625	0.098388671875	0	0	0	-0.36531757947611	0.469533761836153	-0.619728026965045	-0.511877216933631	-0.209049561819993	0.291391440684683	0.933482356018887	-0.977507190109866	-0.0350395225605418	-0.207970971874065	-0.0278921850413862	-0.955961955390712	0.292162225243414	-35.4445496920295	-68.9843261008959	125.656350542446
45983	1653391556947	9.10011043618234	-1.96478615276105	2.91171364843581	-0.0627191040927583	-0.0621967151027493	-0.0585770172124889	-0.004635052225356	0.0169125029377408	-0.00803069462379739	0.2451171875	-0.419677734375	0.101318359375	0	0	0	-0.365272162535286	0.46949016760526	-0.61972748105487	-0.511950270069434	-0.208966336505259	0.291555924970528	0.933449630575829	-0.977522680211436	-0.0349718069956383	-0.207909553382501	-0.0279728418259967	-0.955914282417644	0.292310459597562	-35.4228267621404	-68.9790983117479	125.630234307001
45984	1653391556949	9.07173101542295	-1.96962954638261	2.93244224140919	-0.0519741999862349	-0.088581605033524	-0.0779858537166067	-0.00984948541082673	0.0168171261905532	-0.0107700016219525	0.23779296875	-0.415283203125	0.101318359375	0	0	0	-0.365219485639988	0.469453459130019	-0.619708683362412	-0.512044260572216	-0.208850805047829	0.291729447334218	0.933421271875108	-0.977543650835734	-0.034848249851823	-0.207831687172602	-0.0281025255380912	-0.955865853056974	0.292456354039443	-35.3991896144316	-68.9745690999569	125.599095513224
45985	1653391556949	9.08085928963863	-1.9299911521541	2.89668757611891	-0.0911181744031193	-0.0519111859762974	-0.08814763991316	-0.0154368926419795	0.0143672109950348	-0.00922573734549169	0.238037109375	-0.4169921875	0.09423828125	0	0	0	-0.365157099198645	0.469447657538484	-0.619675060756757	-0.512134756497321	-0.208756568184521	0.291869982991546	0.933398418826782	-0.977558562400953	-0.0346737760381197	-0.207790727251822	-0.0282834283000554	-0.955829295577287	0.292558379472922	-35.3844221564894	-68.9709198820496	125.573798861315
45986	1653391556951	9.07517894389443	-1.96074421179761	2.91210848048477	-0.0599452783374868	-0.0658210906077038	-0.0825362575865398	-0.0202880995245076	0.0191717105891479	-0.00745283117647669	0.236083984375	-0.421142578125	0.10498046875	0	0	0	-0.365063247794453	0.469437311062243	-0.619645029665416	-0.512247472715447	-0.208662703612805	0.292074582029041	0.933355406398632	-0.97757181967815	-0.034462275358576	-0.207763540950429	-0.0285168983612447	-0.955774445206436	0.292714872184834	-35.366419827584	-68.9640532155234	125.542613788264
45987	1653391556951	9.02804346518266	-1.93276858417828	2.91490608991607	-0.0777159385394545	-0.0821097103018345	-0.131517035905247	-0.0236104310170535	0.0136712043332817	-0.0037023017923777	0.24853515625	-0.418701171875	0.095947265625	0	0	0	-0.364969105931044	0.469468683886006	-0.619605077532398	-0.512334123851131	-0.208622594507176	0.292206517421548	0.933323076023231	-0.977572780703546	-0.0342258007760698	-0.207798106316619	-0.0287762313138921	-0.955742614796268	0.292793413132471	-35.3636634010105	-68.95889328061	125.525166539154
45988	1653391556953	9.04763499098147	-1.94411400491265	2.94178141658827	-0.0718563010279931	-0.100438224989074	-0.102996080668614	-0.0338361791525404	0.0177309963043568	-0.00157558412263017	0.2421875	-0.4228515625	0.098876953125	0	0	0	-0.364831626676752	0.469507573169848	-0.619556476184316	-0.512455164605283	-0.208575176891534	0.292407408657386	0.933270755433244	-0.977572255283826	-0.033904686011063	-0.207853212546226	-0.0291355673354829	-0.955692617753619	0.292921045825109	-35.3590483966051	-68.950545461373	125.500389514232
45989	1653391556953	9.02049841785046	-1.98823789801788	2.92231635360279	-0.0235487835346195	-0.0874354370880444	-0.12484885894867	-0.0394196487707642	0.0152729909495774	-2.86757689064564E-05	0.239013671875	-0.42236328125	0.0908203125	0	0	0	-0.364683369428467	0.469590490027129	-0.619491710146244	-0.512563003735601	-0.208570414527675	0.292553379174409	0.933226072566228	-0.977560747793044	-0.0335278777552367	-0.207968424977287	-0.0295527758096849	-0.955661237963988	0.292981623476761	-35.3684418472805	-68.9434187520779	125.486253586082
45990	1653391556955	8.9692430174146	-1.96962641986718	2.94715181318162	-0.0328206740456877	-0.125789843641566	-0.169267229798255	-0.0437396352624525	0.0126748450943514	0.00297713431751674	0.24169921875	-0.4287109375	0.090576171875	0	0	0	-0.364523484824216	0.469673091836301	-0.619424986581572	-0.512681676886309	-0.208560254393302	0.292721937323175	0.93317548601384	-0.977549425980505	-0.0331293699799436	-0.208085474288611	-0.0299956672302079	-0.955623520145093	0.293059631633078	-35.3764592554584	-68.9353532103328	125.469336504182
45991	1653391556956	9.01428677501958	-2.02230243244585	2.93704036561711	0.00783072597300539	-0.101037836435826	-0.119235498154442	-0.0493201892695763	0.0102111356010564	0.00452650074117793	0.24853515625	-0.411865234375	0.10498046875	0	0	0	-0.364354790288164	0.469807902032072	-0.619339359272688	-0.51278151296433	-0.208601413512162	0.29281802813118	0.933136138343219	-0.977525066613651	-0.0326713103004718	-0.208272248812047	-0.0304990888831947	-0.95560985129111	0.293052243964582	-35.401410651161	-68.9290816383821	125.465792638079
45992	1653391556958	8.99269471772396	-2.03585512212714	2.90244190040883	0.0255113625728804	-0.0731879135645088	-0.146694089474764	-0.0529829344714665	0.0101971588950564	-0.00482866861772768	0.25	-0.411376953125	0.0947265625	0	0	0	-0.364191310630303	0.469902994778411	-0.61923188068996	-0.512940291551403	-0.208513893129088	0.292988787763156	0.933102098710118	-0.97752713791297	-0.0321668656028852	-0.20834103628657	-0.0310266178599431	-0.955574624507349	0.293111729519326	-35.4048536321679	-68.9236575444229	125.43864977108
45993	1653391556958	9.06870893197674	-2.03682487978347	2.88947427870173	0.00972509303810388	-0.0388680848637741	-0.0793635010947025	-0.0536129804148754	0.00505344269432251	-0.00125267636810268	0.23486328125	-0.421630859375	0.097900390625	0	0	0	-0.364041093168281	0.470053729458629	-0.619111883195611	-0.513053652158194	-0.208500064983964	0.293037478496197	0.933089898722665	-0.977512972575984	-0.0316508828583475	-0.208486474525208	-0.0315612317146501	-0.9555769240678	0.293047147813754	-35.4296999094105	-68.92171384431	125.432357122698
45994	1653391556959	9.06336582979389	-2.06900611877423	2.90273476263256	0.0410671134004369	-0.0521098207564064	-0.0737524367794489	-0.0564862988805307	0.000421206557058659	-0.00867535634550111	0.242919921875	-0.420654296875	0.090087890625	0	0	0	-0.363903016144446	0.470175575080766	-0.618972246085926	-0.513208419663775	-0.208383425654371	0.293126916680311	0.933087862224155	-0.977520156237672	-0.0311040931673627	-0.208535079872223	-0.0321043931826717	-0.955567447177713	0.293019046876893	-35.4386045987828	-68.9213894063444	125.408956193864
45995	1653391556960	9.08487473307564	-2.0577630383257	2.93600884107318	0.0237736141080982	-0.0792119643552678	-0.0462834362346047	-0.0604716286517415	-0.000892808148995245	-0.0118443047142293	0.247802734375	-0.416748046875	0.095703125	0	0	0	-0.363778433687172	0.470343442820117	-0.61879803812023	-0.513352982847846	-0.208267932370653	0.293122035450563	0.93311518082141	-0.977525239147099	-0.0304915215946767	-0.208601711261552	-0.0326936565171199	-0.955588687377661	0.292884593960454	-35.4596770789644	-68.9257419744834	125.394407784349
45996	1653391556961	9.13324085178375	-2.06381737268874	2.9412650433688	0.0189092169885461	-0.0703553340473606	0.00164720258427131	-0.0633580518185341	-0.00299807419342839	-0.0104646233292406	0.234619140625	-0.41162109375	0.09423828125	0	0	0	-0.363630527920155	0.470489966263574	-0.618636641292007	-0.513518000522625	-0.208144204607508	0.293193072545489	0.933120470410785	-0.977531131799727	-0.0298769095690929	-0.208663021728684	-0.0332997965557266	-0.955586308234864	0.292824061619621	-35.4732304958482	-68.9265848437865	125.371779456679
45997	1653391556961	9.13352301701946	-2.06465822368684	2.93979834340319	0.0189092480496058	-0.0703553435375099	0.00164720245639671	-0.0656052830033362	2.80962367934455E-05	-0.0126423502199121	0.2373046875	-0.416259765625	0.09814453125	0	0	0	-0.363491713812769	0.470669811687511	-0.618449862260478	-0.513676425608082	-0.208020607527921	0.293197076347093	0.933146773699204	-0.977535382307999	-0.0292129162810951	-0.208737111837613	-0.0339411723378755	-0.955605608995611	0.292687404710999	-35.4954865657774	-68.9307766176459	125.355347498062
45998	1653391556963	9.08701750288942	-2.03735794650112	2.94025535568502	0.00128502017579993	-0.0855047216168032	-0.0473147055286329	-0.0695359145610319	-0.000234268935318679	-0.0139006737170093	0.2451171875	-0.421142578125	0.090576171875	0	0	0	-0.363320883664563	0.470819539048607	-0.618274961085125	-0.513870576739362	-0.207869931709513	0.293309479725275	0.933145026560379	-0.977543763620004	-0.0285319840232247	-0.208792040306461	-0.0346162057238945	-0.955591688427116	0.292653794286515	-35.5057242811477	-68.9304981634876	125.325395958234
45999	1653391556963	9.0832479091931	-2.04650325167653	2.96138941385684	0.00941903073336213	-0.108067022146071	-0.0427524634790721	-0.0709449876268793	-0.000774451663239891	-0.0122467616194356	0.243896484375	-0.413330078125	0.093505859375	0	0	0	-0.36316979431805	0.471018562799951	-0.618075049622214	-0.514035453084076	-0.207750506935268	0.293305547200951	0.933172857968602	-0.977544405489118	-0.0278181329410336	-0.208885343613669	-0.035308103390931	-0.955613942688586	0.292498427985707	-35.5322161131804	-68.934934274216	125.310226254713
46000	1653391556964	9.03820789795837	-2.05660763757138	2.92205953537848	0.0294225793134047	-0.0834905332529	-0.0941775811942484	-0.0821184293380619	0.00360742775517505	-0.019600127999973	0.239501953125	-0.422607421875	0.096923828125	0	0	0	-0.362961730245218	0.471178392718459	-0.617868896974675	-0.514283706492774	-0.207542103226904	0.293480363574969	0.933164268274379	-0.977559262275981	-0.0270063829426074	-0.208922339683427	-0.0361132126318493	-0.955583555465591	0.292499409225293	-35.5369242203937	-68.9335650484113	125.267011909048
46001	1653391556965	9.01449891672316	-2.05494562723573	2.91701161787663	0.0319713497110045	-0.0874201165113617	-0.118138167212503	-0.0779589718186188	-0.00488313665884678	-0.0109283660271341	0.239990234375	-0.419921875	0.097900390625	0	0	0	-0.362802071030981	0.471411922292585	-0.617648215666842	-0.514447410781323	-0.207437037592047	0.293436607214131	0.933201389294774	-0.977553494079914	-0.0262293221216051	-0.209048293160202	-0.0368651820446928	-0.955618637432162	0.292290913552082	-35.5725875270983	-68.9394828722793	125.257362759145
46002	1653391556965	9.00949298706476	-2.08748288251161	2.92896591305018	0.0630015570867724	-0.0999245553331862	-0.11251028427899	-0.0830436859962641	-0.00290840469838618	-0.00981872262438722	0.2431640625	-0.405517578125	0.09521484375	0	0	0	-0.362579607984462	0.47160600714868	-0.617461378219895	-0.514650607987497	-0.207341559143867	0.293564305029162	0.933182445540279	-0.977543189809506	-0.0254450514387573	-0.209193358915469	-0.0376668276982179	-0.955600621687756	0.292247603790226	-35.595414494939	-68.9364626653397	125.233182329903
46003	1653391556966	8.98318631846096	-2.13195069502042	2.90632262886831	0.111304956139048	-0.0869374525083853	-0.134381003018163	-0.0842818185968772	-0.00280463227284887	-0.0112441010498958	0.24462890625	-0.418701171875	0.0908203125	0	0	0	-0.362397854699023	0.471852985740018	-0.617228595626118	-0.514831443774744	-0.207232758820718	0.293540358519481	0.933214145623505	-0.977534397581525	-0.0246066886980872	-0.209334689949468	-0.0384848699683223	-0.955629932971739	0.292045109515553	-35.6325336380196	-68.9415168495228	125.221214464777
46004	1653391556966	8.98356686369638	-2.13352066957136	2.90399340096136	0.111104499830992	-0.0851467734967157	-0.134362780271083	-0.083685620169347	-0.00917557938826174	-0.00812428854115898	0.244384765625	-0.422607421875	0.09912109375	0	0	0	-0.362174968367491	0.472069023592896	-0.617039955811881	-0.515016331958248	-0.207174940208557	0.293628142053769	0.933199366879143	-0.977514476801888	-0.0238180295606428	-0.209518851444397	-0.0392936609685573	-0.955622946387277	0.291960258504112	-35.6642801124034	-68.9391604183988	125.2056115184
46005	1653391556966	8.94937580052455	-2.19500382842775	2.92558708078612	0.175677927428471	-0.117284605907538	-0.147088092056615	-0.080410057368251	-0.015160334038702	-0.00519174712156534	0.23681640625	-0.421630859375	0.09423828125	0	0	0	-0.362026925130624	0.472346665140597	-0.616809285491006	-0.515142153917826	-0.207130133474737	0.293484506215595	0.933254494989511	-0.977493349321814	-0.023034378374918	-0.209704958082788	-0.0400482189162076	-0.955686278034936	0.291650266822045	-35.7172249745257	-68.9479517297376	125.212980012076
46006	1653391556967	8.92474991814689	-2.21682104780311	2.91016331919199	0.200371768428449	-0.110728572326946	-0.169964915314303	-0.0706639383330755	-0.0236669196932269	-0.00690163362537796	0.248779296875	-0.4228515625	0.097412109375	0	0	0	-0.361858236083258	0.472566225539428	-0.616647371422349	-0.515253140481491	-0.207145636405348	0.293455027777603	0.933260323805887	-0.977462951002484	-0.0223907274067598	-0.209916256501755	-0.040704603372811	-0.955710626705721	0.291479558916264	-35.7604857014386	-68.9488814592886	125.217711673018
46007	1653391556967	8.94843022092274	-2.24369708569662	2.9008077628417	0.220698189742124	-0.098323890000101	-0.144963293999707	-0.0661825731349153	-0.0308364559090255	-0.00443675646084092	0.243408203125	-0.419189453125	0.09130859375	0	0	0	-0.361793258870078	0.472841610797416	-0.616423788050172	-0.515313654447998	-0.207114950751236	0.293161375218076	0.933359419117608	-0.977445004417172	-0.021745297275908	-0.210067620984995	-0.0412875346227696	-0.955815646516957	0.291052897869348	-35.8198923639264	-68.9646937306337	125.240741493976
46008	1653391556968	8.94541470017166	-2.25346809982528	2.91922223092216	0.227515038807947	-0.118575850897399	-0.140324869879608	-0.0569253172771766	-0.030881249255479	-0.0054339276178545	0.24462890625	-0.412841796875	0.090576171875	0	0	0	-0.361653185076534	0.473046916887557	-0.616302470972994	-0.515368656807685	-0.207204242608482	0.293088104939178	0.933362611522557	-0.977403801671257	-0.0212435240068385	-0.210310535081687	-0.0418116051308712	-0.955849399974145	0.290867176294349	-35.8686841966122	-68.9652033195149	125.259131459576
46009	1653391556968	8.94529852620593	-2.27722800751967	2.9061133309783	0.250392975693697	-0.110113642522669	-0.139280303281183	-0.0498656102435806	-0.0397610233973776	-0.00698092774972614	0.245849609375	-0.416748046875	0.089111328125	0	0	0	-0.361663722009964	0.473290311711336	-0.616094652559124	-0.515386274662159	-0.207152680143522	0.292709584193892	0.933492831483132	-0.977397327093004	-0.0207465374600966	-0.210390223572458	-0.0422164908632576	-0.955976297041122	0.290391266044171	-35.9235562050816	-68.9859997865237	125.287317488361
46010	1653391556968	9.02686992060437	-2.26889136089713	2.86594571964106	0.224549305157299	-0.0507314545490162	-0.0765230798021452	-0.0400811994205814	-0.0471954085132699	-0.00681379284741391	0.238525390625	-0.4189453125	0.09326171875	0	0	0	-0.361595617135207	0.473498426877004	-0.615989334464475	-0.51536878954747	-0.207287240857969	0.292493443595936	0.93353070931324	-0.977353267112496	-0.0203885010107558	-0.2106297706666	-0.0425745351356916	-0.956050152701167	0.290095698827223	-35.982274215754	-68.9920526647103	125.324827189514
46011	1653391556969	9.00038961491832	-2.27493912396292	2.88013460813796	0.23524288757828	-0.07724277503517	-0.0958860038520761	-0.0346053689896348	-0.0468152649465664	-0.0121710294562182	0.24658203125	-0.4189453125	0.08056640625	0	0	0	-0.361679494241125	0.473703551808903	-0.615791344175505	-0.515358039510047	-0.207188069115691	0.292048317686152	0.933692071377283	-0.977363761840027	-0.0200220722319809	-0.210616223652048	-0.0428156636994473	-0.956193963984414	0.289585776898228	-36.028458568529	-69.017857005372	125.353063113399
46012	1653391556969	9.04754910228127	-2.2654238590884	2.9129072404284	0.212767876598698	-0.0979937481977942	-0.0443485520636244	-0.0217773733766838	-0.0514665703075944	-0.0164694939696753	0.24609375	-0.423828125	0.09228515625	0	0	0	-0.361675451621425	0.473868722120987	-0.615708866037846	-0.515307572399485	-0.207297947044375	0.291785513960854	0.933749846047531	-0.977332250290356	-0.0198130800463449	-0.210782149152783	-0.0430027172813164	-0.95627854503888	0.289278603779723	-36.0788609645157	-69.0271034571017	125.391750275087
46013	1653391556970	9.0398940434615	-2.19092536966028	2.85433731205828	0.145186935070488	-0.0512100756698274	-0.0842046771935187	-0.0142042917838302	-0.0547968213786384	-0.0165767507916775	0.245361328125	-0.4189453125	0.0849609375	0	0	0	-0.361846834470595	0.474023675845803	-0.615533294108104	-0.515254487574508	-0.207159362835882	0.291264650943602	0.933943200360778	-0.977360517219279	-0.0196287355439277	-0.210668298805991	-0.0430281044236782	-0.956441119908407	0.288736846242486	-36.1152538457449	-69.0580768849258	125.421997811557
46014	1653391556970	9.03085969917855	-2.07934861702136	2.83572006170826	0.036900582255851	-0.0413618686303112	-0.121539313226345	-0.011932601449892	-0.057861658708177	-0.0143951455207865	0.2451171875	-0.4130859375	0.083984375	0	0	0	-0.361865350976776	0.474182782740834	-0.61548561841948	-0.515152025943221	-0.2073437158581	0.290956688328111	0.933998281053715	-0.977317964742734	-0.0195381574375089	-0.210874029209542	-0.0431066037316235	-0.956536703906905	0.288408312629229	-36.1729601413871	-69.0669082710738	125.474714470071
46015	1653391556971	9.08996884113421	-2.04440229077538	2.80037214145205	-0.00738087461197084	0.00321682212436021	-0.0839088750645711	-0.0172828214955861	-0.056173885071531	-0.0051921168778434	0.2431640625	-0.420166015625	0.087646484375	0	0	0	-0.362006019005257	0.474371338222476	-0.615329469780232	-0.515066130993839	-0.207317045814007	0.290420179212158	0.934171163128755	-0.977321297932618	-0.0193574283521102	-0.210875248843711	-0.0431592762017268	-0.95670340726579	0.287846951353966	-36.2263201160269	-69.0946505350234	125.521222307231
46016	1653391556971	9.11172941469342	-2.05599491899164	2.82049253503488	-0.00449744752140787	-0.0131394300066639	-0.055346013883435	-0.0179467461465433	-0.0599175740010147	0.00526083488775319	0.247314453125	-0.416259765625	0.087890625	0	0	0	-0.361986533335737	0.47459211641154	-0.615293639397564	-0.514919226714726	-0.207647879286168	0.290061140065598	0.934209234193177	-0.977244959938734	-0.0192410259990476	-0.211239369419733	-0.0432971881569645	-0.956814672725262	0.287456145447181	-36.3105935330414	-69.1007644976155	125.597975645075
46017	1653391556972	9.11314861780878	-2.11705256454688	2.76598529935394	0.056003525516731	0.0347957442995509	-0.0567807378712999	-0.0202061677211325	-0.0543922138216843	0.0119108346510769	0.251220703125	-0.414306640625	0.083251953125	0	0	0	-0.362073589357067	0.474816033957765	-0.615177655868906	-0.514790152884014	-0.207787628767486	0.289538107632418	0.934340401331241	-0.977211490429917	-0.0190816647805443	-0.21140859263744	-0.0433820735203552	-0.956976266318994	0.286904899573418	-36.384996688372	-69.1218421743592	125.665191898462
46018	1653391556973	9.10909178344439	-2.15028821891458	2.77438507091534	0.0845718324065075	0.0228326440522301	-0.0510876779877094	-0.0229237876708524	-0.0533661264679941	0.0190180263465661	0.24951171875	-0.417724609375	0.08740234375	0	0	0	-0.362000549721551	0.475055682304083	-0.615172062257692	-0.514627082973211	-0.208229134943557	0.289227571567732	0.934338289489246	-0.97710924413743	-0.0189621283621722	-0.211891393664673	-0.0435677906467484	-0.957072541416276	0.286555401423795	-36.4808152123475	-69.1215026545507	125.751967196763
46019	1653391556973	9.11269066401326	-2.16668275973766	2.73797116018273	0.0993250782346206	0.0538409688638878	-0.0546463302187146	-0.0196276771255016	-0.0478151650198438	0.0152890746940197	0.238037109375	-0.422607421875	0.087646484375	0	0	0	-0.362060931263133	0.475266948085839	-0.615077795049306	-0.514502202276461	-0.208398731811088	0.288766572603344	0.934443061468406	-0.977068947893528	-0.0188176238196865	-0.212089999990606	-0.0436605043691019	-0.957214585963198	0.286066420220091	-36.5532837305329	-69.1383531601293	125.817448510735
46020	1653391556974	9.0616709687966	-2.17191900728934	2.74932811040488	0.109764242917579	0.0251521952893585	-0.0978927349177976	-0.0173520583785187	-0.0508829672870424	0.0174663681024837	0.242431640625	-0.41650390625	0.08642578125	0	0	0	-0.361993699689984	0.475500142767995	-0.615088344893657	-0.514321401060033	-0.208868115592804	0.2884500868754	0.934436010473851	-0.97696231041021	-0.0187462212785213	-0.212586978024813	-0.0438035880568745	-0.957311405222643	0.285720351224747	-36.6506720641728	-69.1372187386978	125.90848079714
46021	1653391556974	9.06000953553571	-2.21919169330808	2.7269340365008	0.155518555319266	0.0420701948066628	-0.0957539044121294	-0.0167861861949481	-0.0467752025552557	0.0120257434864777	0.24462890625	-0.41796875	0.0791015625	0	0	0	-0.362065877252289	0.475694061972431	-0.614994273032116	-0.514203757348581	-0.209005592916264	0.28799955617844	0.93454422997028	-0.976929907585453	-0.0186193106655406	-0.212746978675185	-0.0438704660882523	-0.957449516638534	0.285246919867398	-36.7168440677779	-69.1546364672567	125.968954359765
46022	1653391556974	9.08123174574164	-2.23174222019722	2.74809345495112	0.158319271988784	0.0247802086137087	-0.0671355524247055	-0.0126933218227119	-0.0458574113863203	0.0101917854842053	0.245361328125	-0.41845703125	0.082763671875	0	0	0	-0.362027450267236	0.475903138537013	-0.614986508312716	-0.514046615178973	-0.209384405352091	0.287683466320314	0.934556790142408	-0.976843465595233	-0.0185445603073248	-0.213150048104387	-0.043988799929596	-0.957545989751374	0.28490465596725	-36.8018225049277	-69.1566589044996	126.048218586104
46023	1653391556975	9.13428154414755	-2.22964719645291	2.72735048976836	0.144998476241781	0.0552920299977958	-0.0238782883370838	-0.0125372110996697	-0.0451957820970044	0.0071126537760341	0.2421875	-0.409912109375	0.080322265625	0	0	0	-0.362117325667235	0.476071139523313	-0.614892601304533	-0.5139400757146	-0.209473282052162	0.287248684398527	0.934670603698229	-0.976823115884668	-0.0184437373748908	-0.213252031233032	-0.0440175462703613	-0.957678454316981	0.284454625129167	-36.8584308981492	-69.1749937031065	126.101033753439
46024	1653391556976	9.13288543584	-2.21606764744632	2.75454079099151	0.127537508823404	0.0252379719959952	-0.0202850520765381	-0.0105682390155403	-0.0405446328558016	2.14208186534539E-05	0.237548828125	-0.408203125	0.079345703125	0	0	0	-0.362099026252479	0.476253027293382	-0.614861583415286	-0.513821547252489	-0.209743425532128	0.286956745407658	0.934699696004601	-0.976759775138574	-0.0183409431458939	-0.213550817080527	-0.0441365734656695	-0.957767944791202	0.284134698361791	-36.9279020942505	-69.1796828050117	126.163946559167
46025	1653391556976	9.13793420796024	-2.20780069090241	2.72775127787717	0.11941733356713	0.047776235814566	-0.0249242060991825	-0.00860003170264481	-0.0474462835520176	-0.00043329396154511	0.238525390625	-0.4150390625	0.0830078125	0	0	0	-0.362223894361341	0.476401142615624	-0.614753366020962	-0.513725705638845	-0.209759499439149	0.286501459193099	0.934835742938438	-0.976756967818795	-0.0182557013607974	-0.213570960538313	-0.044122309691015	-0.957905863458435	0.283671603336463	-36.9753959040636	-69.2016242765676	126.209392048881
46026	1653391556976	9.14434777617932	-2.17638977097099	2.71002914676661	0.0857817962273487	0.0624668833521982	-0.0306239328234259	-0.0123340909035528	-0.0344287637905273	-0.00948853816094445	0.2470703125	-0.417724609375	0.0849609375	0	0	0	-0.362210203283596	0.476569508798231	-0.614688474792148	-0.513656841557446	-0.20992083551697	0.286241203685856	0.934879252164861	-0.976714558328139	-0.0180763048100831	-0.213780070994191	-0.0442935025226704	-0.957987066988321	0.283370543842138	-37.0315892531377	-69.208646057705	126.25522000622
46027	1653391556977	9.16956623237973	-2.17861247172899	2.70957896060633	0.0831693357313321	0.0664411117460274	-0.00667988927365926	-0.00879467662384421	-0.0376329584382676	-0.00587654246806642	0.24169921875	-0.410400390625	0.08642578125	0	0	0	-0.362317255082745	0.476683303758518	-0.614583501863854	-0.513601356914029	-0.209879705690747	0.285880668665381	0.93499879808618	-0.976723013311624	-0.0179733481878669	-0.213750120520154	-0.0443019684283673	-0.958096655895611	0.282998469174339	-37.0639285103542	-69.2279507780871	126.284307679152
46028	1653391556977	9.19480744676454	-2.18064251031775	2.7091899342795	0.0776342498045203	0.0712572342587802	0.0172816151640021	-0.00950805023956294	-0.0333712667930014	-0.012769232197191	0.243896484375	-0.42041015625	0.0908203125	0	0	0	-0.362309528280655	0.476828037325306	-0.614537942643969	-0.51352696675877	-0.210043720257172	0.28564492873962	0.935034015566206	-0.97668229383691	-0.017850154464068	-0.213946415934179	-0.0444222071266013	-0.958169268277242	0.282733657075091	-37.1150322476641	-69.2336410985683	126.328216971548
46029	1653391556978	9.19343227717923	-2.16566809807423	2.73759988355038	0.0628794583522993	0.0402312405821556	0.0208366960140118	-0.00894356830667794	-0.0267569516821448	-0.00941958125794549	0.247802734375	-0.415283203125	0.086181640625	0	0	0	-0.362391288586	0.476907853850912	-0.614443154735891	-0.513508580736975	-0.209962982932953	0.285389161276321	0.93513024356177	-0.976698168051585	-0.0177356728896307	-0.213883459930474	-0.0444548571314233	-0.958247605023436	0.282462905784591	-37.1333338971053	-69.2491968955867	126.342201030789
46030	1653391556978	9.17401396455686	-2.15380521355803	2.70962644185812	0.0541526264872858	0.0596394205701023	-0.00773989910119255	-0.00828978953964756	-0.0205202701050279	-0.0110645371090765	0.249755859375	-0.415283203125	0.0849609375	0	0	0	-0.362337786890772	0.477022515090747	-0.614439837257691	-0.513443798948179	-0.210173587025519	0.285274083703277	0.935118046282972	-0.976647213363482	-0.0176499708363191	-0.214123093473879	-0.0445789630450616	-0.958283452688574	0.282321696575191	-37.1780093169045	-69.2472245199913	126.38065878526
46031	1653391556979	9.19636241708634	-2.14155488463676	2.74226021607173	0.03677196978276	0.0326087011096226	0.0197545711635989	-0.00651859550210364	-0.0150939227327278	-0.00818119064491245	0.242431640625	-0.417236328125	0.080078125	0	0	0	-0.362387053180192	0.477067015564906	-0.614375201408394	-0.513445029425513	-0.210099650891223	0.285129966850807	0.935178613260079	-0.976661606610947	-0.0175625288364561	-0.214064625178925	-0.0446121381185798	-0.958327949913039	0.282165372694741	-37.1857549807667	-69.257020340753	126.384857890071
46032	1653391556980	9.17274526450937	-2.13865005941584	2.73787683794088	0.0366182477279341	0.0288220439373493	-0.00417689299312762	-0.00756499609284911	-0.0107384279229358	-0.00200523628057643	0.239013671875	-0.4150390625	0.090576171875	0	0	0	-0.362312389224808	0.47718104127857	-0.614388137598443	-0.513376278023077	-0.210349059554767	0.285047384366798	0.935147721918881	-0.976601797000478	-0.0174861020149444	-0.214343570773092	-0.0447459857401932	-0.958353914220613	0.282055972917023	-37.2323914466264	-69.2520235667153	126.425255159445
46033	1653391556980	9.19566938023131	-2.16417236201454	2.73126169484047	0.0568645749679392	0.0412604164364792	0.020869053493378	-0.00700493289407547	-0.00411691438622934	0.00133908826880446	0.23876953125	-0.418212890625	0.078857421875	0	0	0	-0.362304030245192	0.477216206003824	-0.614366489873082	-0.513375397264453	-0.210362982303312	0.285006572142111	0.935157029333715	-0.976595991076132	-0.0174207884217629	-0.214375339870962	-0.0448072080192758	-0.958367241701513	0.282000964790813	-37.2418660000333	-69.253528949983	126.430986770419
46034	1653391556981	9.1627166307107	-2.20117856751126	2.76444141458096	0.0958007345067651	0.000824287532143565	0.00736971391563657	-0.000722578427958401	0.00427060469720203	-0.00689725331649242	0.236083984375	-0.414794921875	0.085205078125	0	0	0	-0.362207715183015	0.477265674591918	-0.614406467270971	-0.513349529944098	-0.210555662336147	0.285071923277896	0.935093744828201	-0.976549161394772	-0.0173794719249901	-0.214591913488782	-0.0449226940126555	-0.958348554814088	0.282046093836443	-37.2653243239898	-69.2432953581533	126.449775374641
46035	1653391556982	9.09171676136354	-2.17005021543217	2.76495001724583	0.080847082096857	-0.0196321947848544	-0.0655617149726701	0.00397156074053576	0.0128817111768239	-0.00350169408164144	0.237060546875	-0.41748046875	0.083740234375	0	0	0	-0.362186672997268	0.477214817507133	-0.614429535931244	-0.513384044580779	-0.2105152733461	0.285194946416732	0.935065325111766	-0.976558334648361	-0.0174056814430283	-0.214548039567655	-0.0449125674709953	-0.95831147587403	0.282173663709607	-37.247195126079	-69.2387012400643	126.432710189533
46036	1653391556983	9.0952620277271	-2.16097079270681	2.74361201509431	0.0699835526127837	0.00310739499572305	-0.0701986912469827	0.00906357833399135	0.0108941272559654	-0.00463249676815846	0.236328125	-0.41455078125	0.078857421875	0	0	0	-0.36208938688789	0.477221827769032	-0.614508422796007	-0.513351732554494	-0.210722549172902	0.285324008970505	0.934979260291411	-0.976511845076133	-0.0174586515681687	-0.214755237215365	-0.0449513481008079	-0.958272093609337	0.282301206007873	-37.2613679852508	-69.2247945702222	126.447267020308
46037	1653391556983	9.06599267796175	-2.12958531065664	2.8047115270518	0.043097277150173	-0.0629198776573004	-0.0870538573295558	0.0144256982316974	0.0141795997867959	0.00375763003248517	0.2451171875	-0.4189453125	0.082275390625	0	0	0	-0.362073594526798	0.477148798258271	-0.614577640022456	-0.513347894562313	-0.210753302589768	0.285458314082177	0.934931332435098	-0.976510236120235	-0.0176059269382555	-0.214750529892357	-0.0448419914801883	-0.95822939960012	0.282463472934262	-37.2448989938311	-69.2170540668063	126.438377822356
46038	1653391556985	9.06549483023782	-2.12971010321743	2.80622556343268	0.0404908369091187	-0.0629786701865823	-0.0870430371905453	0.0116095107972205	0.0131058480274437	0.00705225473777122	0.24365234375	-0.421142578125	0.084716796875	0	0	0	-0.361961720481985	0.477165906089003	-0.614690242545068	-0.513276062847146	-0.211062792427707	0.285579990481538	0.934824350714712	-0.976443159774822	-0.0177207627487863	-0.215045879515427	-0.0448469996943063	-0.958191026676918	0.282592821943965	-37.2702029115934	-69.1997861050939	126.466889778134
46039	1653391556986	9.08767691759892	-2.15538042676634	2.80196094367087	0.0606976413951981	-0.0505416188738614	-0.0619805782983906	0.0155467104900142	0.0133638050439607	0.00829053368028375	0.251220703125	-0.42138671875	0.087646484375	0	0	0	-0.361940321268194	0.477100037444431	-0.61477218152847	-0.513254247843624	-0.211138561821505	0.285705385591749	0.934768923507739	-0.976432348910568	-0.0178912626819958	-0.215080846940483	-0.0447255599510873	-0.958150476367629	0.282749516221598	-37.2593869185637	-69.1908449634053	126.46469704209
46040	1653391556987	9.05549015004777	-2.17027959153355	2.84529942215616	0.0766537096182981	-0.0991011275956807	-0.0765666148272732	0.0174235612156901	0.00684612688948113	0.0128239263430545	0.24853515625	-0.4208984375	0.081787109375	0	0	0	-0.361831875453848	0.477108567443374	-0.614931448718432	-0.513131973428604	-0.211546543501636	0.285815800102129	0.934642920234509	-0.976348151114668	-0.018125985434796	-0.215443116545848	-0.0446357227731419	-0.958113133749871	0.282890217555365	-37.2921200202187	-69.1705326152775	126.506991361276
46041	1653391556988	9.03477571557571	-2.15996920024648	2.82042927726542	0.0711928328507264	-0.0805630798433644	-0.105169577414774	0.0168267795972398	0.00165933068068217	0.0163784408485773	0.246826171875	-0.41796875	0.08935546875	0	0	0	-0.361830483883647	0.477083380467481	-0.615015949380777	-0.513055095502918	-0.211706339822034	0.285827512475955	0.934603155778411	-0.976320754105534	-0.0183318341204253	-0.215549829414412	-0.0444770815359821	-0.958105723273579	0.282940298028493	-37.3009076238657	-69.1641263172513	126.526558667276
46042	1653391556989	9.0330571553319	-2.18346951982701	2.81215888788631	0.0914898447868996	-0.0714945287587501	-0.104009984914169	0.0144460113677579	0.00260716012277865	0.0104072527900089	0.2392578125	-0.419921875	0.0869140625	0	0	0	-0.361740309764623	0.477097472383746	-0.615148108286885	-0.512947126912221	-0.212058386567786	0.285906134646461	0.93449928991829	-0.976247684438521	-0.018526493675077	-0.215863910046432	-0.0444038209470115	-0.958078520374832	0.28304390027287	-37.3310160954755	-69.1474017610316	126.564561506231
46043	1653391556990	9.05319002088925	-2.19514331441615	2.83782984813619	0.0969223526694336	-0.090065477904773	-0.0754045685397333	0.0248434756338098	-0.0112089160372714	0.0136146532683645	0.24169921875	-0.41064453125	0.087890625	0	0	0	-0.361805745748534	0.477075575955071	-0.615221223044809	-0.512833641530793	-0.212196516915226	0.285794911248523	0.934501956612984	-0.976229649395867	-0.0188011018828072	-0.215921722409801	-0.0441396629967739	-0.958106354885741	0.282990994340969	-37.343579579309	-69.1478309938386	126.593084537675
46044	1653391556991	9.08007585410769	-2.15265244359875	2.85802737031513	0.0462502454495496	-0.10208070288285	-0.0537196431606137	0.0237270366855693	-0.0104013049375933	0.0090864532849711	0.2470703125	-0.412841796875	0.077392578125	0	0	0	-0.361778539935784	0.477078732550647	-0.615343001992345	-0.512703774989857	-0.212502254306165	0.285783665476959	0.934435919933171	-0.976171054663308	-0.0190614441180365	-0.216163672678046	-0.0439643486512014	-0.958104565219627	0.283024341979602	-37.3712717134753	-69.1372041721591	126.633655788248
46045	1653391556992	9.06517218710514	-2.11038029234114	2.81791730826469	0.00982520369334971	-0.0694548336198184	-0.0881416591734343	0.0232210045424995	-0.0159711627300543	0.00765177288477711	0.240966796875	-0.416748046875	0.090087890625	0	0	0	-0.361868609052511	0.477063100433941	-0.615388527961415	-0.51260010499437	-0.212584484284323	0.285628126922087	0.934464772023295	-0.976164769259322	-0.0193038611282324	-0.216170544252535	-0.0437056094622167	-0.958146092230471	0.282923815973513	-37.38196922319	-69.1418465012062	126.659208957491
46046	1653391556994	9.01871266375144	-2.08240418065225	2.8195415528268	-0.00960481692410817	-0.0852828062346571	-0.137149427240548	0.0217595546437287	-0.01756432502949	0.00739782479998229	0.2470703125	-0.424072265625	0.087646484375	0	0	0	-0.361880554641535	0.477087308819782	-0.615475147746064	-0.512465127050021	-0.212843915459881	0.285521859715355	0.934438192325416	-0.976116339427914	-0.0195343866414077	-0.216368434944642	-0.0435242409877121	-0.958173092589867	0.282860327870867	-37.4134692577176	-69.1375697664512	126.702899829522
46047	1653391556995	9.04321036653198	-2.08517622138958	2.82115481601468	-0.0122905575073391	-0.0812989140864216	-0.113214837414398	0.0146962688324314	-0.0227301363495948	0.00683431353941623	0.238037109375	-0.4169921875	0.091064453125	0	0	0	-0.361971584828423	0.477113787303057	-0.615485831406281	-0.512363344785957	-0.212920749393095	0.285301491028218	0.934487995479321	-0.976108025962532	-0.0196924737701613	-0.216391608266914	-0.0433344681450376	-0.958235495947571	0.282678011484268	-37.4342593333538	-69.1455838948201	126.734011917655
46048	1653391556996	9.04513929541279	-2.06264727042561	2.82803819501241	-0.0376194501733388	-0.088463574180378	-0.114356718705654	0.00929572081843097	-0.0245783285080807	0.00534223434172799	0.24267578125	-0.4189453125	0.0849609375	0	0	0	-0.361949423415717	0.477178855241265	-0.615558889320973	-0.512230620695011	-0.213224812222868	0.285187000860932	0.934453612541826	-0.976045446943922	-0.0198402626660804	-0.216660216646665	-0.0432488722692448	-0.9582665279124	0.282585909999333	-37.4775866311789	-69.1400508128473	126.784239806693
46049	1653391556996	9.04812907324392	-2.0772365527015	2.79452994087448	-0.022863100845816	-0.0574672825829542	-0.117888585120705	0.00642528974089252	-0.0267044603812398	0.00673620854412189	0.23974609375	-0.4169921875	0.0908203125	0	0	0	-0.362031617990362	0.477240609653562	-0.615542681067285	-0.512134470483363	-0.213302783436012	0.284928869889436	0.934514559373999	-0.97603363022378	-0.0199193692804431	-0.21670618680522	-0.0431309082983392	-0.958341670716138	0.282349016145553	-37.5066622997672	-69.1498596561858	126.819174512063
46050	1653391556997	9.07666467202162	-2.07222573912078	2.7721691029372	-0.0355779733819146	-0.0297065885551079	-0.0986391202041545	0.00256338279464833	-0.0374749513353111	0.0140660766065097	0.244873046875	-0.418701171875	0.080810546875	0	0	0	-0.362027105834189	0.477366433902174	-0.615582945794395	-0.511971971178049	-0.213642150738768	0.28468325138791	0.934511892811922	-0.975961605339877	-0.0200119770231674	-0.217021809222104	-0.0430810437446064	-0.958412733197359	0.282115324849685	-37.5698706109278	-69.1494304048247	126.886601878206
46051	1653391556998	9.06984829616303	-2.0900954252891	2.81428529318307	-0.0193849530536128	-0.074811856103002	-0.0892684458464181	-0.00432063484313278	-0.0293464436002512	0.00566167611177567	0.24462890625	-0.424072265625	0.07958984375	0	0	0	-0.362092367672924	0.477465960611609	-0.615533775731253	-0.511892122096323	-0.213711145217478	0.284400221039898	0.93458229208684	-0.975947341684235	-0.0199854235859125	-0.217088390070877	-0.0430619631381045	-0.958497312002777	0.281830747460499	-37.6063159635153	-69.1607658011458	126.922850760363
46052	1653391556999	9.12203520197318	-2.14751686392822	2.74588881448746	0.0256851740382484	0.0040939430371941	-0.0473106243111729	-0.00612110889300619	-0.0333432408173954	0.00968870198346973	0.23974609375	-0.419677734375	0.085205078125	0	0	0	-0.362082794725243	0.477626896094635	-0.615529288118549	-0.511754133700192	-0.214007512809447	0.284118352468631	0.934600206640051	-0.975880277964186	-0.0199605095355409	-0.217391952794084	-0.0431099471312361	-0.958581420563529	0.281537195781924	-37.6739085717179	-69.1636512679233	126.988290570394
46053	1653391556999	9.09107731040801	-2.16288714133614	2.78509510364311	0.0445648219769681	-0.0450269993057428	-0.0618664741665231	-0.00439967559288973	-0.0289730093024189	0.0106632215630214	0.24658203125	-0.417724609375	0.086181640625	0	0	0	-0.362134619214591	0.477735253347495	-0.615493050009155	-0.511659897457027	-0.214125333801134	0.283837273593632	0.934658624067357	-0.975855169819157	-0.019946354086539	-0.217505932093537	-0.0430932588901862	-0.958664980625446	0.281255090550616	-37.7162307133603	-69.1730631178109	127.030708430543
46054	1653391557000	9.14215936316717	-2.18356970099205	2.75697791284736	0.0523382386235802	-0.00501497140360622	-0.0175244515823572	-0.00192068596508263	-0.0303135228094065	0.0116478657610794	0.2412109375	-0.418701171875	0.087646484375	0	0	0	-0.362119210516899	0.477850436699188	-0.615517787924901	-0.511533469353717	-0.214406374211135	0.283638253246969	0.934654614278795	-0.975793544777631	-0.0199849397546912	-0.217778695361386	-0.0430913525889016	-0.958723079662741	0.281057275042027	-37.770501246584	-69.1724169558944	127.086176818817
46055	1653391557001	9.11863836771585	-2.18180726970533	2.75140623919508	0.0550148538407395	-0.00904179077875996	-0.0414552987867598	-0.00259358735384163	-0.0249874870634598	0.00664518472306481	0.23486328125	-0.418212890625	0.07568359375	0	0	0	-0.362172935665934	0.477935749647861	-0.615482833300103	-0.511457784956426	-0.21448339775717	0.283396186177422	0.934710368909338	-0.975777760216081	-0.0199767068320058	-0.217850163763618	-0.0430654705561985	-0.958794833551078	0.280816367759312	-37.8033960968263	-69.1814033182952	127.119614100461
46056	1653391557009	9.14176433393639	-2.20816471436351	2.74331276253287	0.073346586625514	0.00398022378110574	-0.0163505305060703	-0.00140636193015284	-0.0247488122170521	0.0130842473503822	0.251708984375	-0.41845703125	0.08251953125	0	0	0	-0.362135333178373	0.478062890143088	-0.615509163001973	-0.511333886802388	-0.214791313342703	0.283214457356202	0.934694743141818	-0.975708313364933	-0.019987058551201	-0.218160043823402	-0.0431042798695748	-0.958848313673703	0.280627747063655	-37.8614988689771	-69.178884430638	127.176868520986
46057	1653391557010	9.11946592964853	-2.18377685039202	2.74709747726777	0.0531440223635173	-0.00851015512419813	-0.0414444670844869	0.00185873922498202	-0.019166004019277	0.00931286530954186	0.23486328125	-0.42236328125	0.07421875	0	0	0	-0.362175776149966	0.4781248686511	-0.615502272143593	-0.511255582007289	-0.214892874073114	0.283027453942537	0.934728042260101	-0.975688435543789	-0.0200286796875117	-0.218245111597232	-0.0430479897174072	-0.958902660495204	0.280450634295075	-37.8898537383238	-69.1842526292219	127.20813496289
46058	1653391557011	9.0716661519669	-2.17920994628821	2.73930381497571	0.0567914536329957	-0.0164638572484552	-0.0892943611390553	0.00160565587038039	-0.0219555052439948	0.00860040613461762	0.2451171875	-0.41748046875	0.07666015625	0	0	0	-0.36216340182851	0.478240618770158	-0.615516083042889	-0.511139445210284	-0.215148275852248	0.282826599636355	0.934730086140347	-0.975631597181843	-0.0200447562169178	-0.218497584262643	-0.0430604920804594	-0.958961585407018	0.280247161868676	-37.9421275433093	-69.1845821691793	127.260515342204
46059	1653391557012	9.09245215638571	-2.19111240774634	2.76284273474124	0.0621468824711394	-0.035028738426332	-0.0606685916388852	0.00656138602027616	-0.0246331987482388	0.0105629656100114	0.23486328125	-0.4208984375	0.080078125	0	0	0	-0.362229512442753	0.478304986462931	-0.615513327231729	-0.511035678050278	-0.215264632150356	0.282586176970888	0.934776010994157	-0.975610905152508	-0.0201337513687763	-0.218581778296643	-0.0429476412934939	-0.959030596300659	0.280028240480361	-37.974547399518	-69.1919880639908	127.298929192532
46060	1653391557013	9.09806255755961	-2.16056321412547	2.74702871843292	0.0293704956136933	-0.0208258599453196	-0.0665267945826677	0.00301437529390139	-0.0214267482448671	0.00695475322317934	0.238525390625	-0.42041015625	0.07568359375	0	0	0	-0.36221678876931	0.478414523043566	-0.615525573372158	-0.510927402474679	-0.215504374668252	0.282398220244665	0.934777572314126	-0.975557309194431	-0.0201454670829493	-0.21881978117467	-0.0429627859451205	-0.959085713249163	0.279837084149293	-38.0237788229178	-69.1922398885214	127.348059610832
46061	1653391557014	9.07446088400172	-2.15841058512785	2.74205282693056	0.0320326951582614	-0.0248748459429196	-0.0904558783788136	0.002761365933358	-0.0242173791010435	0.00624344033560072	0.238037109375	-0.418701171875	0.0732421875	0	0	0	-0.362281912030835	0.478482350876994	-0.615503210115298	-0.510844648060711	-0.215579123526022	0.282162039605721	0.934831655917413	-0.975544043400626	-0.0201847708939084	-0.218875294196301	-0.0428889366306646	-0.959154397596915	0.279612912229015	-38.0531160836042	-69.2009648048889	127.380766773062
46062	1653391557015	9.09536555954784	-2.17009483935441	2.7654178047384	0.0354508080017011	-0.0437286447556904	-0.0618231702232652	9.00128057076911E-05	-0.0246138452521924	0.00645576619848608	0.2373046875	-0.42138671875	0.092529296875	0	0	0	-0.362271844357107	0.47863150323105	-0.615486296717479	-0.510732428433802	-0.215822994664423	0.281908187094637	0.934851971716964	-0.975487056866345	-0.0201285413217939	-0.219134305188603	-0.0429585481634965	-0.959230220475393	0.27934198980177	-38.1129797662214	-69.2042431096734	127.436910789485
46063	1653391557015	9.10713331697513	-2.14526346504267	2.69505622131878	0.0111035340546462	0.0238679168370923	-0.0759185511211697	-0.000612281190117835	-0.0319267415372701	0.00622304947486214	0.2412109375	-0.41845703125	0.0791015625	0	0	0	-0.362351623623616	0.478730409906782	-0.615441446960796	-0.510637171434489	-0.215901960013427	0.281597076703776	0.934927499891969	-0.975472041934663	-0.0201337475597385	-0.219200656050614	-0.0429026696859203	-0.959321488658045	0.279036990975627	-38.1518058694854	-69.2164352177002	127.477572209064
46064	1653391557016	9.07638620063924	-2.16010995702821	2.73433158528335	0.028261148317283	-0.024223981880766	-0.0904425400037745	-0.00455100358930589	-0.0321841902267824	0.00499681438683891	0.238037109375	-0.418701171875	0.079833984375	0	0	0	-0.362346514983534	0.478848005966945	-0.615444754766602	-0.510526536128187	-0.216135317976484	0.281383945320635	0.934937751745536	-0.975419569996384	-0.0201344861808695	-0.219433964860278	-0.0429207035272409	-0.959384009550934	0.278819180521535	-38.203160506761	-69.2180906463336	127.528418251516
46065	1653391557017	9.07561799355852	-2.18358767537067	2.72267724980468	0.0510620841975639	-0.0158128657859189	-0.0892615051414207	-0.00690678936687794	-0.0287363610738995	0.00782683330200173	0.240966796875	-0.417724609375	0.0810546875	0	0	0	-0.362396296362745	0.478960987710746	-0.615395072156474	-0.510445101650747	-0.216229445166649	0.281103424227327	0.935000370016288	-0.975398176421793	-0.0200843409038123	-0.21953363451531	-0.0429327902187263	-0.959467291854252	0.278530593267425	-38.244648428518	-69.2282047334327	127.568085179344
46066	1653391557018	9.10418895568781	-2.17857780823822	2.69972894302729	0.03872286084818	0.0110808968292179	-0.0700300957782165	-0.00792114035123406	-0.0399010293363964	0.00498374265263846	0.237060546875	-0.422607421875	0.0703125	0	0	0	-0.362421306022588	0.479132458443415	-0.615344071636495	-0.510327892348312	-0.216432478464422	0.280758863600811	0.935056919537698	-0.975350108988315	-0.0199950591145978	-0.21975523317429	-0.0430017111546749	-0.95957003815281	0.278165768413701	-38.3092778848957	-69.2373426442288	127.628049799462
46067	1653391557019	9.07733424831663	-2.18505670560629	2.7157685873026	0.0494586573623377	-0.01553127111074	-0.0892527631649482	-0.0101408836711974	-0.0357787126091633	0.00472289932755641	0.243896484375	-0.42529296875	0.085693359375	0	0	0	-0.362491664545806	0.479268105023307	-0.615265876899688	-0.510244821007561	-0.216500031539547	0.280411068154257	0.935145640635705	-0.975333840768707	-0.0199046122846612	-0.219835632828619	-0.0430306332132953	-0.959673610800248	0.277803753284358	-38.3557763639039	-69.2516869538128	127.671044987999
46068	1653391557020	9.08564936005108	-2.16869738189428	2.6668360073869	0.0310782024293453	0.0295657353453949	-0.0986539317656785	-0.0119145738078044	-0.0412260907980698	0.00186614967065064	0.239990234375	-0.41748046875	0.0849609375	0	0	0	-0.36250567529075	0.479477722943912	-0.615199856091627	-0.510117521407921	-0.216739499469273	0.280021660034633	0.935206853739459	-0.975275243005248	-0.0197624551063222	-0.220108259157227	-0.0431530966543889	-0.959790245459715	0.277381497165038	-38.4327659186607	-69.2615893363053	127.740220999077
46069	1653391557021	9.0574638229947	-2.19766010241604	2.67384197124946	0.0646759526932846	0.0113997804722814	-0.116684192745828	-0.0117161532047921	-0.0395005469701113	0.000681681480134861	0.234375	-0.419189453125	0.08203125	0	0	0	-0.362592670339321	0.479621130840591	-0.615100638185406	-0.510040519146566	-0.216770448489803	0.279638284489628	0.935314386989331	-0.975266710820248	-0.0196444793597876	-0.220156619697294	-0.0431904552810624	-0.959904434971722	0.276980252534786	-38.47928922909	-69.2789958358813	127.782183715494
46070	1653391557022	9.1067185037106	-2.20345966491228	2.67564347166753	0.0575733172918249	0.0201775047287853	-0.0688225727090739	-0.0158461798812675	-0.041496411055633	0.000655001686845909	0.245361328125	-0.4150390625	0.073486328125	0	0	0	-0.362603921214662	0.479798262934671	-0.615035851196472	-0.509944040996319	-0.216950942744192	0.27931427156929	0.935369352790716	-0.975221197697669	-0.0195014038744349	-0.220370848362597	-0.0433117074649647	-0.960001683823859	0.276624046409249	-38.5423645591461	-69.2878985984189	127.837452951808
46071	1653391557023	9.10847480127175	-2.24086408383874	2.63144074366471	0.0951252219941016	0.0595809802890248	-0.0711440902098737	-0.0156482814467755	-0.0397706219619812	-0.000529378800839267	0.2392578125	-0.411865234375	0.087890625	0	0	0	-0.36268425811251	0.47995230113193	-0.614923963624714	-0.509876883684301	-0.216971384803527	0.278928740020683	0.935479650322183	-0.975213317082388	-0.0193427042451008	-0.220419704150179	-0.0433866841508487	-0.960116981301217	0.276211835111086	-38.5902042212121	-69.3057744385926	127.878414765321
46072	1653391557024	9.08913187995947	-2.22982179100043	2.6019851308173	0.0892486469606575	0.0782799162576727	-0.0997755606067212	-0.0155742905811009	-0.0401586320456699	-0.00551815709123624	0.24169921875	-0.41748046875	0.073486328125	0	0	0	-0.362750458691674	0.48010841908038	-0.614802872967261	-0.509828832097912	-0.216973333361319	0.278569362904393	0.935586277507916	-0.975207559876963	-0.019140935779635	-0.220462785377259	-0.0435061808125841	-0.960225356168291	0.275816021294236	-38.6357296551643	-69.3230694748825	127.91446881817
46073	1653391557025	9.14008053331591	-2.21231847289149	2.61218834143431	0.0608093689777609	0.0778037980326474	-0.053117700440783	-0.0135945008057481	-0.0470957533475985	-0.00595415851671391	0.239501953125	-0.41552734375	0.07373046875	0	0	0	-0.362871709258527	0.480264939203119	-0.61466848327297	-0.509757164209515	-0.216943512313738	0.27811420715323	0.935728593260092	-0.975212444695542	-0.0189864434185963	-0.22045453653136	-0.0435453806496564	-0.960360350465305	0.27533942158404	-38.6830205943568	-69.3461748081003	127.956079219519
46074	1653391557026	9.13766168693963	-2.2205773359596	2.63080414127703	0.0675691333009602	0.0544176327627266	-0.0483938731574938	-0.0174090593295136	-0.0325701086223759	-0.00815249894478395	0.24169921875	-0.415283203125	0.07275390625	0	0	0	-0.362901049824099	0.480467700444391	-0.614523539335969	-0.509719958867846	-0.216976783136655	0.277745360591626	0.935830428148977	-0.975194292182988	-0.0186727047228795	-0.220561607248526	-0.0437854778823988	-0.96047324000628	0.27490723373249	-38.7405200459854	-69.3627231509568	127.997223394987
46075	1653391557027	9.16949697516457	-2.16890589818336	2.62498941074227	0.010895349712773	0.0640112215999205	-0.0315739581934675	-0.0191810209549767	-0.0380249321450415	-0.0110025149959116	0.2373046875	-0.41943359375	0.0869140625	0	0	0	-0.362992073608926	0.480609950755238	-0.614378660120189	-0.509695685405577	-0.216894125552062	0.277377099293585	0.935958804162065	-0.975207509780495	-0.0184487670279736	-0.22052200766108	-0.0439004688896615	-0.960583982680653	0.27450165946428	-38.7767937416039	-69.3836025724307	128.023514743103
46076	1653391557028	9.09753906778922	-2.21983791072927	2.56379437656436	0.0782231164031507	0.0999138335333323	-0.10445187983688	-0.0149155843775232	-0.0353624403450808	-0.0140630496536117	0.243896484375	-0.417236328125	0.083740234375	0	0	0	-0.363041709048058	0.48076267449657	-0.614261926300152	-0.509656996616742	-0.216900926582135	0.2770519709968	0.936053520593027	-0.975199582979799	-0.0182339932210154	-0.220574918898866	-0.0440427224843895	-0.960681907219036	0.274135936604742	-38.8208083623961	-69.3990204836749	128.056999384302
46077	1653391557029	9.170595126791	-2.18977904208935	2.60865483270944	0.0322245739526308	0.0724369780771998	-0.0303696396218278	-0.0165583852740354	-0.0401415758878656	-0.020003920476227	0.2421875	-0.420166015625	0.07958984375	0	0	0	-0.363167314755373	0.480886125791101	-0.614096556422988	-0.509650326110388	-0.216732093177894	0.276664774475147	0.936207136456107	-0.975233266501822	-0.0180101582344004	-0.220444346964395	-0.0441279468694762	-0.960797708555234	0.273716071029995	-38.8471337459962	-69.4240495206208	128.074238937457
46078	1653391557030	9.21520246287919	-2.22469189989757	2.62431150841982	0.0565444158370072	0.0664955489513295	0.023399305824352	-0.0145866985181929	-0.0344005940168893	-0.0252302092937558	0.23828125	-0.42041015625	0.072998046875	0	0	0	-0.363256597086503	0.480998883526397	-0.613958776566702	-0.509646288514114	-0.216610610553845	0.27635158829136	0.936327743391348	-0.975255658820185	-0.017801469300295	-0.220362219152827	-0.0442294396832968	-0.96089172508644	0.273369437438987	-38.872175022275	-69.4437207547952	128.090149259975
46079	1653391557030	9.17856630104318	-2.15485568660428	2.58768308370158	9.83964298104795E-06	0.0865964277043036	-0.0362828234615282	-0.00675878911163366	-0.0349540041371574	-0.024692256713596	0.239501953125	-0.41943359375	0.080078125	0	0	0	-0.363402502631266	0.481070429332569	-0.613814410726744	-0.509648636108535	-0.216393777588085	0.276014958578593	0.936477162381451	-0.975303750424005	-0.0176590194689746	-0.220160744548759	-0.0442303903445138	-0.960991103846571	0.273019726206221	-38.8824040890998	-69.4681162988324	128.096195393057
46080	1653391557032	9.18582007293722	-2.06226159791159	2.61968954260832	-0.0934740750963698	0.0522775383714069	-0.0411206893138498	-0.00917476261544646	-0.0311251610222884	-0.0168629618383975	0.2431640625	-0.4150390625	0.07470703125	0	0	0	-0.363450442236732	0.481228204731325	-0.613700396249729	-0.509602800867417	-0.216417522772016	0.275681673991834	0.936569842810607	-0.975292089297388	-0.0174488006383003	-0.22022915317964	-0.0443711211393204	-0.961090606541	0.27264638201798	-38.9294216892099	-69.4832621203077	128.132866358956
46081	1653391557032	9.14369018043441	-2.02497382638923	2.59721161727836	-0.119055240369053	0.0582776481776215	-0.0948930671374821	-0.0197884512515144	-0.0302293568232656	-0.00717680369737025	0.240478515625	-0.418212890625	0.081298828125	0	0	0	-0.363506028574081	0.481360181080183	-0.613577811637043	-0.509586118656553	-0.216370709725698	0.275386815575488	0.936667399763646	-0.97529612652812	-0.0172287274860063	-0.220228600614131	-0.0445104656462175	-0.961179105451427	0.272311486521505	-38.9637785193664	-69.4992164292979	128.156629001796
46082	1653391557033	9.18618908314985	-2.08450615264467	2.60472881527236	-0.0716333314373293	0.0602231955995357	-0.0399145190094039	-0.022204484696593	-0.0263986389247106	0.000651150548268633	0.240478515625	-0.42236328125	0.083251953125	0	0	0	-0.363499952920191	0.481542835843071	-0.613472107129996	-0.509545145447109	-0.216463057956608	0.275101871794573	0.936729792776549	-0.975265064426619	-0.0169604839989951	-0.220386923594533	-0.044741464538135	-0.961265469117477	0.271968562950465	-39.0192231217154	-69.5094263157905	128.19732864167
46083	1653391557034	9.24906760845946	-2.15595294272052	2.63769194454094	-0.0181116064402885	0.0439678073270076	0.0437086028541422	-0.0236591430431174	-0.0265657492181047	0.00730715851174778	0.247802734375	-0.420654296875	0.08447265625	0	0	0	-0.363499486661741	0.481703905341864	-0.613383546080593	-0.509499849040846	-0.216556054048012	0.274839403634956	0.936785342362239	-0.975235892893848	-0.0167425028115036	-0.220532632077761	-0.0449269258540239	-0.961344366400089	0.271658941550096	-39.0696797214937	-69.5185204540658	128.23587256004
46084	1653391557035	9.22592985342276	-2.19142666177041	2.59215408136658	0.0213086804723026	0.079791871781404	0.0174995110720406	-0.0227839624618013	-0.0174953602195015	0.00634017622176606	0.241943359375	-0.419921875	0.0751953125	0	0	0	-0.36345042487987	0.481834245181552	-0.61335396563355	-0.509447211854735	-0.216734653976156	0.274697213078301	0.93678574439028	-0.975188657609928	-0.0165985970075208	-0.220752278915369	-0.0450907067452109	-0.961387501325245	0.271479097649931	-39.1161641240049	-69.5185862849983	128.27325388998
46085	1653391557036	9.17640678740558	-2.21014698080117	2.5759768689123	0.0495623833457017	0.0801365251172107	-0.029131292852032	-0.019737164716922	-0.0121831611980453	0.0106270915057782	0.239013671875	-0.4169921875	0.079345703125	0	0	0	-0.363407827220526	0.481952331257943	-0.613309747237087	-0.509419135343257	-0.216853791321969	0.274572943217584	0.936794605045376	-0.975153941322849	-0.0164281898823256	-0.220918322688962	-0.0452683544189766	-0.961425927167571	0.271313403019782	-39.1543794574123	-69.5200372431371	128.301175521426
46086	1653391557037	9.12473701126335	-2.21476862205477	2.59156797605911	0.0619037779495885	0.0490109175050637	-0.0722553548235591	-0.0119154200858822	-0.0127249055851478	0.0111488727680481	0.24462890625	-0.415283203125	0.077880859375	0	0	0	-0.363352409854117	0.482100670165342	-0.613283425904742	-0.509349987326864	-0.217075233326658	0.274406929830988	0.936791961930133	-0.975096691018436	-0.0162830684725021	-0.221181610551186	-0.0454399190258262	-0.961475791968706	0.271107940158667	-39.2090569267905	-69.5196044150039	128.346482308778
46087	1653391557038	9.09919775315393	-2.23597405127504	2.5787152261266	0.0873998599594529	0.0533653050894972	-0.0949579384040664	-0.0128149461332987	-0.00910502924366178	0.00733005055233038	0.238525390625	-0.422607421875	0.077392578125	0	0	0	-0.363325690627292	0.482184091816062	-0.613253008954481	-0.509326703735428	-0.217161502784411	0.274312530876109	0.936799614171975	-0.975072003550366	-0.016169620923047	-0.221298737573175	-0.0455573221413679	-0.961504643131561	0.270985888259442	-39.2365547591574	-69.5208575457717	128.367153581234
46088	1653391557039	9.12502088962878	-2.21657726005622	2.58902086422902	0.0606277063387065	0.0483911907619967	-0.0722442299824859	-0.0155508145478555	-0.0119990068151918	-0.00123900626382137	0.24462890625	-0.414306640625	0.07470703125	0	0	0	-0.363293857420782	0.482314687618098	-0.613187975768734	-0.509304056179437	-0.217253903039002	0.274154319807992	0.936824503599761	-0.975042173229907	-0.0159638409340579	-0.221445063629185	-0.0457548034355023	-0.961553204307099	0.270780230536369	-39.2764257937218	-69.5249339449378	128.395104988707
46089	1653391557040	9.07221400942497	-2.24276910015086	2.59548585264696	0.096955751407721	0.0261783206546207	-0.114154434642939	-0.00860134364086569	-0.0216189611048179	0.000250256010623798	0.239013671875	-0.416748046875	0.072509765625	0	0	0	-0.363333132740324	0.482404497977323	-0.613126862354617	-0.509264553688484	-0.217277298019143	0.273940480826642	0.936881630052574	-0.975034630819138	-0.0158710293754314	-0.221484941090702	-0.0458044153863809	-0.961615683831661	0.270549869968698	-39.3053815010232	-69.5342930739059	128.419873096101
46090	1653391557042	9.10183235748387	-2.21431079354042	2.58267558712954	0.0624908550346758	0.0430954013918574	-0.0961563329803603	-0.0129442243046055	-0.0126597310590195	-0.00336113410923407	0.2421875	-0.42626953125	0.0810546875	0	0	0	-0.363327346352611	0.482548921810824	-0.613019577846684	-0.509261008352549	-0.21729292952823	0.273727498214432	0.936940253964097	-0.975020375201792	-0.0155995268619138	-0.221566971146515	-0.0460331480391634	-0.96168077420886	0.270279554903163	-39.3438594014534	-69.5439017950175	128.44357876579
46091	1653391557042	9.07329076346891	-2.24262431727057	2.59184452856107	0.0960568721048591	0.0248802866903111	-0.11414207345863	-0.0136330012200063	-0.0214349529605207	-0.0104758691864502	0.2373046875	-0.419921875	0.075439453125	0	0	0	-0.363379062557251	0.482634799346118	-0.612918780372741	-0.509264053337302	-0.217211561746951	0.273516243030557	0.937020812064439	-0.975033766806153	-0.0154275488771887	-0.221520076569702	-0.0461334047221188	-0.961743653752959	0.270038614710292	-39.3629676601676	-69.5571126790354	128.454670946741
46092	1653391557043	9.07415512611179	-2.24201788066598	2.58934199565281	0.0939512423147438	0.0245856886231816	-0.114120696084113	-0.0128554040886251	-0.0271791921088232	-0.0104539161370804	0.23486328125	-0.42578125	0.074951171875	0	0	0	-0.363390231883347	0.482793307897275	-0.612838689429585	-0.509202221086676	-0.217321274824327	0.273232899433747	0.937078036331958	-0.975002387867822	-0.015247439780007	-0.221670609761875	-0.046279662496345	-0.961827062546684	0.26971632244275	-39.4156143253176	-69.5665019674852	128.497689792132
46093	1653391557044	9.1042985888305	-2.21264557482453	2.57540002468165	0.060082007268688	0.0426133380147833	-0.0961390132131985	-0.00801409133955536	-0.0319807287707486	-0.0123178844857074	0.238037109375	-0.423583984375	0.070068359375	0	0	0	-0.363492498337355	0.482885870450512	-0.612727865932657	-0.50917482467354	-0.217228403142275	0.272920424493977	0.937190622425494	-0.975021990341437	-0.0151244680758407	-0.221592799558212	-0.0463026912703843	-0.961917716002492	0.269388879543438	-39.4398905187504	-69.584987023897	128.51770056361
46094	1653391557045	9.10546523856308	-2.21167670621741	2.57210569928761	0.0569043270138065	0.0415268927500443	-0.0961151797316404	-0.00456567067090562	-0.0373267522477836	-0.0125209022705833	0.241455078125	-0.4130859375	0.068359375	0	0	0	-0.363523713252215	0.483112437177364	-0.612619642214429	-0.509067831355443	-0.217400905964774	0.272484251253608	0.937277535687512	-0.974975559577779	-0.0149046322472276	-0.221811880122708	-0.0464704670913811	-0.962044793529041	0.268905765895738	-39.5181459084345	-69.5992679280736	128.584532052302
46095	1653391557045	9.1101988077268	-2.2021956000923	2.54584920446285	0.0486515179916999	0.0639806169485884	-0.100824818938255	-0.00492879812140418	-0.0408193331936772	-0.0101277973118923	0.242919921875	-0.41552734375	0.070556640625	0	0	0	-0.363654619322835	0.483223284952925	-0.612505818514933	-0.50900608739957	-0.217336241670689	0.272085620908543	0.937408327758652	-0.974991139858487	-0.0148161197389692	-0.221749317458539	-0.0464460466983732	-0.962158977243726	0.268501149448935	-39.5525669802916	-69.6207767102244	128.617120482042
46096	1653391557046	9.14251427309665	-2.18686483952399	2.4995746382577	0.0290773308564878	0.111220902676646	-0.086300494736518	-0.00225621667407665	-0.04042510963011	-0.010349613332354	0.244140625	-0.413330078125	0.072265625	0	0	0	-0.363781934582698	0.483424587189568	-0.61232067209379	-0.508946723241711	-0.21727187394559	0.271554936165267	0.937577116527728	-0.97499946237592	-0.0145478028042431	-0.22173048910837	-0.0465723218107005	-0.962312983429948	0.267926745143731	-39.610435713566	-69.6485662236323	128.663400720261
46097	1653391557047	9.14177998094036	-2.17225698705542	2.52700886608475	0.0140708388873246	0.0801068896403616	-0.082836453202157	-0.00036944678469327	-0.0466274024367396	-0.000803468750130401	0.243896484375	-0.42138671875	0.069091796875	0	0	0	-0.36391963300521	0.483554119325717	-0.612230031575276	-0.50883425870692	-0.217300395759065	0.271097553263095	0.937702860514842	-0.974996903835784	-0.0145262216986183	-0.221743154108076	-0.0464927468922736	-0.962442260864477	0.267475828792968	-39.659454208616	-69.6692924518451	128.71419572535
46098	1653391557047	9.14640744292704	-2.16354954476806	2.50025612895397	0.00523268376716605	0.100918928103476	-0.087524999815022	-0.00266568747548487	-0.0435538506066777	-0.00295402751935942	0.2421875	-0.4140625	0.07568359375	0	0	0	-0.364035977460511	0.483772888835919	-0.612067428758236	-0.508738696970263	-0.217325490638738	0.270543299416251	0.937857107591343	-0.974986245241367	-0.0142974604646958	-0.221804878698377	-0.0465988487923593	-0.962601633992603	0.26688319828344	-39.7297485021832	-69.6947444781676	128.774663150868
46099	1653391557048	9.19078041378592	-2.2000756882673	2.51540461867623	0.0304215939507952	0.0946399417230647	-0.0337224608461657	0.00262172721159895	-0.0423804864934321	0.00158443833200978	0.23974609375	-0.41650390625	0.064208984375	0	0	0	-0.364162459055345	0.483887588411587	-0.611996933923028	-0.508623886643948	-0.217374890699938	0.270125130087571	0.93796618861682	-0.974979906496868	-0.0143090874328456	-0.221831990353506	-0.0465009550498545	-0.962718891531693	0.266477010391965	-39.7760959599718	-69.712762198146	128.824302789263
46100	1653391557049	9.21780344544405	-2.2167127427134	2.48310407151674	0.0414341433300807	0.127891641516971	-0.0132257655981771	0.00335234438299689	-0.0354120217146034	-0.00318881891712557	0.243896484375	-0.419189453125	0.07958984375	0	0	0	-0.364258702329468	0.484073953089638	-0.611866560786069	-0.508534480157689	-0.217416560536003	0.269654186862579	0.938092031046089	-0.974966786798287	-0.0141301808618402	-0.221901110022087	-0.0465811533231773	-0.962853549350208	0.265976011434846	-39.8379024067236	-69.7335675835562	128.878510065446
46101	1653391557050	9.15281614438181	-2.15427072782438	2.46731497554138	-0.00422949109969663	0.121477844737034	-0.0922041697092979	0.0051746037103813	-0.0303250968227945	-0.00533870361957627	0.2412109375	-0.419921875	0.064208984375	0	0	0	-0.364371344468764	0.484138444818607	-0.61180588098812	-0.508465390726839	-0.217392939526058	0.269351880556059	0.938184349840229	-0.974976584746348	-0.0141458253632473	-0.221857059434986	-0.0464862242020793	-0.962937931574879	0.265686979157292	-39.8629527653321	-69.7488435644208	128.906875312689
46102	1653391557051	9.1796900694476	-2.17044068285184	2.43584445728726	0.0065039104388675	0.154983272797813	-0.0717018909102993	0.00517745585985988	-0.0303298100166726	-0.00533496887922801	0.244140625	-0.418701171875	0.067626953125	0	0	0	-0.364453920628764	0.484296400772736	-0.611703338308003	-0.508379151657246	-0.217447955797163	0.26894700437381	0.938287746567112	-0.974961892405902	-0.0140152687176656	-0.221929900191649	-0.0465370269348916	-0.963053000141283	0.265260671873792	-39.917481734855	-69.7659657259458	128.956093555078
46103	1653391557052	9.18009641903091	-2.13312194664191	2.47371452445075	-0.0314122370221959	0.115411880894686	-0.0695186788959603	0.00179468758410836	-0.0239254428373286	-0.00322655812558719	0.24755859375	-0.417724609375	0.073486328125	0	0	0	-0.364533047023803	0.484359539020279	-0.611651033614642	-0.50832519873182	-0.217442299923594	0.268705149205159	0.93835834785788	-0.974965383661586	-0.0140026585886371	-0.221915358220349	-0.0464902878626636	-0.963120692511112	0.26502298917521	-39.9409136006467	-69.7776650496293	128.980569397606
46104	1653391557053	9.18252365550208	-2.14720531490529	2.44024731147536	-0.0170350414631512	0.144442256683285	-0.0729294484080931	-0.00315992604965296	-0.0198074489301452	0.00173955451645149	0.2421875	-0.41357421875	0.074951171875	0	0	0	-0.364577969681772	0.484527244014141	-0.611529641082357	-0.508279206645779	-0.217470304228508	0.268359683863077	0.938450716263604	-0.974951519375797	-0.0137711957991976	-0.221990740872421	-0.04664977647949	-0.963220345633942	0.264632507661557	-39.9920838005415	-69.792981196504	129.020228169233
46105	1653391557053	9.19378626369694	-2.22127977056868	2.49123693764641	0.0498749265677473	0.0973724431116649	-0.0323968749023091	-0.00806655054929317	-0.0160654440081531	0.00171353392315014	0.241943359375	-0.419189453125	0.06787109375	0	0	0	-0.364596135836351	0.484610257333346	-0.611479442556259	-0.50824742749137	-0.21750842036321	0.268191652865357	0.938489917049964	-0.974939761706947	-0.0136749018714254	-0.22204832379824	-0.0467177494524514	-0.963268516246719	0.264445112441019	-40.0193874093175	-69.7994846718646	129.04269550844
46106	1653391557055	9.17162205916221	-2.19606521510772	2.49575377754699	0.0289095429562392	0.0833844563549121	-0.0575681141784194	-0.00553106354192183	-0.0177852277264889	-0.00231467647607854	0.2421875	-0.419677734375	0.065185546875	0	0	0	-0.364624002761255	0.48476516463682	-0.611371032548964	-0.508210126153553	-0.2175436085707	0.267895869698482	0.938566237070423	-0.974923928614867	-0.0134504056592528	-0.222131537611741	-0.0468840248292828	-0.963353979379385	0.264104143529995	-40.066370790609	-69.8121520485105	129.078166099612
46107	1653391557056	9.17054569864811	-2.21878143895068	2.48520727681866	0.0515927859526834	0.0916057198468515	-0.0562996581401194	-0.00546393901383049	-0.0167258470598792	-0.000415446464688831	0.24169921875	-0.420654296875	0.073974609375	0	0	0	-0.364655853999721	0.484838628311968	-0.61132002116834	-0.508178555587546	-0.21756132756938	0.267720962599842	0.938612036429782	-0.974917938836458	-0.0133721202750502	-0.22216255070156	-0.046926338884709	-0.963403691390044	0.263915225280608	-40.090509235199	-69.8197573520907	129.098763037866
46108	1653391557057	9.19202860502315	-2.26695158774025	2.46844008330904	0.0929416503507726	0.110459652256444	-0.0298035298868715	-0.00297586487090065	-0.0180690053569811	0.000547841367726345	0.2431640625	-0.416015625	0.072265625	0	0	0	-0.364653573883258	0.485034151058865	-0.611214629318204	-0.508120379701684	-0.217682901571968	0.267402345778686	0.938674671989857	-0.974880092334874	-0.0131111040768457	-0.222344112849954	-0.0471482760274006	-0.963495762534502	0.263539286721547	-40.1538202363887	-69.8301628734769	129.147830664834
46109	1653391557058	9.16495350272179	-2.27284992946706	2.48683548053059	0.103552273555409	0.0837037239537055	-0.0490384216586221	-0.00140629338885359	-0.0157803808852125	-0.00231145418122939	0.2451171875	-0.417724609375	0.069580078125	0	0	0	-0.364697077459374	0.485090364952813	-0.611169822688092	-0.508089389141265	-0.217682428669294	0.267235726938352	0.938722230745798	-0.97487988054632	-0.0130650209440054	-0.222347754055949	-0.047154838082954	-0.963542615287701	0.263366759045076	-40.1727766306139	-69.8380671526604	129.165255656456
46110	1653391557059	9.18961744023738	-2.27487569121448	2.48803911585709	0.100221736347471	0.0858698867336434	-0.0250906986408506	0.00657327790856889	-0.0160073196656801	-0.00990361197680841	0.241455078125	-0.41455078125	0.0712890625	0	0	0	-0.36478200048161	0.485189443519056	-0.611060849709487	-0.508064891499721	-0.217608316300023	0.266940376975874	0.938823442302676	-0.974893880253636	-0.0129225398460904	-0.222294692262174	-0.0472074456106008	-0.963626402245136	0.263050592044606	-40.1999627743983	-69.8548984363873	129.186728278584
46111	1653391557059	9.235075441226	-2.2877639534345	2.51462851591851	0.102455807474093	0.0710148361680189	0.0274497505774534	0.0105842364628813	-0.0146837802062717	-0.00680966283629178	0.242919921875	-0.412841796875	0.06591796875	0	0	0	-0.364863585007888	0.485198576520705	-0.611035041346988	-0.508028625102521	-0.217562960823268	0.266783999749807	0.938878402965638	-0.974909168030081	-0.0129785148374479	-0.222224373648589	-0.0471006599604171	-0.963668955414725	0.262913811354946	-40.2057176635735	-69.8640439361486	129.197322379468
46112	1653391557060	9.19228987891116	-2.24991095846496	2.49474966151496	0.0765134554607529	0.0751079435397977	-0.0263411287218016	0.0136545599595887	-0.011167363205261	-0.0144275398252224	0.248779296875	-0.4228515625	0.073974609375	0	0	0	-0.364959087609932	0.48527529203834	-0.610923292150484	-0.508021147607109	-0.217438755909765	0.266512648312493	0.938984236139178	-0.974935159600316	-0.0128448090421199	-0.222118088988219	-0.0471362069275917	-0.963745827057183	0.26262551061606	-40.2231973895517	-69.8816658880132	129.209855058689
46113	1653391557061	9.172144078953	-2.2367897262013	2.46898883586652	0.0710730534646753	0.0934863963738104	-0.0549432762902366	0.0166130744937793	-0.00833647037862864	-0.0189508165574332	0.235595703125	-0.409912109375	0.0693359375	0	0	0	-0.365066058624936	0.485228504601918	-0.610892046789926	-0.508026552781109	-0.217271589018796	0.266417845889177	0.939049832541926	-0.974979676719151	-0.0129246399822593	-0.221917966072936	-0.0469860254742538	-0.963770971275386	0.262560142323684	-40.204766381024	-69.8925955715896	129.198255883562
46114	1653391557061	9.19173688163472	-2.23179522935913	2.52506008041337	0.0604508677934163	0.0423909088051118	-0.0229267137127831	0.0239025514368566	-0.0141109890041169	-0.0148648799670903	0.240966796875	-0.408447265625	0.064697265625	0	0	0	-0.365185226033583	0.485258642680416	-0.610837638502152	-0.507977538656854	-0.217197141813851	0.266165026026581	0.939138744013984	-0.975002174474571	-0.0129657398481698	-0.221816702166557	-0.0468632196690698	-0.963840271264102	0.262327600781522	-40.2169032286042	-69.9074191135343	129.215282553946
46115	1653391557062	9.22474852071861	-2.19226594813211	2.49100595279544	0.0185136865366206	0.0828759042106699	-0.00963099613910501	0.0224843605386966	-0.00230077087405417	-0.0230056526691307	0.2451171875	-0.41650390625	0.075927734375	0	0	0	-0.365298414865368	0.485171661391745	-0.610820987407162	-0.507999260257496	-0.216987639349372	0.26612834181718	0.939197567102484	-0.975058097193186	-0.0130904211204226	-0.221563417496871	-0.0466698132371421	-0.963848715596244	0.262331054158447	-40.1842589249049	-69.917232010539	129.192068318988
46116	1653391557063	9.19926644993287	-2.17303667367048	2.52020522831427	0.0062254531913452	0.0460959937156616	-0.0301589585855986	0.0263856878784396	-0.00165967838328703	-0.0168172025561018	0.2421875	-0.4130859375	0.069091796875	0	0	0	-0.365420408583683	0.485152379990013	-0.610763415023062	-0.507999157528757	-0.216809561881215	0.265965438719611	0.939284833947382	-0.975103762404798	-0.0131280482801976	-0.221360129409883	-0.0465431672846107	-0.963893168227184	0.26219018636112	-40.1735036807371	-69.9317983835671	129.18621186754
46117	1653391557064	9.2060413907578	-2.11681923069493	2.51575544532236	-0.0477802053168168	0.0516444205180515	-0.037402371576718	0.0253544744347643	0.00128318628715546	-0.0175441654007093	0.234130859375	-0.4228515625	0.07080078125	0	0	0	-0.365516849356501	0.485057951165903	-0.610773442514323	-0.508007892425341	-0.216650828140121	0.265961750431181	0.939322503708808	-0.975149166693104	-0.0132935304886001	-0.221150140729992	-0.0463305661949694	-0.96389191788018	0.262232433694466	-40.14215206444	-69.9380892632246	129.166051248126
46118	1653391557065	9.20295783020334	-2.12328451785525	2.53913135890891	-0.0422206173453111	0.0274784155671702	-0.0327374636083633	0.0254882760642527	0.00340685336352097	-0.0137490052594726	0.2421875	-0.416259765625	0.07861328125	0	0	0	-0.36552226462771	0.485095675884769	-0.610764717741236	-0.507978462990113	-0.216702710399265	0.265884105112546	0.939332517245151	-0.975137185154587	-0.0132801327522026	-0.221203770770011	-0.046340106111229	-0.963913523467009	0.262151318598659	-40.1577353429492	-69.9397618498682	129.180961797034
46119	1653391557066	9.20462258561935	-2.0987732434777	2.54887938038648	-0.0653425951563094	0.0188318814952429	-0.0340326716585633	0.0243438828387639	0.00567005164517118	-0.0113842415065299	0.24462890625	-0.419677734375	0.070556640625	0	0	0	-0.365587150598428	0.485005460381077	-0.61079583828559	-0.507980494360625	-0.216603705332914	0.26592121520066	0.939344847296378	-0.975168272342247	-0.0134510414993484	-0.221056350507333	-0.0461484068315504	-0.96390091647886	0.262231477435724	-40.1302775461898	-69.9418215536377	129.164224600485
46120	1653391557067	9.18388015925201	-2.08611557462722	2.5247716259832	-0.0713956206712361	0.0365050492884341	-0.0626322589784607	0.0180412091466527	0.00887228485789139	-0.00975083481275079	0.2353515625	-0.416748046875	0.073974609375	0	0	0	-0.365613540683468	0.484973356277606	-0.61080770443456	-0.507977884137799	-0.216570416191565	0.265927958775866	0.939350613760333	-0.975179262479069	-0.0135186258554372	-0.221003739302662	-0.0460723437800894	-0.963898110536732	0.262255165139463	-40.121006713861	-69.9427848964095	129.159201131301
46121	1653391557068	9.15779708019061	-2.06838141944746	2.5547227555859	-0.0837086753381296	0.0013232928483949	-0.0831936236108888	0.0152146011762058	0.00817378931459577	-0.00143449676800134	0.240966796875	-0.409912109375	0.07763671875	0	0	0	-0.365623407323628	0.484923005646596	-0.610846447705686	-0.507972262960368	-0.216567408159967	0.265987701496473	0.939334392203063	-0.975184507952965	-0.0136277173151887	-0.220973891601047	-0.0459753539563153	-0.963880090038902	0.262338405223465	-40.1082339770983	-69.9400750437568	129.15250967569
46122	1653391557069	9.18031501709238	-2.09306706920326	2.54945129689122	-0.0647805037865122	0.0133520029862598	-0.0579735990906744	0.0124174653635888	0.00563968263413321	-0.00499090303532956	0.239013671875	-0.42236328125	0.0791015625	0	0	0	-0.365629794903687	0.484894754272438	-0.610897887317634	-0.507932772745185	-0.216638302900152	0.266006176429832	0.939312812548474	-0.975174054647853	-0.0137627513009219	-0.221011650865505	-0.0458629355603037	-0.963873072960237	0.26238386071552	-40.108166407141	-69.936470651175	129.159743304673
46123	1653391557070	9.13187526382202	-2.08724631024953	2.5453596885108	-0.0594053724604721	0.00519695718984321	-0.105831911597486	0.0053204895097327	0.0146004021083602	-0.00339650590537889	0.243896484375	-0.414794921875	0.07177734375	0	0	0	-0.365599403768461	0.48485471204537	-0.610919767146345	-0.507966556262716	-0.216614107365486	0.266128433264066	0.939283761969016	-0.97517880781653	-0.0137717718519966	-0.220990115357197	-0.0458761514927337	-0.963839195773066	0.262505968343094	-40.0922810246024	-69.9316193900086	129.143719744654
46124	1653391557071	9.10601101644623	-2.10711114258015	2.53498923110225	-0.0350005048224048	0.00898672294626707	-0.128462118141806	0.00187621554751637	0.00615775419775454	-0.000267676209410817	0.24365234375	-0.41650390625	0.074462890625	0	0	0	-0.365551519552802	0.484895197543372	-0.6109325128159	-0.5079470432402	-0.216723775632351	0.266134374436612	0.939256780555185	-0.975151079579955	-0.0137328973258243	-0.221114855957453	-0.0459475469389297	-0.963838109992685	0.262497467904022	-40.109125442458	-69.9271146731636	129.157292564396
46125	1653391557072	9.12851454534435	-2.1323793511881	2.52932065379184	-0.0151643126818054	0.0210584804729752	-0.10322759116352	0.000420885750688665	0.00455197908855318	-0.000500036342787265	0.23876953125	-0.412109375	0.0703125	0	0	0	-0.365532095520877	0.484901130033761	-0.610931677552728	-0.507956362888297	-0.216733241090817	0.266159413442495	0.939247501376616	-0.975147118169224	-0.0137024549865477	-0.221134214118032	-0.0459869561128822	-0.963831629156923	0.262514362472195	-40.1097799987143	-69.9255656798715	129.15587849173
46126	1653391557074	9.12695492190548	-2.15491639606779	2.52090095979159	0.00702257221725302	0.0281380298849134	-0.101916466263745	-0.000921126269725	0.00362458682996371	-0.00382535656876612	0.24072265625	-0.418212890625	0.06884765625	0	0	0	-0.365514171651149	0.484966805714224	-0.610880290213529	-0.507968363883176	-0.216735063232047	0.266091242558616	0.939266396183433	-0.975140203634369	-0.0135506772983824	-0.221174054537769	-0.0461247831617859	-0.963852597536764	0.262413175355033	-40.1257506499386	-69.9287199516464	129.163300846391
46127	1653391557075	9.14780846559546	-2.16560071413049	2.54621318767457	0.0119610105267019	0.00922635313855259	-0.0733239560749386	-0.00517375762123636	-0.000514220290774969	-0.00761571713521242	0.242431640625	-0.416748046875	0.06396484375	0	0	0	-0.365513173476754	0.484990099991364	-0.610838276075014	-0.507997365551264	-0.216677593215856	0.266067928942662	0.93928625976661	-0.975149011153269	-0.0134465590066848	-0.2211415747834	-0.046208512689618	-0.963860491585293	0.262369445850638	-40.1263095545642	-69.9320364620657	129.158318900561
46128	1653391557076	9.22233252084617	-2.18672487498706	2.52244990638542	0.0167706908842609	0.0493074065217071	-0.0048729403951846	-0.00124383673180859	-0.00170168142252592	-0.0133008026833945	0.2431640625	-0.417724609375	0.0634765625	0	0	0	-0.365479167436355	0.485167805250897	-0.610671131829173	-0.508053095324233	-0.21661406100299	0.265869266441885	0.93935716409545	-0.97514416856197	-0.0129885061589868	-0.221190300934155	-0.0466068567420814	-0.963921590104409	0.262074357836114	-40.164307446129	-69.9438792461534	129.171047349591
46129	1653391557076	9.19517527315398	-2.19147467049313	2.54225121800862	0.0273134025952042	0.0224873210491886	-0.0241430901123127	0.00124665341583451	-0.0030427760994834	-0.0123352680163332	0.239501953125	-0.4111328125	0.07080078125	0	0	0	-0.365513259485274	0.485170682949956	-0.610627213648899	-0.508078607597	-0.216512371285488	0.265820613479667	0.939394376462638	-0.975165884406606	-0.0129310738163343	-0.221097908672691	-0.0466250036977584	-0.963935780422768	0.262018931092648	-40.1584821249156	-69.9500973194285	129.16300790328
46130	1653391557077	9.17329065034787	-2.20155766818066	2.50815632629644	0.0439689721079175	0.0470587891209311	-0.0513955636736156	-0.00083760359470869	0.00139493438129692	-0.0206812235264676	0.24365234375	-0.417724609375	0.073486328125	0	0	0	-0.365515769834713	0.485290868729452	-0.610459725234885	-0.508163279464486	-0.216336606812073	0.265663500957892	0.939479311540087	-0.9751893628675	-0.0125257082634259	-0.221017676176772	-0.0469486858508235	-0.963984445357547	0.261781989459904	-40.1737817944262	-69.9642966436421	129.156810442327
46131	1653391557078	9.17704740585278	-2.19114396332034	2.48572802394351	0.0357169422643615	0.069350428140714	-0.0560450466513682	0.000618559783207937	0.00299897912694594	-0.0204470787924319	0.233642578125	-0.412841796875	0.0732421875	0	0	0	-0.365549294558312	0.485266591401722	-0.610403888302607	-0.508229418336181	-0.216153143171174	0.265672705885121	0.939518936501495	-0.975228146523587	-0.0124383872140417	-0.220851417816782	-0.0469880934428198	-0.963983039203072	0.261780097034548	-40.1527342746546	-69.9709243897767	129.132039389586
46132	1653391557079	9.17702926417318	-2.15217382600979	2.52634345252256	-0.00368639168758207	0.0293274304375244	-0.0540370756457413	0.0021886149085152	0.00528010320019992	-0.0233045575143344	0.238037109375	-0.4150390625	0.069091796875	0	0	0	-0.36555051586787	0.485277366465587	-0.610358508940468	-0.508272750114471	-0.216063263679613	0.265670412488886	0.939540258858608	-0.975243979090873	-0.0123293781745943	-0.220787607625133	-0.0470727876284794	-0.963985071648837	0.261757395889918	-40.147023140879	-69.9744916780985	129.120616395765
46133	1653391557079	9.1822845281365	-2.11859685767665	2.51294387174433	-0.0348481446374559	0.0432620371063161	-0.0600158211342556	0.00334021234472507	0.00300863773774898	-0.0256616675276958	0.236572265625	-0.419677734375	0.0693359375	0	0	0	-0.365603194861193	0.485235575876109	-0.610296215764334	-0.508349553786764	-0.215830070144173	0.265680264321868	0.93959106954644	-0.975294971524333	-0.012254334137957	-0.220566429481428	-0.0470860843658941	-0.963983313364239	0.261761479622939	-40.1182831219547	-69.9829949016234	129.089293249973
46134	1653391557080	9.21023913306541	-2.11018279888623	2.49330905048016	-0.0483673531575909	0.0682133043288026	-0.040739073199866	0.000851939582823229	0.00434373373874819	-0.0266236487406223	0.246337890625	-0.416015625	0.0693359375	0	0	0	-0.365553010620761	0.485339466237046	-0.610188487513924	-0.508415783236817	-0.215768775563583	0.265624309490911	0.93962096703898	-0.975293521715012	-0.0119179877368655	-0.220591269249336	-0.0473960124116062	-0.964002950086658	0.261633197877674	-40.1353029056237	-69.9879998984772	129.087235020465
46135	1653391557081	9.21063171518055	-2.10762397285188	2.49402307245135	-0.048672260310584	0.0678992262303111	-0.0407383997470596	0.00144970890100156	0.0106338333580835	-0.0283167068284947	0.245849609375	-0.414794921875	0.06982421875	0	0	0	-0.365583321352387	0.48528032258771	-0.610128703598466	-0.508522181132131	-0.215508052891155	0.265707174013277	0.93965737203352	-0.975348742487569	-0.0118163996115758	-0.220352452285282	-0.0474458603777065	-0.963981364123859	0.26170368731625	-40.0971156752262	-69.9940959065218	129.04459342207
46136	1653391557082	9.236466843271	-2.08504599417593	2.50656746324295	-0.0742222864492757	0.0612796225724919	-0.0181300813056104	-0.00479473925690673	0.0148976916744013	-0.0247931558465115	0.23291015625	-0.423828125	0.068115234375	0	0	0	-0.365593711326545	0.485318104145263	-0.609965080469619	-0.50867492235712	-0.215182123206921	0.265689386160017	0.939737092986158	-0.975406373633735	-0.0114323223076512	-0.220117487450092	-0.0477395027922272	-0.96399089834322	0.261615152054661	-40.0765512413524	-70.0074513877245	129.004050383976
46137	1653391557082	9.21250171285515	-2.08019445115684	2.50522090268418	-0.0716940506447767	0.0570320454902498	-0.0420612193592973	-0.00218648965842445	0.0142317141418625	-0.026915460867295	0.24560546875	-0.41162109375	0.069580078125	0	0	0	-0.365600614209751	0.485264008262755	-0.60990571431086	-0.508792740538991	-0.214932276128551	0.265805560759728	0.93976141682206	-0.975456838658725	-0.011297578919176	-0.219900706284658	-0.0478338017737099	-0.963960460070729	0.261710066348434	-40.0385053865754	-70.0115280120493	128.959251438559
46138	1653391557083	9.21738267580939	-2.04667791247855	2.49295450098631	-0.104918596111408	0.0695396975595813	-0.0480567144726738	-0.00680114068676153	0.021842251548593	-0.0243552149187201	0.2490234375	-0.4111328125	0.06298828125	0	0	0	-0.365481146144934	0.485353115631266	-0.609797652054382	-0.508923087026489	-0.214841646608029	0.265905381118182	0.939753901388627	-0.975455033061901	-0.0108592892769026	-0.219930794366332	-0.0482757222313273	-0.963937966950568	0.261711769919217	-40.0421826045796	-70.0102683559097	128.936920407975
46139	1653391557084	9.21398395832086	-2.05297165921746	2.51755633998613	-0.0972792153480455	0.046593612292457	-0.0434167705762594	-0.0116613049709235	0.0251816691932558	-0.0293684821618025	0.24365234375	-0.419189453125	0.07861328125	0	0	0	-0.365435878325519	0.485296640509627	-0.609728807630938	-0.509091907898251	-0.214564096289951	0.266126395808602	0.939754749941281	-0.975505612100838	-0.0106252000451775	-0.219717786908047	-0.0484876205133492	-0.963879580952892	0.261887579085054	-39.9958934597772	-70.0104105773687	128.877455846861
46140	1653391557085	9.18633896030238	-2.05692330987965	2.53973387384449	-0.0861024357913999	0.0182265387206019	-0.0626997400043727	-0.0128661917278586	0.0278352383987023	-0.0220214031476476	0.242919921875	-0.40966796875	0.076171875	0	0	0	-0.365391517615322	0.485303965097446	-0.60959540850357	-0.509276485071552	-0.214253001215875	0.266253309293533	0.939789777961132	-0.975557118540288	-0.0102350464277253	-0.219507522171777	-0.0488258121833254	-0.963848753236142	0.261938200630939	-39.9634329146753	-70.0162822871567	128.823498108838
46141	1653391557086	9.21502351167264	-2.02642982335516	2.53084036261216	-0.120108348894332	0.0360675978606918	-0.0447550581167881	-0.0141369829486412	0.0279617797556288	-0.0234447880434173	0.2451171875	-0.409912109375	0.0751953125	0	0	0	-0.365317329789039	0.4852590834366	-0.609539973014812	-0.509438800833996	-0.214030713521253	0.266499520592234	0.939770641802399	-0.975593731059974	-0.00999146029418108	-0.219355972423064	-0.0490685804365841	-0.963783262069486	0.262133740996155	-39.9229089285387	-70.0130743081496	128.768594352226
46142	1653391557087	9.21477336136365	-2.02470876040926	2.53312758804009	-0.118915575883996	0.0356934511071563	-0.0447390900395561	-0.0180145425125616	0.0287472498473709	-0.0227435616577916	0.237060546875	-0.414794921875	0.06982421875	0	0	0	-0.365320878382185	0.485152398680342	-0.609495995202785	-0.509590460766826	-0.213716436227047	0.266714089191592	0.939781293447103	-0.975659290932098	-0.00988942470032933	-0.219068818632349	-0.0491348440954819	-0.963724957602425	0.262335611745559	-39.8642726592097	-70.0148598852266	128.704992314028
46143	1653391557087	9.20770415632556	-2.04036293280695	2.58065146514334	-0.103302613157208	-0.00987276714273661	-0.0354746084870801	-0.0193431185164856	0.0292655896825353	-0.0191845384086054	0.248779296875	-0.42041015625	0.06689453125	0	0	0	-0.365219529322009	0.485127262240375	-0.609441063015364	-0.509752710187667	-0.213533739716278	0.26697256639006	0.939749429793861	-0.975684367896878	-0.00960742777497398	-0.218969659024299	-0.049430317057956	-0.963656238565732	0.262532469665937	-39.8303689435	-70.0095189114001	128.654008863713
46144	1653391557088	9.18316065987733	-2.03635390243632	2.58061731581998	-0.101885095845686	-0.0158723491625826	-0.0594248738293572	-0.0186235261152365	0.0362178672893225	-0.0239515203789138	0.2421875	-0.41259765625	0.069091796875	0	0	0	-0.365053977422812	0.48521001768127	-0.609293080141106	-0.509969386141649	-0.213333637532189	0.267185942439948	0.939734234376806	-0.97569732979971	-0.00900492788010226	-0.218937506826925	-0.0500347850899781	-0.963602917926441	0.262613664619053	-39.8175160996488	-70.0069723430922	128.605487695027
46145	1653391557090	9.11169626994797	-2.00444443709874	2.58429055209026	-0.116607416546012	-0.0362661330071597	-0.132581438374519	-0.0187959902931474	0.0344674650134194	-0.0227503017050882	0.248779296875	-0.41552734375	0.075439453125	0	0	0	-0.364946466957441	0.485164376253081	-0.609239286197248	-0.510153992853245	-0.213113959662346	0.267493658898829	0.939696537530044	-0.975729758927518	-0.00871686318170145	-0.218804601961473	-0.0503376374126082	-0.963520191145566	0.262859208540481	-39.7740737984487	-70.0006561497716	128.544563053758
46146	1653391557091	9.11536145685881	-1.93511060909081	2.61332429608181	-0.184886738192497	-0.0624771388231818	-0.136642488389244	-0.0270329475533191	0.0318839371443451	-0.0158825361045297	0.246826171875	-0.405029296875	0.073486328125	0	0	0	-0.364846063958508	0.485178796672135	-0.60913000517488	-0.510342553261448	-0.212875655889141	0.267698775654308	0.93969214141811	-0.975761072782123	-0.00830402718073087	-0.21868098219933	-0.0507374021097871	-0.963466869511229	0.262977769747527	-39.7454508603881	-69.999919695669	128.491928609914
46147	1653391557093	9.16157592122802	-1.96267302479808	2.61237259817798	-0.167945962809257	-0.0467089376475439	-0.087428438496973	-0.0283108587357087	0.0349240514047427	-0.00355411332063445	0.248046875	-0.4111328125	0.07177734375	0	0	0	-0.364666501477123	0.485196034129109	-0.609102480331082	-0.510487335416212	-0.212842046160183	0.268008723766364	0.939611402320913	-0.975747684952113	-0.0079749776900811	-0.218752954360472	-0.0511343201474167	-0.963383476978907	0.263206302331639	-39.730253184193	-69.986398583996	128.455228570561
46148	1653391557093	9.17724845762168	-2.04281616854368	2.61376707628956	-0.0916795237544953	-0.0416897538769131	-0.0547868956938568	-0.0375258726673421	0.0363384009339095	0.0044808690427721	0.248046875	-0.41357421875	0.064453125	0	0	0	-0.364566117276581	0.485194248555308	-0.609021368058712	-0.510657478698416	-0.212640971166509	0.268231865931169	0.939593254275725	-0.975773399214118	-0.00763096123645307	-0.218650501524084	-0.0514790323091803	-0.963324158593404	0.263356174605456	-39.7010293868382	-69.983360596104	128.405642609267
46149	1653391557094	9.14719558598666	-2.07306968754786	2.62764252090596	-0.0582799368347923	-0.0602464821475749	-0.0727549727161136	-0.0370422266565781	0.0419336427899774	0.00590006443036478	0.246826171875	-0.41162109375	0.076171875	0	0	0	-0.364320697718754	0.485236979068379	-0.609008814013028	-0.510806977059592	-0.212693322801923	0.26860815303102	0.939473900947089	-0.975735652123549	-0.0072426126636696	-0.21883208571148	-0.0519758367947	-0.963222302839312	0.263631006716628	-39.6950344261419	-69.9633918207293	128.373411977515
46150	1653391557095	9.11771384569253	-2.14015291979525	2.60156712117781	0.0145453998883042	-0.0409350391193457	-0.0926450097898925	-0.0329145470605731	0.0439367302324344	0.00592264957477398	0.246337890625	-0.413330078125	0.0732421875	0	0	0	-0.364136509335788	0.48528670883868	-0.608914921340525	-0.511002966099154	-0.21256114241323	0.268893445446943	0.939422203128953	-0.975735878181221	-0.00674555772478025	-0.218846963609054	-0.0525095873712936	-0.963146308951373	0.263802825586541	-39.6786038622704	-69.9547482792339	128.32648510178
46151	1653391557096	9.08622812811914	-2.19276575196502	2.60696214457876	0.0708660382742628	-0.0511883199323296	-0.109266747332349	-0.0264738361947748	0.041421291676502	0.00122005053988739	0.2451171875	-0.41552734375	0.075439453125	0	0	0	-0.363931375405412	0.485290140964277	-0.608914251189153	-0.511146620625775	-0.212566172436751	0.269264306548789	0.939314833032243	-0.975713540436051	-0.00644522261144392	-0.21895558023315	-0.0529028292753428	-0.963044750945816	0.264094866156795	-39.6614235103763	-69.9368081008868	128.288732804962
46152	1653391557097	9.06237118529438	-2.16816483411319	2.61636434397932	0.0514751774960428	-0.063872605981853	-0.13456036407382	-0.0236759622152688	0.0424966480935791	-0.00208319019053366	0.24951171875	-0.413330078125	0.064453125	0	0	0	-0.363788257775019	0.48524085698476	-0.608911081684317	-0.511299040503449	-0.212462789370537	0.269621451706731	0.939235772270438	-0.975721155561703	-0.00622920378589598	-0.218927895914452	-0.0531769660870789	-0.962946244501607	0.264398828435425	-39.6254850301438	-69.9236078788339	128.238252233304
46153	1653391557097	9.07869266775473	-2.18810351341986	2.66718829307412	0.0642718771138291	-0.105605647962853	-0.101401817232338	-0.0141416355437728	0.0311867290416415	-0.00462435647674766	0.245849609375	-0.41796875	0.073486328125	0	0	0	-0.36366020602287	0.485221967794759	-0.608906631453923	-0.511413346224188	-0.212415287718365	0.269894114309769	0.939168202509258	-0.975717797410028	-0.0060320625463211	-0.218948382133234	-0.0534277583363543	-0.96287111353617	0.26462179304957	-39.6043955244813	-69.9123328199814	128.203875562266
46154	1653391557098	9.13315467225248	-2.17557982718706	2.63024163720952	0.0432885986841983	-0.0546307285922241	-0.062765633041657	-0.0136472800140602	0.0353336305809684	-0.010080823616648	0.249267578125	-0.421630859375	0.0732421875	0	0	0	-0.363545251992331	0.485255041310067	-0.608778488409451	-0.511616210344142	-0.212167406133863	0.270097553810923	0.939165748523542	-0.975746218905392	-0.00555279639252648	-0.218834372857772	-0.0538916326182459	-0.962816949309462	0.264724789273996	-39.5787893297283	-69.9119234487163	128.150392495525
46155	1653391557098	9.13254289201421	-2.1745195119216	2.63324103816763	0.0430304645842092	-0.0550260201262761	-0.0627667132806824	-0.00689934636005878	0.0352442424063827	-0.0190595344641292	0.241455078125	-0.410888671875	0.072509765625	0	0	0	-0.363458612554326	0.485177928910857	-0.60876118835175	-0.511771462485377	-0.211975614291326	0.27040901356638	0.93911943027917	-0.975777401102064	-0.00538469496669997	-0.218699493731961	-0.0540814426981719	-0.962730476531294	0.265000428515713	-39.5321679988809	-69.9041981884028	128.093158401536
46156	1653391557099	9.16020478724162	-2.10738738210327	2.66556073568276	-0.0285598628128774	-0.0767924811472135	-0.0428903443538697	-0.00338077906240115	0.0309787404632599	-0.0173714265354788	0.24169921875	-0.404541015625	0.07373046875	0	0	0	-0.363398832656625	0.485113217141343	-0.608728872340581	-0.511913679205336	-0.211771346932517	0.270654119725837	0.939094906861825	-0.975812426987692	-0.00521910319446461	-0.218547176367568	-0.0542494604100233	-0.962662510144276	0.265212909957158	-39.4900329735565	-69.9001091646491	128.041144651891
46157	1653391557100	9.20799676579498	-2.11083469003281	2.67391191399057	-0.0344598913178573	-0.0694245796501341	0.00498162184956641	-0.000710963698497356	0.0313849864055838	-0.0175914224679612	0.240966796875	-0.410400390625	0.07275390625	0	0	0	-0.363336256447911	0.485029831291823	-0.608723154087618	-0.512043893807031	-0.211595631130704	0.270928101804776	0.939055510893185	-0.975843794473308	-0.00511422714391946	-0.218409554435371	-0.0543707428157449	-0.962586000486804	0.265465655014887	-39.4455418883242	-69.8935419672656	127.989939379739
46158	1653391557101	9.21228269283009	-2.0779820276535	2.66323822272766	-0.0646810997040405	-0.0553238513200413	-0.000972213833419388	0.000799707911089126	0.0340474666556481	-0.0154468320389703	0.2431640625	-0.413330078125	0.064697265625	0	0	0	-0.363327628943383	0.484879251033336	-0.608763081008403	-0.512145152437165	-0.211400753762986	0.271210064638763	0.939018009490276	-0.975890179045904	-0.00519890950492857	-0.218200205732517	-0.0542962222460692	-0.962506141371887	0.265770291927461	-39.3863555232656	-69.8872924983608	127.935430636093
46159	1653391557102	9.23616761862104	-2.01990505176393	2.7185058114767	-0.128568985046931	-0.0993942335559067	0.0235045990200735	-0.000431038702456884	0.0366848047532363	-0.00809754685520864	0.244140625	-0.41650390625	0.080322265625	0	0	0	-0.363226792561491	0.484798398010711	-0.608791943455921	-0.512258899419914	-0.21131423426118	0.271534647564122	0.93894367752855	-0.975901716157641	-0.00512266650269205	-0.218150403823767	-0.0544254976934675	-0.962415031813266	0.266073620903479	-39.347894081769	-69.8749108522305	127.890838533957
46160	1653391557102	9.28221257940013	-2.04703343831624	2.71865287409461	-0.111688432668448	-0.0839539855997519	0.0727244159662774	0.0021633240215787	0.0374788043587258	-0.00333546588303801	0.244873046875	-0.402099609375	0.0771484375	0	0	0	-0.363112824501889	0.484733093660886	-0.60882913735863	-0.512357283636481	-0.211278181173814	0.271850480494134	0.938860397724281	-0.975901691569106	-0.00504768362918528	-0.218152261694759	-0.054565726902919	-0.962326263356191	0.266365809184414	-39.3173042024961	-69.8610474106703	127.853824200618
46161	1653391557103	9.26305858817036	-1.990655616839	2.71490829465153	-0.162889517760071	-0.0822149608415441	0.0414689843205078	8.67852632878287E-06	0.0451681346815736	0.00709000039095657	0.23681640625	-0.418212890625	0.07080078125	0	0	0	-0.362950390956726	0.48465686328017	-0.608913269672206	-0.512444502943382	-0.211335290214939	0.27225571961081	0.938730109375942	-0.975881311640403	-0.00501671255707359	-0.218244125204155	-0.0547088722308794	-0.962211855951859	0.266749477159573	-39.2887060268937	-69.839376870057	127.819980262438
46162	1653391557104	9.23165309583981	-1.98363532597642	2.77068085738969	-0.167162259926111	-0.139640315478494	0.0253742030745965	-0.00702946066817409	0.0551107729605211	0.0106125686825357	0.24658203125	-0.41455078125	0.071044921875	0	0	0	-0.362761291520714	0.484537896386557	-0.609051656403553	-0.512526440460981	-0.211441786405241	0.27276696885892	0.938557697566472	-0.975853341194588	-0.00507934958737472	-0.218367709808772	-0.0547962356473414	-0.96206672372933	0.267254544679029	-39.2514897730212	-69.8107343078921	127.781902303683
46163	1653391557105	9.25356925748853	-2.04746214039328	2.72902566933074	-0.109426079830096	-0.0885982910238129	0.0487729781550659	-0.00646773797098315	0.0505317687248516	0.0255722446153875	0.23583984375	-0.4130859375	0.068115234375	0	0	0	-0.362521102103799	0.484500943157222	-0.609177297264424	-0.512582000373425	-0.211676286845251	0.273223003460377	0.938372175614505	-0.975790266995122	-0.00503705794588122	-0.218650366761274	-0.0550136748908554	-0.961937533537049	0.267674573218418	-39.2437183122783	-69.7799572035264	127.76631030812
46164	1653391557106	9.19614463829393	-2.0624735952783	2.77343669177749	-0.0890226221947325	-0.142842819850128	0.0100664248031883	-0.0108317923255317	0.0608751218076661	0.0288809282544002	0.254150390625	-0.416259765625	0.078857421875	0	0	0	-0.362180825964593	0.484540062332636	-0.609264154149488	-0.512682326364777	-0.211963763073611	0.273735687862916	0.938157841908221	-0.975700167817194	-0.00475552045577143	-0.219058365616779	-0.0555026635862985	-0.961793199297755	0.268091954596581	-39.2523134162373	-69.7444561702689	127.751956022737
46165	1653391557108	9.20200362811307	-2.18436501735986	2.81404514464385	0.0233331247085397	-0.174049035693067	0.0532302320894775	-0.00885618397166934	0.0666009115510365	0.0236943758806474	0.236328125	-0.410888671875	0.072021484375	0	0	0	-0.361889762408895	0.484466319098798	-0.609407909920412	-0.512786685522285	-0.212171230029407	0.27434572229075	0.937932723498106	-0.975639326745853	-0.00468440161986183	-0.219330710317459	-0.0557787885733107	-0.961619717477876	0.26865637104499	-39.2281551998014	-69.7072328875413	127.717353526007
46166	1653391557108	9.24413864871083	-2.20041313964841	2.8486720234639	0.0266817458575269	-0.188924994938882	0.105701631967316	-0.00550349389747613	0.0743095842445918	0.0237426365639231	0.239990234375	-0.416259765625	0.076416015625	0	0	0	-0.361645339650285	0.484291914899403	-0.609592983172082	-0.512903874366008	-0.212284527939138	0.275041377603224	0.937703321847469	-0.97560903381795	-0.00478191364681568	-0.219463314553211	-0.055877476056678	-0.961420497965378	0.269347978944599	-39.1729664589516	-69.6693685299942	127.661951113191
46167	1653391557109	9.10180541517695	-2.15582438565587	2.82459265904254	0.0125100804861637	-0.198235845824011	-0.0438949296622706	-0.00488839039548937	0.0780404386862238	0.0133332134896723	0.24462890625	-0.41455078125	0.072998046875	0	0	0	-0.361354881893818	0.484157492631145	-0.609740296108167	-0.513060369705703	-0.212383412737905	0.275761816355974	0.937469309702379	-0.975572510626911	-0.00472115873314094	-0.219626927240999	-0.0561387789581061	-0.96121440443861	0.270028343321256	-39.1231022074281	-69.6308126359656	127.602376931184
46168	1653391557110	9.07423991423362	-2.11817634669765	2.8686216877222	-0.022942313998693	-0.241311243981053	-0.0659581658242878	-0.00582054993396853	0.0693437924651933	0.0192700260439296	0.245361328125	-0.410400390625	0.0751953125	0	0	0	-0.361073032338557	0.484038018224847	-0.60991257768165	-0.513166746600486	-0.212572311002625	0.276427556384035	0.937230397856661	-0.975519856414399	-0.00473417419287109	-0.21986040420217	-0.0563384623169047	-0.961023097363566	0.270666924461604	-39.0866575116476	-69.5915214228766	127.560221778672
46169	1653391557110	9.07195721165215	-2.11998042804893	2.87450274998357	-0.0232072627107863	-0.241705004709334	-0.0659685498312985	-0.0139647541690983	0.0649152744714089	0.0142346289673414	0.239990234375	-0.41162109375	0.080322265625	0	0	0	-0.360796944357903	0.483966414541844	-0.610016529061192	-0.513304888745128	-0.212687312264704	0.277021726087793	0.937028852531744	-0.975476140241984	-0.00458920157172638	-0.22005735399558	-0.0566604537593765	-0.960852695528443	0.271204149075024	-39.0561688831021	-69.5584316998911	127.515756912914
46170	1653391557112	9.01788912576172	-2.12546997429035	2.89669249895375	-0.00842351739868843	-0.271238924259692	-0.109227692526193	-0.0243769072918283	0.0660408316745668	0.0158321456921707	0.244384765625	-0.418701171875	0.073486328125	0	0	0	-0.360570704096107	0.483796164217467	-0.610183315202539	-0.513426100509647	-0.212764813326192	0.277682633099201	0.93681561125195	-0.975453527382752	-0.0046698216078474	-0.220155873604809	-0.0567587008908451	-0.960661515853136	0.271860077672207	-39.0010085330061	-69.5234774639383	127.459905282717
46171	1653391557112	9.03271431578114	-2.14787667274928	2.94883683368834	0.00435952613357513	-0.31300797719567	-0.0761096195143764	-0.0272623288805395	0.037537231210155	0.0247803523799848	0.240478515625	-0.4189453125	0.077392578125	0	0	0	-0.360318733592779	0.483853642074929	-0.610232968644976	-0.513489812217986	-0.212997245940867	0.27801376184408	0.936664572537528	-0.97537988807085	-0.00442773159832804	-0.220486891083778	-0.0571510907026481	-0.960566886488493	0.272112126545844	-39.0171427223091	-69.4987539020656	127.457141436722
46172	1653391557113	9.17823050084663	-2.18028810684319	2.93736432416153	0.0015169523729216	-0.258600066195278	0.0642961356429499	-0.0399194800049752	0.0276496440085573	0.022049057560958	0.23876953125	-0.41943359375	0.080078125	0	0	0	-0.360041187322968	0.483962367389356	-0.610261513699025	-0.513548104153576	-0.21327737630267	0.278304516047057	0.936514472448378	-0.975290057545049	-0.0040975433423161	-0.220890275458958	-0.0576373525695429	-0.96048415212661	0.272301540763916	-39.0488711665357	-69.4742122182627	127.464583474394
46173	1653391557113	9.07806675959375	-2.219053135029	2.90859098062518	0.0583872548553188	-0.257862487402152	-0.0287469054040095	-0.0466483005091608	0.013628814389005	0.0288494878455083	0.247314453125	-0.412109375	0.07666015625	0	0	0	-0.359802281775136	0.484147663794707	-0.610231805315412	-0.513576188557283	-0.213563633152759	0.278406181121764	0.936419015669689	-0.975195917719513	-0.00368107637820192	-0.22131283681679	-0.0581678318127058	-0.960456374849943	0.272286715343065	-39.1039822811804	-69.4586194272172	127.491586824247
46174	1653391557115	9.142085023708	-2.30741491824422	2.91217860809959	0.127126477497599	-0.24279363277708	0.0517718118798296	-0.0604774952749127	-0.00914540935974747	0.0244062758634197	0.248779296875	-0.40966796875	0.07275390625	0	0	0	-0.359655267907371	0.484311199875798	-0.610208381073947	-0.513552803135622	-0.213823213316044	0.278378300511011	0.936368066121332	-0.975118597878492	-0.00341236013281976	-0.221657564431735	-0.0585094310234383	-0.960465448417029	0.272181499882685	-39.1584791093434	-69.4503014915515	127.527975173593
46175	1653391557115	9.22139262886767	-2.36099580223394	2.82384934602249	0.163337799065359	-0.138746081023881	0.113871783558876	-0.066585333953608	-0.0194072828694634	0.0207799220773989	0.243896484375	-0.41748046875	0.073486328125	0	0	0	-0.359485594366043	0.484626945949018	-0.610050533290531	-0.513561269504778	-0.214049859815867	0.278163841256938	0.936380016302138	-0.975029464098069	-0.00278309144953781	-0.22205809722371	-0.0591625020890652	-0.960529610068929	0.271813661406841	-39.2470951340645	-69.4522521683264	127.578642229909
46176	1653391557116	9.21052852461662	-2.44958501712712	2.83774316211396	0.249669579728213	-0.159608562546147	0.127095136848093	-0.0730049976760495	-0.0359933886452417	0.00573446105376646	0.2421875	-0.41845703125	0.075439453125	0	0	0	-0.359441926514454	0.484937539517833	-0.609758876430162	-0.513645010532171	-0.213940609237967	0.277785442125173	0.936517305692858	-0.975012975899049	-0.00200877184359266	-0.222138834209961	-0.0598256846794715	-0.960641042730844	0.271274168459936	-39.313088087503	-69.474675199755	127.602203592428
46177	1653391557117	9.37782737797742	-2.51518726030769	2.83429347904133	0.275509549905704	-0.116291799168765	0.297386763057474	-0.0720906838606964	-0.0561830406805348	-0.0014307692350414	0.251953125	-0.42236328125	0.077392578125	0	0	0	-0.359424399000413	0.485324215958693	-0.609463827417929	-0.513642239186344	-0.213971503053662	0.277218000753449	0.936678373797121	-0.974967459318649	-0.00126411105543761	-0.222344002152025	-0.0604536942683986	-0.960806214635137	0.270549013614544	-39.4142279632217	-69.5010118487727	127.662857407082
46178	1653391557118	9.39713702460371	-2.63235671656547	2.78484916506943	0.388020868834656	-0.0701828738579884	0.328090708694573	-0.0697204402870097	-0.0621223834671538	-0.0130410762386451	0.243408203125	-0.420166015625	0.073974609375	0	0	0	-0.359494570388061	0.485616852561606	-0.609176139568878	-0.513657821267838	-0.213838593023763	0.276662933668931	0.936872818085421	-0.974969420808278	-0.000663830317074288	-0.222338003539838	-0.0608907597455369	-0.960966794672434	0.269879852739326	-39.4830855659333	-69.5328491263783	127.701189943075
46179	1653391557119	9.39697525762695	-2.6772479265017	2.75874450011221	0.433618496038075	-0.0539686753862245	0.330809429124059	-0.0622890528585401	-0.0724923472256628	-0.0346088794183218	0.24365234375	-0.419189453125	0.06982421875	0	0	0	-0.359632520911249	0.485955222436896	-0.608790175249052	-0.513698836099086	-0.213555911386928	0.275939005518058	0.937150755185848	-0.975000212297929	7.79448464976462E-05	-0.222203915230122	-0.0613877734625767	-0.961175144892078	0.269023943378654	-39.5554579337641	-69.5784395509801	127.737159878044
46180	1653391557120	9.31472450213577	-2.63806337353018	2.67098360722616	0.420158774188316	-0.00165850454198718	0.221308817330335	-0.0470039735464432	-0.0823017860878633	-0.0537534007463075	0.244384765625	-0.4150390625	0.0634765625	0	0	0	-0.359842850386409	0.486255380148052	-0.608381864233513	-0.513751239000562	-0.213145574902344	0.275162829054475	0.937472336341872	-0.975064917087283	0.000769260595079535	-0.221918488873073	-0.0617848797451337	-0.961397329799119	0.268137656605716	-39.6121419220008	-69.6313108596687	127.761941977054
46181	1653391557120	9.25945937154724	-2.61300812883936	2.55428152837762	0.419594637666921	0.0851495606312591	0.132483908586014	-0.0327885735172237	-0.0902460870560767	-0.0755024189444253	0.24169921875	-0.4169921875	0.071533203125	0	0	0	-0.360209621853165	0.486475876688174	-0.607930273371999	-0.513820038965705	-0.212475991763361	0.274266930339795	0.937886775600425	-0.975200096669933	0.00133962208449279	-0.221320981535018	-0.061957440062748	-0.96165266928068	0.267180499449744	-39.636907884012	-69.699643446258	127.765126863685
46182	1653391557121	9.2326908161002	-2.52045183343568	2.46735274438365	0.346768566955795	0.150209232870078	0.063559943507407	-0.0122472447212627	-0.0988707706694537	-0.0900966338056017	0.2451171875	-0.41796875	0.072998046875	0	0	0	-0.360628860441464	0.486709805330784	-0.607414016739887	-0.513914976119083	-0.211676444674426	0.273275114890296	0.938356965313143	-0.975361524738806	0.00199007456921446	-0.220603571282065	-0.0621528666208309	-0.961933860088574	0.266120780823123	-39.6573845406089	-69.7774358862074	127.761040912221
46183	1653391557122	9.22435873929267	-2.42350982628871	2.43771560917935	0.264762882626342	0.16630896534836	0.0263612391333545	0.00570661356190335	-0.0931378208799706	-0.105355978286877	0.23876953125	-0.4111328125	0.075439453125	0	0	0	-0.361175515147166	0.486767076979984	-0.606973273865974	-0.513997572794818	-0.210717484838431	0.272348879467018	0.938841961906489	-0.975582278606721	0.00227138414120259	-0.2196225363723	-0.0619464224300702	-0.962195888926545	0.265220120053084	-39.6273552872914	-69.8579796691657	127.729272596897
46184	1653391557123	9.04179772918445	-2.23874787584112	2.28290031857027	0.142284478953364	0.257990424495957	-0.226712630019596	0.0215764118061289	-0.0938688103758768	-0.112340207682744	0.243408203125	-0.411865234375	0.07666015625	0	0	0	-0.36179187820336	0.486676071250095	-0.606674089806294	-0.514003489576055	-0.209814099139446	0.271514298603216	0.939285914648094	-0.975816098180033	0.00210637124757806	-0.218582949318704	-0.0613268810147601	-0.962432100905914	0.264506077077315	-39.5697000172835	-69.9319788350884	127.695244056387
46185	1653391557124	9.04158713483934	-2.04028789378356	2.2682505052792	-0.0393081096721288	0.263517928686132	-0.273975237235447	0.0405825725760983	-0.0885859426533555	-0.118110025239096	0.250244140625	-0.40576171875	0.061767578125	0	0	0	-0.362444954567688	0.486591724865815	-0.606293596043673	-0.51407219687216	-0.208726862622917	0.27063193051138	0.939782663708625	-0.976082792959392	0.00208346060971559	-0.217389145268295	-0.060790444217708	-0.96268064142766	0.263724296401075	-39.4989149396229	-70.0150895986603	127.641469498996
46186	1653391557125	8.95216455612921	-1.85060723892059	2.1575109697613	-0.185985565122832	0.337890322135102	-0.428015059048349	0.0462043254552401	-0.0850473521709322	-0.117762703817389	0.248046875	-0.408203125	0.06103515625	0	0	0	-0.363153413410895	0.486447632381017	-0.605895833479749	-0.514177535731384	-0.207482120154433	0.269765816847432	0.940307169959295	-0.97638628942669	0.00201967459979274	-0.216022532931384	-0.0601746095608559	-0.962923841731603	0.262976598557837	-39.4014465854288	-70.1032057299744	127.564582534598
46187	1653391557125	8.90352654606834	-1.6243486699047	2.14811512813799	-0.384830126712578	0.327420634581967	-0.524502386548308	0.0444915083288634	-0.0606175544058944	-0.11741078240908	0.253662109375	-0.412841796875	0.06640625	0	0	0	-0.363730126306181	0.486280039448307	-0.605576246988448	-0.514304897443947	-0.206381735364923	0.269152258866354	0.940725061245262	-0.976651059541183	0.00195560860135108	-0.214822911934653	-0.0596597620247373	-0.963095653163349	0.262464236902886	-39.2997938762278	-70.1736796317755	127.480425380419
46188	1653391557126	8.77197826672219	-1.51414733433294	2.10951414184343	-0.451064567541483	0.322445816917008	-0.681266052277971	0.0411571787650004	-0.0493009935285176	-0.0976966881871419	0.253173828125	-0.402099609375	0.063720703125	0	0	0	-0.364217317560282	0.486231886614855	-0.605126056650455	-0.514535473598101	-0.205197983996742	0.26852949738011	0.941161886393865	-0.976905791200662	0.00233640230372578	-0.213657708362898	-0.0595723298376246	-0.963268628296936	0.261848596056303	-39.2130336015688	-70.2476045072148	127.385411349075
46189	1653391557127	8.68814364412001	-1.35126068191431	2.12693718160767	-0.585414288143282	0.279554570545602	-0.789786478518406	0.0316961968987235	-0.0345245804347731	-0.0844123358256306	0.247802734375	-0.4150390625	0.0732421875	0	0	0	-0.364602115724431	0.486096188970234	-0.604906087987408	-0.514649800343548	-0.20440176043123	0.268166196930372	0.941438692192176	-0.977092992706892	0.00230784385007898	-0.212800275986317	-0.0592385342129862	-0.963369900235971	0.261551584555766	-39.1320532968352	-70.2945867528846	127.315390921362
46190	1653391557128	8.62642696048276	-1.27424210680156	2.08948472328913	-0.636908217735857	0.295772828453778	-0.873350472685807	0.0152723721404318	-0.0239344051808663	-0.0697483956013185	0.2470703125	-0.41162109375	0.068359375	0	0	0	-0.364942947935988	0.485987169457899	-0.604631922731292	-0.514833326318675	-0.203526581726879	0.267854147394351	0.941717094595939	-0.977284508518478	0.00247376553210388	-0.21191712977928	-0.0590924694048915	-0.96345629698899	0.261266231748182	-39.0460494807886	-70.3419487382985	127.229061437623
46191	1653391557129	8.60794932053015	-1.2352399702291	2.07164760801376	-0.665085069746742	0.305933603632251	-0.903231827671012	-0.00142512592413644	-0.0146687439376503	-0.0489540516124057	0.250244140625	-0.41552734375	0.06640625	0	0	0	-0.365096684029453	0.485964890313246	-0.604458144178284	-0.51494940395157	-0.203063045361241	0.267682382100352	0.94186598936457	-0.977379062132765	0.00266952649448493	-0.211478231817773	-0.059123333068215	-0.96350351112042	0.261085073387064	-39.0073827587071	-70.3673238410119	127.183844027222
46192	1653391557130	8.55919367547252	-1.24986954650228	2.05637801086727	-0.636698000825898	0.30556084543049	-0.949735914502622	-0.0216257215006814	-0.00262124027188235	-0.0366878205092279	0.252197265625	-0.40625	0.07080078125	0	0	0	-0.3651070882957	0.486054911149036	-0.604223653182777	-0.515132229974594	-0.202671199435277	0.267585969011979	0.941977777926522	-0.977434342457779	0.00322118202138966	-0.211214890977212	-0.0595524231547021	-0.963528605270392	0.260894874848277	-38.9928882550754	-70.3863959145228	127.140503885561
46193	1653391557131	8.58367155591391	-1.25037603862294	2.05882106142686	-0.639668556497552	0.309082111810932	-0.92579284800189	-0.0345039578051683	0.00482868256585994	-0.0184998929654613	0.2392578125	-0.416015625	0.07177734375	0	0	0	-0.365042649627488	0.48613825171702	-0.60408313092766	-0.515264044058092	-0.202493657707689	0.267602242994007	0.942011336520288	-0.97744702496223	0.00365486976315871	-0.211149130520351	-0.0599469096838811	-0.963522538123313	0.260826928340925	-38.9914614068489	-70.3921247719404	127.114662224587
46194	1653391557131	8.62289591244272	-1.31789445453072	2.09167178971618	-0.583923479581075	0.288216241995279	-0.866054743160172	-0.049644470746187	0.0163853949902991	-0.000546907501031511	0.25	-0.40966796875	0.0625	0	0	0	-0.364883688096243	0.486220332823447	-0.604036382570687	-0.515353985762464	-0.20254032704005	0.267757378070684	0.941957218992042	-0.977412851142693	0.00399988538440438	-0.211301015941767	-0.0603451269252197	-0.963478067942194	0.260899364220679	-39.0038298011289	-70.382887049905	127.105037942809
46195	1653391557132	8.76165686553098	-1.38742625985241	2.11353502326399	-0.547224883129819	0.304933941677063	-0.71509578666109	-0.0659606012735315	0.0276490892071255	0.0110333796224332	0.247314453125	-0.40478515625	0.0791015625	0	0	0	-0.364597360465808	0.486393504187032	-0.603937360367996	-0.515509251689786	-0.202637952327206	0.267995017873006	0.941868637694177	-0.977346168970234	0.00465685898620599	-0.211595793114112	-0.0610927677867413	-0.963409042961312	0.260980247652051	-39.0342130353112	-70.3677754626023	127.093867423543
46196	1653391557133	8.8196016961345	-1.49187660937723	2.16415250182832	-0.461468752105255	0.273213760760503	-0.625357783671879	-0.079512672894384	0.0414534608188174	0.0261855874146251	0.24853515625	-0.412109375	0.062744140625	0	0	0	-0.364300257945934	0.486503356834501	-0.603885543778243	-0.515676309194968	-0.202726532391164	0.268352340010779	0.941747829663225	-0.977285533556264	0.00521514415236468	-0.211862663471219	-0.061765192190288	-0.963306713296555	0.261199611698577	-39.0459926218424	-70.3471841251164	127.069190069321
46197	1653391557134	8.93093087734514	-1.6074438134682	2.16685581553965	-0.3760758785801	0.302627025466475	-0.495625240040349	-0.0907062725051373	0.0507258533121679	0.0366277703999483	0.248779296875	-0.41162109375	0.0732421875	0	0	0	-0.36381844885312	0.486737709188548	-0.603834075397779	-0.515855549661437	-0.203058376315212	0.268814001026656	0.94154465038057	-0.977150634447851	0.00604109132523833	-0.212462097358004	-0.0628007436770586	-0.963173160998395	0.261445077455988	-39.098871046419	-70.3125995263907	127.066894316068
