// Start Time : 24/05/2022 11:25:21																																
// Update Rate : 100Hz																																
// Filter Profile : 46.1 human																																
// Firmware Version : 4.4.0																																
PacketCounter	Time_Of_Arrival	Acc_X	Acc_Y	Acc_Z	FreeAcc_X	FreeAcc_Y	FreeAcc_Z	Gyr_X	Gyr_Y	Gyr_Z	Mag_X	Mag_Y	Mag_Z	VelInc_X	VelInc_Y	VelInc_Z	OriInc_q0	OriInc_q1	OriInc_q2	OriInc_q3	Mat[1][1]	Mat[2][1]	Mat[3][1]	Mat[1][2]	Mat[2][2]	Mat[3][2]	Mat[1][3]	Mat[2][3]	Mat[3][3]	Euler_X	Euler_Y	Euler_Z
45975	1653391556941	6.34042237262891	-1.03494571204643	7.69492208343222	6.93889390390723E-16	-2.60208521396521E-16	0.211478156896664	-0.000522424896251658	0.00248603815267068	-0.00575576543214721	0.50927734375	-0.408935546875	0.223876953125	0	0	0	0.108903090116656	-0.322994313603266	0.439970887040239	0.830807082841753	0.404200583873961	0.660711700711392	0.632520305238504	-0.801412016077407	0.589131471040137	-0.103261272105421	-0.440863548598311	-0.465171106554507	0.767629580685997	-7.66141733629571	-39.23631182613	58.5431460622752
45976	1653391556941	6.35349938812654	-1.05533776708305	7.69550251975471	0.0144914412900848	0.00784844495621594	0.222310381084471	-0.00750512712079984	0.00389899963740184	-0.00733572461834119	0.509521484375	-0.409423828125	0.228759765625	0	0	0	0.10861770528851	-0.322900747928539	0.441067449990249	0.830299226570848	0.40238922309258	0.662290448633077	0.632023951119219	-0.802581401736843	0.587323397313916	-0.10447162559167	-0.440393013937637	-0.465212412363469	0.767874602170098	-7.74769076167687	-39.1996043328011	58.7183004345499
45977	1653391556942	6.33951945966587	-1.09422303919652	7.65237436158809	0.0591972823543995	-0.00406540535433314	0.184419397565524	-0.000609909498985433	0.00101318016460331	-0.00355347765828246	0.502685546875	-0.415771484375	0.236328125	0	0	0	0.10861867593155	-0.322895956861584	0.44105226320952	0.830309030059941	0.402422204320405	0.662274291146564	0.6320198831969	-0.802564416338389	0.587349768713274	-0.10445385019177	-0.440393831811173	-0.465202120028252	0.767880368562638	-7.74633106685965	-39.199303571944	58.7155961814655
45978	1653391556943	6.31228934394615	-1.05222332108205	7.70632730017558	-0.0088487945806218	-0.0222752748538718	0.204252121736712	-0.001536338941076	0.0059213200166509	-0.00578792726499476	0.51123046875	-0.4169921875	0.2236328125	0	0	0	0.108605287700355	-0.322866694986468	0.441035702172243	0.830330957005382	0.402489213355902	0.662281132720703	0.631970042307647	-0.802541253912175	0.587384801785919	-0.104434814118616	-0.440374805025469	-0.465148144006938	0.767923977504076	-7.74450199863123	-39.1956187023215	58.7116251258103
45979	1653391556944	6.32525072812872	-1.07259002506797	7.70700732652572	0.0127517886691653	-0.0257295172198862	0.215093222313792	-0.00431084774941075	0.00331439495384352	-0.00545293225926849	0.517822265625	-0.415771484375	0.226806640625	0	0	0	0.108588884480266	-0.322859479615752	0.441007903824703	0.83035067251958	0.402547570372775	0.662264517583877	0.631950284703132	-0.802500320525291	0.587440965862946	-0.104433458157874	-0.440396059409912	-0.465100871183234	0.767940421179154	-7.74423884960118	-39.1941580235108	58.7073003556998
45980	1653391556945	6.33450670620487	-1.06677477898617	7.68529417471882	0.0216304019648431	-0.00605962987774954	0.203660554657063	-0.00191683193492694	0.00156634431393754	-0.00845840442240193	0.51025390625	-0.40771484375	0.233154296875	0	0	0	0.108590588664685	-0.322852484767831	0.440970740844091	0.830372905899577	0.402622157597301	0.662222828237204	0.631946456571449	-0.802457793728384	0.587505779545741	-0.104395633457172	-0.440405367242801	-0.465078364108532	0.767948714265389	-7.74138539980966	-39.1938750134198	58.7009875292312
45981	1653391556946	6.33448892447034	-1.066323211317	7.6853714989034	0.0216304017403756	-0.00605962977864678	0.203660554657606	0.00127718744665736	0.000982762525879621	-0.00657505725615389	0.50439453125	-0.415283203125	0.234130859375	0	0	0	0.108604338323867	-0.322842018334671	0.440946037159147	0.830388295442846	0.402679247022479	0.662188768788967	0.631945771808911	-0.802436943926481	0.587543380021758	-0.104344274469361	-0.44039116140011	-0.465079359983175	0.767956257789662	-7.73754797295754	-39.1938243897046	58.6960731019539
45982	1653391556947	6.35267727987731	-1.05386591483223	7.6963828728296	0.0144973083655197	0.00801555547269538	0.222310240520384	-0.00121941778622654	0.00202562979477352	-0.00710733868945104	0.51416015625	-0.413818359375	0.2294921875	0	0	0	0.108605149136246	-0.322832962945267	0.440916032677682	0.830407641911397	0.402743860327507	0.662157441780071	0.63193742195234	-0.802402730127138	0.587595947417734	-0.104311366891485	-0.440394416010253	-0.465057550066148	0.767967599234147	-7.7350244400699	-39.1932070972435	58.6907884252188
45983	1653391556948	6.30686184134926	-1.0832129052542	7.6964162150188	0.0198394130651092	-0.0397611737528075	0.196443693202157	-0.00270147120378887	-0.000366794412531736	-0.00760759148409299	0.51025390625	-0.4130859375	0.2353515625	0	0	0	0.108607020961138	-0.322836310107454	0.440879885522061	0.830425287678672	0.402803286836515	0.662111031735082	0.631948173324684	-0.802360191330508	0.587658883080002	-0.104284037633926	-0.44041756945173	-0.46504410413623	0.767962463748301	-7.73307349777819	-39.1940019311932	58.6852518939165
45984	1653391556949	6.38415325883617	-1.06180930817289	7.70780524732312	0.0289445257069327	0.0186553216850176	0.251801087943335	-0.00111705066985202	0.00273022923836767	-0.00356974581624792	0.50390625	-0.41015625	0.2314453125	0	0	0	0.108599780025776	-0.322826445085628	0.440865524709123	0.830437693782428	0.40284135095265	0.662104937369644	0.631930295106496	-0.802340461060854	0.587687353802605	-0.104275398465544	-0.44041869908906	-0.465016801945082	0.767978348263458	-7.73228262050021	-39.1926802244337	58.6826136674644
45985	1653391556950	6.31563549353344	-1.07641278767614	7.72929245565068	0.00380453197041958	-0.0453257632981444	0.226526209755134	-0.00200406983549803	9.28299407732417E-05	-0.00625642519440483	0.503662109375	-0.410888671875	0.224365234375	0	0	0	0.108601352742607	-0.322827079857198	0.440836362200915	0.830452722588597	0.402891956544676	0.662068599262731	0.631936105331772	-0.802306429560481	0.587738095887879	-0.104251252884577	-0.440434404239175	-0.465004409132189	0.7679768453867	-7.73052876287017	-39.1931097619407	58.6780212418072
45986	1653391556951	6.33823679749126	-1.09100091284064	7.70794579811864	0.0342213222283626	-0.0290671540666974	0.225935108802389	-0.00052214463122376	0.00248509035802776	-0.00575621577583185	0.503173828125	-0.4130859375	0.235595703125	0	0	0	0.108599313729483	-0.322816298996335	0.440814193562424	0.830468947591482	0.402944967712437	0.662049741758962	0.631922061991916	-0.802280255885736	0.58777807162279	-0.10422729745759	-0.440433586379538	-0.464980728585913	0.767991652319588	-7.72862666169612	-39.1920715724073	58.6739487290528
45987	1653391556952	6.31207411588603	-1.05062023009946	7.65266462724337	0.0158960453798365	0.00309855053715275	0.162737246650749	-0.00500812362094728	0.00285250029170719	-0.0068049220039845	0.5126953125	-0.40966796875	0.2294921875	0	0	0	0.108583214706895	-0.322811797331798	0.440779402144366	0.830491268847895	0.403012124297339	0.662023004538587	0.631907247253145	-0.802230775336976	0.587846408258344	-0.104222758551091	-0.440462269407471	-0.464932405581141	0.768004457974661	-7.72816685800323	-39.1909763718766	58.6686802155473
45988	1653391556953	6.34740518552638	-1.08514160591854	7.68631214115936	0.0429936193226088	-0.00933208779953873	0.214502857003852	-0.00259882337106783	0.000337439829500494	-0.00407021432714313	0.5107421875	-0.4150390625	0.23046875	0	0	0	0.108572666630962	-0.322816762000903	0.440760314441149	0.830500848552025	0.403039366769984	0.662005476935641	0.631908234905089	-0.802201783670085	0.587884642548763	-0.104230251519643	-0.440490144169181	-0.464909018585924	0.768002628463788	-7.72873393867402	-39.1910493849133	58.6662862030135
45989	1653391556954	6.3335322064638	-1.06383780761616	7.74055670307648	-0.00348276545528645	-0.0311352048158207	0.245176110463021	-0.00431097813172118	0.00331215177335708	-0.0054536337236107	0.504150390625	-0.4130859375	0.225341796875	0	0	0	0.10855626841644	-0.322809548015452	0.440732507677741	0.83052055301097	0.403097704772299	0.661988812129347	0.631888481476661	-0.802160811896368	0.587940786527176	-0.104228899042278	-0.440511375863398	-0.464861747354396	0.768019064595114	-7.72847146469358	-39.189589109794	58.6619619489772
45990	1653391556955	6.32445467300815	-1.0702441808889	7.70798667305507	0.0123633398537706	-0.0254192382644804	0.215094500080218	-0.00361388612580654	0.00377201626689476	-0.0041022537413329	0.50927734375	-0.422607421875	0.226318359375	0	0	0	0.108531465849	-0.322803180006393	0.440714370122916	0.830535894387225	0.403137901889842	0.661989602505053	0.631862008855619	-0.802126811732303	0.587983529775656	-0.104249444184272	-0.440536502414983	-0.464806556416496	0.768038055796854	-7.72978762277952	-39.1876321649446	58.6594543673102
45991	1653391556956	6.34687577336576	-1.08510752071747	7.6867541144835	0.0428455589457057	-0.00921498481116596	0.214503599051111	-0.00431083846409921	0.00331182476240533	-0.00545381423324573	0.51416015625	-0.404296875	0.232666015625	0	0	0	0.108515068738403	-0.322795966660004	0.440686561344388	0.830555596221705	0.403196237116984	0.661972926387384	0.631842258087276	-0.802085832429742	0.588039669014316	-0.104248093896343	-0.440557728101769	-0.464759284356597	0.768054487529466	-7.72952534377452	-39.1861721574612	58.6551302057792
45992	1653391556958	6.3333817851035	-1.06462262674182	7.68651962945572	0.0210373157686834	-0.00560703718132695	0.203662081455082	-0.00361383079788648	0.00377171566152075	-0.00410236934717446	0.514404296875	-0.408203125	0.225830078125	0	0	0	0.108487406148435	-0.322791279624422	0.440669343058954	0.830570167170482	0.403232639772835	0.661976042555188	0.631815762152862	-0.80205119717034	0.588082025590348	-0.104275636153311	-0.440587466162458	-0.464701248395703	0.768072545011225	-7.73136320979072	-39.1842135844525	58.6529519127679
45993	1653391556959	6.36452029472387	-1.07304293553286	7.69815956295579	0.0355243108496855	0.00499915918735442	0.233153239051925	-0.00403387758091103	0.00696125464834654	-0.0063207829752091	0.5	-0.4140625	0.22802734375	0	0	0	0.108465517189832	-0.322767829702362	0.440640358673468	0.830597516248445	0.403314004834689	0.661971215784201	0.631768884147828	-0.802007934107826	0.588142611777719	-0.104266686143657	-0.440591746554905	-0.464631442849566	0.768112319379938	-7.73031217852889	-39.180748507438	58.6476300750519
45994	1653391556959	6.3090520661693	-1.10845960531771	7.72018635724011	0.0317118613394399	-0.0622868829528152	0.218723942354675	-0.0056903669762493	0.0016234738428033	-0.00241690738832579	0.510498046875	-0.4150390625	0.2236328125	0	0	0	0.108429991716852	-0.32278035759013	0.440625899572297	0.830604956809418	0.403323314760183	0.661973969566997	0.631760055231867	-0.801970255566438	0.588183507044774	-0.104325793681194	-0.440651804668447	-0.464575748028481	0.768111555300542	-7.73464896939702	-39.1800959204142	58.6471483209011
45995	1653391556960	6.36409749096059	-1.0731344062347	7.69849634879881	0.0352501720729505	0.00514917749226875	0.233154128952227	0.000175269267836383	0.00294497303463607	-0.00440473790589936	0.515380859375	-0.41162109375	0.227294921875	0	0	0	0.108431339679994	-0.322765353279962	0.440609486071846	0.830619318388856	0.403371615011132	0.661961742676455	0.631742029182848	-0.801953261310187	0.588211850717412	-0.104296621946988	-0.440638521780912	-0.464557283774938	0.768130342594527	-7.73232552724628	-39.1787635485055	58.6436293860432
45996	1653391556961	6.31373407783782	-1.07577256233036	7.7309348351823	0.00263992939603108	-0.0445510503336223	0.226530051388432	-0.00380268980625345	0.00159386457728573	-0.00543839495971771	0.501220703125	-0.407470703125	0.228271484375	0	0	0	0.108403748699969	-0.322774140665643	0.440587118740733	0.830631369612952	0.40339968983459	0.661951110083746	0.631735243674321	-0.801910817410012	0.588263236135067	-0.104333148772117	-0.440690062472666	-0.46450736578745	0.7681309627707	-7.73499459971007	-39.1782620130319	58.6414484367813
45997	1653391556962	6.34182545285699	-1.05874248427372	7.66549141742315	0.0292889162016691	0.0144215672998592	0.192230357262661	-0.00130587301223373	0.00055218475827794	-0.00490572575799219	0.501953125	-0.412353515625	0.230712890625	0	0	0	0.108405025874306	-0.322772069657194	0.440564933291583	0.830643775013204	0.403441461205989	0.661924809530138	0.631736126803325	-0.801885267780903	0.588301779837949	-0.104312190828541	-0.440698314832182	-0.464496030519091	0.768133082828804	-7.73343854917509	-39.1783272873069	58.6378003859302
45998	1653391556963	6.32318065001508	-1.06976534025174	7.70909830369579	0.0111501853040005	-0.0246269223940106	0.215097899530706	-0.00149471991718984	-0.0016251943613958	-0.00624158911575942	0.509033203125	-0.415771484375	0.222412109375	0	0	0	0.108393236031703	-0.322788285318405	0.440542041284484	0.830651153676849	0.403460865444208	0.661897376074648	0.631752478111885	-0.801849643269794	0.588347232486951	-0.104329687112775	-0.440745368260536	-0.464477553354779	0.768117258487559	-7.73487739581663	-39.1795358643945	58.6355203805797
45999	1653391556964	6.32776220960355	-1.09647308792942	7.67666088759321	0.0487475034900601	-0.0224834934744267	0.195862401618417	-0.00139344262001551	-0.000920404310627985	-0.00270339965010851	0.510986328125	-0.4072265625	0.228515625	0	0	0	0.108393833908984	-0.32279369408214	0.440528081536947	0.830656377335835	0.403478480876365	0.661877228521958	0.631762336510964	-0.801832612774786	0.588371572295777	-0.104323314771701	-0.440760225701527	-0.464475432373217	0.768110015662634	-7.7344827249139	-39.1802645399842	58.6336335071673
46000	1653391556964	6.33279910142642	-1.06371329850024	7.6871255846691	0.019559777934653	-0.00466456143410378	0.203665558992625	-0.00140711699258791	-0.000152978824099578	-0.00844408838481594	0.503662109375	-0.41552734375	0.22998046875	0	0	0	0.10837886939125	-0.322805845577113	0.440498031035432	0.830669544033382	0.403515741430306	0.661845932022542	0.631771326259086	-0.801787262328677	0.588431010646764	-0.104336626726726	-0.440808611968319	-0.464444730807058	0.768100813461439	-7.73554927083883	-39.1809290165252	58.6300777937943
46001	1653391556965	6.32362810847607	-1.06893016064627	7.70884712153312	0.0106756610223252	-0.0243216018185348	0.21509916111955	0.00290371095466036	-0.00346331393985731	-0.00298979374179719	0.503662109375	-0.415283203125	0.233642578125	0	0	0	0.108403383796773	-0.322812223171546	0.440488416496878	0.830668965283118	0.403524447006233	0.661812239655813	0.63180106054839	-0.801787988946832	0.588437322626964	-0.104295436718033	-0.440799321062214	-0.464484743324651	0.768081949904907	-7.7327199924951	-39.1831268689769	58.6282319254022
46002	1653391556965	6.32388206131707	-1.06844424160458	7.70870616048897	0.0101855696904482	-0.0239274394964192	0.215100619161175	0.0029911733376715	-0.00199105818651006	-0.00519226576064175	0.509765625	-0.40185546875	0.229736328125	0	0	0	0.108401684212396	-0.322822609426679	0.440480251941365	0.830669480210112	0.403525420985243	0.661797974718521	0.631815380690552	-0.801776032973291	0.588452445019175	-0.104302027308041	-0.440820175999574	-0.464485910022488	0.768069275405732	-7.73332878975746	-39.18418538725	58.6276215225614
46003	1653391556966	6.34673645194838	-1.08286755444427	7.68718501826712	0.0406680785292986	-0.00772206218058171	0.214513927711705	-0.00149460378676235	-0.0016259589320028	-0.0062417625138721	0.5087890625	-0.41357421875	0.225830078125	0	0	0	0.108409102743924	-0.322829232954857	0.440451090355231	0.830681400897435	0.403568246709334	0.66175380255788	0.631834293979157	-0.801744312494462	0.588500606894292	-0.104274124632305	-0.440838663947182	-0.464487825981733	0.768057505584072	-7.7314020513312	-39.185583446795	58.6232187911774
46004	1653391556966	6.32422846507584	-1.06785347073191	7.70850383339087	0.00967697013019505	-0.0235903324223284	0.215101921574755	-0.00139336408659685	-0.000920832614009656	-0.00270344344747426	0.509033203125	-0.416748046875	0.23681640625	0	0	0	0.108384387879298	-0.322848456181977	0.440444463495394	0.830680668717648	0.403555097834337	0.661753938336559	0.631842550092958	-0.8017208675408	0.588522998080568	-0.104327998542517	-0.440893335809861	-0.464459261751031	0.768043397609888	-7.73548854972411	-39.1861937427541	58.624053852602
46005	1653391556967	6.31942537703682	-1.10028988313748	7.69789926918355	0.0383926588227963	-0.0411055044938093	0.207305872580459	-0.00209002804794991	-0.00138130707470794	-0.00405519265343578	0.49951171875	-0.415771484375	0.229736328125	0	0	0	0.108385319763523	-0.322856565984138	0.440423484512537	0.830688518369265	0.40358158418153	0.661723639325609	0.631857365286817	-0.801695287893384	0.588559553499188	-0.104318346202293	-0.440915604485793	-0.464456108951651	0.768032520521378	-7.73488974870004	-39.1872889023969	58.6212161029671
46006	1653391556967	6.28803453038614	-1.09175862237972	7.68648339299241	0.0233041041806737	-0.0511596830772821	0.177817214950176	-0.00329487665029833	-0.000124771876829201	-0.00542275923675586	0.516357421875	-0.418212890625	0.232666015625	0	0	0	0.10834459370011	-0.322874181441034	0.440409431768562	0.830694435026522	0.403583590736149	0.661727984197706	0.631851533366943	-0.801654672215643	0.5886019628505	-0.104391167458589	-0.440987609580298	-0.464396171666153	0.768027423949481	-7.74027453371419	-39.1868577967685	58.621256705354
46007	1653391556967	6.33295549880788	-1.12049008648779	7.69815210580004	0.05937989261153	-0.0439960001517948	0.218160438626661	-0.00149445256279566	-0.0016262498297421	-0.00624199393053029	0.510986328125	-0.412353515625	0.22802734375	0	0	0	0.108352012311858	-0.322880735952914	0.440380310191209	0.830706358573455	0.403626425492798	0.661683892778312	0.6318703464174	-0.80162300268724	0.588650047647731	-0.104363226124041	-0.441005975250449	-0.464398048490799	0.768015743556952	-7.73834413829801	-39.1882484995698	58.6168562181976
46008	1653391556968	6.32469646878227	-1.06732916299492	7.7081924662734	0.00829782729922929	-0.0224369872824692	0.215105804543429	-0.00259821083373028	0.000335464989841835	-0.00407106600662575	0.510009765625	-0.40966796875	0.227783203125	0	0	0	0.10830603591339	-0.322901653147648	0.440374071165196	0.830707531219402	0.403610399679814	0.66169971885675	0.631864010159779	-0.801588511025959	0.588680960060237	-0.104453751745659	-0.441083330292005	-0.464336310584747	0.768008649958487	-7.74504568258619	-39.1877801061499	58.6184768107667
46009	1653391556968	6.30160194442651	-1.11173635366008	7.68673834339789	0.0441350855883508	-0.0540168303521919	0.188673816314347	-0.00200267996662233	9.06139361708072E-05	-0.00625784222902281	0.509521484375	-0.4130859375	0.225341796875	0	0	0	0.108307616005211	-0.322902225380182	0.440344938794765	0.830722545762199	0.403660975444722	0.661663396670765	0.63186973848185	-0.801554477605584	0.588731590386205	-0.104429564356892	-0.441098896318565	-0.464323878330026	0.768007226319589	-7.7432881737098	-39.188203559183	58.6138868115963
46010	1653391556968	6.31997055544609	-1.09949556418899	7.69756518455808	0.0362756039326638	-0.0393496477358197	0.207320809931382	-0.00348294729810025	-0.00230296564796622	-0.00675908053789492	0.503662109375	-0.412841796875	0.232177734375	0	0	0	0.108267617108124	-0.32293341216909	0.440322736290756	0.83072740552842	0.403659798420501	0.661649866587702	0.631884658132794	-0.801502790668274	0.588788021982301	-0.104508094046056	-0.441193884465878	-0.464271600697961	0.767984268781115	-7.7492691355426	-39.1893064720378	58.6134401840391
46011	1653391556969	6.32037637825544	-1.09891458743769	7.69731494501248	0.0362757001003978	-0.0393503156070184	0.207320806960402	0.00519959142428679	-0.00591428223653498	-0.00953518094375697	0.5087890625	-0.4150390625	0.2216796875	0	0	0	0.108317651585345	-0.322941381783165	0.440288288310108	0.830736043195413	0.403710174217871	0.661566196843083	0.631940078193776	-0.801487205140998	0.588827019063982	-0.104407861847163	-0.441176104552647	-0.464341370992079	0.767952300574032	-7.74224547235364	-39.1934034686288	58.6070394307736
46012	1653391556970	6.30771440474501	-1.07757262316587	7.69650929751134	0.0138374220718017	-0.0351361601269301	0.196471094606791	0.00312412347345164	-0.00806350999479091	-0.00784968094078382	0.50830078125	-0.417236328125	0.235107421875	0	0	0	0.108310733879276	-0.322981998169091	0.440273311485984	0.830729092411239	0.403684080103735	0.661530862424305	0.631993735357366	-0.801460531430262	0.588856392239398	-0.104446952460679	-0.441248433459343	-0.464354463076383	0.767902827570469	-7.74560194543184	-39.1973703684606	58.607325435593
46013	1653391556970	6.32162546426471	-1.09734315182245	7.69651334331103	0.0354295540008279	-0.0385852375310866	0.207326809942927	0.0033122157596926	-0.00588600536990937	-0.00651371265640558	0.510009765625	-0.416748046875	0.228759765625	0	0	0	0.108347922297827	-0.322995706751135	0.440248424730352	0.830732102230631	0.403710195885558	0.66146517128473	0.632045809190527	-0.801448826235144	0.588884104512376	-0.104380507658118	-0.441245800732828	-0.464412896709296	0.767869002308158	-7.74107112563527	-39.2012204260879	58.6031471713198
46014	1653391556970	6.29946750017581	-1.08186531262439	7.71761787898091	0.00402006625693143	-0.0538134319403214	0.207913266822327	0.0040089230817115	-0.00542537459293684	-0.00516205131707896	0.509765625	-0.4111328125	0.2255859375	0	0	0	0.108325174899414	-0.323023157961987	0.440254455152377	0.830721199092548	0.403664108277498	0.66147433761445	0.632065651942942	-0.801440497945624	0.58888334240299	-0.104448730451607	-0.441303088524432	-0.464400807189013	0.767843391806552	-7.74632448515346	-39.2026875474206	58.6064089348632
46015	1653391556971	6.30446434454406	-1.10805953293338	7.68492190144394	0.0416257049781991	-0.0516764518860566	0.188696941577188	0.00191907464669718	-0.00680852024573752	-0.00921747983556055	0.50732421875	-0.415771484375	0.235107421875	0	0	0	0.108362918254898	-0.323042236063305	0.44021569233974	0.830729399915728	0.403707715874127	0.661388637022943	0.632127479991678	-0.801411834700573	0.588935244330252	-0.104375999097154	-0.441315251657539	-0.464457047317188	0.767802383333004	-7.74140430304678	-39.2072591485048	58.6003554829453
46016	1653391556972	6.3326453952234	-1.08966448228917	7.67360305797541	0.0425616197739171	-0.0169724882799023	0.195901481616536	0.00451801131723981	-0.00714288501960095	-0.00514675057936725	0.513671875	-0.413330078125	0.229248046875	0	0	0	0.108346995215217	-0.323071825342121	0.440218756639672	0.830718346132169	0.403664083945463	0.661387871875107	0.63215614389879	-0.801403317933164	0.588936749860911	-0.104432881167686	-0.441370625821641	-0.464456227861985	0.767771048595888	-7.74588423748872	-39.2093786750559	58.6030798878409
46017	1653391556972	6.30140660823056	-1.07972784356628	7.71633408526692	0.00318793173958182	-0.0528251963411845	0.207918824477305	0.00224031186129508	-0.0107049286315966	-0.010538254859519	0.514404296875	-0.4111328125	0.224853515625	0	0	0	0.108396786955991	-0.323105620550401	0.44017293392345	0.830722987997551	0.403701092419924	0.661276327578905	0.632249196569451	-0.801370772039245	0.588995849637679	-0.104349292430825	-0.441395869600277	-0.464540103428483	0.767705789092716	-7.74040950937006	-39.2162598111503	58.5964463391582
46018	1653391556973	6.34738733976584	-1.10871685341779	7.67302497522824	0.063239554276789	-0.019594092306548	0.206769118615432	0.00151167784461903	-0.00438617785662804	-0.0056947524531871	0.513671875	-0.413330078125	0.232177734375	0	0	0	0.108367835247668	-0.323137377065526	0.44016727837237	0.830717409759304	0.403670005186945	0.661273846620194	0.632271639952721	-0.801344638780996	0.589018358667989	-0.104422904810305	-0.441471739536435	-0.46451509440297	0.767677295653893	-7.74608766104729	-39.2179195740206	58.5983130018618
46019	1653391556973	6.31200797986965	-1.07288222707462	7.69364400817681	0.0111639246502376	-0.0323540362752965	0.196483813306395	0.00113645561706805	-0.00874336697061843	-0.00836711485539488	0.502197265625	-0.416259765625	0.2314453125	0	0	0	0.10840531778201	-0.32316678156186	0.440129545854852	0.830721073066726	0.403698428321102	0.661183781938221	0.63234767768447	-0.801315772545432	0.589068539884366	-0.10436133378037	-0.441498144549883	-0.464579661436412	0.767623036743061	-7.74211629758344	-39.2235431089891	58.5930480036144
46020	1653391556974	6.34412665650436	-1.08065086885484	7.7045576013415	0.0247239764451382	-0.0205696841242145	0.225984000422573	0.00210684558497709	-0.00463201023888104	-0.00788221976353744	0.510009765625	-0.415283203125	0.23095703125	0	0	0	0.108370237419867	-0.323188650119796	0.440123835800858	0.830720167827437	0.403680211187367	0.661191431992911	0.632351308494642	-0.801287554972465	0.589093801603002	-0.10443537312219	-0.441566010175116	-0.464536740389914	0.767609976150612	-7.74767249080425	-39.2238116446808	58.5944927937056
46021	1653391556974	6.35398798470896	-1.07447694516577	7.68237041979457	0.033615632035244	-0.000919540382883499	0.214542981967371	3.25286127259579E-05	-0.00678145779847421	-0.00619569564368699	0.5048828125	-0.413818359375	0.224609375	0	0	0	0.108395256400847	-0.32321337925307	0.440094538200222	0.830722804133809	0.403699817836289	0.661123543482683	0.632409770111	-0.801262731947966	0.589134531672256	-0.104396063060797	-0.441593128875699	-0.464581708469255	0.767567159723211	-7.74521839959503	-39.2281356229259	58.5906384478232
46022	1653391556974	6.30867792685296	-1.10380962998363	7.68207512893936	0.0379909720431974	-0.0477705190847909	0.188730827756101	0.000305785531799607	-0.00313120745419055	-0.007062438611926	0.509033203125	-0.414794921875	0.22412109375	0	0	0	0.108353816207752	-0.323242234593309	0.440085497216615	0.830721772573673	0.403678425829458	0.661128149308093	0.632418610346271	-0.801226268018918	0.589168411305643	-0.104484690534361	-0.441678838021846	-0.464532187595264	0.767547816576682	-7.75190680163522	-39.2287894936699	58.5921664055332
46023	1653391556975	6.33654791136675	-1.08563245217105	7.670952546528	0.0397491483805148	-0.0140433307011051	0.195917585117629	0.000305842742741164	-0.00313139123059583	-0.00706252560806416	0.50634765625	-0.405029296875	0.22412109375	0	0	0	0.108373237896027	-0.323250808935311	0.440055100502124	0.830732005133222	0.403720846089465	0.661072238384803	0.632449977523687	-0.801199185652122	0.589213499659993	-0.10443809998655	-0.44168919314738	-0.464554568867134	0.767528311661197	-7.74868668348221	-39.231109625838	58.5873332204822
46024	1653391556976	6.30026239005043	-1.10842591024631	7.70330105026991	0.028205716894074	-0.0667689848332644	0.200179732809389	0.001646914421099	-0.0104622643180825	-0.00835241362879604	0.504150390625	-0.406005859375	0.225341796875	0	0	0	0.108367699607826	-0.323309803404875	0.440025890677056	0.830725242326169	0.40369597311233	0.661008550013682	0.632532416640996	-0.801153908636261	0.589267314431143	-0.104481801381625	-0.441794042478767	-0.464576935449789	0.767454425408018	-7.75262688565595	-39.237207755705	58.5864479829749
46025	1653391556976	6.34666006665832	-1.077932262462	7.70285175829885	0.0228271752622796	-0.0189666545209742	0.225991649489764	0.0040955046418628	-0.00395533063822438	-0.00736709935164273	0.50244140625	-0.412109375	0.22705078125	0	0	0	0.108405188376001	-0.323313521178271	0.439999758550999	0.830732745611688	0.40373715899674	0.660946688643425	0.632570771705848	-0.80114214131478	0.589297055216452	-0.10440426295313	-0.441777744861384	-0.464627222065721	0.767433364312942	-7.74715338948116	-39.2400451109395	58.5814624879578
46026	1653391556976	6.30628473826131	-1.07459789682355	7.71306432125811	-0.00124089973071086	-0.0483713772083377	0.207941743938369	3.32922287022369E-05	-0.00678290960938024	-0.00619608003586696	0.5146484375	-0.41650390625	0.229248046875	0	0	0	0.108375149972643	-0.323349755495831	0.439980850460253	0.830732576535594	0.403723573698117	0.66092669456738	0.632600332317854	-0.801099007549292	0.589343356193359	-0.104473865699932	-0.44186836970297	-0.464596935976751	0.767399524978387	-7.75259305621845	-39.2422319658196	58.581549105362
46027	1653391556977	6.33849983707514	-1.08241922787365	7.72388604501785	0.0132047944422878	-0.0377339490004924	0.23743845151194	0.00433287037477678	-0.0093237783219354	-0.00648538693423139	0.505859375	-0.405029296875	0.230224609375	0	0	0	0.108423973325303	-0.323375732406291	0.439955896054131	0.830729310441286	0.403733890435803	0.660845152738312	0.632678931066814	-0.801091879876193	0.589366103071121	-0.104400175034275	-0.441871865714483	-0.464684065417608	0.767344755398097	-7.74773743655729	-39.2480469287202	58.5777528400092
46028	1653391556977	6.33034908080603	-1.08811566934676	7.69065101122182	0.0284820604761664	-0.0311631338354212	0.207374799040208	0.0038232643851626	-0.00760685388032177	-0.00650099807856193	0.510009765625	-0.414794921875	0.235107421875	0	0	0	0.108408594124003	-0.323404592636051	0.439950006297367	0.830723201879491	0.403706922841714	0.660833681354662	0.632708120729393	-0.801073030238342	0.589383137358008	-0.104448636289765	-0.441930674059218	-0.464678773977547	0.767314092363935	-7.75159611578322	-39.2502065872069	58.5790130262983
46029	1653391556978	6.33986961664661	-1.08104894279162	7.72295368285824	0.0124457317911409	-0.0367275305050432	0.237443148455359	0.000628196689376368	-0.00702994342910293	-0.00838381616410808	0.513671875	-0.415771484375	0.233154296875	0	0	0	0.108440176716673	-0.323428064084197	0.439912320742045	0.83072989924268	0.403742874844194	0.660751442922462	0.632771065780058	-0.801041828620149	0.58943575626601	-0.104390986373371	-0.441954386575621	-0.464728974684172	0.767270030872811	-7.74780913357237	-39.2548639353432	58.57357062847
46030	1653391556979	6.34052291257397	-1.08055792002275	7.72248605898204	0.0115638808605928	-0.0353299041661016	0.237449212169203	0.00124043362787667	-0.00803966593577776	-0.00482936301016935	0.515869140625	-0.41162109375	0.22900390625	0	0	0	0.108397718794259	-0.323460382069984	0.439927395842162	0.83071487417698	0.403674535237349	0.660783727494644	0.632780953473787	-0.801033197641466	0.58942764189547	-0.104502972425828	-0.44203244889623	-0.464693361742806	0.767246631582682	-7.75625319220893	-39.255595560803	58.5791311372004
46031	1653391556979	6.33625089210695	-1.11259809312689	7.71155557408138	0.0402888323001633	-0.0528517233967615	0.229703921933414	-0.000578640471348865	-0.00577537395155664	-0.0097510534010831	0.509521484375	-0.4140625	0.224609375	0	0	0	0.10842377196853	-0.323480246518327	0.439882892789964	0.830727305687788	0.403727141486351	0.66069956372146	0.632835272188216	-0.800991357660768	0.589494652605699	-0.104445677277936	-0.44206022234535	-0.464728029117633	0.767209631569117	-7.75242175374824	-39.2596149309462	58.5725624367855
46032	1653391556980	6.33292699664019	-1.08591377864393	7.68883964635202	0.0265827268316806	-0.0288923055036187	0.207386823010113	0.00304241558199942	-0.0095414180633022	-0.00565053404246617	0.505615234375	-0.41259765625	0.238525390625	0	0	0	0.108408016102602	-0.323533255792798	0.439878939584114	0.830710811866058	0.403665501812934	0.660677185241974	0.632897953501869	-0.800971578856826	0.589508441110106	-0.104519508817901	-0.442152340839348	-0.464742353095426	0.76714786888162	-7.75845212120055	-39.2642533867973	58.5755912829404
46033	1653391556981	6.33369868131582	-1.08515683914482	7.68831085894006	0.0265815168902974	-0.0288946115464123	0.207386819570345	0.00372141625454037	-0.00831656068492699	-0.0100415912320001	0.502685546875	-0.416259765625	0.227783203125	0	0	0	0.108458041569032	-0.323554282847277	0.439838620186064	0.830717441410142	0.403709228488006	0.660579098670892	0.632972442711979	-0.800947354106446	0.589557682823658	-0.104427365060514	-0.442156301304756	-0.464819312230838	0.767098958540388	-7.75218375217286	-39.2697660334465	58.5690449793802
46034	1653391556981	6.35701660862922	-1.09930024887816	7.66640529794714	0.0563681004748686	-0.0111030949704279	0.206823139773826	3.40700817511562E-05	-0.00678581004950399	-0.00619667955574101	0.503173828125	-0.41162109375	0.233154296875	0	0	0	0.108404866243512	-0.323571632193185	0.439846857412546	0.830713263309833	0.403672281728292	0.660619757539308	0.632953572478251	-0.800926715571696	0.589566253998068	-0.104537210744414	-0.442227413496507	-0.464750651527668	0.76709956762913	-7.76023277000073	-39.2683694823832	58.5729472377455
46035	1653391556982	6.30338976649941	-1.07567315498841	7.67616745948189	0.0114457349067941	-0.0379513818890571	0.177896744260849	0.00202256092707211	-0.00610736874307862	-0.00568158779235094	0.501708984375	-0.41259765625	0.23193359375	0	0	0	0.108435720367447	-0.32358914235102	0.439823588709219	0.830714735824439	0.40369055553495	0.660558629100037	0.633005713160128	-0.800913116115706	0.589593810726673	-0.104485974114375	-0.442235362455009	-0.464802577310281	0.767063523001849	-7.75683561577326	-39.272228385516	58.569434189065
46036	1653391556983	6.3443076223263	-1.0770984461746	7.71986054663028	0.00931947904115812	-0.0313854081569023	0.237464636272845	0.000815260414844907	-0.00485257274415808	-0.00704845147146935	0.50244140625	-0.41015625	0.223388671875	0	0	0	0.108389871728165	-0.323592659834919	0.439822479668948	0.830719936311614	0.403687953757641	0.660590270814644	0.632974351846901	-0.800886938381374	0.58961564416922	-0.104563397424839	-0.442285143228978	-0.464729906780219	0.767078852415429	-7.76236008491036	-39.269907326538	58.5708196433374
46037	1653391556984	6.33593662131416	-1.08307837146664	7.68675981847619	0.0253693723910417	-0.0258198708879258	0.207398356645379	3.43904720100388E-05	-0.00678662773023892	-0.00619693196328633	0.51025390625	-0.417236328125	0.226318359375	0	0	0	0.108414637525502	-0.323616606274214	0.439793941236755	0.830722485409668	0.403707162790003	0.660523877731717	0.633031384418103	-0.800862985997525	0.589655111243311	-0.104524291166054	-0.442310981517725	-0.464774199725946	0.767037117027548	-7.75990942835042	-39.274128379246	58.567044135197
46038	1653391556985	6.34534873402669	-1.07619245062988	7.71913119344906	0.00817273017292824	-0.0304828067848859	0.237468412409394	0.00081531596382148	-0.0048530120617962	-0.00704869789397428	0.51220703125	-0.416748046875	0.231689453125	0	0	0	0.108377795575965	-0.323659946116514	0.439783372736314	0.830716003078442	0.403669648689055	0.660515068287048	0.633064498525238	-0.800825274192421	0.589689676981534	-0.104618187118913	-0.44241348865274	-0.464742863772184	0.766996985411899	-7.76719666473885	-39.2765793128741	58.5690732723069
46039	1653391556986	6.30945529534784	-1.09990997196352	7.69699506969076	0.0224606510016243	-0.0586493235239507	0.200245120251369	3.46338173762058E-05	-0.00678714772369877	-0.00619714018612007	0.514404296875	-0.41943359375	0.231201171875	0	0	0	0.108402317869649	-0.323684238802811	0.439754943975649	0.830718388071497	0.403688205599238	0.66044879292365	0.633121808648037	-0.80080127990004	0.589729053458924	-0.104579891073284	-0.442439987761646	-0.464787086128839	0.766954902062265	-7.76480896858272	-39.280821312099	58.5653430298636
46040	1653391556987	6.35095115124828	-1.10190010876221	7.68600058465444	0.0446371369454905	-0.0269827412630495	0.218297070083016	0.00571039600156854	-0.00763964937301628	-0.00952845132912155	0.513671875	-0.416015625	0.22509765625	0	0	0	0.108384128562743	-0.323713708057736	0.439769741805146	0.830701444614033	0.403624018816292	0.660463863326846	0.633147010317479	-0.800805575933454	0.58971090973666	-0.104649283282066	-0.442490769382226	-0.464788691963281	0.766924631782411	-7.77020119056895	-39.2826867787466	58.5699787686237
46041	1653391556988	6.34236409677495	-1.10656700586638	7.70739686636724	0.0357340018842446	-0.0465971643777008	0.229752131453624	0.003722229336472	-0.00831942161061766	-0.010043565760413	0.512939453125	-0.415283203125	0.23388671875	0	0	0	0.108433445973973	-0.323734145875265	0.439730630428873	0.830707748399669	0.403666350914076	0.660368065778481	0.633219941915683	-0.800782501845264	0.589758320913671	-0.104558632601654	-0.442493911684843	-0.464864647626678	0.766876781177244	-7.76403101524897	-39.2880855686803	58.563606764186
46042	1653391556989	6.32973256219038	-1.08538460991786	7.70652477277011	0.0130743632459103	-0.0420885324970585	0.218870626245412	0.00253423615023029	-0.00782671704993185	-0.00566741453955934	0.5048828125	-0.415771484375	0.232421875	0	0	0	0.108406928216814	-0.323777588798473	0.439742625432011	0.830687928336872	0.403588992740019	0.660378313388889	0.633258563419986	-0.800777248697246	0.589748722585515	-0.104652960672995	-0.44257397450366	-0.464862267144152	0.766832021812883	-7.77139787042167	-39.2909447091251	58.5688887598871
46043	1653391556990	6.32107377204109	-1.09039287721024	7.72793827319442	0.00416868284545818	-0.061702859664285	0.230326901777769	0.00192032807703154	-0.00681907700302969	-0.00922235903235795	0.509765625	-0.407470703125	0.234375	0	0	0	0.108444114396573	-0.323796303914364	0.43970478863933	0.830695808627792	0.403631304838077	0.660294243066768	0.633319257821515	-0.800749456758276	0.58979914580077	-0.104581428150552	-0.442585672221818	-0.464917713348896	0.76679165524828	-7.76655464722194	-39.2954381366147	58.562970027964
46044	1653391556991	6.3087050046426	-1.07004380676067	7.67258688966638	0.00728659592245904	-0.031698024491893	0.177922441073576	0.00331478010428824	-0.00589321060710108	-0.00651963907116045	0.51171875	-0.41064453125	0.221435546875	0	0	0	0.108418936242714	-0.323788725586107	0.439707672317707	0.830700522662811	0.403636048176538	0.660321128035475	0.633288203334299	-0.800740444817193	0.589804994337885	-0.104617439693631	-0.442597650972518	-0.464872107707104	0.766812390894646	-7.76898880099569	-39.2931390238533	58.5637085184085
46045	1653391556993	6.34498026746955	-1.10375917329958	7.70564600942151	0.0343996717884876	-0.0440602496410599	0.229768241649852	0.00363975652995022	-0.00979215323613243	-0.00784109766305924	0.506103515625	-0.412353515625	0.236572265625	0	0	0	0.10846761976931	-0.323816189944721	0.439676985436323	0.830699704507526	0.403654447214623	0.660231941029286	0.633369458758913	-0.800726226493568	0.589837847878415	-0.104541013078741	-0.442606594448419	-0.464957091842742	0.766755701182529	-7.76394950671242	-39.2991549126742	58.5591022018312
46046	1653391556994	6.33247436720851	-1.08254220155075	7.70467189182078	0.0122249660750169	-0.0396546166097551	0.218881613821201	0.00363992039719812	-0.00979267882536113	-0.00784134690177292	0.5166015625	-0.418212890625	0.23193359375	0	0	0	0.108462678998342	-0.323848002782756	0.439662033505024	0.83069586170412	0.403639534775695	0.660200019621923	0.633412235481186	-0.800701707502244	0.58986628711746	-0.104568345713484	-0.442664547449931	-0.464966340086544	0.766716636716247	-7.76634550195571	-39.3023221705599	58.558811372343
46047	1653391556995	6.33333506290186	-1.08167299780474	7.70408649553515	0.0122321585347224	-0.0396272913188571	0.218881713032715	0.00423387513353041	-0.0100402127547635	-0.0100300575709659	0.503173828125	-0.41259765625	0.236572265625	0	0	0	0.108517948238624	-0.323873948519676	0.439623073676475	0.830699147388272	0.403674437123045	0.660096752187924	0.633497613700594	-0.800681297713113	0.589910816002655	-0.104473387307613	-0.442669637885679	-0.465056455620213	0.766659040760707	-7.7599546742219	-39.3086441409069	58.5526174964891
46048	1653391556996	6.33429887063394	-1.08070496679671	7.70342994120409	0.0117154577064167	-0.0379926944553247	0.218888653676256	0.00665127785574599	-0.0125495812639759	-0.00729765337999912	0.509765625	-0.414306640625	0.23291015625	0	0	0	0.108514261465316	-0.323889843463545	0.439647794668012	0.830680348270832	0.403610371889428	0.660120232063528	0.633513967425875	-0.800706900701781	0.589868943404382	-0.104513581775509	-0.442681744452858	-0.465076239800952	0.766640048719594	-7.76309376289679	-39.3098551445024	58.5575719053855
46049	1653391556996	6.30805052784263	-1.09869665381095	7.6591977756765	0.0349377946105567	-0.0465334798672427	0.17022605466023	-0.0039408013236038	-0.00815161999794841	-0.00722571163362825	0.5078125	-0.416259765625	0.232177734375	0	0	0	0.108526803582328	-0.323926922449823	0.439608648902515	0.830684968942194	0.403631169444582	0.660043086745132	0.633581094014615	-0.800662100696092	0.589932337428615	-0.10449898451627	-0.442743808044472	-0.465105322368997	0.766586563632778	-7.76255767869928	-39.314826130004	58.5532776676632
46050	1653391556997	6.34937501604424	-1.09995040770785	7.70257005266581	0.0326906106535992	-0.0398314449788563	0.229791613544922	0.00864007000436457	-0.0118702801301146	-0.00678470683857044	0.512451171875	-0.414794921875	0.226318359375	0	0	0	0.108529708490538	-0.32394239052571	0.439636379561356	0.830663881339276	0.403562362773345	0.660065376425799	0.633601703120078	-0.800694869271732	0.589882312282285	-0.104530301723607	-0.44274727065756	-0.465137137305088	0.766565259990895	-7.76506881769913	-39.3163523854444	58.5584861313602
46051	1653391556998	6.31877417001073	-1.09057871583099	7.6906756761604	0.0182848549162961	-0.0504733441446977	0.200298167987013	0.0035366779149681	-0.0105066053525725	-0.0113826514143044	0.51171875	-0.419677734375	0.22607421875	0	0	0	0.108585046913793	-0.323970204601325	0.439591201497254	0.830669711548162	0.403605764193553	0.659953553363055	0.633690535287704	-0.800666832824279	0.589937726305861	-0.104432283783367	-0.442758410337824	-0.465225522176664	0.76650518823461	-7.75847681796825	-39.3229314402139	58.5514233598222
46052	1653391556999	6.32895422051833	-1.08380036919091	7.66823360325619	0.025736054664772	-0.0298616333887722	0.188839375512444	0.0068159974084013	-0.00961062488996663	-0.0117067527454667	0.505859375	-0.4189453125	0.231689453125	0	0	0	0.108588000904887	-0.324025584846652	0.439591403627161	0.830647617393421	0.403533636443775	0.659920523097992	0.633770863524457	-0.800661685100131	0.589936087833166	-0.104480994849385	-0.44283345658507	-0.465274451766021	0.76643213284853	-7.76278240076491	-39.328881212885	58.5547047109203
46053	1653391556999	6.32980418117572	-1.08278074298851	7.66767606043867	0.025739704297942	-0.0298172913379134	0.188839498414595	0.00364138190004747	-0.00979673132450509	-0.00784312818608143	0.51123046875	-0.41552734375	0.232177734375	0	0	0	0.108636168149712	-0.324052701766993	0.43956155221875	0.830646538100475	0.403550976577112	0.659832875668096	0.633851075167686	-0.800648250862206	0.589967649561582	-0.104405703206639	-0.442841944371747	-0.465358731150877	0.76637605889452	-7.75781714749017	-39.334822854837	58.5502216896355
46054	1653391557000	6.35299165010089	-1.095798783576	7.70017931780455	0.0304295123551981	-0.0370629962235971	0.2298093182775	0.00673491052113779	-0.0110824656024986	-0.00950385272942587	0.50830078125	-0.414306640625	0.231689453125	0	0	0	0.108626899153655	-0.324071913725503	0.439588724269608	0.830625875475578	0.403478296458617	0.659861683709687	0.633867354151222	-0.800673392072856	0.58992390055056	-0.104460091833005	-0.442862714069947	-0.465373344671813	0.766355183029103	-7.76201807664697	-39.3360287749707	58.5559282807392
46055	1653391557001	6.32225054227207	-1.08647991980115	7.68839844857999	0.0160171194409376	-0.04770284625051	0.200315634527179	0.0044204858374526	-0.00786343711361243	-0.00869619915436651	0.5009765625	-0.413330078125	0.223876953125	0	0	0	0.108675080710266	-0.324088556477283	0.439558222400651	0.830629221441834	0.403510353360901	0.659779108037134	0.633932901282371	-0.800660508166903	0.589956591905194	-0.104374184210102	-0.442856800097364	-0.465448974932089	0.766312668786176	-7.75613738367496	-39.340884608383	58.5507108124866
46056	1653391557010	6.34132891801068	-1.07342954192968	7.69866188626917	0.00802318503645531	-0.0323042365152557	0.218912217323201	0.00665443778789302	-0.0125540554215133	-0.00730067340256817	0.518310546875	-0.412841796875	0.2314453125	0	0	0	0.108672938587862	-0.324127502541524	0.439564752701475	0.830610849132953	0.403448380557372	0.659766728623912	0.63398522697815	-0.800662281337241	0.589946041202341	-0.104420207400349	-0.442910053475286	-0.465479894593298	0.766263109029746	-7.76001150088075	-39.3447612194396	58.5541492667611
46057	1653391557010	6.31488420882438	-1.09021151454025	7.708975267562	0.00628008902775826	-0.0659791348678018	0.211794195693669	0.00474727752012953	-0.0117655001546359	-0.0100181372383161	0.501953125	-0.417724609375	0.222412109375	0	0	0	0.108732793150281	-0.32415893964443	0.439527645296493	0.830610384333387	0.403472861737437	0.659659038905394	0.634081699966034	-0.800645866634082	0.589985257427716	-0.104324456671055	-0.44291742580662	-0.465582805103844	0.766196323084674	-7.75364991828649	-39.3519090985946	58.5484389513947
46058	1653391557011	6.33401974125289	-1.07720089935737	7.71918340231356	-0.00200151176097275	-0.0508527880530252	0.230388367633273	0.00364234496614856	-0.00979991624076384	-0.0078442092266421	0.510986328125	-0.416015625	0.223388671875	0	0	0	0.108721077092811	-0.324210017562723	0.43953250691359	0.830589409560472	0.403398079756468	0.659645166172589	0.634143709259921	-0.800639015427382	0.589981805524068	-0.104396533113093	-0.442997918984126	-0.465606834030277	0.766135183815516	-7.75955322493707	-39.3565038788967	58.5526298381885
46059	1653391557012	6.33483162842333	-1.07636236249095	7.71863411271713	-0.00201475150097569	-0.0507857202362627	0.230388704357729	0.00563073146709701	-0.00911937047618604	-0.00733152276242665	0.5048828125	-0.416748046875	0.227783203125	0	0	0	0.108774165351116	-0.324230335800748	0.439509556397096	0.83058667225903	0.403412078364324	0.659565791431336	0.63421736163821	-0.80063732806429	0.589999061575592	-0.104311918063063	-0.442988220994477	-0.465697406170011	0.766085740597404	-7.7538348258104	-39.3619617840771	58.548675998677
46060	1653391557013	6.34951990725163	-1.09664341440204	7.66374599834749	0.0431778032255588	-0.0278858547768402	0.199774390160158	0.00647050226274496	-0.0147396500282084	-0.0086383960649972	0.507080078125	-0.416748046875	0.2216796875	0	0	0	0.108776098687579	-0.32430104663448	0.439522008358507	0.830552223327706	0.40329847064057	0.659539557180838	0.634316889332674	-0.800644367793627	0.589976329045629	-0.10438643343934	-0.443078931906403	-0.46576335587887	0.765993183012181	-7.76023249777263	-39.3693378205435	58.5548444251225
46061	1653391557014	6.32804188947917	-1.08069195080831	7.68444872127124	0.01267294133875	-0.0440296354499773	0.200337251266349	0.0085391417559656	-0.0125894675791004	-0.010330332067109	0.506103515625	-0.41357421875	0.22021484375	0	0	0	0.108853243060977	-0.324328237785833	0.439489787542415	0.830548549029957	0.403319841641318	0.659426849715194	0.634420471937277	-0.800643571712153	0.589999396242062	-0.104262090474003	-0.44306091727259	-0.465893702800004	0.765924331299687	-7.75178940844166	-39.3770151954728	58.5491347776175
46062	1653391557015	6.3200054226941	-1.08506585737418	7.70550368760583	0.00196288783539129	-0.062927109135579	0.211815593872856	0.00827441680320651	-0.0162438343756496	-0.00946282457158487	0.50537109375	-0.418212890625	0.2373046875	0	0	0	0.108870248478682	-0.324431650073792	0.439481904389134	0.83051010176944	0.403199520289792	0.65934641356433	0.634580533705485	-0.80063023099586	0.590005849421379	-0.10432799654969	-0.443194517174566	-0.465999361124468	0.765782746853172	-7.75804648007455	-39.3888803752757	58.553632977773
46063	1653391557015	6.33976708251999	-1.07163713176564	7.71523867793878	-0.00526377913358782	-0.0487345275514809	0.230397689999936	0.00981319372590119	-0.0214008586721664	-0.00941920650415854	0.5107421875	-0.414306640625	0.2255859375	0	0	0	0.108969954031001	-0.324494146231068	0.439450921623071	0.830489003939779	0.403172873092808	0.659198091962067	0.634751534031751	-0.800638540754581	0.59001687320623	-0.10420180607993	-0.443203747119162	-0.466195200410208	0.765658196360504	-7.75002195091712	-39.4015586462258	58.5495810632957
46064	1653391557016	6.36396405272617	-1.08502155491323	7.69264124733175	0.0247102758613111	-0.0306742083479907	0.229846565724861	0.00886729511887724	-0.0164957755643533	-0.0116538759272148	0.509033203125	-0.4169921875	0.223876953125	0	0	0	0.108986911187709	-0.324512781694007	0.43947301757322	0.830467804633068	0.403109842684611	0.659201092763482	0.634788448248878	-0.800671675634527	0.5899706400297	-0.104208981088698	-0.443201221306289	-0.466249464559882	0.76562661541396	-7.75086491956959	-39.4042958349329	58.5536843398187
46065	1653391557017	6.34281277579643	-1.06895875556051	7.71310662471932	-0.00581746237260199	-0.0468061204880588	0.230406557080288	0.00680045725243612	-0.0186486337328012	-0.00996207995388674	0.508056640625	-0.414306640625	0.22998046875	0	0	0	0.109068595526187	-0.324569764865281	0.439437026210542	0.830453857357817	0.403099135461064	0.659063610156543	0.634937984970161	-0.800665083773027	0.589998282930361	-0.104103072797865	-0.443222867886208	-0.466408816283151	0.765517018410482	-7.74417837703349	-39.415385080085	58.5490424664681
46066	1653391557018	6.35816493631267	-1.08895708532973	7.65767223089257	0.0397046010944894	-0.0237990920876422	0.199799313642865	0.0103287161642761	-0.0231248022444886	-0.00940717502192535	0.506103515625	-0.416748046875	0.21826171875	0	0	0	0.109109719683397	-0.324650003330215	0.439450546854893	0.830409935680708	0.402971184413253	0.6590032589801	0.635081828732477	-0.800693142414394	0.589956571879092	-0.104123652390953	-0.443288524804266	-0.466546833608671	0.765394888816603	-7.74691162843086	-39.4260538152729	58.5548031646644
46067	1653391557019	6.34134956378838	-1.09898736840083	7.70026474557562	0.0218334521774078	-0.0629485374865915	0.222756081491388	0.00628794376826743	-0.0169332564867088	-0.00997812596335765	0.512451171875	-0.420166015625	0.236083984375	0	0	0	0.109185130724616	-0.324701208326098	0.439414950138799	0.830398840398238	0.402967253812178	0.658874242342765	0.635218171286306	-0.800684417852867	0.589986217646331	-0.104022718648338	-0.443307856193285	-0.466691542418141	0.765295465080442	-7.74048640036601	-39.4361677019683	58.5500588326325
46068	1653391557020	6.36590364503489	-1.05306203678507	7.72041584078666	-0.0154837156297752	-0.0297266742843395	0.248990715363009	0.00930347900018888	-0.0196904729506073	-0.00943835709981149	0.508056640625	-0.40966796875	0.2314453125	0	0	0	0.109202574827658	-0.324775343048262	0.439455525181566	0.83034608181546	0.402799635870555	0.658867739530524	0.635331216884929	-0.800732954336149	0.589907278076808	-0.104096777625983	-0.443372517396658	-0.466800498155206	0.765191548397786	-7.74696952229293	-39.4445545347661	58.5604164583737
46069	1653391557021	6.35366287828753	-1.09082011682777	7.67618278789907	0.0292747951989235	-0.0416488176684623	0.21128942466976	0.00809202839609979	-0.0184391023926069	-0.0108042597441626	0.50390625	-0.416015625	0.2275390625	0	0	0	0.109289521033446	-0.324828683256382	0.439419177037339	0.830333013903478	0.402794226771506	0.65872775685077	0.635479781923782	-0.800729241694829	0.589933174888215	-0.103978510573746	-0.443384136358495	-0.46696530012482	0.765084254252411	-7.73934674136649	-39.4555780846465	58.555340775885
46070	1653391557022	6.35105659558647	-1.06346173855057	7.65279170370539	0.0164179617073438	-0.0170924892807097	0.188888985765297	0.0093047392461677	-0.0196937659522016	-0.009440037985248	0.511474609375	-0.409423828125	0.22265625	0	0	0	0.109322520090217	-0.324857245892774	0.4394214267108	0.83031630487395	0.402753159076812	0.658689125036771	0.63554585154176	-0.800745976199033	0.589914792697137	-0.103953927093454	-0.443391220543106	-0.467043010776723	0.765032712784171	-7.73805408289709	-39.4604810217478	58.5564452941991
46071	1653391557023	6.36572992873771	-1.08179053750187	7.70669276019487	0.0129227440063438	-0.0454811278085515	0.241349923199175	0.00698802202308641	-0.0164731479159855	-0.00863003479678928	0.50732421875	-0.405029296875	0.23486328125	0	0	0	0.109396789734552	-0.324905628652673	0.439393894819396	0.830302161903139	0.402738675330505	0.658572136108593	0.635676254814032	-0.800746667073748	0.589930695182431	-0.103858317201162	-0.44340312872522	-0.467187881288608	0.764937349731171	-7.73197539654304	-39.4701590861474	58.5528328276178
46072	1653391557024	6.35791346753272	-1.08632361388474	7.72759944119971	0.00452524181348834	-0.0645680262436822	0.252836266491572	0.00628968331469172	-0.0169407802286973	-0.00998095332159075	0.51025390625	-0.412353515625	0.224853515625	0	0	0	0.109453442647112	-0.324927796205823	0.439326960546852	0.830321439493277	0.402827497978984	0.658436256766003	0.635760727513084	-0.800694120391869	0.59002353125872	-0.103736002096092	-0.443417334394904	-0.467262162321072	0.764883742291045	-7.72351406019576	-39.4764290661971	58.5419460324516
46073	1653391557025	6.33687258105862	-1.07121497230397	7.69357965590264	-0.00101894278037706	-0.0555754826826624	0.211859187035353	0.0121784339394966	-0.0163630284543765	-0.0062462107527283	0.506591796875	-0.41015625	0.2236328125	0	0	0	0.109545575995076	-0.324965222346561	0.439317492254612	0.830299651959626	0.402795490528737	0.658333316916917	0.635887597494152	-0.800727326758204	0.589999815558051	-0.103614505857652	-0.443386446559177	-0.467437120347364	0.764794742090314	-7.71546417230274	-39.4858470434189	58.539984761417
46074	1653391557026	6.38818076744324	-1.06596664313821	7.71448587818228	0.00533259218013626	-0.0300650991088626	0.259923915399762	0.00930678712470237	-0.0197000493022178	-0.00944280689682895	0.512451171875	-0.409423828125	0.2236328125	0	0	0	0.109593851949704	-0.325044187553967	0.439288345098783	0.830277793038319	0.402744051995509	0.658217026216343	0.636040545076455	-0.800708404487948	0.590029874950399	-0.103589563414384	-0.443467337652509	-0.467562929523858	0.764670927504416	-7.71486318324172	-39.4972025430045	58.5387362246243
46075	1653391557027	6.38061553723485	-1.07152646665145	7.68073016350865	0.021350161413029	-0.0244711275726697	0.22987130244498	0.00190800362204831	-0.0158742198384284	-0.00747544496065247	0.50341796875	-0.416259765625	0.2353515625	0	0	0	0.109644116238823	-0.325101887750311	0.439257297812202	0.830264991839422	0.402723577799814	0.658108895226996	0.63616538880013	-0.800690931906819	0.590062388185861	-0.103539410905161	-0.443517475919841	-0.467674096002228	0.764573860710784	-7.71214020547216	-39.5064728640385	58.5358421803433
46076	1653391557028	6.35437925961366	-1.08852752164239	7.69100361447208	0.0194684379798839	-0.0567225739282488	0.222798069958417	0.00666020257699302	-0.0125733142392677	-0.00731159471933603	0.513427734375	-0.41259765625	0.234375	0	0	0	0.109653035209666	-0.325106493353511	0.439275276038856	0.8302524987675	0.402685999680741	0.658120963630921	0.636176691565033	-0.800716618681255	0.590026887460589	-0.103543076259244	-0.443505222324135	-0.467701902180308	0.764563959697383	-7.71250860649837	-39.5073122164523	58.5386902609443
46077	1653391557029	6.35561224810789	-1.08755625136618	7.69012217135433	0.0194021058261003	-0.0566048635430538	0.222798863053212	0.00500167989417162	-0.0171636672560284	-0.00914276945177525	0.51025390625	-0.41552734375	0.22998046875	0	0	0	0.109721501960382	-0.325161441992648	0.43924206136718	0.83023950771734	0.402672896334345	0.6579978220064	0.636312348452035	-0.800706629186548	0.590055207066937	-0.103458912568762	-0.44353515366251	-0.46783941566314	0.76446245729764	-7.70732587055049	-39.5173869972574	58.534746910695
46078	1653391557030	6.35273439695107	-1.06050128718081	7.66686794709364	0.00690530272232596	-0.032046872876615	0.200388410850765	0.00577681545149592	-0.0152289931483822	-0.0099984206912386	0.50634765625	-0.415283203125	0.221923828125	0	0	0	0.109746888105827	-0.325160882265582	0.439257864484945	0.83022801065941	0.402645858264788	0.657997576070887	0.636329712261693	-0.800739155920459	0.590016298078426	-0.103429068339717	-0.443500977448758	-0.467888830692364	0.764452042390711	-7.70523300616905	-39.5186766544924	58.5364502919532
46079	1653391557031	6.39010631820218	-1.09448901682384	7.64472373318276	0.0588876551886377	-0.0190822574760461	0.210751849452977	0.00879483012827362	-0.0179865076505051	-0.00946132108606566	0.5078125	-0.414306640625	0.23095703125	0	0	0	0.109833445649327	-0.325210101395174	0.439229358499861	0.830212367288718	0.402631921164682	0.657869399013351	0.63647104403975	-0.800745182998147	0.590028369697194	-0.103313478586945	-0.443502748542217	-0.468053818266963	0.764350008334673	-7.69774023499901	-39.5291746397841	58.5323635359311
46080	1653391557032	6.3780073445557	-1.07182564881638	7.69792918651023	0.0112618419125471	-0.0392786722706712	0.241378065442571	0.0088703495127414	-0.0165193725826972	-0.0116672375340075	0.513671875	-0.412353515625	0.22265625	0	0	0	0.109851816964151	-0.325259997996472	0.439248930119311	0.830180034331139	0.402532622184752	0.657850580241395	0.636553298752845	-0.800772187304068	0.589985911397431	-0.103346641903846	-0.443544126460183	-0.468133782618392	0.76427702402602	-7.70090804769759	-39.5352851696139	58.5379258550372
46081	1653391557033	6.3795026337386	-1.07156429304914	7.64236407812967	0.0361882622738476	-0.0140547900623772	0.199831060185707	0.00570309005838093	-0.0167015598447465	-0.00779457634414299	0.507568359375	-0.416259765625	0.23193359375	0	0	0	0.109919460699009	-0.325311727590777	0.439223606202157	0.830164210145388	0.402509807293354	0.657739256928362	0.636682750612888	-0.800771615551727	0.590000671828824	-0.103266775722949	-0.443565862932827	-0.468271584806149	0.764179984103087	-7.69599357494341	-39.5449029658837	58.5350546495915
46082	1653391557034	6.37150945213661	-1.07617945990339	7.66344619244694	0.0264952949917581	-0.032516742634455	0.211330939965189	0.00865046271920862	-0.0118951041539421	-0.00680649921012067	0.509521484375	-0.419189453125	0.233642578125	0	0	0	0.109937513785744	-0.325342656089798	0.439252100178832	0.830134622624264	0.402419497233841	0.657742027359815	0.636736973711016	-0.800811478315667	0.589942671102189	-0.103289016892849	-0.443575838435706	-0.468340762967965	0.76413179838209	-7.69811082268426	-39.5489319384197	58.540885939734
46083	1653391557034	6.34992944272102	-1.06036512393439	7.68431163282487	-0.00404464044427427	-0.0486076628924166	0.211894630396907	0.00474811363639713	-0.0117950659782805	-0.0100289705943287	0.517822265625	-0.41650390625	0.233642578125	0	0	0	0.109993801449533	-0.325374984968383	0.43921889300043	0.830132065897338	0.402435766376603	0.657640911068663	0.636831128345384	-0.800797837041692	0.589976255348315	-0.103202918149284	-0.443585705507092	-0.468440444682095	0.76406496559901	-7.69243549555475	-39.555928524585	58.5359330071261
46084	1653391557035	6.35102386887065	-1.05935665403577	7.68354623462808	-0.00409891576203612	-0.0465927923228412	0.211904175658264	0.00717783299145411	-0.0143005116252227	-0.00730151871213466	0.509521484375	-0.416015625	0.22412109375	0	0	0	0.110009511106138	-0.32536293053954	0.439296651617677	0.830093562662914	0.402314830616441	0.657728611372982	0.636816968090073	-0.800900679055842	0.589832718687372	-0.10322531789127	-0.443509728589977	-0.468498065894868	0.764073741793822	-7.69399779124741	-39.5548762376555	58.5470003649732
46085	1653391557036	6.36123323171903	-1.05185913173724	7.71539491126651	-0.0202544646128802	-0.0519063653355611	0.241958816271326	0.00467441343273062	-0.0132652147675281	-0.00782420325941706	0.504638671875	-0.40869140625	0.231689453125	0	0	0	0.110064930748338	-0.325402026883132	0.439272304167759	0.830083775718368	0.402306727382995	0.65763492251564	0.636918837678894	-0.800896328732682	0.589851107621023	-0.103153969680103	-0.443524934727345	-0.468606422839146	0.763998463839426	-7.68949194072812	-39.5624467984495	58.5438808364795
46086	1653391557037	6.39834181619398	-1.08703331748632	7.63889692784679	0.0564436507010799	-0.0125441437596775	0.210776224651571	0.00544810491828989	-0.0113296845920585	-0.00868045023312662	0.51611328125	-0.4111328125	0.23046875	0	0	0	0.110067021973562	-0.325412234307464	0.439280951700314	0.830074920660877	0.40227824647258	0.657637891172975	0.636933761476426	-0.800906513348917	0.589834992294275	-0.10316704289885	-0.443532376822963	-0.468622541027185	0.763984256873791	-7.69059610591673	-39.5635559477814	58.5458016399127
46087	1653391557038	6.35412807815123	-1.05647761288768	7.6813758403781	-0.00454930815718905	-0.0448569572537951	0.21191189899182	0.00743681397086402	-0.0106462083163753	-0.00817300786453357	0.507568359375	-0.4189453125	0.2275390625	0	0	0	0.110128434338489	-0.325433965530742	0.439261567206845	0.830068513801165	0.402284019307845	0.657555326313781	0.637015353540167	-0.800913458731646	0.589842007050279	-0.103072975805546	-0.443514598893923	-0.468729559079942	0.763928924058178	-7.68421756827038	-39.5696202530452	58.5422332822042
46088	1653391557039	6.3776729500493	-1.0702058618257	7.65915462863746	0.025403550771305	-0.0272938869662983	0.211349347863138	0.00666387512608357	-0.0125833319453299	-0.00731730248420904	0.51220703125	-0.408935546875	0.2265625	0	0	0	0.110144951390263	-0.3254544775989	0.439299306358202	0.830038307626381	0.40219100488806	0.657576170352262	0.637052569080438	-0.800964840811759	0.589768418232878	-0.103094794429607	-0.443506166102036	-0.468792910611864	0.763894945388128	-7.68616251767955	-39.572386462875	58.5489395291904
46089	1653391557041	6.35603493732578	-1.05441345563321	7.68008173798191	-0.00512450438667957	-0.0433650992794706	0.211918186046057	0.00622169459968309	-0.00939564733993299	-0.00953747690161252	0.511474609375	-0.413818359375	0.225341796875	0	0	0	0.110200582552055	-0.325472815897635	0.43927329066483	0.830037501457219	0.402212844440311	0.657492021447099	0.637125630861483	-0.800961197114208	0.589789615427358	-0.103001797321329	-0.443492940738192	-0.468884262123882	0.763846555433703	-7.67979263447846	-39.5778174243631	58.544290702983
46090	1653391557042	6.352148795259	-1.08580360945814	7.66913658397728	0.023108168680582	-0.060429897653487	0.20430987876386	0.00732633724452176	-0.0113693759167611	-0.011715297162904	0.511474609375	-0.4189453125	0.2294921875	0	0	0	0.110242977303605	-0.32551037103465	0.439235852247586	0.830036957252181	0.402229728898442	0.657393515739188	0.637216612035779	-0.800934445523432	0.589836704111147	-0.102940159594654	-0.443525939674738	-0.468963141352676	0.763778968608243	-7.67592282297333	-39.5845809978062	58.5393983233264
46091	1653391557042	6.37139596463227	-1.07245931627768	7.67917371957396	0.0158413115832671	-0.0461141009457208	0.222858804903991	0.00666519452708139	-0.0125854897485506	-0.00731826670264001	0.5078125	-0.41357421875	0.228759765625	0	0	0	0.110303891110782	-0.325542435693916	0.439217809069438	0.830025837166854	0.402219677517431	0.657307064585462	0.637312132211381	-0.800941454100344	0.589841535604128	-0.102857911605244	-0.443522398669336	-0.469078229853197	0.763710348336587	-7.67054382540214	-39.5916827126939	58.5366810629708
46092	1653391557043	6.37242911495909	-1.07154460098617	7.67844410397954	0.0151334431206365	-0.0442406661829537	0.222868331028414	0.00346107106882089	-0.0120191748946016	-0.00918927725012941	0.505859375	-0.420166015625	0.225830078125	0	0	0	0.110289787915647	-0.325560015364667	0.439274125334824	0.829991013137254	0.402097838414166	0.657375262566495	0.637318674219018	-0.800999042760031	0.589748810985694	-0.102941116365011	-0.443528873738982	-0.469099247608213	0.763693678154558	-7.67684035955594	-39.5921691232032	58.5470548034307
46093	1653391557044	6.36447473063642	-1.07701016059358	7.6450028306209	0.0311579019112891	-0.0386037155067236	0.192815941261658	0.0083587301493233	-0.0148133523638066	-0.0116887638978988	0.50732421875	-0.41845703125	0.223876953125	0	0	0	0.110369227830915	-0.32559499434523	0.439240204804555	0.82998468400844	0.402111884281164	0.657253948954034	0.637434921465854	-0.80099662140001	0.589773352062521	-0.10281928662808	-0.443520512519569	-0.469238361370068	0.763613066410674	-7.66866289150993	-39.6008128931436	58.5414566301205
46094	1653391557045	6.35652366199465	-1.08143730285803	7.66612809750085	0.020015793410613	-0.056032770604591	0.204342096781355	0.00596625587416474	-0.0130568091178849	-0.00866898408682333	0.510009765625	-0.412353515625	0.22119140625	0	0	0	0.110331342122642	-0.325665796352935	0.439345779691777	0.829906060887767	0.401834149905668	0.657369161993218	0.637491255492908	-0.801093739573451	0.589604561624883	-0.103030487368322	-0.443596817375659	-0.469289085502172	0.763537568062451	-7.68497777912899	-39.6050020975909	58.5635462785146
46095	1653391557045	6.37606785895799	-1.0681419210347	7.67589709624497	0.0127066227431371	-0.0416765121178539	0.222882673408858	0.006815186613593	-0.0186891545335	-0.00997661504113378	0.511962890625	-0.410888671875	0.224365234375	0	0	0	0.110408932167061	-0.325721741055761	0.43931545294032	0.82988984082779	0.40181456042289	0.657241683400537	0.637635027765091	-0.801092041854787	0.589623601011141	-0.102934686124666	-0.443617627590573	-0.469443690693019	0.763430430202667	-7.67898194730294	-39.6156946789828	58.5598443170712
46096	1653391557046	6.37727906872394	-1.06707945276972	7.67503860685851	0.0114380430636657	-0.0414559328330464	0.22288511306707	0.00423377102103422	-0.0100864347038388	-0.0100473220412608	0.5107421875	-0.407958984375	0.225341796875	0	0	0	0.110425363123901	-0.32579795845519	0.439278673674092	0.829877205555446	0.401779874243122	0.657142000602635	0.63775961278302	-0.801047432072396	0.589680972068171	-0.102953206608428	-0.44372958457083	-0.469511173695263	0.763323858890769	-7.68140658369449	-39.624961608515	58.5581779233109
46097	1653391557047	6.35562626526119	-1.05224156154425	7.64142780866207	0.00587051121649779	-0.0324559246855092	0.181887587646919	0.00482197464460539	-0.0103405717470095	-0.0122397810764137	0.511962890625	-0.414306640625	0.219970703125	0	0	0	0.110479897524479	-0.325823108825429	0.439240076720456	0.829880502844188	0.401814913515882	0.657039744127902	0.637842888110047	-0.801027358824464	0.589724694491177	-0.10285890881198	-0.443734093451166	-0.469599360459135	0.763266987996627	-7.67501985721346	-39.631156517176	58.5519857545535
46098	1653391557048	6.36986794484296	-1.07165985868065	7.64126200491328	0.0262466287442697	-0.0356791208653095	0.192840886328328	0.00121267838514403	-0.00733159242450957	-0.0105821782604105	0.5126953125	-0.410400390625	0.2265625	0	0	0	0.110481939790372	-0.325893620240744	0.439190135707235	0.82987897549221	0.401810745967685	0.656938601075	0.637949683629136	-0.800960038393018	0.589811531355235	-0.102885248592057	-0.443859371110208	-0.469631804606561	0.763174178533077	-7.6778842741291	-39.639101921012	58.5483241486409
46099	1653391557048	6.37973825473357	-1.06428725957791	7.6733823632006	0.0100100206238265	-0.0409408711122208	0.22288875350427	0.00364679540833022	-0.00983467237411914	-0.00785610070223433	0.50732421875	-0.4091796875	0.220947265625	0	0	0	0.110523270588497	-0.325922374404389	0.439167790474802	0.82987400509385	0.40181251534417	0.656863852824798	0.638025533474134	-0.800951879933365	0.589832516935804	-0.102828439628259	-0.443872491312537	-0.469709996505649	0.763118425042054	-7.674249353444	-39.6447455740519	58.5453097427882
46100	1653391557050	6.38479842642695	-1.09042574760026	7.6406159107971	0.0470004878109649	-0.0385241766080887	0.203798922489359	0.0032011796327711	-0.00664704135517981	-0.0100765253021531	0.513427734375	-0.412841796875	0.23291015625	0	0	0	0.110531115764734	-0.325961574180178	0.439115382326682	0.829885296658445	0.401853466324146	0.656773005677801	0.638093261691593	-0.800888591640058	0.58992110690379	-0.102813186947061	-0.443949609059489	-0.469725778132682	0.763063849211567	-7.67366684256674	-39.6497853218423	58.539182519525
46101	1653391557051	6.36280479412011	-1.07382881120379	7.71644164504264	-0.00860013839628533	-0.0796451635246185	0.245913307382922	0.00268444551024034	-0.00492659513236476	-0.0100906833198112	0.5087890625	-0.41748046875	0.219970703125	0	0	0	0.110561316954607	-0.32597119506697	0.43908470602512	0.829893725795483	0.401894801842892	0.65670767601426	0.638134465857795	-0.800866894477745	0.589961632256195	-0.102749646204647	-0.443951332446741	-0.469766219229903	0.763037950359749	-7.66923801090816	-39.6528515590339	58.5340212560509
46102	1653391557052	6.37715249133345	-1.03574133154268	7.64996256191108	-0.00448660353875585	-0.0160808430136444	0.200428156907916	0.00268457544135637	-0.00492700967509864	-0.0100908801893102	0.5126953125	-0.417724609375	0.222412109375	0	0	0	0.110537502050477	-0.325985878074463	0.439120288366737	0.82987230359928	0.40181315928147	0.656760201196004	0.638131822708466	-0.800894859860334	0.589909665970308	-0.102830002645605	-0.443974783605488	-0.469758048488564	0.763029335872925	-7.67524997056098	-39.6526548631235	58.5412437957654
46103	1653391557052	6.38624308520514	-1.08812210132164	7.63973692049518	0.0457101500969744	-0.0367466637513093	0.203811572771698	-0.000996164862195291	-0.00338471336792715	-0.00622597580181751	0.51611328125	-0.411865234375	0.228759765625	0	0	0	0.110542335616371	-0.325999468479791	0.439100920306733	0.829876569360258	0.401829456673347	0.656725645383264	0.638157123634562	-0.800872616005071	0.589941547644516	-0.102820344757196	-0.444000158426545	-0.469766321758733	0.763009477174742	-7.67473505884735	-39.6545377114858	58.5388671386641
46104	1653391557053	6.37775999355683	-1.03462954758349	7.64960654709362	-0.00573904349008541	-0.0151801343830502	0.200428923403749	0.00113336685881586	0.000235228574953869	-0.0101329732140506	0.51025390625	-0.40771484375	0.23095703125	0	0	0	0.11052222207388	-0.326016938590798	0.439112125376985	0.829866456441422	0.401786994197582	0.656744613960563	0.638164338808949	-0.800873079907677	0.589930759549518	-0.102878612046042	-0.444037747463956	-0.469753351207971	0.762995588359472	-7.6791704895318	-39.6550746608847	58.5422994025504
46105	1653391557054	6.38235802531296	-1.05975571071996	7.67183083055031	0.00677265072682749	-0.0379403619994728	0.222903252689973	0.00275565817870637	-0.0034608858716407	-0.0122978216618091	0.509033203125	-0.415283203125	0.224609375	0	0	0	0.110552516808827	-0.3260196682519	0.439073613552115	0.829881725803408	0.401851075590417	0.656673746629883	0.638196915954548	-0.800842926047588	0.589985005819044	-0.102802240774408	-0.444034143784418	-0.469784294539286	0.76297863388031	-7.67370633985377	-39.6574990864802	58.5354788511235
46106	1653391557055	6.3643583912343	-1.07121893820318	7.66106074633167	0.0140389307796628	-0.0508509723302533	0.204379901850062	0.000545647817246336	0.000488520081172828	-0.00794076841366693	0.5107421875	-0.41552734375	0.221435546875	0	0	0	0.110520798993204	-0.325980890704114	0.439075161204231	0.829900364320401	0.401898923418462	0.656721935500591	0.638117195182389	-0.80083260948913	0.589996311606765	-0.102817721571933	-0.444009444644944	-0.469702726969699	0.763043223771312	-7.67420622038717	-39.6515663329445	58.5343135502055
46107	1653391557056	6.36442372053896	-1.07050328527193	7.66110651061552	0.0138947849872997	-0.0506542045931659	0.204381099779031	0.00242150352717812	0.000450377733245318	-0.0109768410609986	0.51123046875	-0.4189453125	0.233642578125	0	0	0	0.110538879389259	-0.325968504335811	0.439044038274599	0.82991928690685	0.401969733273214	0.656677843960171	0.638117969331755	-0.800806616702064	0.590042977197799	-0.102752361071419	-0.443992225358119	-0.469705752904283	0.763051380648883	-7.66930485548502	-39.651623942048	58.5281063061085
46108	1653391557058	6.39186896606482	-1.05182593882878	7.64986115027902	0.0144089395121198	-0.0149600697265986	0.211397176555987	0.00235128490083301	-0.00101663963225476	-0.00877044596322749	0.51318359375	-0.41259765625	0.228515625	0	0	0	0.110490333485466	-0.325958136614948	0.43912803561034	0.829885382279858	0.401835723031031	0.656821428970806	0.63805459181866	-0.800882321838353	0.58991690909455	-0.102886087160228	-0.443976979429045	-0.469663337731487	0.763086358761563	-7.67881918039469	-39.6469077995737	58.5421893057805
46109	1653391557058	6.35565312708255	-1.07464074363408	7.68298732771836	0.0036974992658579	-0.0681194164849048	0.215912725556196	0.000363212630295968	-0.0017035885634282	-0.00927637747135827	0.513671875	-0.412841796875	0.229736328125	0	0	0	0.110501210627521	-0.325960181249094	0.43910016389159	0.829897878512947	0.401882012620874	0.656778599647853	0.638069525190164	-0.800854578225416	0.589961057040463	-0.102848897471435	-0.44398512640311	-0.469667778563002	0.76307888537982	-7.67615093873083	-39.6480190150215	58.5375878421058
46110	1653391557059	6.34241390069386	-1.0536644761801	7.68251974433211	-0.0176398224118763	-0.063767720084238	0.204954826551768	0.000363299598811727	-0.00170386565228019	-0.00927650921979284	0.510009765625	-0.408935546875	0.22900390625	0	0	0	0.110493174205976	-0.325926748293725	0.439099321493183	0.829912524947536	0.401927081221812	0.656802691251102	0.638016336895714	-0.800853415161525	0.58996608863623	-0.10282908967501	-0.443946425601826	-0.469627766454006	0.763126026401134	-7.67422175800925	-39.6440612726023	58.5356630296035
46111	1653391557060	6.36531748745244	-1.06775455428127	7.66074755062719	0.0126625883009837	-0.0472867731373708	0.204399195547799	0.00209897063740244	-0.00467510391717959	-0.00789948770343175	0.512939453125	-0.409423828125	0.2216796875	0	0	0	0.110515627759474	-0.325937711172115	0.43907842649749	0.829916284839201	0.401949487640743	0.656754251422333	0.638052084569933	-0.800839094465023	0.589992862810836	-0.102786996301662	-0.443951972809884	-0.469661873128921	0.763101808913625	-7.671358257239	-39.6467212330392	58.5323594951305
46112	1653391557060	6.34307305662198	-1.05244974848587	7.68214203531525	-0.0179238728067365	-0.0633161226153095	0.204957186830439	-0.00284266346431464	-0.00114142482319485	-0.0111457042828599	0.518310546875	-0.419189453125	0.230224609375	0	0	0	0.110501372815099	-0.325946511205186	0.439004385362943	0.829953895147948	0.402068042930545	0.65667172533308	0.638062327678166	-0.800741873142941	0.590129192476167	-0.102761806051482	-0.444019978660349	-0.469605985199831	0.763096636878292	-7.66955196228449	-39.6474834347066	58.5216293462255
46113	1653391557061	6.35676160564853	-1.07217592615506	7.68241461825861	0.00348777001461954	-0.0664430773192952	0.21592404713695	0.00165141335371536	-0.00148828770591935	-0.0101204618945172	0.505615234375	-0.408447265625	0.22607421875	0	0	0	0.110518782343485	-0.325944089567975	0.438975015675895	0.82996806254058	0.402122772176103	0.656624598746269	0.638076337453996	-0.800716374310703	0.590173068723322	-0.102708504343202	-0.444016400607147	-0.469616742967067	0.763092098450033	-7.66566619135461	-39.6485259321221	58.5163249447954
46114	1653391557061	6.37525539750227	-1.05927593274815	7.69296247462632	-0.00403436405877824	-0.0508985280980903	0.234452109030462	-0.00232445122319538	-0.00286316237036762	-0.0111321103364433	0.510498046875	-0.402587890625	0.223388671875	0	0	0	0.110485959501692	-0.325931508271997	0.438988328805017	0.829970331904406	0.402115798177039	0.656672867074391	0.638031057633359	-0.800716288767453	0.590164199851937	-0.102760119285652	-0.444022870761092	-0.469560393199238	0.763123009337064	-7.66916568001655	-39.6451566204143	58.5186432157141
46115	1653391557062	6.39808613437743	-1.07343669182593	7.67124012616203	0.0262682883350121	-0.0344135177623762	0.233895302989239	0.00106365983660483	-0.0012342761231226	-0.00792793503529461	0.51220703125	-0.4140625	0.231689453125	0	0	0	0.110496609178399	-0.325930340731813	0.438967574342783	0.829980349783134	0.402153763332115	0.656640526834503	0.638040413419341	-0.800697316751405	0.590195936071379	-0.102725673480046	-0.444022699402764	-0.469565730822997	0.763119824701041	-7.66665712429632	-39.6458527793096	58.5149773543137
46116	1653391557063	6.37553777200235	-1.05923225149445	7.63826567870968	0.0214841598240751	-0.025178458825187	0.19288418036429	-0.00126052830366548	0.00199044526269991	-0.00711223038869874	0.510498046875	-0.410400390625	0.227294921875	0	0	0	0.110481803205357	-0.32588706727306	0.438911541660239	0.83002894476162	0.402308555963191	0.656609385868621	0.637974874260768	-0.800627749203155	0.59030085951585	-0.102665001148099	-0.444007919979702	-0.469477379267713	0.763182781089312	-7.66155825590483	-39.6409761939318	58.5039455570583
46117	1653391557064	6.35736434663953	-1.07003127627403	7.68221486949168	0.00356634714367837	-0.0641646570021003	0.215938856006879	-0.000154287969822422	1.50688218179912E-05	-0.00929134897004877	0.501708984375	-0.41796875	0.2265625	0	0	0	0.110487202183347	-0.325882269342911	0.438883623780098	0.830044871955282	0.402363822611129	0.656574562245927	0.63797586040957	-0.800597842969359	0.590347485862692	-0.102630111411849	-0.444011765707363	-0.469467453767745	0.763186649363222	-7.6589470992943	-39.6410495679562	58.4990856085219
46118	1653391557065	6.35294518677736	-1.04365985897337	7.65998302216123	-0.00997583485093413	-0.0389391097338332	0.193453880791333	-0.00376664415278966	0.00302295439203512	-0.00763208317804027	0.507568359375	-0.412353515625	0.23486328125	0	0	0	0.110387309972735	-0.325851247461303	0.438955264018352	0.830032458711992	0.402278481436984	0.656754548798421	0.637844405796066	-0.800633919432475	0.590265835975125	-0.102818140105626	-0.444024042622635	-0.469318341334716	0.763271212649792	-7.67197210046406	-39.6312694240261	58.5114952772409
46119	1653391557066	6.37984668164768	-1.08415300410547	7.66079116655728	0.032995328732807	-0.0453570798078583	0.215393548980582	-0.0013300909425921	0.000523822631727597	-0.00490562828445249	0.51171875	-0.419677734375	0.224365234375	0	0	0	0.110378861660582	-0.325849154372581	0.438944877764448	0.830039896497477	0.402299445758056	0.656749804349983	0.63783606861718	-0.800617239280818	0.590287802365736	-0.102821916654925	-0.444035124859649	-0.469297352287959	0.763277670986377	-7.67218639435254	-39.6306491895748	58.5099809702289
46120	1653391557067	6.34805959759586	-1.07472671186144	7.70446764975512	-0.00673955232901435	-0.078868544960695	0.22750457976859	-0.00240897354505317	0.00470519355792856	-0.0106827178775477	0.5048828125	-0.4150390625	0.228271484375	0	0	0	0.110302280195729	-0.32578280468725	0.439026189506408	0.830033117460512	0.402243138195185	0.656943381034499	0.637672213515572	-0.800681725856753	0.590178823822213	-0.10294527570938	-0.443969854442776	-0.469163457684835	0.763397942307464	-7.68008543502472	-39.6184605135204	58.5210733145735
46121	1653391557068	6.35693484523542	-1.06891296598019	7.68272595444353	0.00200438526344048	-0.0590235290622659	0.21597086569885	-0.00564254089634985	0.00305989281312392	-0.00459591483786269	0.508056640625	-0.406005859375	0.23046875	0	0	0	0.110269323569592	-0.325779393758774	0.439012359081057	0.830046150196334	0.4022718703525	0.656954090322301	0.63764305495465	-0.800647983853068	0.590217649707179	-0.102985105360685	-0.444004671456414	-0.469099615415459	0.76341692576334	-7.68283261652542	-39.6162917230121	58.5196667156183
46122	1653391557069	6.36595798085202	-1.06307010744593	7.66086682023163	0.0115124926491428	-0.0375069316815057	0.204441975991489	0.000546318153766194	0.000485842448756374	-0.00794237286775994	0.505615234375	-0.4150390625	0.234130859375	0	0	0	0.110224987451927	-0.325700678829789	0.439028445966773	0.83007442050881	0.402346182883629	0.657051859271311	0.63749541437338	-0.800653272219701	0.590208951546445	-0.102993840584433	-0.443927794582473	-0.468973610923429	0.763539039902075	-7.68226233618969	-39.6053113772106	58.5187505492465
46123	1653391557071	6.37024376392265	-1.08877884650208	7.68330410010763	0.0240530073869146	-0.0601516527492844	0.226954569172715	-0.00557290468203945	0.00452529362018478	-0.0068029872575508	0.508544921875	-0.410888671875	0.22900390625	0	0	0	0.110192522394072	-0.325689054589234	0.439007000565331	0.830094633872449	0.402398986350805	0.657057713920784	0.637456050532927	-0.800611707686097	0.590260922926127	-0.103019106879978	-0.443954895569129	-0.468899993008733	0.763568495458407	-7.68383154037173	-39.6023840982094	58.5156292346908
46124	1653391557072	6.33386931363086	-1.0538223219691	7.70476065836975	-0.0272065810474814	-0.0705817736907203	0.216572669151434	-0.0061611041831137	0.00477944565871119	-0.00461008943089502	0.51416015625	-0.413818359375	0.2265625	0	0	0	0.110098391865819	-0.325585263054726	0.439080063092342	0.83010919690422	0.402405869352819	0.657275969345407	0.637226660170035	-0.800661624855548	0.59017408460677	-0.103128620383649	-0.443858624782797	-0.468703370992375	0.76374516118029	-7.69014406871871	-39.5853280202241	58.5236672206478
46125	1653391557073	6.36062715015007	-1.09556391677688	7.65106279696812	0.0407904141550491	-0.0519122428852761	0.196920084027445	-0.00313614877684964	0.00202677222244369	-0.00407640670459234	0.5068359375	-0.4091796875	0.221923828125	0	0	0	0.110076773283284	-0.325579174190265	0.439073445132086	0.830117952520584	0.402425422226852	0.657288088672212	0.63720181107336	-0.800642908444614	0.590195227526763	-0.103152928033974	-0.4438746587753	-0.468659750665943	0.763762610634252	-7.69176132381608	-39.5834806439422	58.5228979418861
46126	1653391557074	6.32887771176046	-1.08630936430532	7.69467387422704	0.000388032668238551	-0.0872709226549817	0.209046558875713	-0.00195932643616479	0.00151792166019123	-0.00846256800652267	0.51171875	-0.413330078125	0.22314453125	0	0	0	0.11003445403957	-0.325606166747091	0.439052552358725	0.830124026497106	0.402426960887109	0.657280351635846	0.637208820171711	-0.800591938795579	0.590250550383006	-0.103231949066625	-0.443965188597823	-0.468600925229579	0.763746086200959	-7.69774758035461	-39.584001721964	58.5225000414302
46127	1653391557075	6.34696113274436	-1.13307306579587	7.66266589733763	0.0594971428792817	-0.0881946557396474	0.200948370486243	0.000185481136154605	-0.0038976978372527	-0.0106144055192822	0.513427734375	-0.413818359375	0.22314453125	0	0	0	0.110050114725057	-0.325614220592697	0.43902088710912	0.830135538498824	0.402472080059463	0.65722591640045	0.637236470695297	-0.800561445729794	0.590299265861846	-0.103189865461617	-0.443979274723078	-0.468615910458186	0.763728703193624	-7.69482015189658	-39.586057385516	58.5175260417388
46128	1653391557076	6.37029166493734	-1.08752596479073	7.68344182718641	0.0216357182960829	-0.0561297104726769	0.226983360984406	0.00210350046526184	-0.00467540951070901	-0.00790149733647202	0.51025390625	-0.4150390625	0.21630859375	0	0	0	0.110034595210649	-0.325689392957068	0.439026968080889	0.830104890040884	0.402363481225917	0.657202665090671	0.637329024894896	-0.800551067164403	0.590295418309062	-0.103292342336036	-0.444096406017541	-0.468653364568151	0.76363761434417	-7.70327784468543	-39.5929387222995	58.5235092517053
46129	1653391557076	6.38898525635312	-1.07426768121725	7.69386562369174	0.0142400612460892	-0.0416647740050925	0.245484091399275	0.00777430971183946	-0.00552784568108488	-0.0112619927845246	0.510498046875	-0.408935546875	0.224609375	0	0	0	0.110086119459767	-0.325688003581162	0.439003958201977	0.830110772914437	0.402405698012628	0.657136373173382	0.637370725135304	-0.800551287048778	0.590313141970574	-0.103189297998263	-0.44405775639157	-0.468723992845857	0.763616741251213	-7.69589303646872	-39.596039327921	58.5182582842074
46130	1653391557077	6.35324067524279	-1.09768564122577	7.67209706766148	0.0264162430617582	-0.06990157055803	0.208493709910964	0.00373028289504794	-0.00837169505947652	-0.010067375529952	0.51220703125	-0.416015625	0.229248046875	0	0	0	0.110078740539762	-0.325803380486682	0.438976704517512	0.830080888248594	0.402303220308789	0.657044294037532	0.637530324456726	-0.800500397187816	0.590364247544249	-0.103291671124353	-0.444242313418393	-0.468788706022482	0.76346965628926	-7.70490269099479	-39.607907557576	58.5211815425865
46131	1653391557078	6.34953305513392	-1.07048942692219	7.64937574782971	0.0135784606003551	-0.0467380498354516	0.185967443042662	0.0095815749905228	-0.00703230509265531	-0.0120927388368138	0.502685546875	-0.41015625	0.22998046875	0	0	0	0.110142075017522	-0.325804897689314	0.438952188893665	0.830084855793641	0.402344289014231	0.656965473871457	0.637585632867056	-0.800504783800947	0.590379398352589	-0.103171009070539	-0.44419721319413	-0.468880082901466	0.76343978390498	-7.69630752520796	-39.6120209125923	58.5155155252914
46132	1653391557079	6.35022977105272	-1.06829577267809	7.70357358726321	-0.0112180854943258	-0.0693795699938498	0.227570629024441	0.00251200771352873	-0.00712476015289908	-0.0114311081785216	0.507080078125	-0.41259765625	0.225830078125	0	0	0	0.110117044509176	-0.325753776265886	0.439002041235973	0.830081876412037	0.402323370078328	0.657073190115536	0.637487826330989	-0.800557362435947	0.590302888598427	-0.103200819579852	-0.444121397073386	-0.46882547130435	0.763517427514159	-7.69773116301183	-39.6047470853153	58.5210257210062
46133	1653391557080	6.37343337086235	-1.08194134545702	7.68162463351524	0.0190514806186478	-0.0527967695109949	0.227006678002898	0.00648695391459937	-0.00574708802021575	-0.010419850618646	0.505126953125	-0.41748046875	0.22705078125	0	0	0	0.110161632792249	-0.325757013107206	0.438980925023626	0.830085857328879	0.402356231753748	0.65701186608369	0.637530289942488	-0.800555563913353	0.590320324251895	-0.103115003091264	-0.444094868081471	-0.468889456695675	0.763493566144035	-7.69164428151371	-39.6079049907857	58.5165600087557
46134	1653391557080	6.34677280609572	-1.09973678345752	7.63792467999549	0.0411924207643324	-0.0591178041574615	0.178491125738649	0.00501926664505218	-0.00815733468979978	-0.0109119954350513	0.514892578125	-0.415283203125	0.224609375	0	0	0	0.110121036924619	-0.32576069162419	0.439073541418002	0.830040814807218	0.402188794038367	0.657151709855904	0.637491807150042	-0.800644130459652	0.590175564906601	-0.103255890619768	-0.444086872481581	-0.468875711485075	0.763506658038352	-7.70189694338498	-39.6050431220876	58.5326099000322
46135	1653391557081	6.37025085820677	-1.05291874940039	7.71317904089037	-0.020074270516636	-0.0521163369014326	0.246077256563012	0.00409159931714824	-0.00398948298717467	-0.00739684051661075	0.512939453125	-0.409912109375	0.22802734375	0	0	0	0.110146144529488	-0.325763514487668	0.439062990516954	0.830041956669807	0.402203645973904	0.657118217201593	0.637516961176014	-0.800644597798364	0.590183034407197	-0.103209563094753	-0.444072578731894	-0.468913248394321	0.763491918947864	-7.69862964083537	-39.6069137504833	58.5303676034026
46136	1653391557082	6.37510691489199	-1.0789755385171	7.68065300633197	0.0170685605952327	-0.0495038661263365	0.22702702169299	0.00328076890807474	-0.00518990777651063	-0.0122896302960584	0.501953125	-0.419189453125	0.22412109375	0	0	0	0.110164656608312	-0.32578083962406	0.439041776514292	0.830043921394157	0.402218326018033	0.657068847014057	0.637558584366072	-0.800626984321065	0.590212133819094	-0.103179790025323	-0.444091038180472	-0.468945804306138	0.76346118593643	-7.6967415296226	-39.6100092515214	58.5275195998352
46137	1653391557083	6.35302988690013	-1.0643158623287	7.64733351163887	0.0114800563608755	-0.0405250027838281	0.18599718461676	0.00129365946833313	-0.00588009016361574	-0.0127953899217912	0.51220703125	-0.4111328125	0.225830078125	0	0	0	0.11019113135674	-0.325794869453009	0.439003062503315	0.830055376900318	0.402268028301614	0.656994294502669	0.637604054564643	-0.800593115523663	0.590268451366065	-0.103120408736695	-0.444107078059387	-0.46897937301426	0.763431235216837	-7.69266317957782	-39.6133910113289	58.5214719016388
46138	1653391557083	6.38056019318229	-1.04568196720914	7.63593859827024	0.0113678632231043	-0.00462198806518684	0.192931400585071	0.00194412685052066	0.00142663502580125	-0.00524524443794146	0.515625	-0.408203125	0.21923828125	0	0	0	0.110110125466694	-0.32579650018605	0.439111240501991	0.83000826453779	0.402075917862648	0.657184930311996	0.637528762994837	-0.800678904360378	0.590114157469023	-0.103337182402509	-0.444126387852798	-0.468906438989104	0.763464801472461	-7.70830516361895	-39.6077914332673	58.5410595336413
46139	1653391557084	6.35324904239333	-1.06303207782222	7.64733000311239	0.00956885984994115	-0.0380932256129362	0.186008756663725	0.000613380026650383	0.00194606913594201	-0.010151926053115	0.508056640625	-0.41796875	0.23095703125	0	0	0	0.110111543558888	-0.325781253245272	0.43908747864605	0.830026631563875	0.402137522260389	0.65716404841014	0.637511432577856	-0.800653155039684	0.590155268142667	-0.103301910962267	-0.444117032453467	-0.4688839653482	0.763484046018038	-7.70551385405449	-39.6065026011227	58.5363411048945
46140	1653391557085	6.37142991905194	-1.05018274730207	7.6580948334568	0.00122450223311449	-0.0230992990567019	0.20449210152357	-0.00266143941682721	0.00103866663946041	-0.00981340971361313	0.508544921875	-0.409423828125	0.22900390625	0	0	0	0.110069024641072	-0.325800992898846	0.43909113037594	0.830022591298495	0.402105384502611	0.657189920670709	0.637505033645097	-0.800632310732584	0.590167578079485	-0.103393098390555	-0.444183703848995	-0.468832206607677	0.763477045681379	-7.71230375909826	-39.6060267299912	58.5393839659095
46141	1653391557086	6.38489224608077	-1.07019476568689	7.65854992070907	0.0225723017698397	-0.0260562497391197	0.215491150403055	-0.00376974816907354	0.00301425413720442	-0.00763367647191527	0.513671875	-0.408447265625	0.23291015625	0	0	0	0.110045614656453	-0.325792647297246	0.439071315154265	0.830039453201256	0.402151062351513	0.657188924449249	0.637477247147528	-0.800597132938762	0.590212685807175	-0.103408008599507	-0.444205756130856	-0.468776815866059	0.763498227323872	-7.71319113795548	-39.6039603620812	58.5364478130555
46142	1653391557087	6.35753889329929	-1.08769496514056	7.66995912934997	0.0226983414135313	-0.0587623401522378	0.2085743298314	0.000613698850862015	0.00194555193180675	-0.0101522796250482	0.503662109375	-0.413330078125	0.2265625	0	0	0	0.110046778950924	-0.325683731528484	0.439021406419154	0.830108437594725	0.402380623446859	0.657189856283632	0.637331410392126	-0.800551638729341	0.590299822296548	-0.103262740252379	-0.444079843724395	-0.468665779201515	0.763639626920417	-7.70107664112435	-39.5931160913024	58.5219249406508
46143	1653391557088	6.39826508894369	-1.08946432997123	7.65918725360692	0.0456720721574943	-0.0279255612786787	0.226486521514845	2.5385566972398E-05	0.0022008408085341	-0.00795865508790471	0.512939453125	-0.420654296875	0.220703125	0	0	0	0.110041806091056	-0.325669331995419	0.439006005469909	0.830122891065673	0.402426426718024	0.657183385949259	0.637309162268385	-0.800532351874234	0.590329056147145	-0.103245140665933	-0.444073107361469	-0.468638029507516	0.763660574219752	-7.69957118277387	-39.5914618930018	58.5187693573778
46144	1653391557089	6.39363132171527	-1.0620274838304	7.69170513593255	0.00535724195615192	-0.0280465509935478	0.245539937561746	-0.00101517337310139	0.00564104169948438	-0.00798648484778452	0.509765625	-0.41259765625	0.225341796875	0	0	0	0.109939060524532	-0.325695560271884	0.439126146258217	0.830062667912835	0.402181259383182	0.65739111320015	0.637249683316065	-0.800617768853359	0.590163261286781	-0.103530252697558	-0.444141219430518	-0.468555492244854	0.763671609980333	-7.72046726663979	-39.5870396923518	58.5423789202159
46145	1653391557090	6.37057518073702	-1.04794440258753	7.6591124762682	-0.000244666956607936	-0.0190698537279041	0.204500654717959	-0.00153544483817954	0.00736087958439513	-0.00800052130054361	0.510986328125	-0.4140625	0.232177734375	0	0	0	0.109915466576465	-0.325663780892655	0.439111604227852	0.83008595401586	0.402248201694286	0.657409776982079	0.637188174217073	-0.800591722677566	0.590199178479441	-0.103526920664917	-0.444127546785695	-0.46848406040181	0.763723384043957	-7.71970473129123	-39.5824668491497	58.5388578336653
46146	1653391557092	6.33824566410404	-1.09809454368146	7.66046498446414	0.0269782343854549	-0.0686854702963386	0.190134637129155	-0.00293360401766675	0.0064143546529659	-0.0107002428680844	0.513427734375	-0.405517578125	0.229248046875	0	0	0	0.10985719177914	-0.32559570839713	0.439142615097769	0.830103966797452	0.402282396556927	0.657529993205233	0.637042527195745	-0.800606113924627	0.590170322038987	-0.103580120346067	-0.44407062925499	-0.468351683054438	0.763837664175545	-7.72248219702279	-39.5716400444546	58.5413534857065
46147	1653391557093	6.36504274562047	-1.07889506074459	7.70422413171263	0.00334467270244939	-0.0595115298880637	0.238645898796738	-0.00463146220582046	0.00864515148428735	-0.00632678105885675	0.512939453125	-0.41162109375	0.22802734375	0	0	0	0.109815017297802	-0.325565974635195	0.439131087007571	0.830127307441014	0.40234136916677	0.657565347470202	0.636968787668125	-0.80057348001476	0.590209100798866	-0.10361139141644	-0.44407603600517	-0.468253169920489	0.763894916271439	-7.72421352115372	-39.566159193833	58.5389859725747
46148	1653391557094	6.37355138423767	-1.07295856111581	7.68278657906967	0.0132832209253088	-0.0397739412774927	0.227076004947017	0.000451735734053284	0.00805053343346973	-0.0074950016675445	0.51416015625	-0.4111328125	0.22021484375	0	0	0	0.109812389261071	-0.325484881428217	0.439059109091388	0.830197524599002	0.402573381371072	0.65752702604465	0.636861745304536	-0.800496116036605	0.590336675777303	-0.103482256655492	-0.444005226119886	-0.468146151594864	0.764001662252869	-7.7136376341513	-39.5582038083278	58.5227921319745
46149	1653391557094	6.34585552195567	-1.09045074733648	7.69447433375637	0.0115057256347275	-0.0732314782355702	0.22017888580443	-0.00101434645420656	0.00563955137358759	-0.00798719456042322	0.510986328125	-0.406494140625	0.23046875	0	0	0	0.10979499860349	-0.325458372177772	0.439044547333588	0.830217918210453	0.402633466872079	0.65753789714038	0.636812535349908	-0.80047270321539	0.590369887476609	-0.103473897036416	-0.443992953504464	-0.468088997718451	0.764043812522109	-7.71260161844914	-39.554546832007	58.5194059403852
46150	1653391557095	6.36346593041078	-1.07868551992525	7.65110050684858	0.0291013037407028	-0.0342572116125389	0.197036885949569	-0.00128827103200218	0.0110162705081921	-0.00887324556292769	0.511962890625	-0.41455078125	0.22802734375	0	0	0	0.109767520436849	-0.325426582387537	0.438964465218029	0.830276357129699	0.402815475502836	0.657481096115387	0.636756076489524	-0.800366172247058	0.590522579465992	-0.103426657412019	-0.444019912862043	-0.467976165409885	0.764097261865427	-7.70859010891679	-39.5503513997642	58.505667849469
46151	1653391557096	6.36721647793493	-1.10411063356893	7.67407802826996	0.0415929170294508	-0.0567745158254895	0.219611782867588	0.00121931216618133	0.0099868115939974	-0.00835331766256373	0.513671875	-0.413818359375	0.228271484375	0	0	0	0.109750734359419	-0.325377097254547	0.438953947025438	0.830303530813017	0.402898353945989	0.657509273424217	0.636674541464296	-0.800350774893907	0.590548417396715	-0.103398277727231	-0.443972469320266	-0.46790396671902	0.764169041779547	-7.70578514914648	-39.5442930168057	58.5015107528221
46152	1653391557097	6.38019399953874	-1.06519525492942	7.66316099540009	0.021130311990487	-0.0184890531723393	0.215511099259528	-0.0019179347017966	0.0120055417813054	-0.0124319241680242	0.51513671875	-0.4111328125	0.220703125	0	0	0	0.109696027395106	-0.325311518952862	0.438983625421793	0.830320765621246	0.402931584496241	0.657623677320834	0.636535338565246	-0.80036520250082	0.590520316370542	-0.103447081058169	-0.443916299364159	-0.467778638867423	0.764278394420627	-7.70828870862662	-39.5339508991119	58.5038463583875
46153	1653391557098	6.33849979779049	-1.06242086948244	7.67484222964857	-0.00219316027995423	-0.0486965297324394	0.197614567982514	-0.00361752611653469	0.0142355834909246	-0.00805892978788453	0.510498046875	-0.4189453125	0.228271484375	0	0	0	0.109649195041689	-0.32525513274055	0.438968995049289	0.830356775150329	0.403030640022688	0.657673831263859	0.636420800157898	-0.800329685216575	0.590566550824253	-0.103457933522192	-0.443890412336243	-0.467649741492778	0.764372305305274	-7.70815189667971	-39.5254423919125	58.4995187905635
46154	1653391557098	6.36007901444213	-1.07592559013958	7.70873740295449	0.00126427286045745	-0.056536532495435	0.238663549729797	-0.00612461123560178	0.0152629452088381	-0.00858012620384431	0.51416015625	-0.421142578125	0.2314453125	0	0	0	0.109551200045492	-0.325256913184808	0.439012063525866	0.830346242884765	0.402952697008504	0.657799464734604	0.636340308458015	-0.800328605384557	0.590533885294708	-0.103652562544048	-0.443963114883189	-0.467514271989215	0.764412949988167	-7.72207228797256	-39.5194636744957	58.5093305080183
46155	1653391557099	6.34999905408752	-1.08233973641555	7.676959487435	0.0172186316836626	-0.0508368273709745	0.20862858248536	-0.00110960463445056	0.0132057878089906	-0.00753866745603823	0.506591796875	-0.410400390625	0.231201171875	0	0	0	0.109515833598296	-0.325200211728645	0.439003188220565	0.83037780872028	0.403042046047647	0.65784786636401	0.636233678641776	-0.800306155459229	0.590564965846899	-0.103648823670701	-0.443922478200637	-0.467406895364811	0.76450220896583	-7.72090642579284	-39.5115442770498	58.5055498512361
46156	1653391557100	6.33083917993227	-1.09328422486736	7.72169306359462	-0.000423816348781886	-0.0875382505429088	0.231797472942862	-0.00232848549315271	0.0144508084402682	-0.0089036284914225	0.50732421875	-0.406005859375	0.2265625	0	0	0	0.109426780069008	-0.325070102044581	0.439108589314287	0.830384763438535	0.403026151094284	0.658115414996262	0.635966997633074	-0.800400913250031	0.590418853188291	-0.103749486111208	-0.443766041515846	-0.467214809636982	0.764710417120909	-7.72623552323358	-39.4917418266162	58.5169334193665
46157	1653391557100	6.34801314820573	-1.08156322575966	7.67871111219942	0.0171050670329872	-0.0480298428617383	0.208642623304701	-0.00232819688675783	0.0144498965311177	-0.00890406565737573	0.50537109375	-0.408935546875	0.23046875	0	0	0	0.109385477371931	-0.32500960036625	0.439093479094899	0.830421876895246	0.403131352572216	0.658163001511853	0.635851064333625	-0.800368322657944	0.590463467912905	-0.103747005479556	-0.443729265046835	-0.467091379176681	0.764807154019771	-7.72508758999786	-39.4831349356489	58.5121182604259
46158	1653391557101	6.33802933820087	-1.08673114927062	7.7014479167593	0.00914119030205485	-0.0664183634916863	0.220228735381221	2.53847232911787E-06	0.0112288777334426	-0.00971893232095059	0.5078125	-0.414306640625	0.220458984375	0	0	0	0.10933264252799	-0.324898386602595	0.439036710035578	0.830502365380143	0.403375611248333	0.658198054025842	0.635659844513265	-0.800286050667212	0.590586281037965	-0.103682601034226	-0.443655669813325	-0.466886673965257	0.764974823321755	-7.71867807012285	-39.4689410982898	58.4980176545769
46159	1653391557102	6.32824959822222	-1.09282451187421	7.66947750290024	0.025108227107013	-0.0607088712667493	0.190191097478735	-0.00198341895203311	0.0105366296998547	-0.0102265238011166	0.509765625	-0.415771484375	0.233642578125	0	0	0	0.109303611452303	-0.324852082763484	0.439014688882376	0.830535940097248	0.403474454539473	0.658219943027148	0.635574441851945	-0.800249966362554	0.590637646937988	-0.10366851670728	-0.443630877950133	-0.466790827481532	0.76504768969542	-7.71691599300063	-39.4626027771092	58.4926120634357
46160	1653391557102	6.32325970198185	-1.06523008403312	7.70223596236768	-0.0139351346116836	-0.0609466572467876	0.209231539205259	0.000171126034770612	0.00512365897094145	-0.0123770378298434	0.509521484375	-0.404052734375	0.232421875	0	0	0	0.109237001072739	-0.324827914057958	0.439086353363827	0.83051627204712	0.403380001076824	0.658370268212171	0.635478689387375	-0.800303176997791	0.590540903772581	-0.103808794707898	-0.443620783573656	-0.466701222310053	0.76510820769078	-7.72662816458621	-39.4554970118979	58.5044174636425
46161	1653391557103	6.32747956380391	-1.0905694023575	7.72483006269041	-0.00144624195957642	-0.0833993970125951	0.231832595334337	-0.000489065076359293	0.00391572514603485	-0.00797529985182553	0.49853515625	-0.413818359375	0.22900390625	0	0	0	0.109224537350686	-0.324807182614172	0.439073046706048	0.830533054260359	0.403430307557025	0.658375528549926	0.635441303623749	-0.800283185546777	0.590569720193594	-0.103798981312745	-0.443611102065252	-0.466657335736904	0.765140589125545	-7.72558354408834	-39.4527228210876	58.5014384228284
46162	1653391557104	6.33189766291609	-1.05830609249702	7.68085809996345	-0.00411936742688978	-0.0387649930697279	0.19765734722435	0.0020879256891915	0.00435162235933872	-0.00966169004238355	0.51171875	-0.4111328125	0.226806640625	0	0	0	0.109174162687725	-0.324680496475802	0.439076468858322	0.830587401725169	0.403588859406267	0.658489324167831	0.63522267160433	-0.800276209542953	0.590585713392682	-0.103761763554887	-0.443479448230368	-0.466476500044162	0.765327154819321	-7.72098701825854	-39.4365015604607	58.4958200315425
46163	1653391557105	6.30910673813067	-1.10142975205233	7.71450599888751	0.00682150574433243	-0.0950001633362385	0.213403925340398	0.0029548816368843	-0.00127891309133736	-0.0109687788951314	0.50146484375	-0.41357421875	0.224853515625	0	0	0	0.109192149509934	-0.32467125528113	0.439054094922093	0.830600476891097	0.403640155452633	0.658453976750089	0.635226719690039	-0.800260185743029	0.590617152435084	-0.103706385357924	-0.443461678187312	-0.466486591180783	0.765331300959151	-7.71687465127019	-39.4368018712245	58.4912051939619
46164	1653391557107	6.29575088962471	-1.08006383769511	7.71410576815482	-0.015983764362347	-0.090197874690692	0.202403935467867	0.00553196391751576	-0.000843141250079639	-0.0126553079360036	0.518310546875	-0.416259765625	0.234619140625	0	0	0	0.109160877584124	-0.324668277879397	0.43908572148563	0.830589032754066	0.403588477052542	0.658517421135658	0.635193787163612	-0.800281717683823	0.590575263985016	-0.103778754617978	-0.443469856395494	-0.466450065526709	0.765348824287781	-7.72202007800186	-39.4343587806438	58.4969334037942
46165	1653391557108	6.30520578225823	-1.18982390786127	7.71592608474631	0.0757550328044743	-0.150755103279031	0.221172802240828	0.0112715954615838	-0.00852505252586611	-0.0222159049055175	0.50341796875	-0.409912109375	0.223876953125	0	0	0	0.109247145670477	-0.324664901218692	0.439026603210217	0.830610260443013	0.403696687180713	0.65838257495264	0.635264802864168	-0.800257429982758	0.590641405673106	-0.103589457291224	-0.443415189767683	-0.466556657763267	0.765315526159022	-7.70843557961499	-39.4396271680485	58.4848610392416
46166	1653391557109	6.32458514879873	-1.05761220878164	7.70219755734931	-0.014808765861582	-0.0545989761697236	0.209266878446133	0.0199776962777484	-0.0121191336768233	-0.0250391413017286	0.505126953125	-0.4150390625	0.230712890625	0	0	0	0.109353152071505	-0.324628352733631	0.439020989661525	0.830613563198971	0.403754006476129	0.65831530983739	0.635298083649065	-0.800311844330201	0.590604917537284	-0.103376898800316	-0.443264767468909	-0.466697743956921	0.765316641466951	-7.69279691790142	-39.4420962812877	58.4786270175897
46167	1653391557109	6.29865608961846	-1.0712163090367	7.76737323148273	-0.041569026660058	-0.112932482434009	0.244060458993491	0.0241911033900532	-0.0153814338631806	-0.0288926709713815	0.509521484375	-0.41015625	0.227294921875	0	0	0	0.109518827170898	-0.324621247868115	0.438951596936983	0.830631186191641	0.403885081958041	0.658109494606424	0.635427992522067	-0.800318047971501	0.590654244083167	-0.10304652365621	-0.443134136196743	-0.46692553694933	0.765253343855319	-7.66913179197018	-39.4517351045152	58.4623516913724
46168	1653391557110	6.32319593928086	-1.0247933147935	7.67825324350462	-0.028027681929454	-0.0293347796332945	0.186659300252375	0.0211289231552979	-0.0231337434321312	-0.02546095437911	0.512939453125	-0.40966796875	0.223388671875	0	0	0	0.109628105614931	-0.324616977928626	0.438964901134291	0.830611408344437	0.403867266425295	0.658044220808343	0.635506911505218	-0.800392798171379	0.590582988062887	-0.102874208848003	-0.443015349334027	-0.467107629643804	0.765210992199535	-7.656878420434	-39.4575912924497	58.4609448593585
46169	1653391557111	6.30260836381507	-1.12375365014068	7.72258199570564	0.0244743364626588	-0.125768556294568	0.217644065353864	0.0254116362755598	-0.024937531285211	-0.0315253758781181	0.506103515625	-0.407470703125	0.232421875	0	0	0	0.109823750862873	-0.32464513678674	0.438881855350513	0.830618441855958	0.403976504409621	0.657779232457569	0.635711778428333	-0.800394218942811	0.590642921581002	-0.102518454285977	-0.442913172267332	-0.467404985567964	0.765088557814257	-7.63191902834025	-39.4727957550312	58.4437461922874
46170	1653391557112	6.29589569812293	-1.06672833748976	7.73116197265112	-0.0257086556098476	-0.104307498572234	0.21405359827556	0.0304314835558599	-0.0269958939298922	-0.030486710168094	0.510498046875	-0.41796875	0.224853515625	0	0	0	0.110022502750468	-0.324649739812527	0.438779974000585	0.830644165539148	0.404149361711409	0.657502496935086	0.635888166230815	-0.800377604500935	0.590734366609138	-0.102120508813092	-0.442785482645497	-0.467678708763857	0.764995190656364	-7.60355845546123	-39.4858892654891	58.4220595423893
46171	1653391557112	6.2535577142567	-1.09235406003959	7.72998933229057	-0.0201375494824208	-0.151955188183807	0.188785372972131	0.0357626026496361	-0.0405501921671093	-0.0405153006509966	0.507568359375	-0.41552734375	0.230712890625	0	0	0	0.11031005189783	-0.324714879567442	0.438667718121597	0.830639857288218	0.404261760130986	0.657111151120779	0.636221159950314	-0.800388411989108	0.590804651056578	-0.101628018988218	-0.442663324942728	-0.468139722051698	0.7647838788756	-7.56938186147615	-39.5106145729317	58.3997291040134
46172	1653391557113	6.26218932390289	-1.05262096597459	7.79237820924984	-0.0757961231001348	-0.15681196611382	0.237876948830388	0.0489742771193731	-0.0527992668413744	-0.046317023482395	0.50390625	-0.4150390625	0.23291015625	0	0	0	0.110610739065444	-0.324801480441225	0.438721284787466	0.830537715568065	0.404055265155247	0.656896083674627	0.636574330265727	-0.800602210879245	0.590577797355663	-0.101261864518672	-0.442465188049396	-0.468727426681509	0.764538525413169	-7.54481736156012	-39.5368476428675	58.404423196449
46173	1653391557114	6.24913605882162	-0.999355443448839	7.76641879917016	-0.110240251799437	-0.130424349912624	0.204223432688968	0.0582627411686162	-0.0671722489633653	-0.0473790497979213	0.513427734375	-0.407470703125	0.22998046875	0	0	0	0.11106052803723	-0.324924042000112	0.438603063332614	0.830492190738509	0.404103439531113	0.6563403665104	0.637116734553502	-0.800685309216495	0.590585823894677	-0.100555557874899	-0.442270783303635	-0.469495162811758	0.764179852084802	-7.49626869380348	-39.57715610503	58.3797298991323
46174	1653391557115	6.1647732704381	-0.993484441111253	7.80621211436924	-0.164596162818379	-0.208791083331201	0.180194777184395	0.0496167869156488	-0.080956914889775	-0.0467785907903355	0.518310546875	-0.40771484375	0.22705078125	0	0	0	0.111456978505273	-0.325036713891821	0.43854572642215	0.830425265994328	0.404057560918549	0.655903682962249	0.637595362389902	-0.80081412309691	0.590509975558687	-0.0999735415707847	-0.44207943597625	-0.470200305659445	0.763856953129763	-7.45648471987031	-39.6127445345415	58.3656077171826
46175	1653391557115	6.15915063181457	-1.08262027427492	7.82507936852227	-0.103199527523706	-0.285582250260259	0.199647415627311	0.0704949358004611	-0.103895505611598	-0.0514929128122965	0.510986328125	-0.40966796875	0.228759765625	0	0	0	0.112044495615501	-0.325281794611223	0.438410225298077	0.830321780667507	0.403976456897182	0.655151048644446	0.638420022973028	-0.800935187084923	0.590485010712714	-0.099147759494828	-0.441934212708224	-0.471279699948649	0.76327557019354	-7.40114946835703	-39.6741052328551	58.3413624127685
46176	1653391557116	6.15059834730281	-0.967279504282023	7.83821981410166	-0.203857350339674	-0.243775253969054	0.192419947749631	0.0852582032665413	-0.131158711703691	-0.0590656307823795	0.513671875	-0.41259765625	0.230224609375	0	0	0	0.112761260166017	-0.325588303134751	0.438231535150258	0.830198938006701	0.403890756923364	0.654211215452001	0.63943720727581	-0.80106620487916	0.59047603961124	-0.0981375669431689	-0.441775046683685	-0.472594680695668	0.762554310135211	-7.3334188411331	-39.749866254794	58.3100384590167
46177	1653391557117	6.1319038049505	-1.18226223686978	7.92296629216889	-0.0770085206509172	-0.440105362217339	0.26559283033893	0.0752554972551465	-0.154309474833901	-0.065151434187038	0.517333984375	-0.41357421875	0.231689453125	0	0	0	0.113501265074414	-0.3260241139727	0.438017962308243	0.830039760873031	0.403697083607301	0.65313635062352	0.640657140896088	-0.801152948146186	0.590515455043684	-0.0971877102890391	-0.441794769506878	-0.474029961973651	0.761651479869647	-7.27171895066387	-39.8408383106619	58.2802011154442
46178	1653391557118	6.36360335214691	-1.14310470624662	7.7908309362864	0.0436014808672608	-0.222812961408837	0.308951867156884	0.135967462523097	-0.205106843453092	-0.0799153369301823	0.51220703125	-0.414794921875	0.228271484375	0	0	0	0.114597565973492	-0.326459278710501	0.437934504317969	0.829762078637332	0.403275418543188	0.651940011760405	0.642139515887832	-0.801585766679146	0.590161535601452	-0.095758135706283	-0.441394602885244	-0.476112993902057	0.760583474433542	-7.17583373734597	-39.9515434474866	58.2599975575189
46179	1653391557119	6.3985063938255	-1.11510394256094	7.7898272359497	0.0360909269866188	-0.208125326358937	0.327385480391367	0.133107606918823	-0.201814170412678	-0.0769940380905886	0.51318359375	-0.41064453125	0.224365234375	0	0	0	0.1157005552473	-0.326957433033212	0.43773836400815	0.829516330867131	0.402967923319603	0.650563930095293	0.643726203936467	-0.801880556271991	0.589997012381871	-0.0942926235364654	-0.441139916861317	-0.478194623808585	0.759424436999599	-7.07780811328604	-40.070237668422	58.2253768956448
46180	1653391557120	6.44700709928947	-2.32262667403952	7.64677840002355	1.08463110898061	-0.840904424788382	0.363172848266084	0.0891135626089514	-0.194851510653441	-0.0507400578960721	0.516845703125	-0.409912109375	0.22021484375	0	0	0	0.11648864501318	-0.327520907838611	0.43774445982099	0.829180461906571	0.402219685649203	0.649633373247609	0.645132393264506	-0.802243240318035	0.589620366958046	-0.0935607088059874	-0.441163357318211	-0.479921142721585	0.75832090102313	-7.03353826090275	-40.175602586649	58.2363313967999
46181	1653391557120	5.08509882650849	0.663649201268865	9.01076473461485	-2.44944452549874	-0.658549482654123	0.240110386802744	0.53918145913449	-0.291497020076673	-0.123362705803147	0.512451171875	-0.406005859375	0.22607421875	0	0	0	0.119546111848907	-0.327472687484738	0.437966796586231	0.828646758988006	0.401893448079036	0.647543360020054	0.647432817584251	-0.804135706122105	0.587787624459607	-0.0887213315479198	-0.43800390698103	-0.484967324080779	0.756940732186664	-6.68515881802766	-40.3483257954226	58.174470752569
46182	1653391557122	7.49374779966475	-1.68832885405633	7.16016607711223	1.21799692752909	0.374869895150427	0.610868142114969	-0.126404671055126	-0.364850339038526	-0.050829138370457	0.5185546875	-0.409912109375	0.22705078125	0	0	0	0.119826560538695	-0.329236592117291	0.437427205663561	0.828192188773734	0.400521412312723	0.645645012901573	0.650173142781482	-0.803450166649158	0.58859807026967	-0.0895552420925791	-0.440511552618614	-0.486512927875661	0.754489723600918	-6.76913369936106	-40.5546573688905	58.1868906295588
46183	1653391557122	5.68857518333356	-1.23755511203144	7.47376937159957	-0.0187706389891388	-0.713343160266874	-0.366032346681978	0.256017958766782	-0.37154420507506	-0.128857126923186	0.51318359375	-0.402099609375	0.228271484375	0	0	0	0.121893329062096	-0.330134351137078	0.437114260376333	0.827698284343463	0.399884867149904	0.643115096555398	0.653065896833578	-0.804079796946811	0.588146279411622	-0.0868310667689892	-0.43994064732243	-0.490394664119429	0.75230665305892	-6.58393283792232	-40.7731581926342	58.1269145384629
46184	1653391557124	7.06475927790082	-0.676183787663962	7.40638385050394	0.110426166317297	0.49854024897061	0.432395716817629	0.144684603906163	-0.294305932783808	-0.121156117850038	0.5205078125	-0.4013671875	0.231689453125	0	0	0	0.12325803861947	-0.330846451926079	0.436783598514681	0.827386348226856	0.399521426632983	0.641218603583655	0.655149854674008	-0.804336542578132	0.588055087968495	-0.085052570730237	-0.439801496057713	-0.492980644582111	0.750696162327212	-6.46394815331808	-40.9310137060685	58.0743750809664
46185	1653391557124	6.73822383825532	-1.13736673404829	7.32430746739874	0.382182759657533	0.0230898193793826	0.197109566038939	0.104631313526781	-0.331041798745503	-0.118349166234475	0.52685546875	-0.398193359375	0.214111328125	0	0	0	0.124591382952016	-0.331910585592188	0.436285970768426	0.827022915146012	0.398979829765006	0.638930593013734	0.657710265049745	-0.804343388515111	0.588263078009513	-0.0835360066247106	-0.440280375207341	-0.495695721548908	0.74862470093191	-6.3670654421658	-41.1254775031949	58.0173076510031
46186	1653391557125	6.77578312505118	-0.607300557685789	7.22033721921284	0.0142865659240221	0.376417143292578	0.100502589725236	0.156029097656621	-0.270913749409626	-0.122415391896587	0.5234375	-0.397705078125	0.215087890625	0	0	0	0.126015847681681	-0.332561884193773	0.435825756114778	0.826788068141731	0.398917006976938	0.636854934402503	0.659758299736915	-0.804487205375684	0.588351832880098	-0.0815012707474533	-0.440074491343661	-0.498254867787373	0.747045198629109	-6.22624069633105	-41.2814419614688	57.9375476525161
46187	1653391557126	6.9167942779706	-0.654685716708817	7.1809877668439	0.124799389258744	0.428722491126445	0.169186514805798	0.0924704258763487	-0.222650626757474	-0.106699242459174	0.528564453125	-0.40087890625	0.218994140625	0	0	0	0.127042913248693	-0.333209676654589	0.435421069390453	0.82658326979676	0.398759607429237	0.635159686460618	0.661485410404592	-0.804487398640033	0.588537181048319	-0.0801499342051553	-0.440216765823694	-0.500196120755598	0.745662819154059	-6.13506345125831	-41.4132572567875	57.8789865772719
46188	1653391557126	6.89904888830223	-0.515398443214836	7.18562302584596	0.00190099979121836	0.47296967772449	0.150843408264183	0.091138405752053	-0.180799228915961	-0.0861177340369084	0.527587890625	-0.392578125	0.21630859375	0	0	0	0.127937035246666	-0.333731504917551	0.435075205305949	0.826416942811403	0.398665696706906	0.633713803508853	0.662927203779977	-0.804500280739092	0.588683361480558	-0.078937938956324	-0.440278276275266	-0.501855273119943	0.74451079527552	-6.05226444696143	-41.5235019392674	57.8262388948557
46189	1653391557127	7.01133884069785	-0.525891339300482	7.074272555702	0.103127848752506	0.576006487703488	0.144135894018362	0.0527691007219764	-0.124208399020283	-0.0597422368706667	0.5234375	-0.401611328125	0.223876953125	0	0	0	0.128507402787177	-0.334088394128223	0.434859695049204	0.826297669099601	0.398563981061078	0.632781441147527	0.663878302657952	-0.804512768470553	0.588765786101216	-0.0781924196099787	-0.440347542707565	-0.50293388915033	0.743741584675439	-6.00167851422191	-41.5963292733181	57.7947979121574
46190	1653391557128	7.06896568090079	-0.485528125755797	6.98832204965486	0.132163532485637	0.669169863364391	0.115927774774805	0.0297704783480715	-0.0572024485111135	-0.0340818517438429	0.525390625	-0.402099609375	0.218017578125	0	0	0	0.128794832000285	-0.334185571075803	0.434707912386729	0.826293486748582	0.398698069986223	0.632309884319201	0.66424698658067	-0.804475382253711	0.58888184431678	-0.0777015622868313	-0.440294456400496	-0.503390885521686	0.743463790669516	-5.96648753710534	-41.6245821622134	57.7668383454448
46191	1653391557129	7.09964920704997	-0.581747270200338	7.00086259611907	0.216639492540365	0.623158100427588	0.153268031398705	-0.0068651174788825	0.0178270371616522	-0.00501335032046429	0.525634765625	-0.406982421875	0.218505859375	0	0	0	0.1287188148724	-0.334119997169918	0.434709936502698	0.826330784428874	0.398782197193988	0.632413345536839	0.66409797438935	-0.804443465780365	0.588917475607329	-0.0777619269795024	-0.440276583029815	-0.503219204036564	0.743590588378038	-5.97007845768913	-41.6131616093788	57.7656137787482
46192	1653391557130	7.10630977283739	-0.546758026938291	6.93729496361305	0.219968780558443	0.686810839918748	0.107218960573849	-0.0148008023308753	0.0935946589920897	0.012793299119929	0.526123046875	-0.399658203125	0.221923828125	0	0	0	0.128379563331874	-0.333774270301561	0.434962608424159	0.826390315454041	0.398804531515024	0.633198184227247	0.663336268520273	-0.804597364518165	0.588652433983138	-0.0781753987911154	-0.439975029579526	-0.502541910149834	0.744226848406755	-5.99649765299777	-41.5548146973444	57.7962192788794
46193	1653391557131	6.97023771971956	-0.488306689333629	7.10122857645708	0.050231645557371	0.566102038021897	0.133522140504063	-0.0593953481338737	0.164245577476455	0.0421867743368103	0.517822265625	-0.40673828125	0.220458984375	0	0	0	0.127688777976215	-0.333248245387967	0.435166240461368	0.826602399033236	0.399151900217121	0.634314794254667	0.662059289144652	-0.804523039119896	0.58865183828332	-0.078941071762134	-0.439795907300588	-0.501132472581181	0.745282365849565	-6.04628330755932	-41.4571156266305	57.8192421712695
46194	1653391557131	6.87875097776368	-0.549383937639029	7.2061441719266	0.0202494545299619	0.441931214363761	0.154849552512324	-0.0816108723290026	0.21324013466192	0.0634102654894781	0.52197265625	-0.402587890625	0.217529296875	0	0	0	0.126725258537352	-0.332538905340409	0.435573697867013	0.826821709324386	0.399386860322917	0.636001421308313	0.66029715120937	-0.804565736320278	0.588432525150194	-0.0801320116106846	-0.439504393312298	-0.499248791124398	0.746717170567288	-6.12510722931716	-41.3225391692381	57.8726025066049
46195	1653391557132	6.86343570812616	-0.677581155638351	7.24842130913491	0.103270445739251	0.362180974356214	0.185490722669169	-0.0970880508331124	0.266173412275626	0.08507686022496	0.521728515625	-0.398193359375	0.230712890625	0	0	0	0.125584537108064	-0.331699665189509	0.435956000261341	0.827131320884813	0.399835395898603	0.637873026864196	0.658217029395104	-0.804498422511093	0.588341779750974	-0.0814631105262871	-0.43921969942589	-0.496962726769889	0.748407712305042	-6.21210709442723	-41.1640346665532	57.9194447934578
46196	1653391557133	6.85976634063029	-0.739214909003129	7.23591230920314	0.163455130858935	0.362434470939028	0.177462050797619	-0.117873794471267	0.30953636354375	0.096881273072468	0.5205078125	-0.406494140625	0.21484375	0	0	0	0.124240610083569	-0.33066646101088	0.4363937014804	0.827517069115096	0.400440457741551	0.640082067958365	0.655699920757873	-0.80441087935903	0.588249616228597	-0.0829790707090728	-0.438828641923667	-0.494223972794777	0.750447924737206	-6.30971878415694	-40.9727429809719	57.969573447417
46197	1653391557134	6.76270574160405	-0.685667926569851	7.30062976674589	0.0594155905149172	0.336345417339383	0.156602456814015	-0.128858551300985	0.352601604136342	0.111857427479618	0.517578125	-0.403076171875	0.226318359375	0	0	0	0.122734925108905	-0.32955306810144	0.436885773156219	0.827926164991258	0.401051193037241	0.642522983151259	0.652933500967605	-0.804313667682619	0.588133918744408	-0.0847231821951939	-0.438448930369707	-0.491185005618813	0.752661826926879	-6.42244962352933	-40.7631421596577	58.0283376003969
46198	1653391557135	6.78491783513541	-0.699067748980416	7.34535846010011	0.0645391476758843	0.362553272230459	0.204414200276888	-0.157268857965316	0.391476704773414	0.133114193508617	0.5205078125	-0.40771484375	0.229248046875	0	0	0	0.1209676822255	-0.328398789343717	0.437510790441411	0.828314773055451	0.401477086809826	0.645342021402437	0.649884469870539	-0.804244582972715	0.587902256208645	-0.0869573913122265	-0.438185804797164	-0.487754664310861	0.755042110029143	-6.56974881437616	-40.5328919635324	58.1136285047518
46199	1653391557136	6.77235619952683	-0.766518284917269	7.39529384662293	0.0986019507653925	0.337216097303806	0.238137909291652	-0.174995955165195	0.437714952264659	0.147778763959673	0.506591796875	-0.400634765625	0.231201171875	0	0	0	0.119024121293005	-0.327052874727189	0.438123239888758	0.828804984512332	0.402168887604118	0.64838308803948	0.646420572837572	-0.8040918121625	0.587762570439611	-0.0892833601711302	-0.437831638254356	-0.483874500190503	0.757739351366219	-6.72009562960759	-40.2722688833768	58.1901496168525
