// Start Time : 13/05/2022 07:08:54																																
// Update Rate : 100Hz																																
// Filter Profile : 46.1 human																																
// Firmware Version : 4.4.0																																
PacketCounter	Time_Of_Arrival	Acc_X	Acc_Y	Acc_Z	FreeAcc_X	FreeAcc_Y	FreeAcc_Z	Gyr_X	Gyr_Y	Gyr_Z	Mag_X	Mag_Y	Mag_Z	VelInc_X	VelInc_Y	VelInc_Z	OriInc_q0	OriInc_q1	OriInc_q2	OriInc_q3	Mat[1][1]	Mat[2][1]	Mat[3][1]	Mat[1][2]	Mat[2][2]	Mat[3][2]	Mat[1][3]	Mat[2][3]	Mat[3][3]	Euler_X	Euler_Y	Euler_Z
47600	1652425787097	5.9823603597636	-1.90774041723178	7.51273544177087	-1.3010426069826E-16	-8.67361737988403E-16	-0.0214002784916509	0.00952762434296775	0.00372931415854304	0.00432850569294644	0.3671875	-0.62841796875	0.51318359375	0	0	0	-0.173630236823764	0.293630656654495	-0.701694092435314	-0.625506977558648	-0.157187123771938	0.775862780952669	0.611006672019787	-0.979795422767218	-0.0450441169961913	-0.194863944967873	-0.123665426230269	-0.629291643561571	0.767267156666348	-14.2502042058317	-37.6623275511064	101.452910240592
47601	1652425787097	6.01726415419341	-1.84141895201296	7.56087754344051	-0.036954445172376	-0.0217786347570686	0.0241475264541933	0.0229794394801045	-0.000369002650355744	-0.00320181839275086	0.35888671875	-0.6201171875	0.513671875	0	0	0	-0.177170660734463	0.291887496385721	-0.704594648743391	-0.62205998697132	-0.163303859168302	0.773172474845178	0.612810063333253	-0.980028077224324	-0.0556861241258257	-0.190903178160609	-0.113476065461918	-0.63174629379333	0.766824492857171	-13.9797640232962	-37.7929673654298	101.926311631432
47602	1652425787098	6.03874034327541	-1.82311308522186	7.52112615191018	-0.0532821259638764	0.0192621505935654	0.00333295058079486	-0.00392123372524887	0.0039623191901032	0.00667329874699931	0.361328125	-0.625244140625	0.518798828125	0	0	0	-0.177134765947219	0.291894898073971	-0.704613191276193	-0.622045732925466	-0.163364761684078	0.773193789089662	0.612766937059318	-0.980012726895742	-0.0557129492552022	-0.190974140677842	-0.113520966179193	-0.631717841918717	0.766841286342411	-13.984462430059	-37.789840553666	101.930312531137
47603	1652425787099	5.96010891193609	-1.95437577586718	7.57010228509762	0.0823244550402811	-0.0646596090648555	0.0177741390896475	0.000840422070488346	0.00455656700905111	0.00172053513200792	0.361572265625	-0.619140625	0.5126953125	0	0	0	-0.177120263803176	0.291873792695611	-0.70462560371272	-0.62204570561998	-0.16337510454007	0.773225135399806	0.61272462428278	-0.980012188037726	-0.0557376585144428	-0.190969695818045	-0.113510733034503	-0.631677293726219	0.766876202575546	-13.9835379989255	-37.786772852011	101.930576390203
47604	1652425787099	6.06482898228066	-1.75663884000447	7.53594968826198	-0.124501216971744	0.0274440788745502	0.0179898536357186	0.0102663490690389	0.00496865445471288	0.00485637160766525	0.354736328125	-0.626220703125	0.517578125	0	0	0	-0.177127601713578	0.291826469620487	-0.704660089426528	-0.622026754014196	-0.163417060003518	0.773253810857838	0.6126772465937	-0.980015901579507	-0.0558400578388111	-0.190920718079169	-0.113418239940116	-0.631633146640033	0.766926248680078	-13.9792158335774	-37.7833380922757	101.93312252725
47605	1652425787101	5.96157696802845	-1.91431195955168	7.50087819856654	0.049955884145293	-0.0207377941708885	-0.0420559675676539	-0.025750236365093	0.0111092234258238	0.00480381695584003	0.36865234375	-0.61669921875	0.5185546875	0	0	0	-0.177001525897274	0.291886189266222	-0.704647308165021	-0.622049100506921	-0.163450752777134	0.773321846660425	0.612582380496124	-0.979979050214273	-0.055714738148347	-0.191146355168474	-0.113687785437661	-0.631560915059482	0.766945824691359	-13.9947448230158	-37.7764610256747	101.934492344914
47606	1652425787102	5.90113293218664	-1.91710534658636	7.4978985240914	0.0620708761093105	-0.0646279947018012	-0.0808265226334281	0.0104721942907052	0.00773650915726646	0.00205978724770268	0.3681640625	-0.619384765625	0.514404296875	0	0	0	-0.177003832938695	0.291827053088337	-0.704675843397922	-0.622043864966302	-0.163462146365591	0.773369556447584	0.612519106531071	-0.979987584254943	-0.0557968022871243	-0.191078652812637	-0.113597805488111	-0.63149524623278	0.767013228421574	-13.9888015847345	-37.7718745027116	101.934585215805
47607	1652425787103	5.96870173114744	-1.85537039929217	7.50215613391326	-0.00953959987230056	-0.0183030825615682	-0.0479692253162103	0.00456670460848584	-0.00736689465574455	0.00170841552389378	0.3583984375	-0.628173828125	0.5185546875	0	0	0	-0.177038857270969	0.291834912273857	-0.704682265783972	-0.622022934692819	-0.163489423464646	0.773324823216388	0.612568303303835	-0.979989300739337	-0.0558397053884867	-0.191057315323314	-0.113543731009789	-0.631546233540719	0.766979253988599	-13.9878960672655	-37.7754405913967	101.93719029508
47608	1652425787104	5.93909505985841	-1.8712418341502	7.50859872773745	0.0104642224102148	-0.0445455130231767	-0.0581316486301571	0.00804767337696275	0.00125130633883634	0.00327725380828474	0.3603515625	-0.6259765625	0.51220703125	0	0	0	-0.177054695348016	0.291805566014778	-0.704705308344511	-0.622006089109331	-0.163520119932274	0.773330894452705	0.612552445152507	-0.979993076819112	-0.0559158735074218	-0.19101566552645	-0.113466910436238	-0.631532059973904	0.767002292996033	-13.9845628560697	-37.7742910749742	101.939276240865
47609	1652425787105	5.95304491318431	-1.91219992711981	7.4678323624144	0.0535628287738941	-0.00581687185190644	-0.0730328721486568	0.0129351876921351	-0.00908837565358933	0.00205995908799098	0.364990234375	-0.63232421875	0.5146484375	0	0	0	-0.177120174278904	0.29178830665884	-0.704724034322763	-0.621974326968908	-0.163552760909969	0.773277322437508	0.612611358858619	-0.980003705349348	-0.056015041377481	-0.190932062894177	-0.113327983747498	-0.631588867653125	0.766976055921154	-13.9791416672689	-37.7785616674801	101.942394629576
47610	1652425787106	5.9807794099521	-1.90503035359806	7.51468163267687	0.0380470111191081	-0.0148922629292663	-0.021485525804037	0.0245823060254695	-0.00882701039266347	0.00159219398176055	0.353759765625	-0.62841796875	0.51904296875	0	0	0	-0.17722540066407	0.291730546354823	-0.704757026763271	-0.621934063153619	-0.16357835689738	0.773220676454527	0.612676020958839	-0.980028928309253	-0.0561826188254934	-0.190753277872033	-0.113072635203082	-0.631643331988166	0.766968891365953	-13.9666898638665	-37.7832492390411	101.945059833119
47611	1652425787108	6.00039922979775	-1.8959189711221	7.52810299713783	0.0261051885288771	-0.00907647901033209	-0.00091533852858916	0.0228859267451588	-0.00888127813040276	-0.000524667523690505	0.362060546875	-0.62158203125	0.517578125	0	0	0	-0.177322005532607	0.291676928284875	-0.704783209382433	-0.621902004847058	-0.163589605442206	0.77317070601283	0.612736077242792	-0.980053657577088	-0.0563249317470178	-0.190584181750389	-0.11284178862919	-0.631691824727307	0.766962951720388	-13.9548967806528	-37.7876031859051	101.946607527825
47612	1652425787108	6.03852054389819	-1.84882876251676	7.53893753440518	-0.0254672808889141	0.0109628233216319	0.0217779554918103	0.0252990126519391	0.00279457270025101	-0.0056082910879417	0.351806640625	-0.6259765625	0.52392578125	0	0	0	-0.177399002695131	0.291574112078806	-0.704805137777808	-0.62190340791013	-0.163531490145079	0.773191520804178	0.612725324992735	-0.980091347582172	-0.0564413767904449	-0.190355775800369	-0.112598410847984	-0.631655953144211	0.767028262016457	-13.9376844071549	-37.7868236528657	101.942173100469
47613	1652425787109	5.98157559690903	-1.89956685216539	7.51543092857616	0.0378453811677927	-0.0147096705268842	-0.0214844683615123	0.0166200548892799	0.00229957306515707	0.000831769732313407	0.361572265625	-0.62744140625	0.516357421875	0	0	0	-0.177434930254623	0.291509085417349	-0.704836224543147	-0.621888410582188	-0.163543300618194	0.773211170324542	0.612697376286416	-0.980106747283008	-0.0565545158054007	-0.190242872855562	-0.112447110915435	-0.631621779886799	0.767078597289355	-13.9288612882075	-37.784797423352	101.94271602397
47614	1652425787109	6.07122830481565	-1.85168758372474	7.67363201899315	-0.0402738906954043	-0.0481361530198087	0.145688466221836	0.0134594811718561	-0.00929373173747266	-0.00365646337009942	0.358642578125	-0.61572265625	0.515869140625	0	0	0	-0.177514863259422	0.29148730508834	-0.704836225206854	-0.621875807481268	-0.16351790678302	0.773154535175894	0.612775618720463	-0.98012785159435	-0.0566112620837159	-0.190117225769609	-0.112299994168937	-0.631686021487128	0.767047248588651	-13.9205665191264	-37.7904699950477	101.941764464346
47615	1652425787110	6.14679201014235	-1.82048434659576	7.55007852851465	-0.0696240073408835	0.0870625057379463	0.0912751414522486	-0.019403088751834	0.0174989868339411	0.00208188630511416	0.35888671875	-0.62841796875	0.515380859375	0	0	0	-0.177381605690961	0.291500687423547	-0.704833051514703	-0.621911154978401	-0.163524562551856	0.773273354278504	0.612623895228627	-0.980100794259334	-0.0565077290900625	-0.190287439536366	-0.112526221541675	-0.631549836605122	0.767126230388192	-13.9311658152135	-37.7794704475734	101.940454244342
47616	1652425787111	5.87736034645675	-2.02717268854771	7.46465199341882	0.184305648533479	-0.0541581723613191	-0.0999678388936225	-0.0310550025094857	0.0211073347106902	0.00773605011553955	0.3623046875	-0.634033203125	0.511474609375	0	0	0	-0.177199373990652	0.291551351761554	-0.704830551747237	-0.621942187399293	-0.163576594780608	0.773402276162503	0.612447235985796	-0.980053144235606	-0.0563714496379871	-0.190573067718434	-0.11286510582941	-0.631404132780561	0.767196382286663	-13.9500348885903	-37.7666651868223	101.942210645762
47617	1652425787112	5.87831217032265	-1.86767447465888	7.50746661786333	0.0220293763856574	-0.0879172599558859	-0.0968959947716836	0.0197840106821079	0.0100227421831326	0.000141516725772611	0.36376953125	-0.6328125	0.5166015625	0	0	0	-0.177213858019228	0.291453750167918	-0.704872351932882	-0.621936433664732	-0.16358064201267	0.773472306497159	0.612357709709519	-0.980070880502875	-0.0564995679869024	-0.190443871016144	-0.112705114121068	-0.631306890425931	0.767299920077996	-13.9391388122432	-37.7601766626414	101.941447404071
47618	1652425787113	5.93763671507684	-1.83471899335853	7.49477920859393	-0.0179794331924617	-0.0354313135506798	-0.0765762145514248	-0.0040181585693314	-0.00322167004918522	0.000292807870604642	0.36376953125	-0.622314453125	0.509765625	0	0	0	-0.177212289727939	0.29147818999565	-0.704864552098528	-0.621934266881302	-0.163587144096398	0.773451802010262	0.612381871264544	-0.980065871829799	-0.0564764648713553	-0.190476496686942	-0.11273922636279	-0.631334078664153	0.767272538252482	-13.9419117646719	-37.761927744223	101.942215926148
47619	1652425787114	5.92980533055078	-1.92414900671517	7.51058664447583	0.0691532227540354	-0.0461567068291191	-0.0522089034119002	0.00359052448423907	0.00419886914591179	-0.00761031832803956	0.36279296875	-0.6259765625	0.505615234375	0	0	0	-0.177203579529034	0.291443383558698	-0.704855679018826	-0.621963115736669	-0.163521548130464	0.773498846941159	0.612339968545018	-0.980078090127778	-0.056445273685985	-0.190422867140483	-0.112728171051002	-0.631279228914758	0.76731929116391	-13.9373232729958	-37.7588909180497	101.936859463301
47620	1652425787114	5.92161838225397	-1.92148880305725	7.47741787075131	0.0728315021874339	-0.0313611807217555	-0.0831872052104003	0.0168307047046636	0.00119764772415971	-0.00714812464766962	0.362060546875	-0.630859375	0.509521484375	0	0	0	-0.17726211539828	0.291374008760847	-0.704859033001399	-0.621975138618493	-0.163450138770067	0.773510443185034	0.612344385472536	-0.980108735845133	-0.0564962279182815	-0.190249946520518	-0.112565172482879	-0.631260461707128	0.767358658926321	-13.9244731094491	-37.7592110212538	101.931622362608
47621	1652425787115	5.95163883263198	-1.84451082730018	7.61584773850827	-0.0214763520636556	-0.0997262224915016	0.0267717034534662	0.0187507169629082	-0.00890902692142171	-0.0143293146647498	0.3544921875	-0.623779296875	0.50927734375	0	0	0	-0.177346961733506	0.291323151487669	-0.704842738099105	-0.621993240413546	-0.163344928087501	0.773484285706502	0.612405498206206	-0.980145388902373	-0.0565104605742975	-0.190056792720217	-0.112398625799001	-0.631291238344699	0.767357753142374	-13.9109011927846	-37.7636401203913	101.924553759617
47622	1652425787115	6.09335685435433	-1.79066491172875	7.56592925983808	-0.0899318323088737	0.0376938271027084	0.0650277282822493	0.0098550928973301	-0.00698119592684129	-0.00895906852031235	0.36572265625	-0.621826171875	0.5078125	0	0	0	-0.177415260505111	0.291302193470734	-0.704823036314253	-0.622005904232266	-0.163264960880209	0.773445270972116	0.612476093704606	-0.980171089133398	-0.0565033743586799	-0.18992631390392	-0.112290643313819	-0.631339672044259	0.767333714838085	-13.902140155467	-37.7687568059078	101.919466998781
47623	1652425787117	5.97510571797211	-1.97486876383381	7.47978816099775	0.119553267343849	0.0109215656338987	-0.0384961655427887	-0.0214980401579482	0.000296250640041637	-0.00999225155275864	0.352783203125	-0.62646484375	0.516357421875	0	0	0	-0.17734039911011	0.291359598753776	-0.704769163917367	-0.622061405850517	-0.163179980389491	0.773479738757949	0.612455212836841	-0.980159048868174	-0.0562983831306357	-0.190049285656942	-0.112519033598423	-0.63131575759505	0.767319934115011	-13.9110320400132	-37.7672433462836	101.912924446131
47624	1652425787117	5.95830140559012	-1.78985339006022	7.49213063653002	-0.0585487688779056	-0.020079275395879	-0.0744575860849146	0.0566366624328257	0.000714575145154706	-0.00842994658414165	0.36376953125	-0.625244140625	0.516357421875	0	0	0	-0.177526312655241	0.291150303743476	-0.704826059619216	-0.622041907452195	-0.163096547376536	0.773489013391038	0.612465723446801	-0.980236372799169	-0.0565907320066332	-0.189563030394861	-0.11196503773671	-0.631278254982946	0.767431817890231	-13.8748719985642	-37.7680051586343	101.906868641956
47625	1652425787118	5.96963983152295	-1.80968550263635	7.48864241728997	-0.0391371434484143	-0.00769524212656712	-0.0664195942143291	-0.0176617705730316	-0.00962912973588667	0.000245898840082746	0.360595703125	-0.62646484375	0.512939453125	0	0	0	-0.177479166266106	0.291236076404316	-0.704802778818355	-0.622041587284992	-0.163130818458911	0.773456606464385	0.612497521615821	-0.980209950571785	-0.0564916229771736	-0.189729147295462	-0.112146283348955	-0.631326836472205	0.767365386684214	-13.8877159959395	-37.7703099478203	101.909783903315
47626	1652425787119	5.98436748151561	-1.97268470369682	7.51336609592248	0.115555789267576	-0.00341032649133484	-0.00751300203095084	0.0177948860076429	-0.00517218804191719	-0.00168610112980645	0.36083984375	-0.62548828125	0.51318359375	0	0	0	-0.17755518289358	0.29118790146433	-0.704818888921237	-0.622024193169574	-0.163120120278736	0.773424959222022	0.612540332396703	-0.98023264362561	-0.0565910183050809	-0.189582227589881	-0.111963345479662	-0.631356705119703	0.767367526136853	-13.8773404629622	-37.7734130646367	101.909498539964
47627	1652425787120	5.94890741664657	-1.82496921756171	7.52854639811469	-0.0232258684198978	-0.0483140791314124	-0.0455921739111478	0.0387488581624532	-0.00261912129487913	-0.00406466504310331	0.361083984375	-0.62255859375	0.51171875	0	0	0	-0.177662704991947	0.291054010519214	-0.704870358209116	-0.621997833061963	-0.163109317842334	0.773436785176164	0.612528276710038	-0.980274556406556	-0.056812517253807	-0.189299054263922	-0.111611578677742	-0.631322324347592	0.767447052431251	-13.8560311510629	-37.7725392013898	101.90855547999
47628	1652425787121	5.97135210484357	-1.89643935416574	7.53799779001836	0.0441164618050267	-0.033047519557128	-0.0110599269561824	0.00816584973239845	-0.00835564157376375	-0.00202327881281002	0.359130859375	-0.623291015625	0.514404296875	0	0	0	-0.177720485006074	0.291049372859155	-0.704868554130296	-0.621985540961978	-0.163098832086882	0.773385226485154	0.612596165860024	-0.980286969306124	-0.056848498785055	-0.189223957242468	-0.11151784063776	-0.63138224526858	0.767411383534997	-13.8513649981444	-37.7774603194066	101.908582958627
47629	1652425787123	6.08571550082741	-1.82021903663669	7.60224242825646	-0.0552390167052332	0.0104335124187142	0.0938791341546992	0.0255241234624777	-0.00868202728049615	-0.00584027002267149	0.365966796875	-0.62255859375	0.509033203125	0	0	0	-0.177808033386013	0.290975118579424	-0.704890895036853	-0.621969942782796	-0.16307538707633	0.773366472110631	0.612626083304541	-0.980317326506108	-0.0569737412849127	-0.18902891883497	-0.111285028111705	-0.631393928240648	0.767435567262178	-13.8372177046436	-37.7796290655934	101.907200501936
47630	1652425787123	6.06940288349308	-1.81706369925684	7.53530099343781	-0.0478705812865891	0.040011698920513	0.0319172573067448	-0.0200259983006843	0.0105118351188674	0.0014160672318622	0.3583984375	-0.61962890625	0.514892578125	0	0	0	-0.177706656594187	0.291014201604707	-0.704875528781197	-0.621998044684964	-0.163077553220394	0.773432079719171	0.6125426758169	-0.980292722873568	-0.056858333744912	-0.189191192619738	-0.111498381677836	-0.631323964336085	0.767462157332981	-13.8481779790477	-37.7735829299702	101.906372920504
47631	1652425787124	5.87968903316598	-2.04363973568803	7.48313815519796	0.209853696544891	-0.0598436889844317	-0.0814519181476374	-0.00287224146852023	0.00742018126343166	0.00039963982953494	0.35302734375	-0.624267578125	0.5048828125	0	0	0	-0.177652702439409	0.290993600401735	-0.704885369739048	-0.622011943108053	-0.163081319893837	0.773502637991764	0.61245257132407	-0.980285836007531	-0.0568477343123586	-0.18923005793628	-0.111553407947495	-0.631238468507214	0.767524483682421	-13.8498318093036	-37.7670518898323	101.905584960229
47632	1652425787124	5.93018620563858	-1.82820431757906	7.51587946109875	-0.0119390548710849	-0.053146440105825	-0.0661538366934309	0.0329178622415732	-0.000156070682510059	-0.00576188331072899	0.361083984375	-0.627197265625	0.51025390625	0	0	0	-0.177764087268718	0.290872879665383	-0.704915175778362	-0.622002807156084	-0.163024874334943	0.77350493235225	0.6124647010031	-0.980331940212011	-0.0570109515302387	-0.188941891611601	-0.111230289706668	-0.631220936782326	0.767585794305375	-13.828488823669	-37.7679310512454	101.901547450759
47633	1652425787125	5.94138818607426	-1.84831503222827	7.51246224304308	0.00716384221840919	-0.0407212491134492	-0.058111952113995	-0.00253371358457216	-0.00461666171767162	-0.00383479036542098	0.36279296875	-0.620361328125	0.5087890625	0	0	0	-0.177739387428461	0.290894932665531	-0.704908195614717	-0.622007463026993	-0.163030852190559	0.773509342566461	0.612457539913113	-0.980323291118521	-0.0569737081764812	-0.18899799328875	-0.111297736385666	-0.631218895106146	0.767577696612144	-13.8325775050819	-37.7674120128351	101.901905490249
47634	1652425787126	5.91480617708987	-1.91428610434671	7.49837809368352	0.078467686829914	-0.0488408034747724	-0.0727410236030153	0.0178921472088062	-0.00185090228233177	-0.000489087743842752	0.36279296875	-0.6298828125	0.518798828125	0	0	0	-0.177802211666264	0.290837265062764	-0.704931049626836	-0.621990573923274	-0.163028198954362	0.77349791834121	0.612472674221072	-0.980343954193717	-0.057082822402815	-0.188857837704331	-0.111119475437584	-0.631223036420838	0.767600117554794	-13.8223249409482	-37.7685089572739	101.901888087341
47635	1652425787127	5.97473468274716	-1.88030673338806	7.48536651840593	0.0378071716878491	0.00433978611832301	-0.0524480542382015	0.0192734140889812	-0.00656361254397714	-0.00580591531907624	0.35888671875	-0.634765625	0.509521484375	0	0	0	-0.177848680700333	0.290780252581834	-0.704951587637483	-0.621980667359515	-0.163019792408327	0.773502749279045	0.612468810749498	-0.980362286460601	-0.0571737882789147	-0.18873511920038	-0.110969971473772	-0.63120888364439	0.767633382963192	-13.8131117306774	-37.7682289288063	101.901219658304
47636	1652425787126	5.96734921683274	-1.90774510266632	7.46821055595315	0.0693798057182879	0.0105362742497603	-0.0649700792028991	0.0168477958199154	-0.00917405961737074	0.000599836028135927	0.364990234375	-0.622314453125	0.5078125	0	0	0	-0.177932535348608	0.290750005583514	-0.704969749535818	-0.621950238650174	-0.163035827014816	0.773444436637718	0.612538180478375	-0.980379979222105	-0.0572846697923565	-0.188609551580101	-0.110789960962449	-0.63127028287489	0.767608894235206	-13.8046968974015	-37.7732570808658	101.903228636792
47637	1652425787127	5.95991581521202	-1.96534588616821	7.46775000583658	0.127922281757111	0.00862350169188417	-0.0590197307585623	0.0240257899788622	-0.0021001119516325	-0.00557302268484063	0.361083984375	-0.628662109375	0.505126953125	0	0	0	-0.1779744006849	0.290679154811448	-0.705000865790346	-0.621936106761631	-0.163041183614071	0.773464090728132	0.612511936863132	-0.980397884204775	-0.057402216128575	-0.188480699888151	-0.110623510577641	-0.631235523348956	0.767661483317905	-13.7947174329478	-37.7713548148569	101.903314717227
47638	1652425787128	5.96542881938505	-1.88297570101745	7.5057462124605	0.0450435247013289	-0.0157043936050563	-0.0420226995914739	0.0446682861545382	-0.00562718189352219	-0.00633052556181363	0.36474609375	-0.625732421875	0.51806640625	0	0	0	-0.178142240079944	0.290533886445656	-0.705040971715179	-0.62191046890127	-0.162985421940603	0.773432007926866	0.612567287201218	-0.980457437329111	-0.0576348589955685	-0.188099539113184	-0.110176975003288	-0.631253635350147	0.767710806252164	-13.767032311509	-37.775366936207	101.899839269318
47639	1652425787129	5.92519730806372	-1.90467690410616	7.53292266714888	0.0721114403160945	-0.0619546422678796	-0.0417282468355768	0.0312130509334121	-0.000212159670065589	-0.0078698867654946	0.35205078125	-0.631591796875	0.50830078125	0	0	0	-0.178195697129539	0.290434016611619	-0.705079696403523	-0.621897899368437	-0.162978592571285	0.773466980040895	0.612524945736826	-0.980483348281852	-0.0577821695119337	-0.187919197072843	-0.109956273606788	-0.631197315958261	0.767788751038719	-13.7529912657649	-37.772297755739	101.898832171128
47640	1652425787129	5.95049157216299	-1.93433401635747	7.47254611602516	0.107089202474515	-0.00280516969446297	-0.0670490462162743	0.0412903543712449	-0.0148048584624182	-0.0118612820365115	0.357177734375	-0.6259765625	0.5087890625	0	0	0	-0.178393388290014	0.290324374634408	-0.705089406029259	-0.621881408319026	-0.162878626003107	0.77338008783618	0.612661238311877	-0.980547883413025	-0.0579505429605702	-0.187530218644388	-0.109528085556066	-0.631288344822774	0.767775113015097	-13.7258359504873	-37.7821775693887	101.893039650501
47641	1652425787129	5.99748972215687	-1.85596996788791	7.50002354834433	0.0224008962036145	0.0116637673224463	-0.0318785520662921	0.0530245585646172	-0.0112136029895039	-0.0111235905656432	0.357421875	-0.628173828125	0.509765625	0	0	0	-0.178539515605391	0.290188687288841	-0.705146066632788	-0.621838557705519	-0.162880899036225	0.773353730767876	0.612693903867632	-0.980594321418733	-0.0582146678405988	-0.18720531309112	-0.109108155196972	-0.631296332601114	0.767828334273943	-13.7020384685737	-37.7845456832925	101.893594690099
47642	1652425787130	5.94197554307571	-1.90444648731096	7.47627027046732	0.0858294427716972	-0.0141279431704595	-0.0750778318399803	0.0374721869409592	-0.0152657797985039	-0.0143529704691869	0.360595703125	-0.62353515625	0.510498046875	0	0	0	-0.178730139694149	0.290091906154555	-0.705142176944319	-0.621833364690858	-0.162757607444313	0.773265531127153	0.612837971726333	-0.980658198771736	-0.0583399050817264	-0.18683134816414	-0.108717332568354	-0.63139280471486	0.767804446297053	-13.6761052866844	-37.794990895992	101.886165078414
47643	1652425787130	5.92468119968096	-1.93819828889612	7.47920831681732	0.124148242563552	-0.0279326929566262	-0.0771430952068392	0.0525098210052189	-0.0200519457363944	-0.00668265172299651	0.361083984375	-0.630615234375	0.510498046875	0	0	0	-0.178905997751334	0.289989889174418	-0.705200320602528	-0.621764437683035	-0.162803256002599	0.773175100665558	0.612939934696507	-0.98069882250775	-0.0586296964186178	-0.186527151454621	-0.108281666808683	-0.631476699814543	0.767797016290418	-13.6547994364942	-37.8023843111768	101.8907549196
47644	1652425787131	5.95607366447571	-1.88678763048863	7.45582882930971	0.076238245924253	0.00689450435868282	-0.0854934234597433	0.0631842712639613	-0.0224799989341328	-0.0138917412360127	0.35986328125	-0.61669921875	0.516845703125	0	0	0	-0.179201135682173	0.289825394925146	-0.70522863600623	-0.621724025901762	-0.162692377173449	0.773041093677763	0.613138367658671	-0.980789253358244	-0.0589209521459769	-0.185959032841078	-0.107627277707047	-0.631613638931032	0.767776386853406	-13.6151124572173	-37.8167749635827	101.884888232072
47645	1652425787131	5.96954934567671	-1.9637988506417	7.48510550684191	0.150190637399872	0.00228472145104028	-0.0404683206113159	0.0579204956891611	-0.0319013948762654	-0.00450057447740206	0.372802734375	-0.625	0.5146484375	0	0	0	-0.179425595614524	0.289742051881342	-0.705293353997445	-0.621624713003752	-0.162778343642752	0.772881277057463	0.613316999939628	-0.980829837991	-0.0592645191091846	-0.185635518372175	-0.107126279443801	-0.631777055889798	0.767711998019926	-13.5934032923129	-37.8297320410434	101.893378264058
47646	1652425787132	5.99895482436802	-1.89160907833412	7.498133392991	0.0788530158178393	0.0104055331456435	-0.0258943062993371	0.0749326899330653	-0.033122308821734	-0.0105382702642626	0.35498046875	-0.61572265625	0.5087890625	0	0	0	-0.179789846845008	0.289572080208968	-0.705339454150454	-0.621546358491175	-0.162711470435619	0.772678098552014	0.6135906888201	-0.980926578357456	-0.0596562692196227	-0.18499777678321	-0.106339199078294	-0.631988675184011	0.7676472426698	-13.549528828878	-37.8495884559665	101.89166841589
47647	1652425787133	6.00401999290539	-1.81604178722498	7.58837324774885	-0.00109727668540706	-0.0489054993923216	0.0324777676642043	0.0655060416891233	-0.0296681907686216	-0.00850077516438364	0.363037109375	-0.63330078125	0.5107421875	0	0	0	-0.180046052252478	0.289463329856862	-0.705396978070033	-0.621457563367074	-0.162747832004315	0.77251511477063	0.613786233658604	-0.98098203402097	-0.0600029552040739	-0.184591154432868	-0.105770468969256	-0.632155078139611	0.767588799472951	-13.5218333665368	-37.8637787144233	101.896688120415
47648	1652425787133	6.02799325064335	-1.82384002030231	7.56423827651742	0.0104521179142651	-0.0164683888531617	0.030097463389934	0.0560834386892836	-0.0262150963666173	-0.00647012962237217	0.360107421875	-0.6298828125	0.524169921875	0	0	0	-0.180321628376866	0.28934201377038	-0.705434314947103	-0.621391773925217	-0.162712747275174	0.772352914543568	0.613999623184104	-0.981051406867234	-0.060306924730745	-0.184122817470678	-0.105179365647382	-0.632324323607416	0.767530618813633	-13.4897666032362	-37.8792670409745	101.89662322859
47649	1652425787134	6.03246516152902	-1.80971906704341	7.51009139028612	0.00356140204852185	0.019606477844791	-0.0113204637160731	0.0487786767969229	-0.022359039174713	-0.00405768531481545	0.367431640625	-0.62109375	0.518798828125	0	0	0	-0.180447354634084	0.289283386389223	-0.705513154315079	-0.621293057786043	-0.162867377104859	0.772260006278335	0.614075484104333	-0.981061693532434	-0.0606201174121036	-0.183965091384792	-0.104843554681515	-0.632407846304843	0.767507749129489	-13.4790195822899	-37.8847739943134	101.908997945015
47650	1652425787134	6.03160163644203	-1.81547441522922	7.56337422217442	0.00796161675376786	-0.0156808784793359	0.0301010790991718	0.0537405498994889	-0.0203070867071341	-0.00275236628795074	0.360595703125	-0.622802734375	0.51171875	0	0	0	-0.180689020093737	0.289155448178544	-0.705564061277054	-0.621224565065211	-0.162863035554209	0.772133025012671	0.61423629275292	-0.981121883357256	-0.0609383330964099	-0.183538468874898	-0.104285577370888	-0.632532300554062	0.767481209612462	-13.4493461769624	-37.896448899464	101.910592065867
47651	1652425787136	6.0110446532742	-1.76852357936018	7.57005605520041	-0.0328994482695846	-0.0391015070382388	0.0139839842677745	0.0414527404769863	-0.0133296359458621	-0.0055326887925474	0.355712890625	-0.623046875	0.51806640625	0	0	0	-0.180807684081992	0.289074693390395	-0.705614619017834	-0.621170196038472	-0.162912337860867	0.772079690768579	0.61429025816417	-0.981147394123097	-0.0611668183895516	-0.183325970155775	-0.103968077688122	-0.632575348421668	0.767488806036311	-13.4342113197368	-37.9003672694947	101.914894132469
47652	1652425787137	6.04738105951258	-1.85071542771186	7.52297482309445	0.0496625486198913	0.023395796440316	0.0152372036389039	0.032043543884345	-0.00598569068377285	0.00164031964810869	0.363525390625	-0.62744140625	0.5146484375	0	0	0	-0.180925181130292	0.288982756781726	-0.705660605272348	-0.621126521155287	-0.162935847101004	0.772040518509765	0.614333254438218	-0.981177548966825	-0.0613816220007303	-0.183092637438031	-0.103646163136573	-0.632602350817426	0.76751009023161	-13.4173726545807	-37.9034893316829	101.917151713281
47653	1652425787138	5.9800619898371	-1.90991985727045	7.5201565882461	0.119518937260003	-0.0222057629704277	-0.0174378971416758	0.028853084695751	0.000525666201992624	-0.000252732928951399	0.369140625	-0.6318359375	0.517333984375	0	0	0	-0.180927734137374	0.28890919913911	-0.705731359502471	-0.62107960672325	-0.163050554264818	0.772087336880753	0.614243975129037	-0.981174083967484	-0.0615831935305822	-0.183043511835691	-0.103498471991154	-0.632525615689167	0.767593259345427	-13.4125018838165	-37.8970066957351	101.924598853654
47654	1652425787139	6.03393421616347	-1.80396477514123	7.56426752723199	0.00469198616344793	-0.0145321169612306	0.0301049438636696	0.0372052596256263	-0.00117938707492956	0.000129257461603169	0.361083984375	-0.62548828125	0.50732421875	0	0	0	-0.181046139297099	0.288782758758185	-0.705784642351201	-0.621043357834873	-0.163054886269602	0.77207972125068	0.614252397713741	-0.98121173552562	-0.0618193318663944	-0.182761867670456	-0.103134059022265	-0.6325118767589	0.767653627379254	-13.3915932535182	-37.8976182413802	101.925020859097
47655	1652425787140	6.01754178960993	-1.82950028515545	7.51469008746073	0.0378757272729869	0.00648879026063063	-0.0133521560733261	0.0262983251558832	0.00495565988479511	-0.00279758214268996	0.364013671875	-0.627197265625	0.514404296875	0	0	0	-0.181037957922536	0.288736616547023	-0.705844798153769	-0.620998828481568	-0.163171425631516	0.772113010612329	0.614179602966872	-0.98120216036087	-0.0619832425789949	-0.182757758091291	-0.10304079949486	-0.632455197213652	0.767712848112431	-13.3903071894841	-37.8923329401628	101.932799948638
47656	1652425787140	5.96049479342867	-1.88013367397222	7.49214107124999	0.10133405781	-0.0193214811622825	-0.0564618489285546	0.0276723033847544	0.00411789529865125	-0.00292682686823444	0.367431640625	-0.62646484375	0.51123046875	0	0	0	-0.181112234377882	0.288625289977491	-0.705879402387957	-0.620989589146615	-0.163140577460338	0.772140377820336	0.614153392016503	-0.981234662483486	-0.0621347443138546	-0.182531670375231	-0.102779808945276	-0.632406918438216	0.767787601088122	-13.3730823670259	-37.8904299731138	101.930197917776
47657	1652425787141	5.9953295048485	-1.81165770072031	7.5398183123175	0.0242533485957194	-0.0259609471762987	-0.0109693197148406	0.0359021270431737	0.00425772721340694	-0.00760886241811655	0.365966796875	-0.62841796875	0.5185546875	0	0	0	-0.181149217400619	0.288541277363884	-0.705934656647905	-0.620955032861291	-0.163199616398754	0.772169302668962	0.614101337910144	-0.981245408997932	-0.0623175568429038	-0.182411538641646	-0.102583295559173	-0.63235361161684	0.767857784584723	-13.3634191465388	-37.8866508874446	101.933957324042
47658	1652425787142	5.98711316873315	-1.83811960474171	7.52387776107283	0.0557985830164887	-0.0197862719362261	-0.0234361679637391	0.0212078962809088	0.00474746512878304	-0.00915405554451937	0.35888671875	-0.63330078125	0.515869140625	0	0	0	-0.181210070407368	0.288445783671358	-0.705940906953897	-0.620974537444397	-0.163107068457348	0.772204094781958	0.61408217709133	-0.981281217853139	-0.0623793074558661	-0.182197676961009	-0.102387771281104	-0.632305035566936	0.767923880530346	-13.3472050130592	-37.8852598764604	101.926861641884
47659	1652425787143	5.99808089581021	-1.85687108595964	7.52119251128258	0.0729056173966194	-0.00724986788264041	-0.0153452416502535	0.0358951110047812	0.000361744013480461	-0.0127558193173866	0.36181640625	-0.621337890625	0.517333984375	0	0	0	-0.181228982108673	0.288365392957637	-0.705994337123837	-0.620945611255379	-0.163165207813075	0.772247837134234	0.614011720572835	-0.981288503698554	-0.0625438960141427	-0.182101986755842	-0.102225180207073	-0.632235351046483	0.768002912376484	-13.33912200567	-37.8801451961776	101.930334705506
47660	1652425787144	6.02508909757086	-1.81691251813179	7.55205572312841	0.0293491361690631	-0.00771845911098881	0.017648012926939	0.0328253351205491	0.00502866908578005	-0.00958869298703269	0.364501953125	-0.623291015625	0.5126953125	0	0	0	-0.181324997461237	0.288228035087663	-0.706016373169591	-0.620956299510395	-0.163069038788077	0.772284733493224	0.613990862311511	-0.981336524415335	-0.0626757477757223	-0.181797625092255	-0.101917194021239	-0.632177222821302	0.768091690170375	-13.3161378179661	-37.8786310916019	101.922950979751
47661	1652425787145	5.98730442414927	-1.88943777874904	7.55988549421523	0.107365130939273	-0.0360701734858441	0.0136460843592658	0.0283780605691661	0.00663380858364999	-0.0114462242310743	0.361572265625	-0.62060546875	0.514892578125	0	0	0	-0.18134489221796	0.288133146019805	-0.706045426877685	-0.620961492700065	-0.163041709300327	0.772351095757277	0.613914640573883	-0.981356992994811	-0.0627722294968736	-0.181653790227934	-0.101763713221413	-0.632086570088722	0.768186640462372	-13.304391043867	-37.8730984079474	101.920014952818
47662	1652425787145	5.98636272362033	-1.82619046837283	7.52737899945328	0.0516100197828258	-0.0189451160180004	-0.0234115253100757	0.0334397777631699	0.012015100805232	-0.00897744583517297	0.3603515625	-0.616943359375	0.510009765625	0	0	0	-0.181417227493063	0.287972651492548	-0.706076474092737	-0.620979511975919	-0.16294447054976	0.772431648544362	0.613839105828471	-0.981404448654779	-0.0629123953970036	-0.181348666016656	-0.101461360516543	-0.631974191587322	0.768319083122164	-13.2806278537866	-37.8676160006569	101.911902132826
47663	1652425787147	5.99660935821619	-1.84475923192514	7.52534523314953	0.0701816345686254	-0.00680743973629572	-0.0153250327939869	0.0313248812010603	0.0116097804436019	-0.00936266877794083	0.367431640625	-0.6240234375	0.519287109375	0	0	0	-0.181437305659525	0.287847801426371	-0.706111512706882	-0.620991689921705	-0.162899650326394	0.772526104036399	0.613732126017436	-0.981431422159674	-0.063025928524379	-0.181163174876351	-0.101272244574603	-0.631847411101749	0.768448294658033	-13.2653725004577	-37.8598519686435	101.907304664488
47664	1652425787147	6.02570532226276	-1.85562523739301	7.53680832930549	0.0779183013370552	0.0108489943925539	0.013286345329707	0.0343705961364354	0.0160098205972519	-0.0112664987930118	0.362060546875	-0.623779296875	0.511962890625	0	0	0	-0.181501638136765	0.287669728375493	-0.706140317427989	-0.621022652431246	-0.162776041041861	0.772633211950523	0.61363008421504	-0.981483319720564	-0.0631539850872597	-0.180837129146368	-0.100967586744659	-0.631703644091608	0.768606565460082	-13.2397094181486	-37.8524470733411	101.896924509483
47665	1652425787148	6.03527375608824	-1.84386595910989	7.51837365986954	0.0678407725301298	0.0314628900048022	0.00284726180704986	0.0347864630754368	0.0202473207763919	-0.00784329821540253	0.359130859375	-0.6220703125	0.519775390625	0	0	0	-0.181477467447443	0.287534196933349	-0.706206337214398	-0.621017410127108	-0.162806610255763	0.772770905376477	0.61344855975106	-0.98149481683247	-0.0633229238258265	-0.180715610419092	-0.100806409459045	-0.631518277741642	0.768780028805514	-13.2282452261632	-37.8392761759744	101.897035284218
47666	1652425787149	6.03662426392413	-1.86130681336858	7.48345879405144	0.091235974414353	0.0581346557155488	-0.0200500214715795	0.038589542168064	0.0207286249298498	-0.00532453753364688	0.360107421875	-0.619873046875	0.520751953125	0	0	0	-0.181529610866768	0.287332364721091	-0.706263717032862	-0.621030333047646	-0.162736651626579	0.772903718102279	0.613299783760799	-0.98154104753127	-0.0635228752370305	-0.180394058474324	-0.10046867287163	-0.631335637252717	0.768974225124691	-13.2023151981791	-37.8284831678966	101.890083356499
47667	1652425787150	5.92960673839665	-1.81442537956558	7.56546928930465	0.0551801020049011	-0.0765497084288195	-0.0310823824228663	0.0236272355719666	0.00997115224397372	-0.00133557536654056	0.36083984375	-0.617431640625	0.5185546875	0	0	0	-0.181481875144763	0.28723975958583	-0.706329971718244	-0.621011771675481	-0.162817416868841	0.773020833876943	0.61313071946882	-0.981536074620013	-0.0636753999071094	-0.180367340907953	-0.100386368515322	-0.631176864150505	0.76911529901403	-13.1980917976331	-37.8162202535506	101.894065322986
47668	1652425787151	5.96489986544278	-1.86786354545298	7.50247708084094	0.109850566061837	-0.00549004365026354	-0.0482616506377393	0.0189086552228611	-0.00356937110926586	-0.00279519905329186	0.3505859375	-0.62451171875	0.515625	0	0	0	-0.181554822961339	0.2871847931864	-0.706345203091687	-0.620998546609671	-0.162797302736305	0.77299912048101	0.613163434948111	-0.981558257617593	-0.0637713993423205	-0.180212639758249	-0.100201921760503	-0.631193764514119	0.769125481643922	-13.1869990200174	-37.8185930801148	101.892962347165
47669	1652425787152	5.99221460741473	-1.82936456204494	7.53260048707268	0.064388028483854	-0.0050407690934195	-0.0152841761937488	0.0233513790838301	-0.00516954121700595	-0.000925978193878441	0.361572265625	-0.622314453125	0.52197265625	0	0	0	-0.181546382348539	0.287147703923329	-0.706400265613385	-0.620955531361995	-0.162910278254201	0.773025050882489	0.613100735562489	-0.981547558270368	-0.0639208484050058	-0.180217968007256	-0.10012308471386	-0.631146889279596	0.769174214375437	-13.18656896709	-37.814045612687	101.90059254568
47670	1652425787153	5.99259483970585	-1.82747049165485	7.53275775784267	0.0642983138038987	-0.00504877097848141	-0.015283591124513	0.0228117298793809	-0.00366709442916798	-0.00426101525059177	0.3662109375	-0.627197265625	0.52099609375	0	0	0	-0.181633201250867	0.287077837875976	-0.706416966762874	-0.620943446920377	-0.162877231860008	0.77300423920637	0.613135754552451	-0.981575706012734	-0.0640311014541936	-0.18002541879459	-0.0999006541881786	-0.631161203034173	0.769191390407635	-13.1726877348653	-37.8165854390221	101.898558527053
47671	1652425787155	5.99291435337685	-1.82529359251875	7.53303137880244	0.0620327299697118	-0.00456144361327976	-0.0152687455247289	0.0274518562296722	-0.00252004858510742	-0.00520882759930846	0.360595703125	-0.622314453125	0.51416015625	0	0	0	-0.181640619048778	0.287036370718956	-0.706472617549715	-0.620897131615634	-0.162986874926109	0.773018715469403	0.613088365683004	-0.981568571737025	-0.0641937476719365	-0.180006393603033	-0.0997918713120418	-0.63112695101213	0.769233614792135	-13.1706463761135	-37.8131484818899	101.906123070636
47672	1652425787156	5.98507989252385	-1.82222060362107	7.4997352155912	0.0657276308309536	0.0101894381659385	-0.0462513039600729	0.0220730042851483	-0.00491118350791088	-0.00477532934727606	0.35888671875	-0.625	0.513427734375	0	0	0	-0.181730150201383	0.286972539626329	-0.706485581052252	-0.620885688169296	-0.162950229468645	0.772990446886694	0.613133747022642	-0.981596697806555	-0.0642954474539096	-0.179816624070105	-0.0995748239836943	-0.631151221545685	0.769241828016396	-13.1571090424103	-37.8164398363144	101.903945407521
47673	1652425787157	6.00440279711167	-1.81222305833326	7.51336407284345	0.0514020464801736	0.0159201842502321	-0.0257190486924816	0.0303964020704943	-0.00144804803320067	-0.00827742348888492	0.361328125	-0.62548828125	0.5126953125	0	0	0	-0.181754830967392	0.286939728226446	-0.706525313601314	-0.620848415497627	-0.163024852788202	0.772984879313425	0.613120929120999	-0.981595606519933	-0.0644256746788393	-0.179775965309442	-0.0994633733298365	-0.63114476057002	0.769261547570696	-13.1539120347274	-37.8155101825748	101.909324537468
47674	1652425787157	5.9858580318506	-1.84754858959547	7.51737520848689	0.0910311475410866	0.00159369368948593	-0.0276695989080356	0.0216303914812843	-8.25967631512431E-05	-0.00694538815167254	0.365966796875	-0.628173828125	0.511962890625	0	0	0	-0.181828383988629	0.286861260495493	-0.706535346948123	-0.620851721038056	-0.162963158520335	0.772988333404251	0.613132975288392	-0.981626411103598	-0.0645075154220411	-0.1795783101545	-0.0992602538227011	-0.631132170686136	0.769298112006041	-13.1393491031486	-37.816383863824	101.904894580788
47675	1652425787158	6.00489838612633	-1.8373963875008	7.53126680332335	0.0761667904574553	0.00664307705542978	-0.0071295762484258	0.0339775788015615	0.00145122319056764	-0.00684398159543958	0.366455078125	-0.62744140625	0.519287109375	0	0	0	-0.181856810159901	0.286848585452923	-0.706586850948197	-0.620790634344006	-0.163094177818465	0.772954261339833	0.613141092276739	-0.981615736337226	-0.0646737546688485	-0.179576868310366	-0.0991505690192635	-0.631156886466136	0.769291979244246	-13.1393483781206	-37.8169725764435	101.914702635761
47676	1652425787160	5.9723024138454	-1.82987742227647	7.57570340522215	0.0725801539362985	-0.0463326833018148	0.00569917266878228	0.0327981079983539	0.00503374459633655	-0.00953395772222878	0.365234375	-0.615234375	0.521240234375	0	0	0	-0.181950077388484	0.286713822705447	-0.706609198778281	-0.620800123558195	-0.163002751856909	0.77299095135862	0.613119149925013	-0.981661360277037	-0.0648047809195195	-0.179279988032719	-0.0988487563205211	-0.631098510129496	0.769378706415909	-13.1169503300285	-37.8153811423943	101.907665241352
47677	1652425787158	6.01280124600717	-1.80206399836877	7.54938454860531	0.0427182338252157	0.000442014898879937	0.0052856787694644	0.0359863767862324	-0.0014664372964877	-0.00760511653446441	0.362060546875	-0.62646484375	0.521728515625	0	0	0	-0.18201834495466	0.286636344009284	-0.706654857756685	-0.620763916800773	-0.163042963396259	0.772985528773818	0.613115294535398	-0.981677820535515	-0.064983531782309	-0.179125088320255	-0.0986187038832286	-0.631086771294851	0.769417856785916	-13.1053646668744	-37.8151015223868	101.910600050735
47678	1652425787159	5.99399083162752	-1.83692572263469	7.55376830190864	0.0823277297684158	-0.013903116192629	0.00335389533988639	0.0282525046258429	0.00721528747989719	-0.00741885177289606	0.356201171875	-0.62353515625	0.51513671875	0	0	0	-0.18208700927642	0.286512857918339	-0.70667899663859	-0.620773307262892	-0.162969644085319	0.77303437699794	0.613073198799386	-0.981715454668301	-0.0651017664747121	-0.178875727999309	-0.0983649387338564	-0.631014747831839	0.769509406600469	-13.0862456314359	-37.8120485120496	101.904665973747
47679	1652425787160	5.98564492148397	-1.86326466916331	7.53821671448568	0.111141199512226	-0.00713932887574791	-0.00901420878477488	0.0356386455042973	0.00668946722253759	-0.00861346725605009	0.361328125	-0.62158203125	0.515380859375	0	0	0	-0.18206728896893	0.286426352746246	-0.706746755685865	-0.620741870722036	-0.163062064440024	0.773116867434812	0.612944591646213	-0.981712345569881	-0.065278948769981	-0.178828211988963	-0.0982427284649655	-0.630895370196415	0.769622893479975	-13.0810262047969	-37.802722007936	101.909989727216
47680	1652425787162	5.99281247533847	-1.80077053623769	7.53901224169179	0.0515545966735842	-0.00478735681463342	-0.0152081138674376	0.0355127756504264	0.0124315664262901	-0.0085383835185656	0.36279296875	-0.631591796875	0.5087890625	0	0	0	-0.18214077227528	0.286260425377728	-0.706782915768815	-0.620755682950111	-0.162974242320212	0.773199633250785	0.612863543932093	-0.981758413051382	-0.0654347018954074	-0.17851811726178	-0.0979275994956693	-0.630777795208987	0.769759415875054	-13.0568845563229	-37.7968450872307	101.902520406789
47681	1652425787163	5.94317186620703	-1.82139773018155	7.53409755796073	0.0802563857834487	-0.0375026475035803	-0.0457247453951375	0.036760746189568	0.0173369189409629	-0.00858823564002961	0.364013671875	-0.621337890625	0.51708984375	0	0	0	-0.182111283933276	0.286199360221388	-0.706850150864009	-0.620715933979924	-0.163094419135209	0.77326603725321	0.6127477834131	-0.981746569056406	-0.0656033110245974	-0.178521370509489	-0.0978462293240024	-0.630678873289195	0.769850812946084	-13.0556173061654	-37.7884518870611	101.910053042583
47682	1652425787163	5.96151762034534	-1.81062800987397	7.54864861893179	0.0681260217579931	-0.0317960835295425	-0.0252204160548466	0.0299405758803175	0.00338134812883193	-0.0104183006058651	0.365234375	-0.6279296875	0.50927734375	0	0	0	-0.182201253419519	0.286081130849964	-0.706864014353976	-0.620728245720576	-0.162998296434025	0.773292237944822	0.612740295797408	-0.981789600426969	-0.0657080630725242	-0.178245984360685	-0.0975742581476183	-0.630635841973437	0.769920579647924	-13.0350252284796	-37.7879090313639	101.902842125505
47683	1652425787164	6.02411300930646	-1.82672650930185	7.51565211113438	0.0764953788356555	0.0379091891736344	-0.00939174234694207	0.024072957839991	-0.00390808549165856	-0.000363065716935805	0.361328125	-0.6201171875	0.518798828125	0	0	0	-0.18222008025135	0.286130739927406	-0.70691206250318	-0.620645130416157	-0.163190928887808	0.77320552566618	0.612798446316585	-0.98176059123398	-0.0658576435186145	-0.178350532071204	-0.0975441552766796	-0.630726553959369	0.769850084043574	-13.0435628915552	-37.7921250764347	101.917805228891
47684	1652425787165	5.94318272798983	-1.81416726994797	7.53583324965314	0.0770422253575424	-0.0385249608684402	-0.0457028420425907	0.0184808272552414	-0.00780728723627917	-0.00616284409158155	0.357177734375	-0.625	0.517578125	0	0	0	-0.182307519130822	0.286093104828154	-0.70691207796868	-0.620636784166194	-0.163147901216419	0.773157429154136	0.612870583461504	-0.981785125880756	-0.0659214350192631	-0.178191837647823	-0.0973690347491665	-0.630778847258504	0.769829407676303	-13.0326912971675	-37.7973555180781	101.915472752888
47685	1652425787166	5.99584122948641	-1.83942329735044	7.52223322922624	0.0938084490134667	0.0121219494715628	-0.0193919234266939	0.019143731782698	-0.0150429594958192	-0.00288812298660574	0.360107421875	-0.612060546875	0.513916015625	0	0	0	-0.182314516794037	0.286131997684353	-0.70694667848382	-0.620577384898945	-0.163290252636286	0.773098208198698	0.612907377891587	-0.981762275787239	-0.0660243785062962	-0.178279598619469	-0.0973608095438793	-0.630840662864103	0.769779793734637	-13.0397023958649	-37.8000235112182	101.926459167437
47686	1652425787166	5.98584034220439	-1.81620035670979	7.52502450478954	0.0739000757721216	0.000130857312688692	-0.0275250948025487	0.0203925752461712	-0.0101380074030547	-0.00294407677465385	0.366455078125	-0.624267578125	0.51953125	0	0	0	-0.182410772577925	0.286098153514256	-0.706957605961123	-0.620552254026182	-0.1632824201411	0.77303350132895	0.612991074238418	-0.981783042191563	-0.0661254931575171	-0.178127699192896	-0.0971643419055829	-0.63090936352045	0.769748313206515	-13.0294860729868	-37.8060927582837	101.926873147289
47687	1652425787167	5.98682817161215	-1.84442722873447	7.54190875097493	0.100193745418232	-0.00875721530853986	-0.00889752562152601	0.0205876088516194	-0.00739730565873957	-0.00576582612084623	0.35986328125	-0.624755859375	0.520751953125	0	0	0	-0.182464353590563	0.286102828208086	-0.706969470677648	-0.620520828731702	-0.163321321557799	0.772971428446973	0.613058983075251	-0.981785698884655	-0.0661981456029116	-0.178086066227277	-0.0970720731734119	-0.630977793843319	0.769703862720225	-13.0272712514676	-37.8110175394022	101.930563822405
47688	1652425787168	5.96571878181963	-1.82936462133795	7.56527164326722	0.08838963235249	-0.0412629996687999	-0.00655689177375329	0.022696402424853	-0.0069870511787217	-0.00537086051017744	0.362060546875	-0.62353515625	0.510009765625	0	0	0	-0.182560160906535	0.286049232957744	-0.706978782575524	-0.620506748522606	-0.163286325375366	0.772927823308904	0.613123279528979	-0.981812599292731	-0.066294422724379	-0.1779018532385	-0.0968586383110024	-0.631021100654013	0.769695247948132	-13.0143954502487	-37.8156806515325	101.928734251365
47689	1652425787169	6.01770313114641	-1.82422548910459	7.53505012901614	0.0767390070743019	0.0172918706756813	0.00114684265186682	0.0241664118863281	-0.00449349416834942	-0.00433623947458806	0.361083984375	-0.6259765625	0.51953125	0	0	0	-0.182547210379559	0.286079725588648	-0.707023550492059	-0.620445489659944	-0.163447820686546	0.772893034267601	0.613124104479215	-0.981785257677031	-0.0664115699355118	-0.178009019958955	-0.0968633972193095	-0.631051393278964	0.769669813179531	-13.0223837625003	-37.8157404831138	101.940715699077
47690	1652425787170	6.029043155753	-1.84400737369301	7.53204607478966	0.0961595591707324	0.0291619903471909	0.00929539969462212	0.0175167024060255	-0.00272199394406117	-0.00262746820846793	0.371337890625	-0.626708984375	0.507080078125	0	0	0	-0.182607090547661	0.286034792967757	-0.707037897875512	-0.620432235349992	-0.163436983640661	0.772874244233637	0.613150678853678	-0.981802169590616	-0.0664958771010098	-0.177884226719872	-0.0967101451017512	-0.631065528236847	0.769677495387222	-13.0134398059891	-37.8176678820993	101.940228670666
47691	1652425787172	5.98869651037891	-1.8670672133544	7.55949191335539	0.120845356077513	-0.0189798933616007	0.00980620014009226	0.0227890097569701	0.000264256647190513	0.000924467611868116	0.36865234375	-0.625732421875	0.5107421875	0	0	0	-0.182596995433857	0.286113762306166	-0.7070931378469	-0.620335833792764	-0.163683581142329	0.772783395772031	0.613199403525045	-0.981757449169562	-0.0666447366632937	-0.178075237119468	-0.0967470736740769	-0.631161074761529	0.769594504555077	-13.0282940053469	-37.8212019391835	101.95909142114
47692	1652425787173	5.97733770144801	-1.81354320975708	7.54613711980923	0.0731142472625664	-0.0224334083003047	-0.0169821295974071	0.026883712797804	0.00290516065382948	-0.00335930058671443	0.372802734375	-0.618408203125	0.5146484375	0	0	0	-0.182666579895138	0.286019466561892	-0.707123152915209	-0.620324618202694	-0.16366057728219	0.772799404228239	0.613185368602464	-0.98178419518941	-0.0667804655986659	-0.177876821117055	-0.096514296971711	-0.631127126844429	0.769651570674128	-13.0133398795116	-37.8201839525751	101.957218521012
47693	1652425787174	5.98020700271783	-1.86241899245063	7.52715672172377	0.122160359126902	-0.00651173292222677	-0.0211296322568124	0.0199161156820337	0.00375754478519863	-0.00389989911940256	0.362548828125	-0.625732421875	0.517333984375	0	0	0	-0.182714022561745	0.286084505946506	-0.70714150370437	-0.620259732011818	-0.163786901607869	0.772679497416062	0.613302735306599	-0.981766100912364	-0.0668670406039432	-0.17794415410517	-0.0964840606578534	-0.631264756780966	0.7695424828333	-13.0198806823945	-37.8286972735051	101.967985372417
47694	1652425787174	5.97958565462496	-1.80052757969739	7.49353901246491	0.0663326498759559	0.0105160808254504	-0.0584082944685029	0.0266862279025344	0.000167854084327868	-0.000529617538054396	0.363525390625	-0.611572265625	0.52001953125	0	0	0	-0.182789071598385	0.286003751083173	-0.707176312490912	-0.620235175334575	-0.16379296516378	0.77267452807222	0.613307376632002	-0.981787968608815	-0.0670203632880881	-0.177765732354997	-0.096250970165669	-0.631254579843271	0.76958001934111	-13.0066571521083	-37.8290339572553	101.968490416356
47695	1652425787176	5.99563151139953	-1.77010884929747	7.54403062658041	0.0290854460054647	-0.0104188774320214	-0.0151200161413687	0.0194975570667409	0.00343043677673423	-0.00216565708448918	0.357666015625	-0.615478515625	0.5107421875	0	0	0	-0.182775751239879	0.285976017445202	-0.707213583803577	-0.620209391325688	-0.163866671340235	0.772702049845878	0.613253011560358	-0.981779975546421	-0.0671160567152024	-0.177773773507429	-0.0962070352933739	-0.631210723209753	0.769621484409758	-13.0065485314753	-37.825090387849	101.973306611166
47696	1652425787176	6.00956390259765	-1.84115908940562	7.5217531410862	0.0997849056542597	0.0195210594583421	-0.0110978384624403	0.0141267385684231	0.0010349857842718	-0.00173668412420653	0.364990234375	-0.6328125	0.51318359375	0	0	0	-0.182810458201258	0.285936024460465	-0.707227432878058	-0.62020180947229	-0.163860103799086	0.772703275863101	0.613253221641261	-0.981791658454556	-0.0671806108860821	-0.177684847159308	-0.0960989374135136	-0.631202355026822	0.769641852575981	-12.9999310780478	-37.8251056264305	101.972822137968
47697	1652425787177	5.98754783565621	-1.826615169605	7.54567153158217	0.0845075106202128	-0.0136793014723411	-0.00875539626916932	0.0226587228234984	0.00600911490125402	0.000993700625154876	0.361572265625	-0.627685546875	0.529296875	0	0	0	-0.182745006812353	0.285985599437091	-0.707286706707126	-0.620130642619077	-0.164084497140007	0.772695439257709	0.613203095188411	-0.981745200527173	-0.0673004459989172	-0.177896068563102	-0.0961906390464888	-0.631199182602991	0.769632998799522	-13.015003435031	-37.821469706717	101.988861947606
47698	1652425787178	5.9762216444542	-1.80317721173679	7.54950443071898	0.0645083490620918	-0.0257534341777649	-0.0169298423076256	0.0264607863873862	0.00257981127149566	-0.00161581541938921	0.366455078125	-0.623779296875	0.52099609375	0	0	0	-0.182811275493587	0.285899028826314	-0.707319831157928	-0.620113247172884	-0.164079196466219	0.772705662334006	0.613191631289897	-0.98176792682247	-0.0674426119937442	-0.177716718262998	-0.0959674692263402	-0.631171492927577	0.769683565737157	-13.0015029183321	-37.8206381985859	101.98833183708
47699	1652425787179	5.98987115063834	-1.84398519794973	7.51025316085253	0.104884384906307	0.0136511637385077	-0.0315037360240602	0.0122117363856891	0.00336095570817112	-0.00495445227444083	0.363525390625	-0.617919921875	0.510498046875	0	0	0	-0.182716893713246	0.285903775433218	-0.70736436836071	-0.620088073033556	-0.164210636866629	0.772777516722688	0.613065882583407	-0.981735315714876	-0.0674996257491285	-0.177875153975874	-0.0960762021422022	-0.631077420109168	0.769747135889629	-13.0116614345336	-37.811517913394	101.996574019819
47700	1652425787180	5.96756687892008	-1.82888470942878	7.53451940442639	0.0929658509494995	-0.0189284996243706	-0.0291984842924968	0.0318978246429225	0.0134550001198281	-0.00480818708428689	0.359375	-0.62353515625	0.51904296875	0	0	0	-0.182765660651001	0.285761284288012	-0.707405622058036	-0.62009232181148	-0.164164451434502	0.77285888946617	0.612975668243306	-0.981768289111678	-0.0676520016650279	-0.177635112422752	-0.0958178447886285	-0.630961443864705	0.769874403377739	-12.9926233751922	-37.8049755539021	101.992071417907
47701	1652425787181	5.9151350978497	-1.79941356875853	7.54885101468865	0.0710323146202539	-0.0694935239097143	-0.055536723611139	0.0264308819937218	0.00772815505364735	-0.00553014551933162	0.37109375	-0.618408203125	0.518310546875	0	0	0	-0.182741803006843	0.28574321739392	-0.707446091112145	-0.620061509301558	-0.164258316232964	0.772885720521886	0.612916689739867	-0.981754643496051	-0.0677490767920895	-0.177673528044452	-0.0957967928599619	-0.630918160784095	0.769912494294359	-12.994716697553	-37.8006987359602	101.998325024924
47702	1652425787182	5.99605207924465	-1.80768606151919	7.5297552299243	0.0698219842116445	0.00672338282980237	-0.0191863434372266	0.0310632581956485	0.00887740761833858	-0.00646870886071256	0.363525390625	-0.628662109375	0.509765625	0	0	0	-0.18280593859885	0.285617358245121	-0.707476706814736	-0.620065660068873	-0.164201132032692	0.772938923880618	0.61286491838696	-0.981789120897111	-0.0678826037448617	-0.177431886077154	-0.0955411446825949	-0.630838626004377	0.770009426964144	-12.9760637296288	-37.7969447476158	101.993467278306
47703	1652425787183	5.98485286116141	-1.84373718656432	7.5682569659007	0.102600971014275	-0.0241392713894707	0.0100023893382186	0.021668199638359	0.0123217636740157	-0.00452896110616454	0.357177734375	-0.6220703125	0.5087890625	0	0	0	-0.182784892166661	0.285658217832649	-0.707512928644436	-0.620011710842037	-0.164350323228704	0.772904589577272	0.612868229446599	-0.981760615749517	-0.0679697220068096	-0.177556217163598	-0.0955775319714329	-0.630871311996912	0.769978131560595	-12.9853582166264	-37.7971848298807	102.004566222142
47704	1652425787183	5.94591094597173	-1.85692877743579	7.5430753082989	0.126244119400873	-0.0357685929855309	-0.0309283897810477	0.0314461990865892	0.0182775310012222	-0.00698744836632768	0.36181640625	-0.619140625	0.50732421875	0	0	0	-0.182817540117734	0.285503170303893	-0.707550277065408	-0.620030880034529	-0.164278909657818	0.773016067333535	0.612746766197778	-0.981796016496623	-0.0680992951000689	-0.177310653933251	-0.0953363615469037	-0.630720735073035	0.770131373543455	-12.965513524655	-37.7883781382326	101.997820901347
47705	1652425787184	5.95282788931408	-1.8242833279844	7.56105202224195	0.0909136789952317	-0.0431567060174763	-0.018630594259033	0.0445401827166133	0.0120012739219274	-0.00754244001862985	0.355224609375	-0.6240234375	0.516357421875	0	0	0	-0.182821696894368	0.285466188493895	-0.707603943809113	-0.619985436181546	-0.164388572134884	0.773029453519707	0.612700466249599	-0.981787105465392	-0.0682542282990928	-0.177300422619861	-0.0952390513042836	-0.630687580589881	0.770170564742864	-12.9641532140209	-37.7850214372361	102.005395739656
47706	1652425787185	6.02180574610763	-1.78021468832219	7.52865101541724	0.0422314919856095	0.0296621347207686	-0.00915583939222486	0.0326869431387872	0.0231845679730522	-0.00704572686979039	0.363525390625	-0.619873046875	0.509033203125	0	0	0	-0.182839799416878	0.285293552010317	-0.707647063412481	-0.620010347150936	-0.164313554349942	0.773170971244436	0.612542002708242	-0.981823034542415	-0.0683895172142239	-0.177049153562302	-0.0949978141791196	-0.630499423600165	0.770354393861065	-12.9434145859836	-37.7735341389252	101.997943208977
47707	1652425787187	5.98242212111185	-1.85268965401716	7.53875597771208	0.118009014915806	0.000553720115863368	-0.0126492619351133	0.0342193279148328	0.034157802464526	-0.00878449938260193	0.361328125	-0.617431640625	0.515625	0	0	0	-0.182710222980791	0.285199074853373	-0.707713215771655	-0.620016504895824	-0.164393016150152	0.773370175901901	0.612269146100404	-0.981805322143401	-0.0684820427190934	-0.17711160107659	-0.0950433882600388	-0.630245016521735	0.77055692424218	-12.9445375539972	-37.7537584688733	102.000574909379
47708	1652425787188	5.95812330509381	-1.83610214723308	7.564858658764	0.105962638954477	-0.0320884373064943	-0.0103748393089056	0.0399984740382239	0.036881773202166	-0.0109280503788357	0.366943359375	-0.62109375	0.517822265625	0	0	0	-0.182706920274026	0.284956056506869	-0.707767191204536	-0.620067601313337	-0.16426870217101	0.773600122081347	0.612011964427802	-0.981853896072553	-0.0686324313231561	-0.176783811865851	-0.094756109323887	-0.629946379056502	0.770836454288069	-12.9168567151104	-37.7351236997292	101.988301561591
47709	1652425787189	5.9880106209124	-1.83711142072478	7.52440019856711	0.10721297091822	0.0199432547225331	-0.0231034727319805	0.0439847660940092	0.0401179550679474	-0.0112192934628034	0.3603515625	-0.62158203125	0.51904296875	0	0	0	-0.182663371231076	0.284773046080808	-0.707836186318478	-0.620085750823601	-0.164255508872059	0.773803056841089	0.611758904331247	-0.981873475372541	-0.0687959477027785	-0.176611426412687	-0.094575928042121	-0.629679241203855	0.771076810072712	-12.9007951148539	-37.7167921470709	101.984313713682
47710	1652425787189	5.95538502347089	-1.84927347054344	7.5346327139246	0.126842806628229	-0.00651220374364987	-0.0330667809199916	0.0454447117710667	0.0426179283013001	-0.0101757587997883	0.36962890625	-0.62451171875	0.512939453125	0	0	0	-0.182655496169622	0.284494532207368	-0.707904979154972	-0.620137381029993	-0.164133196736581	0.77406769970675	0.611456858657855	-0.981925659458275	-0.0689849795867444	-0.176247189733194	-0.0942459178238655	-0.629333193834647	0.77139966172628	-12.8698674346052	-37.6949180384983	101.971671232335
47711	1652425787190	5.97139328159065	-1.80748193838448	7.53380475056145	0.0836263582446569	0.00635110766103517	-0.0312914233230135	0.04812004618497	0.0324745412045598	-0.00761906291187518	0.35791015625	-0.625	0.51513671875	0	0	0	-0.182619643548681	0.284381537440508	-0.707987442795231	-0.620105626322964	-0.164238155985515	0.774186683288238	0.611278011658882	-0.981921303285084	-0.0691923067311548	-0.176190178058101	-0.0941083538980534	-0.629164051824626	0.771554413906251	-12.8633482300076	-37.6819690034465	101.977317864803
47712	1652425787190	5.94758282337225	-1.79083718836205	7.55941912092469	0.0715441701904101	-0.0263256924692711	-0.029035490260334	0.0322467969959634	0.0228699979545568	-0.00526738185688214	0.3642578125	-0.621826171875	0.51806640625	0	0	0	-0.182633341046989	0.28421707550653	-0.708034043050387	-0.620123786521895	-0.164183104255522	0.774322475360901	0.611120783829176	-0.981952531690348	-0.0693342867605251	-0.175960172159284	-0.0938782923999779	-0.628981288140097	0.77173143345706	-12.8442643243999	-37.6705871249756	101.971379839669
47713	1652425787191	5.91952582536877	-1.82542162939014	7.53144641511028	0.111271700082431	-0.0264787113232899	-0.061659111138864	0.0314469289321225	0.0131482273753313	-0.00299885606543567	0.352294921875	-0.6162109375	0.516845703125	0	0	0	-0.182556103553814	0.284217804745096	-0.708096627123744	-0.620074733541938	-0.164361187756287	0.774374264781635	0.611007281464997	-0.981917044761168	-0.0694551285775453	-0.176110483281863	-0.0939378367157632	-0.628904192352206	0.771787017042256	-12.8539769187525	-37.6623716611699	101.983211240489
47714	1652425787191	5.94911106504968	-1.80724318438646	7.52509980423467	0.0906432302912796	-0.000477059860607622	-0.0516955676130877	0.0176339612370162	-0.0084560358932167	-0.00259895387999127	0.36572265625	-0.620361328125	0.520751953125	0	0	0	-0.182630627532157	0.284206122918669	-0.708102045715487	-0.62005195462662	-0.164363254901838	0.774310629887755	0.611087365996796	-0.981929600196227	-0.0695249065184937	-0.176012918935153	-0.0938028821335013	-0.628974829239154	0.771745867165498	-12.8477545136083	-37.6681681999118	101.98431394593
47715	1652425787191	5.99863589713903	-1.81152855196758	7.54859802334876	0.0835307643946125	0.0230678880695728	-0.00253493520003012	0.0227999146959366	-0.00878619530707338	-0.000181650965110959	0.364501953125	-0.61474609375	0.526123046875	0	0	0	-0.182622966537414	0.284234817390414	-0.708137373324302	-0.620000710626585	-0.164495941831208	0.774275738274507	0.611095873198741	-0.981906960454737	-0.0696193748111349	-0.176101855928458	-0.0938072818687569	-0.629007332048184	0.771718841352226	-12.8544659205929	-37.6687839799477	101.994233404137
47716	1652425787192	5.96619295888176	-1.77529238337201	7.57477981626668	0.0517480701981885	-0.0215380077485355	-0.00854186722219552	0.0136034078827882	-0.00261407074205687	-0.00110455551357636	0.373291015625	-0.626953125	0.521484375	0	0	0	-0.182661558487738	0.28422113983388	-0.708147218188851	-0.619984367620469	-0.164508277914156	0.774247857787583	0.611127876314817	-0.981912963216454	-0.0696754551555558	-0.176046197392474	-0.0937227782622895	-0.629035440702832	0.771706197444722	-12.8507416146871	-37.6711005194421	101.995526267876
47717	1652425787193	5.96178567063396	-1.85449113876771	7.5393223542021	0.133077568104649	0.00157113106733162	-0.0246489953192537	0.0163498972878972	-0.00428519912302533	-0.001333897365784	0.354736328125	-0.615966796875	0.520263671875	0	0	0	-0.182712610259889	0.284270043273292	-0.708174127440518	-0.619916163503807	-0.164640104557478	0.774137733100855	0.611231875936433	-0.981896619601474	-0.0697889854482438	-0.17609237895293	-0.093662502563727	-0.629158380457237	0.771613289098837	-12.8554970407115	-37.6786290117484	102.006518164192
47718	1652425787192	5.98080848644569	-1.81513364840718	7.53545387422095	0.092792135303379	0.015635923152325	-0.0229483349834449	0.0254132498664614	-0.00471398299041609	-0.000360864954623775	0.366455078125	-0.63037109375	0.514404296875	0	0	0	-0.182794789378213	0.284222203081277	-0.708200493770094	-0.619883751098216	-0.164660400201159	0.774095281717922	0.611280170975343	-0.981912632713337	-0.0699237488000599	-0.175949569683219	-0.093458730590341	-0.629195648567118	0.7716076085036	-12.8455087750491	-37.6821253306617	102.008594683735
47719	1652425787193	5.93721720888166	-1.75709876080501	7.56472013939612	0.0378210934978575	-0.0411333399803349	-0.03721742491987	0.01803590869743	-0.0041926001474125	0.000799488541592617	0.363037109375	-0.6181640625	0.51904296875	0	0	0	-0.182722421578283	0.284325852510866	-0.708238264823657	-0.619814396804489	-0.164885260332911	0.774047129234876	0.61128053514585	-0.981857962387257	-0.0699778462157131	-0.176232921827208	-0.0936364919339293	-0.629248871880004	0.771542652493075	-12.866554642186	-37.6821516954083	102.025242883229
47720	1652425787194	5.95234196033891	-1.85883556484333	7.55948298871258	0.135918720925116	-0.0199727771314616	-0.0140877388424201	0.00090301918051326	-0.0135700176648279	-0.000718078905070751	0.360107421875	-0.6279296875	0.522216796875	0	0	0	-0.182759472778355	0.284393284049481	-0.708220622817499	-0.619792694788607	-0.164911981192909	0.77394880333267	0.611397815075387	-0.981851069951022	-0.0699549509484558	-0.176280405246391	-0.0936617045278506	-0.629372349772158	0.771438870194658	-12.8715796606877	-37.6906428639817	102.028618402739
47721	1652425787195	5.96408036926778	-1.8494997189056	7.53873356012548	0.124356233426133	0.000460407516890068	-0.0245341914354551	0.0238546665415175	-0.0105480405340033	-0.00253353803927285	0.35302734375	-0.62451171875	0.5185546875	0	0	0	-0.182742527049949	0.284458817961661	-0.708254908336448	-0.619728436098089	-0.165083668597631	0.773885966932374	0.611431020269247	-0.981816859876195	-0.0700396927505437	-0.176437227087305	-0.0937178532895167	-0.629440189076416	0.771376699382507	-12.8836521956552	-37.6930471254073	102.041725068446
47722	1652425787196	5.98043254196172	-1.78881600015977	7.57118799029802	0.0603325308608364	-0.0122057316664779	-0.000219048151166135	0.020243919083436	-0.00438417978189771	-0.00277447670806458	0.35498046875	-0.622802734375	0.51806640625	0	0	0	-0.182809148906622	0.284428226050904	-0.708266903933424	-0.619709118937373	-0.165082845963804	0.773846754159394	0.611480870547446	-0.981831081876938	-0.0701223842628023	-0.176325204907473	-0.0935701909202572	-0.629479191317927	0.771362798603145	-12.8759692182803	-37.696656740272	102.042259184996
47723	1652425787196	5.92727510645292	-1.86228988563891	7.51206654168076	0.143076177414935	-0.0100117027715407	-0.0653140509054673	0.00613327553867907	-0.0054276147725328	-0.00108628998267498	0.358154296875	-0.62060546875	0.513916015625	0	0	0	-0.182610857892569	0.284544809560158	-0.708288130138725	-0.619689801946669	-0.165275647886076	0.77391591860837	0.611341239522086	-0.981759805739002	-0.0700376014313437	-0.176755249486573	-0.0939768272030612	-0.629403594929602	0.771375051864227	-12.9061242751487	-37.6865466235113	102.054866310352
47724	1652425787197	5.96266354028045	-1.82401708947051	7.57511049659255	0.0945596087233194	-0.0255440487828563	-0.00182096859880154	0.0268855188466706	-0.00615454724241775	-0.00444541105664286	0.36474609375	-0.630859375	0.51806640625	0	0	0	-0.182704770939471	0.284495498747913	-0.70830368739137	-0.619666978542442	-0.165263604760072	0.773867441848466	0.611405858156934	-0.981782181576658	-0.0701502937925137	-0.176586194872086	-0.0937640063152426	-0.629450648365489	0.771362555736263	-12.8943950939068	-37.691225225682	102.054746604787
47725	1652425787197	5.95190642157226	-1.7706590724908	7.5607692844698	0.0424611341497189	-0.0298670432675411	-0.0288762145186432	0.0174041021114864	-0.00604798405808738	-0.00368627620427839	0.361328125	-0.621337890625	0.51611328125	0	0	0	-0.182634268888868	0.284645569632693	-0.708323344510067	-0.619596371146556	-0.165490121378895	0.773777076709015	0.61145895633775	-0.981721218718304	-0.0701544731009973	-0.17692314326331	-0.0940024916916934	-0.629561264265499	0.771243247031817	-12.9201059028935	-37.6950699299483	102.072153374951
47726	1652425787198	5.97439595034451	-1.81178755217784	7.5550441845544	0.081044680228122	-0.00631291755348704	-0.0122758857501548	0.027810657624715	-0.00217605916047276	-0.00675954958218056	0.362548828125	-0.619140625	0.50830078125	0	0	0	-0.182719103853906	0.284580363510105	-0.708336568688564	-0.619586193559697	-0.165453355674064	0.773754578715798	0.611497374493571	-0.981747654695738	-0.0702539309093251	-0.176736888314823	-0.093790882262672	-0.629577824504745	0.771255491582564	-12.9067620069473	-37.6978518152384	102.069890691951
47727	1652425787198	6.02945631802806	-1.85824028039773	7.50581613558094	0.12029577256813	0.0686887277111502	-0.00832675070411604	0.0117161076933053	-0.00543291771013129	-0.000395382649928908	0.365234375	-0.61767578125	0.524658203125	0	0	0	-0.182695690363899	0.28473886876456	-0.708343147696434	-0.619512749222036	-0.165652476547627	0.773614093239263	0.611621199563284	-0.981696350048771	-0.0702554603320679	-0.177021034327706	-0.0939762380315349	-0.629750271961134	0.771092122674275	-12.929462886003	-37.7068187848898	102.086119843652
47728	1652425787199	5.95290793995713	-1.79492312431079	7.57883416747146	0.0651200969732465	-0.0408311410822389	-0.0100509445836234	0.0333522250264338	0.00689676719747454	-0.00488708980157819	0.357421875	-0.62451171875	0.51904296875	0	0	0	-0.182762295387706	0.284629468669725	-0.708377855789791	-0.619503690365171	-0.165626242017104	0.77364632161136	0.611587538307072	-0.981724461727609	-0.0704024863774499	-0.176806592517109	-0.0937284866032179	-0.629694258326282	0.771168017898814	-12.9130972934026	-37.7043810494793	102.08377341074
47729	1652425787200	5.93673585670355	-1.82187122655685	7.5297205857807	0.0982265253162877	-0.0196109417008061	-0.0530405298034591	0.0142099931561347	0.000435593572334636	-0.00565820378496593	0.3623046875	-0.6181640625	0.52099609375	0	0	0	-0.182699183495043	0.284656319197043	-0.708394186604118	-0.619491295077603	-0.165703087346638	0.773675109981652	0.611530302633214	-0.981701018357669	-0.0704026305285317	-0.176936655812693	-0.0938381446923834	-0.629658870984553	0.771183576582872	-12.9220257742383	-37.7002362477303	102.088778405207
47730	1652425787201	5.98600897950059	-1.82598924978233	7.55343830865814	0.0929009102291742	0.00344129452012429	-0.00389907117495269	0.0245800519705521	-0.00929312333187259	-0.00199868899396468	0.36279296875	-0.618408203125	0.51513671875	0	0	0	-0.182791375053719	0.284631036030068	-0.708410746878266	-0.619456778348416	-0.165721225928344	0.77360348109941	0.611615998243736	-0.981715874935013	-0.0705169461733035	-0.176808657036283	-0.0936505001448951	-0.629734082238897	0.771144973068842	-12.9136159833565	-37.7064421020631	102.091149260172
47731	1652425787202	5.93442265142483	-1.76708960562935	7.54904729693231	0.0438635244230057	-0.0388162102472564	-0.0492524198211779	0.0229545569137358	-0.000919815667987793	-0.00692439926107791	0.357177734375	-0.620849609375	0.52490234375	0	0	0	-0.182815767221951	0.28465098115982	-0.708423922454442	-0.619425346812724	-0.165781269961972	0.77355409269112	0.611662191254793	-0.981708842735974	-0.0705721173013765	-0.176825689178908	-0.0936179396472218	-0.629788569236073	0.771104428359602	-12.9154745475024	-37.7097874959241	102.096150643379
47732	1652425787204	5.97615986137333	-1.83088900811416	7.57379358033399	0.0978840392869152	-0.0182174016957234	0.00663426463249372	0.00393545348804018	-0.00917846523257242	-0.00261909472479587	0.35546875	-0.6171875	0.516357421875	0	0	0	-0.182844364473387	0.284698568344933	-0.708409034877605	-0.619412062254562	-0.165793271027748	0.773483144835577	0.611748654217715	-0.981705260017627	-0.070550844631792	-0.176854066324369	-0.0936342551401108	-0.629878085804711	0.771029327125337	-12.9186937174289	-37.7160497293304	102.09807741724
47733	1652425787206	5.95773329797007	-1.83711080302335	7.56054667018067	0.106974760055635	-0.0227037640341859	-0.0137349524167263	0.0350731606316681	-0.00208287264731366	-0.00392717079036507	0.370361328125	-0.62451171875	0.517333984375	0	0	0	-0.182799243646343	0.284638996338918	-0.708455009990571	-0.619400175254058	-0.165855718835133	0.773570728209534	0.611620968400408	-0.981697901181568	-0.07064812931683	-0.176856078888281	-0.0936008084654533	-0.629759613091697	0.771130156570997	-12.9172032519235	-37.7068020438886	102.101170120593
47734	1652425787207	5.93621615131861	-1.79186628668839	7.56641122343484	0.0669895738105957	-0.0467928060533107	-0.030389656919878	0.0140528226997431	-0.0113685417541432	-0.00399503146334191	0.360595703125	-0.618896484375	0.522216796875	0	0	0	-0.182867897681065	0.284656271209751	-0.708448931044492	-0.619378923891171	-0.165858161274244	0.773487685328659	0.611725323150547	-0.981705660840093	-0.0706811118007508	-0.17679981874744	-0.0935150566125294	-0.629857905467196	0.771060278517336	-12.9143629305057	-37.7143598832811	102.102603992405
47735	1652425787207	5.92145438050998	-1.84939769116953	7.53365676120019	0.127773878349048	-0.0356917715874184	-0.0544970771011108	0.0158421198939317	-0.0118839442686388	-0.00583667264029964	0.356689453125	-0.61865234375	0.518310546875	0	0	0	-0.182909528036256	0.284764464091109	-0.708450566384575	-0.619315024469642	-0.165986010039443	0.773335892255185	0.611882539562181	-0.981680427168794	-0.0707162009141423	-0.176925854080082	-0.0935531046244963	-0.630040329406101	0.770906609088916	-12.9257497798371	-37.7257476573478	102.113964835468
47736	1652425787208	5.95223486843273	-1.8313371969664	7.52623019739515	0.106893402085843	-0.00973742803416548	-0.0446007903870509	0.0228980408672554	-0.0133343005190017	-0.00923193609541046	0.352783203125	-0.621826171875	0.517333984375	0	0	0	-0.183019933741738	0.284752629655459	-0.708438640015121	-0.619301491271413	-0.165938733524347	0.773243397646657	0.612012242289473	-0.981705027295969	-0.0707632056266091	-0.176770495590378	-0.0933786704668556	-0.630148567184993	0.770839287514942	-12.9158704993386	-37.7351438303903	102.112022263609
47737	1652425787209	5.98320815847793	-1.84281476738567	7.53632208179101	0.110291845617065	0.00898680471212394	-0.0158179042011515	0.0216158434552579	-0.0091620360016885	-0.00797922086989419	0.35693359375	-0.6220703125	0.5224609375	0	0	0	-0.182923200432998	0.284800640062899	-0.708441814632147	-0.619304362526071	-0.166002418599052	0.773288923663805	0.611937445788488	-0.981675501926492	-0.0707014039518797	-0.176959092438341	-0.0935756695761952	-0.630099636579888	0.770855396326224	-12.928926545812	-37.7297251336826	102.115841104221
47738	1652425787209	5.9512043087514	-1.80535385390081	7.56234064186063	0.078256523561276	-0.0356326028651414	-0.02199092810541	0.0298192843939566	-0.00904207855978818	-0.0125903784611849	0.358154296875	-0.619140625	0.52490234375	0	0	0	-0.183043181811976	0.284748425486691	-0.708433995217906	-0.619301866777902	-0.165920782795108	0.773226475820684	0.612038488108863	-0.981711507088821	-0.0707670639765133	-0.176732961004843	-0.0933424377550404	-0.630168897793337	0.770827055549997	-12.9134179931087	-37.7370453252964	102.111007919911
47739	1652425787210	5.98188382710727	-1.81621064733109	7.5728089711404	0.0826761771123807	-0.0164828604227483	0.00677715146378688	0.0267473725536269	-0.00435355933353893	-0.00949604904238552	0.357666015625	-0.621337890625	0.521484375	0	0	0	-0.182978631178233	0.284709505640921	-0.708453471538602	-0.619316556047669	-0.16593164787479	0.773322416975391	0.61191431396634	-0.981705439477819	-0.0707750016059139	-0.17676348391946	-0.093386928063938	-0.630050266685938	0.770918635859686	-12.9140905939565	-37.7280494092487	102.110319303785
47740	1652425787210	5.97406893721062	-1.81365360611733	7.53953370010111	0.0860534002256049	-0.00193845445912663	-0.0241226955177982	0.0194672486910733	-0.000498036938868358	-0.00720535641032109	0.3583984375	-0.612548828125	0.523681640625	0	0	0	-0.183027713293261	0.284672181736213	-0.708456135686577	-0.619316162327633	-0.165896694492825	0.773310873338986	0.6119383791952	-0.981722467184516	-0.0708184800506345	-0.176651465627839	-0.0932699532620235	-0.630059549613378	0.770925210224369	-12.9060744389764	-37.7297927526897	102.108018960538
47741	1652425787211	5.97907348784512	-1.76043618664731	7.59262069806977	0.0283773121753311	-0.0336441069807403	0.0104692801868875	0.0329251345781252	0.0026391772627193	-0.00825828089481102	0.3544921875	-0.6201171875	0.516845703125	0	0	0	-0.183006096574595	0.284571242063362	-0.708490624359258	-0.619329485816778	-0.165879513228912	0.773421723766054	0.611802929298058	-0.981734812595654	-0.0709003923768828	-0.176549970542563	-0.0931705148033168	-0.62991425731408	0.771055953614091	-12.8967932904884	-37.7199809686864	102.10511795378
47742	1652425787211	5.94132722136817	-1.7738685194578	7.56664041608485	0.0518884040638187	-0.0453519862821412	-0.0302911140770234	0.0204213774949493	-0.0016505919809765	-0.00558238644283403	0.362060546875	-0.624267578125	0.515380859375	0	0	0	-0.183059398338194	0.284535213149574	-0.708499135129024	-0.619320550829221	-0.165862624001297	0.773402459409886	0.611831860675908	-0.981749839110649	-0.0709635355970327	-0.176441010033899	-0.0930421590765085	-0.629930799687004	0.771057938315969	-12.889067671546	-37.7220766044215	102.104214402249
47743	1652425787212	5.95268181194815	-1.79371281090173	7.56394766258679	0.0669004187214781	-0.0338022853548832	-0.0219002554378918	0.0171683879908308	-0.00363691027352567	-0.00476416293908875	0.365234375	-0.614013671875	0.5146484375	0	0	0	-0.182957700346657	0.284651508472811	-0.70850529749946	-0.619290111355912	-0.166012475721289	0.773382278388604	0.611816728587361	-0.981699019950173	-0.07090655340187	-0.176746414146192	-0.0933107289316604	-0.629961992630603	0.770999997216033	-12.9115683142033	-37.7209805087008	102.115134068292
47744	1652425787212	5.95607082074116	-1.81333103068928	7.52755521585729	0.0898782369116947	-0.00735706842597875	-0.0444273294500288	0.0191807997843619	-0.00655735830158519	-0.00549679980363928	0.360107421875	-0.623779296875	0.520751953125	0	0	0	-0.183023211922428	0.284636421176834	-0.70850801602323	-0.619274577928134	-0.166003002059059	0.773331861095192	0.611883024705233	-0.981712149230749	-0.0709622097431516	-0.176651127483276	-0.0931893736437992	-0.630017616740528	0.770969223274484	-12.9053384501594	-37.7257828007875	102.115229598287
47745	1652425787213	5.97554744506612	-1.8036687833139	7.54075719535208	0.0750033131354838	-0.00269907119346226	-0.0240319694941782	0.0178077621828589	-0.00572260422636777	-0.00538472051509622	0.35400390625	-0.62353515625	0.513671875	0	0	0	-0.183038103508195	0.284713624604659	-0.70851256640631	-0.619229479169835	-0.166103809582356	0.773236851180963	0.611975731886467	-0.981690618743287	-0.070986008183064	-0.176761182711752	-0.0932365460195285	-0.630131540726207	0.770870409257202	-12.9147089310215	-37.7324987533695	102.12381464429
47746	1652425787213	5.94642062096921	-1.81790852047756	7.54787038364067	0.0942831547883116	-0.0292334222901775	-0.0338677710957871	0.022115665091773	-0.00550411422764777	-0.00855306320967168	0.35888671875	-0.61279296875	0.51318359375	0	0	0	-0.183113095950938	0.284682945394725	-0.708510688706417	-0.619223561148481	-0.166063550819714	0.773194672553781	0.612039945937846	-0.98171137453642	-0.0710356038399565	-0.17662593267385	-0.0930896030443941	-0.630177706144502	0.770850429385294	-12.9054814050994	-37.7371509456209	102.121604740537
47747	1652425787214	5.95452473306447	-1.78619564582828	7.5642759846429	0.0584229648155088	-0.0356931018459055	-0.0218527098262733	0.0260881239919496	0.00168969302789894	-0.00375105969533322	0.355224609375	-0.62060546875	0.523193359375	0	0	0	-0.183034737242488	0.284734385538252	-0.708530130931176	-0.619200830278334	-0.166177233490392	0.773212323817811	0.611986788554901	-0.981677457581392	-0.0710333229495524	-0.176815260391402	-0.0932442831814073	-0.630156305472702	0.770849229309454	-12.9188705195637	-37.7332997682311	102.129388521447
47748	1652425787214	5.954837957979	-1.814169444854	7.58217211487148	0.0850888683217559	-0.0446202737522952	-0.00292647784538147	0.0141961099581206	0.000436527503017365	-0.00564577792118109	0.358154296875	-0.622802734375	0.516357421875	0	0	0	-0.183058930546299	0.284717153648437	-0.708531608389792	-0.619199911400311	-0.166161795338186	0.773205382968419	0.61199974960669	-0.981685453588696	-0.07105522428036	-0.176762058470774	-0.0931875956463533	-0.630162352771989	0.770851140731156	-12.9150827700311	-37.7342387596785	102.128400691375
47749	1652425787215	5.96072071091813	-1.85504476503808	7.50977001125843	0.128625724887728	0.00963894619937988	-0.0478837181613692	0.0253547840405403	0.000438851718144729	-0.00425919552804365	0.358642578125	-0.6171875	0.52490234375	0	0	0	-0.1829405760058	0.284736574641522	-0.7085598546936	-0.619193637748858	-0.166263969244004	0.773291762031387	0.611862846809333	-0.981651253930741	-0.0710486440654974	-0.176954530410096	-0.0933654550004014	-0.630057093405706	0.770915657424158	-12.9276277828066	-37.7243211415207	102.134322113744
47750	1652425787216	5.96582434413717	-1.80170356720635	7.56268683714143	0.0720540918130427	-0.0234765743125213	-0.0134177747409705	0.0286144910081569	-0.00153021939623478	-0.0101781374632827	0.359130859375	-0.63037109375	0.521484375	0	0	0	-0.183021617788497	0.284670704512272	-0.70856659543522	-0.61919226194124	-0.166208060348343	0.773276120173421	0.611897804085603	-0.981679691680729	-0.0711270654891534	-0.176765164827604	-0.0931657856558387	-0.630067442838021	0.770931354829136	-12.9140033635017	-37.7268534172523	102.130600722562
47751	1652425787217	5.9878000828703	-1.81253512475171	7.54001745963155	0.0797676512119869	0.0098250772185636	-0.0155226284304817	0.0248120490724848	0.00190823425712446	-0.00760532756862375	0.365234375	-0.623291015625	0.516357421875	0	0	0	-0.182911408837102	0.284675401865903	-0.708588716876795	-0.61919735335724	-0.166276108225233	0.773371758584707	0.61175843178257	-0.981653273850949	-0.0711091063357527	-0.176919034967537	-0.0933225898225335	-0.629952075970648	0.771006664179426	-12.9236473055282	-37.7167579201136	102.133963738395
47752	1652425787217	5.96592723236035	-1.79662007353901	7.56381495140338	0.0671611693971762	-0.022853564538459	-0.0133815459035649	0.0294334520872514	0.00306167176186772	-0.00852936703684762	0.365478515625	-0.623046875	0.52392578125	0	0	0	-0.182975363003603	0.284594232427127	-0.708606446468146	-0.619195480786722	-0.166233946214	0.773384352644658	0.611753968692091	-0.981679284593	-0.071206158885029	-0.176735579716751	-0.0931238816152818	-0.629925651185315	0.771052278805828	-12.9099572741664	-37.7164346568267	102.130786419941
47753	1652425787218	5.98758486826841	-1.80744177917173	7.54141090403153	0.0755973591942057	0.00809902322104922	-0.0154879829873291	0.0253156828109936	0.00556439735194724	-0.00819916964860652	0.365966796875	-0.617431640625	0.51171875	0	0	0	-0.182973750884707	0.284637094548964	-0.708627851522301	-0.619151757601311	-0.166343415092776	0.77333412584945	0.611787706685857	-0.981658593171646	-0.0712656509318629	-0.176826506637222	-0.0931465227882291	-0.629980584457907	0.771004661787811	-12.9171474464946	-37.7188783471095	102.13930299756
47754	1652425787218	5.97610812034635	-1.78344430984878	7.54512199413205	0.0550499134149639	-0.00404900046076799	-0.023899884082816	0.0284637849699661	0.00817222832625529	-0.00504271846279795	0.35693359375	-0.621337890625	0.518310546875	0	0	0	-0.183011430271638	0.28454778818838	-0.708659280489547	-0.619145699171906	-0.166330839173724	0.773375695992747	0.611738575526752	-0.981677686780694	-0.0713823188680667	-0.176673381780971	-0.0929675815361034	-0.629916341588907	0.771078745254061	-12.9051379244362	-37.715319735014	102.13777934487
47755	1652425787219	5.96481969821518	-1.78908774160158	7.56647335860232	0.0594845230701781	-0.0260465128379611	-0.0133399063705006	0.026234841123943	0.00953608818527457	-0.0105230487004241	0.359375	-0.62646484375	0.51123046875	0	0	0	-0.182985878208682	0.284584140241441	-0.708668558887463	-0.619125923495054	-0.166398518465189	0.773360394293534	0.611739514491863	-0.981659909598905	-0.0713899159588732	-0.176769063429253	-0.0930341600642494	-0.629934266759266	0.771056070998475	-12.9122598033853	-37.7153877434622	102.142804749317
47756	1652425787220	5.9562503129073	-1.81638680284751	7.55158044698647	0.0903292467061751	-0.020178948143803	-0.0252475033459731	0.0223312614828251	0.0135963039825235	-0.00398433151005246	0.364013671875	-0.619873046875	0.5166015625	0	0	0	-0.182983368416898	0.284502011391442	-0.70869919462954	-0.619129343456172	-0.166391885908671	0.773434661426233	0.6116474187048	-0.981671206889388	-0.0714749231715064	-0.176671947184493	-0.0929267553941761	-0.629833438189905	0.771151384794059	-12.9038617287391	-37.7087176207276	102.141203760907
47757	1652425787221	5.92273713034823	-1.77893063386405	7.57855945134898	0.0542876806314413	-0.0662987069302551	-0.031550967330034	0.0326767030026827	0.00505160260709427	-0.0093276064996515	0.358642578125	-0.613037109375	0.521728515625	0	0	0	-0.182951703067138	0.28458823111872	-0.708712994588364	-0.619083277399048	-0.166529139979375	0.773372923738048	0.611688128351854	-0.981636529962183	-0.0714908687071436	-0.176858075120425	-0.0930471309688452	-0.629907434882588	0.771076426107104	-12.9182140788728	-37.7116659806037	102.151862540503
47758	1652425787222	5.95286547375334	-1.79034017470437	7.58938169790202	0.0606376074317187	-0.0490029186741685	-0.00276577805456846	0.0139106752014208	-0.00562026816747972	-0.00391868957167614	0.366943359375	-0.6181640625	0.5224609375	0	0	0	-0.1829902908786	0.284597300228611	-0.708713947131187	-0.619066612965426	-0.166542164311362	0.773325200119528	0.611744916093774	-0.981639371127919	-0.0715218108282034	-0.176829792816251	-0.0929938307527479	-0.629962511135342	0.771037860293503	-12.9168419215728	-37.7157789781288	102.15351237655
47759	1652425787221	5.94847284298559	-1.84017845155503	7.5369398371771	0.115305720471284	-0.0164040867767292	-0.0370808132408449	0.0104357156227106	-0.0052056550307282	-0.00421324176738259	0.362060546875	-0.617431640625	0.515625	0	0	0	-0.183018300056762	0.284614348450408	-0.70872133700322	-0.619042034903004	-0.166582521734962	0.773277328824988	0.611794439479236	-0.981635865725615	-0.0715632633585964	-0.176832481344893	-0.092958542230096	-0.630016564911399	0.770997949000966	-12.9176779537616	-37.7193660224402	102.157100082319
47760	1652425787222	5.94593263334025	-1.78787012292374	7.55542601536055	0.0628915039152066	-0.0347286028115565	-0.0336334670370668	0.0150023860954984	-0.0125106433291334	-0.00231254134404968	0.354248046875	-0.619873046875	0.518798828125	0	0	0	-0.183082652972374	0.284642231692854	-0.708722385774274	-0.619008983795816	-0.166617240321335	0.77318493777035	0.611901746388063	-0.98163715747557	-0.0716133558339642	-0.176805029140804	-0.0928826479542049	-0.630124257009089	0.770919084235017	-12.9170167757402	-37.727138999764	102.160968188679
47761	1652425787223	5.93635539700315	-1.79499130000275	7.57508811217593	0.0673001518960241	-0.0553543836458872	-0.0230665632847913	0.00818902901447473	-0.0174236387815981	-0.00291848067152431	0.354248046875	-0.61962890625	0.5185546875	0	0	0	-0.183032565482328	0.284788421389436	-0.708705601276158	-0.618975771525243	-0.166736148475375	0.773092081895201	0.611986674448506	-0.981594303441484	-0.0715290986144866	-0.177076851967238	-0.0931218569554217	-0.630247745701913	0.770789270030941	-12.9383134190706	-37.7332915015993	102.17080650284
47762	1652425787223	5.98125146866207	-1.82093605064593	7.52808272120618	0.0896514510654442	0.00918660342734856	-0.0272346536366559	0.0107960401979424	-0.0133490159507735	-0.00311641803824144	0.357177734375	-0.621826171875	0.51611328125	0	0	0	-0.18308726332462	0.284833737957917	-0.708697579880617	-0.618947926727749	-0.166765036015445	0.772994936317688	0.612101503992582	-0.981592654658636	-0.0715464114406837	-0.177078997428189	-0.0930875022920887	-0.630364925608313	0.770697591458444	-12.9399522023519	-37.7416109901745	102.174336439854
47763	1652425787224	5.9793681613125	-1.79843009412581	7.5638430869103	0.0612853842804919	-0.0169104314712502	-0.00478878094453172	0.012898078519953	-0.0129292855454028	-0.00271286845974295	0.365966796875	-0.62841796875	0.525146484375	0	0	0	-0.182970072503089	0.284960666864514	-0.708689510581224	-0.618933395851678	-0.166886808135448	0.772984663023544	0.612081288719676	-0.98154175853046	-0.0714377396792821	-0.177404694443095	-0.0934054041867747	-0.630389847697354	0.770638741816691	-12.9639056043431	-37.740146310331	102.183117794298
47764	1652425787225	5.95039645967151	-1.81337054570708	7.57074812953458	0.0803820822006276	-0.0434878265627711	-0.0145546122106737	0.0163254754709261	-0.00426146906686739	-0.00127456121066185	0.35498046875	-0.62060546875	0.525390625	0	0	0	-0.183005845568472	0.28496063118011	-0.708703864345197	-0.61890639989209	-0.166927457320763	0.772943792017312	0.612121816613592	-0.981541637068678	-0.0715046137000926	-0.177378422927198	-0.0933340168050452	-0.630432379087162	0.770612598330404	-12.9624755390857	-37.7430827524817	102.18662170571
47765	1652425787225	5.94267991375691	-1.81196135172762	7.5371558570533	0.0812697671241628	-0.0277501651314759	-0.0453954185824159	0.0148635367562624	-0.00676778644097358	-0.00229334272695666	0.36083984375	-0.621826171875	0.515380859375	0	0	0	-0.182903521151623	0.285016158799019	-0.708715761302848	-0.618897455847667	-0.167024482191246	0.772983845120049	0.612044767588263	-0.981505681237852	-0.0714634567374743	-0.177593840121082	-0.0935383346364881	-0.630387935746359	0.770624182347581	-12.9774967169738	-37.7375002773	102.192880250788
47766	1652425787226	5.97026493915451	-1.80239350048653	7.5838936794881	0.063556870957842	-0.0371333488894444	0.00580083013054988	0.0224157402527513	-0.00456454089587539	-0.00627412485714069	0.36279296875	-0.6201171875	0.513916015625	0	0	0	-0.182965600399615	0.284990985891806	-0.70872350029079	-0.618881836190395	-0.167017723808028	0.772945108738151	0.612095530788906	-0.981519296106841	-0.071530821588043	-0.177491444675145	-0.093407447796822	-0.630427791615112	0.770607454061649	-12.9705393938654	-37.7411782039318	102.192994390008
47767	1652425787227	5.9649233971066	-1.7921738943009	7.49668728568688	0.0606615611315201	0.0115280453212909	-0.0664724194597799	0.0193461495058559	0.000128601781732682	-0.00320233645903123	0.364990234375	-0.61083984375	0.52197265625	0	0	0	-0.182932237583455	0.285101795286295	-0.708736139586579	-0.618826184983436	-0.167179898463112	0.772860344138938	0.61215828835956	-0.981477581542067	-0.0715422382067542	-0.177717374172318	-0.0935555368762275	-0.630530408949331	0.770505525554483	-12.9881500069586	-37.7457254066677	102.205777511293
47768	1652425787228	5.96269248787029	-1.82846047745525	7.56858440034369	0.0905084796658454	-0.0328586474026884	-0.00599742493113631	0.020076140162626	0.00138229674565108	-0.00269156940411618	0.35791015625	-0.61962890625	0.51318359375	0	0	0	-0.182960393284306	0.285071095072743	-0.708756769169232	-0.618808376963394	-0.167203374178364	0.772855812645869	0.612157597782518	-0.981482691319857	-0.0716213267079137	-0.177657288620893	-0.0934599288620491	-0.630526984688277	0.770519930486558	-12.9836730767167	-37.745675368255	102.207509501673
47769	1652425787228	5.9437026518125	-1.83441145778478	7.55596414393645	0.101106598323225	-0.0392924921480002	-0.026294065265013	0.025939796795925	0.00347924461380616	-0.0088034278153645	0.35791015625	-0.619140625	0.52392578125	0	0	0	-0.18300252935763	0.285039328662718	-0.708774884172122	-0.618789801896421	-0.167218510635396	0.772839504108695	0.612174052529104	-0.981491176555408	-0.0717035243689906	-0.177577236539331	-0.093343666334465	-0.630537632090339	0.770525310728433	-12.9779332113819	-37.7468676693361	102.208831366117
47770	1652425787228	5.99205940181094	-1.80769894804194	7.56274069529408	0.0675828642631446	-0.00759310254137728	0.00377699556055866	0.0273994838456154	0.00598700080627294	-0.00778219563297935	0.35791015625	-0.627197265625	0.52294921875	0	0	0	-0.183044336461296	0.284964082863534	-0.708794214157432	-0.618789951715553	-0.167187533090614	0.772867352183368	0.612147355387692	-0.981511598035597	-0.0717889342672164	-0.177429794111323	-0.0931842889154806	-0.630493778594085	0.770580484734378	-12.9666248947223	-37.7449332201603	102.206210838158
47771	1652425787230	5.98056117239141	-1.78344010345744	7.56644874950401	0.0442318438457588	-0.0182386184857303	-0.00469942695059799	0.03233226156793	0.00808219279221642	-0.00646376143682277	0.358154296875	-0.62255859375	0.5205078125	0	0	0	-0.182924117195829	0.284909656844248	-0.708826620669638	-0.618813442497075	-0.167217381466093	0.773029187622692	0.611934818766692	-0.981496577457895	-0.0717928216436247	-0.177511293158731	-0.0932888834431066	-0.630294903869488	0.770730509570039	-12.9699397286695	-37.7295348240418	102.205845479379
47772	1652425787230	5.91010782486196	-1.82119600845929	7.60213464399889	0.0912914208032518	-0.0916708042655731	-0.0136138199260198	0.0273965527571719	0.00598777441080558	-0.0077762565986417	0.36328125	-0.6259765625	0.522705078125	0	0	0	-0.182964970156683	0.284834519363594	-0.708846526899987	-0.618813152394404	-0.167188204238528	0.773057629079705	0.61190686095611	-0.981516586419518	-0.0718791580052202	-0.177365659663412	-0.0931305263964129	-0.630250179505032	0.770786232548949	-12.9587530541524	-37.7275095034668	102.203344026657
47773	1652425787230	5.95292140862967	-1.8158516527647	7.53932743122925	0.0833465017463379	-0.0181619487123959	-0.0367592012755704	0.0303157386131248	0.0110042855667441	-0.00573676086046727	0.35400390625	-0.624267578125	0.522705078125	0	0	0	-0.182866818306251	0.28482501565917	-0.708878990262668	-0.61880935220913	-0.167269424762131	0.773151808742966	0.611765657892976	-0.981491986293448	-0.0718993921465419	-0.177493544250769	-0.0932438758390475	-0.630132333757313	0.770868874434605	-12.9664376385708	-37.717281312942	102.207652033443
47774	1652425787231	5.98236739487963	-1.82665191878281	7.55087569743337	0.0894928259175101	-0.000875984721155132	-0.00793901241875439	0.0315968357030948	0.0068304301191964	-0.00696224294134636	0.36181640625	-0.618896484375	0.51806640625	0	0	0	-0.182915789000239	0.284733744787017	-0.708908340866886	-0.618803258688366	-0.167248682342159	0.773184987714164	0.611729395262529	-0.981514178045004	-0.072018443232442	-0.177322480613757	-0.0930472812684621	-0.630078025809362	0.770937017427964	-12.953256254984	-37.7146548195358	102.205675514395
47775	1652425787232	5.95711195483323	-1.78900761112587	7.61122872284689	0.0499371068534763	-0.0595508356349332	0.016478071537394	0.0284371302554575	0.00818449636418409	-0.00501947136418746	0.3623046875	-0.616943359375	0.5185546875	0	0	0	-0.182808169767207	0.284722136524647	-0.708934809458783	-0.618810079084724	-0.167310518179042	0.773292945673648	0.611576005642825	-0.981491076354767	-0.0720147819919947	-0.177451791229638	-0.093179705637129	-0.629945943193556	0.771028956078408	-12.9608899026669	-37.7035458767475	102.208399386276
47776	1652425787232	5.97036860255567	-1.79989539737269	7.55554780762123	0.0649743538918185	-0.012603797058971	-0.0164204111722199	0.029492254546649	0.00641024858227736	-0.00735965080299094	0.364013671875	-0.619140625	0.507568359375	0	0	0	-0.182851858824946	0.284639710476435	-0.708959866485857	-0.6188063838201	-0.167287714135506	0.773323982195367	0.611542998701495	-0.98151158281941	-0.0721177891267648	-0.177296467203396	-0.0930044810245966	-0.629896057340389	0.771090865888307	-12.9489231044185	-37.7011556313528	102.206310092401
47777	1652425787233	5.94007154499759	-1.78393232296903	7.54589310372924	0.054658074047063	-0.0325876380616797	-0.0452251892833679	0.0231873058911633	0.00514646792621168	-0.00857006905397794	0.365478515625	-0.623291015625	0.521728515625	0	0	0	-0.18288633365282	0.284716856792253	-0.708971981879786	-0.618746821673305	-0.167409919264424	0.773206676751304	0.611657873291176	-0.981489965022864	-0.0721773642550452	-0.177391873118841	-0.0930127275769041	-0.630033223819506	0.770977800842738	-12.9574919265769	-37.7094747736266	102.216756775462
47778	1652425787234	5.99701132750415	-1.78726032763983	7.60367863932235	0.0439497423534922	-0.0244376316668522	0.0347409361969717	0.0218532653083714	0.000868230785516388	-0.00450227612535624	0.3623046875	-0.617431640625	0.515625	0	0	0	-0.182921875358408	0.284682636465097	-0.708989330134842	-0.61873218258435	-0.16742014749954	0.77319966783835	0.611663933762567	-0.981498394815036	-0.0722525654593768	-0.177314601090959	-0.0929053022530993	-0.63003320582268	0.770990768021289	-12.9518275111681	-37.7099136949143	102.217588184269
47779	1652425787234	5.95118687615986	-1.80152634533857	7.54413187782844	0.0702976084040158	-0.0225090560356813	-0.0366657024480723	0.0203932563778838	-0.00164073082717926	-0.00551816231951685	0.3642578125	-0.62060546875	0.515869140625	0	0	0	-0.182943971404151	0.28475172004441	-0.709003488465205	-0.618677633831058	-0.167538977448161	0.773101980185063	0.611754868611242	-0.981476422301412	-0.072308886657907	-0.177413239011954	-0.0929232129343545	-0.630146612419862	0.770895922517254	-12.9603298365696	-37.7164998381887	102.227497493159
47780	1652425787235	5.97317639994718	-1.81301063464643	7.52143985321317	0.0808548375965769	0.00957658274400335	-0.0386773501868927	0.0253237769932956	0.000458003624812489	-0.00419853448304197	0.356201171875	-0.618408203125	0.5146484375	0	0	0	-0.182991183532379	0.284707575584201	-0.709025989959288	-0.618658200233891	-0.167552516065564	0.773091533300958	0.611764362723486	-0.981487438168106	-0.0724072553766583	-0.177312148729372	-0.0927823424920198	-0.630148133780616	0.770911646308771	-12.9529388711536	-37.7171875025308	102.228616121842
47781	1652425787236	5.94034458929559	-1.77618189894291	7.54750627251347	0.0459124247567946	-0.0358401798619917	-0.0451915577816209	0.0144038700169984	-0.00196320843791418	-0.00449168704041156	0.364013671875	-0.62255859375	0.514892578125	0	0	0	-0.182942255742798	0.284823884212466	-0.70902502527488	-0.618620238579224	-0.16768226296784	0.773021812853865	0.611816913412917	-0.981447108322882	-0.0723687108046145	-0.177550959617604	-0.0929743634053919	-0.630238087192929	0.770814972091721	-12.9713665274282	-37.7209938964773	102.238870746163
47782	1652425787237	5.91976559908668	-1.79147764217231	7.58775110956538	0.0603803104765626	-0.0773135093247115	-0.0240531215520985	0.00380198813058127	-0.0209782198798642	-0.000828233752686602	0.366455078125	-0.620849609375	0.52392578125	0	0	0	-0.182993588924573	0.284926452210351	-0.709007523945857	-0.618577880489993	-0.167749504362025	0.772873314688736	0.611986064570379	-0.981432170966808	-0.0723566451986617	-0.177638424016238	-0.0930107390448686	-0.630421569537115	0.770660526486654	-12.9800528816101	-37.7332473179567	102.245912050779
47783	1652425787238	5.97294878237651	-1.81765701837958	7.57431965824338	0.0765528849691979	-0.0289205517479191	0.00279100089752582	0.0133097247631058	-0.0126134720342106	-0.00439376499360767	0.35693359375	-0.62841796875	0.514892578125	0	0	0	-0.183035991693927	0.285059228496732	-0.709006145831627	-0.618505737375533	-0.167896957156339	0.772696540903939	0.612168822672904	-0.981400935221559	-0.0723837781647938	-0.177799867842582	-0.093074250595382	-0.630635111878237	0.770478123986938	-12.9944207842844	-37.7464887150062	102.259070196032
47784	1652425787238	5.94381207244828	-1.80294020895136	7.56344928066364	0.06813711224532	-0.0468277991092216	-0.0260421403876059	0.015083315941152	-0.00915998865666251	-0.00113919292400117	0.352783203125	-0.615234375	0.518310546875	0	0	0	-0.183080727207626	0.285085797103267	-0.709014169907991	-0.618471052260981	-0.167950009680644	0.772622049361418	0.612248285492769	-0.981396909562346	-0.07243929161038	-0.177799479561849	-0.0930209661837036	-0.630719999581074	0.770415071230243	-12.9954207659186	-37.7522467842409	102.263973177612
47785	1652425787239	5.9368449051926	-1.83129589337093	7.54727599293804	0.0951754684987052	-0.0401049789436247	-0.0376947809774837	0.0144525769763345	-0.011047065863077	-0.00561264499924667	0.361328125	-0.62109375	0.518798828125	0	0	0	-0.182941921145028	0.285216782493281	-0.708989233895022	-0.618480320376402	-0.168028693589739	0.772635564781377	0.612209639066136	-0.981347989309875	-0.0722669605825675	-0.178139300227725	-0.0933942289865474	-0.630723212227931	0.770367280943893	-13.0201930861755	-37.749446314189	102.26933666406
47786	1652425787239	5.9939076954799	-1.7758795225813	7.56881234124273	0.0295155379337603	-0.0145441035273244	0.00395742550647782	0.0173703965887881	-0.00602687164291275	-0.00358034519631311	0.35546875	-0.624755859375	0.52490234375	0	0	0	-0.182984884655688	0.285224032567604	-0.708996302294096	-0.618456163819812	-0.168057010841653	0.77258289315765	0.612268335215143	-0.981349639959303	-0.0723184493583125	-0.17810930922935	-0.0933259088287668	-0.630781828434019	0.770327566466838	-13.0187240054691	-37.7536997066913	102.272152978724
47787	1652425787240	5.95696910453268	-1.82018067183762	7.56019808378138	0.0779065465337	-0.0339999256826448	-0.0173870595480317	0.0164130302478044	-0.00488297354659687	-0.00520529342463463	0.3603515625	-0.615234375	0.52587890625	0	0	0	-0.182877247701186	0.285282302806164	-0.70898873465875	-0.618469800480053	-0.168102036334806	0.772632957823908	0.612192794685114	-0.981319527244099	-0.0722182271995521	-0.178315767977966	-0.093561160902959	-0.630731987570341	0.770339839957702	-13.0330994024157	-37.7482257381341	102.274569932788
47788	1652425787240	5.93547235583914	-1.80496318529389	7.58339902054579	0.0649087082293064	-0.0667420542091938	-0.0153919721284375	0.023029620258732	-0.00267094466038091	-0.00175395780417185	0.3515625	-0.621337890625	0.52392578125	0	0	0	-0.182922443976727	0.285261031131986	-0.709012978997005	-0.618438452249608	-0.168146520537381	0.772600488739615	0.612221555019489	-0.981323068683551	-0.0723200497932515	-0.178255000679928	-0.0934440073020811	-0.630760093218659	0.770331047214195	-13.0289531185468	-37.7503097791106	102.278219920369
47789	1652425787241	5.97642227455468	-1.80849981530036	7.57377169964998	0.0620724195802576	-0.0265885685994308	0.00289984905198359	0.0194287180247364	-0.000495894087843361	-0.00713880124514926	0.359130859375	-0.62109375	0.51904296875	0	0	0	-0.182823871822071	0.285199495011813	-0.709012979946936	-0.618495977516233	-0.168076315376453	0.772760800368436	0.612038477240941	-0.981325904047473	-0.0722479476824938	-0.178268629043584	-0.0935404845769272	-0.630571946307162	0.770473359873988	-13.0275906218747	-37.7370445379114	102.270779917549
47790	1652425787241	5.95762560525712	-1.81484016530021	7.56096462086872	0.0731881603868756	-0.0326395176691307	-0.0173460409831314	0.0193292442777098	0.000138425470882314	-0.00317158715824289	0.36181640625	-0.62353515625	0.517822265625	0	0	0	-0.182849138920567	0.285180749193966	-0.709030786072104	-0.618476739325861	-0.168105430617715	0.772747988449376	0.612046657162896	-0.981328206156733	-0.0723169264040371	-0.178227983090991	-0.093463982357067	-0.630579740003527	0.77047626537035	-13.024674127057	-37.7376371786491	102.2730384325
47791	1652425787242	5.9494659374937	-1.8130645816416	7.5278540557694	0.0741013861759736	-0.0183806043106306	-0.0481543177129584	0.0239434192099867	0.0012948919911859	-0.00409013288793797	0.358642578125	-0.619140625	0.51904296875	0	0	0	-0.182794208449088	0.285235329117413	-0.70904673840182	-0.618449518669466	-0.168212940429955	0.772740495742056	0.612026578599517	-0.981297960572986	-0.0723219997615749	-0.178392379113534	-0.093588029401245	-0.630588340037151	0.770454168761507	-13.0366389163073	-37.7361824819661	102.280764847046
47792	1652425787243	5.93582501350107	-1.76822217919068	7.56676621693661	0.0291452677745952	-0.0571978829823439	-0.0345250595335518	0.0126646912641622	-0.010524962528396	-0.00376786734682145	0.358154296875	-0.624755859375	0.5166015625	0	0	0	-0.182836991340858	0.285273363344791	-0.709043444924477	-0.618423104333113	-0.168246997248838	0.772660649707181	0.612118018286365	-0.981294743561777	-0.072343944385893	-0.178401177038486	-0.0935605374865701	-0.630683656126246	0.770379485526747	-13.0384805864986	-37.7428075403353	102.284406554088
47793	1652425787243	5.96998613381374	-1.83174893180883	7.55844960021463	0.0838390011101337	-0.0218970137010413	-0.00867337214125818	0.0133936212180389	-0.0092693198840801	-0.0032599348588524	0.350830078125	-0.625244140625	0.51513671875	0	0	0	-0.182756165949619	0.285396226296052	-0.709032549418661	-0.618402798900718	-0.168356324238306	0.772619585955711	0.612139790804839	-0.981251266333136	-0.0722539446554606	-0.178676578771093	-0.0938195097438866	-0.630744276929527	0.770298355646736	-13.0592472752101	-37.7443851069591	102.292779799293
47794	1652425787244	5.95959385391957	-1.80876643143111	7.56086891757539	0.0630028141538741	-0.0340430607856398	-0.0172800118396204	0.0180075257049364	-0.00811278034974643	-0.00417896413130936	0.361572265625	-0.614990234375	0.513427734375	0	0	0	-0.182806796937339	0.285408148324067	-0.709037955988038	-0.618376132165564	-0.168385268322934	0.772555198735041	0.612213088980686	-0.9812533963948	-0.0723062960763674	-0.17864370017268	-0.093745258416003	-0.630817140267429	0.770247727727476	-13.0577553795079	-37.7496963040774	102.295822435958
47795	1652425787244	5.97086297510619	-1.79928894170143	7.54037637795332	0.0509649662112762	-0.013707145146897	-0.02784521593642	0.0172672901411309	-0.00538891466681586	0.000396537851429429	0.360595703125	-0.62060546875	0.521484375	0	0	0	-0.182707467681959	0.285522844463577	-0.709044487582293	-0.618345050252558	-0.168534760162816	0.772533986856164	0.612198720816193	-0.981202610365324	-0.0722522082351802	-0.178944281320794	-0.0940078296161413	-0.630849314462068	0.770189373085349	-13.0799281790795	-37.7486551546272	102.306733718684
47796	1652425787245	5.97147445765492	-1.79766954578534	7.54027841132891	0.0496543574455262	-0.0140325506065675	-0.0278389385801816	0.0211613354099714	-0.00946753433629076	-0.00610956630859734	0.353271484375	-0.6220703125	0.516357421875	0	0	0	-0.182774575258	0.285526822143519	-0.70904734652605	-0.618320102261159	-0.168547411558016	0.772462368339885	0.612285602930389	-0.981210542908077	-0.0723093699527471	-0.178877683077222	-0.0939022925339481	-0.630930459334287	0.770135776951763	-13.0761061475863	-37.7549510511825	102.308735703628
47797	1652425787246	5.94264672578227	-1.81187059647972	7.54739835590455	0.0661391673232904	-0.0398857694275802	-0.0374542970481286	0.0228468800789441	-0.00935335742819173	-0.00397380167334579	0.35791015625	-0.6181640625	0.52001953125	0	0	0	-0.182709593895694	0.285586891789879	-0.709045455638837	-0.618313733774514	-0.16861066184858	0.772466156142077	0.612263409266035	-0.981184016225526	-0.0722565077272305	-0.179044473231125	-0.0940657802525982	-0.630931878023412	0.770114663072533	-13.0882255800249	-37.7533427403991	102.31315534367
47798	1652425787247	5.93239256496723	-1.78854979771548	7.54977362960776	0.0452704907623114	-0.0520196957257464	-0.0460851875231185	0.0175029292241205	-0.0117652777086564	-0.00355819009742857	0.354736328125	-0.624267578125	0.525146484375	0	0	0	-0.182769172558582	0.285613628027899	-0.709049181840571	-0.61827950214948	-0.168651773568083	0.772378417363541	0.612362768025074	-0.981183883227997	-0.0723106254130631	-0.179023352515812	-0.0939934389517104	-0.631033084586983	0.770040570093984	-13.087950644118	-37.7605432549531	102.317422338499
47799	1652425787248	6.00411876364887	-1.80586150367548	7.54993957899632	0.0486374305140005	0.00499218262798388	0.00106700321767228	0.0175021748707527	-0.0117649893769841	-0.00355674553139171	0.363037109375	-0.625	0.521484375	0	0	0	-0.182684161679653	0.285653883436326	-0.709037983962648	-0.618298870488482	-0.16866600764814	0.772425888782866	0.612298966357153	-0.981163649687276	-0.0722167312608269	-0.179172085600259	-0.0941789275601628	-0.630985728890917	0.770056711898296	-13.0981842806358	-37.7559194770041	102.317696231926
47800	1652425787249	5.97484817886929	-1.79098387933853	7.53919672784459	0.0401712577970668	-0.0128686736911375	-0.0277938110064309	0.0179058445930054	-0.00747409164344081	-0.000206463099774181	0.353271484375	-0.6123046875	0.522216796875	0	0	0	-0.182724309008816	0.285668873338392	-0.709057067001066	-0.618258196418511	-0.168737258917162	0.772363391831588	0.612358170037379	-0.981157981775926	-0.0723001947338075	-0.179169463466421	-0.0941103195750304	-0.631052670384857	0.770010243405649	-13.0987623834022	-37.7602100239991	102.323707411747
47801	1652425787250	5.96499229253248	-1.79770617460454	7.5592495105073	0.0457175574731023	-0.0326998751876411	-0.0171795107828743	0.0152154363195027	-0.0148946165734976	-0.00110660415347566	0.364013671875	-0.619140625	0.520263671875	0	0	0	-0.182706639382756	0.285711654124997	-0.709060286648015	-0.618239957072699	-0.168795278808414	0.772335970043116	0.61237676574928	-0.981141634673782	-0.0722964123518103	-0.179260484967314	-0.0941766773763517	-0.631086664522882	0.769974269245236	-13.1057783400008	-37.7615577242804	102.328239648736
47802	1652425787251	5.97731670731361	-1.81826715062357	7.55591083589354	0.063911408519266	-0.0211960383623356	-0.00852167437104434	0.00891488470009803	-0.0161658589187548	-0.00231823376372278	0.363525390625	-0.62109375	0.523681640625	0	0	0	-0.182752522984286	0.285783303130162	-0.709052321894022	-0.61820241330133	-0.168854583062579	0.772220473755951	0.612506056860581	-0.981130952451232	-0.0723073596808512	-0.179314527794384	-0.0941816538445862	-0.631226730777554	0.769858837989784	-13.1114907084072	-37.7709286101301	102.334226541151
47803	1652425787252	5.98662456688907	-1.81714841000778	7.5888128260463	0.0575605446185923	-0.0366730691315789	0.0223074946987154	0.016260300938394	-0.0126908153195257	0.00163596835296279	0.359375	-0.62353515625	0.51123046875	0	0	0	-0.182807448232088	0.28584074337078	-0.709079345517196	-0.618128617733411	-0.16899689761971	0.772096837622962	0.612622658679497	-0.981112105208463	-0.0724241627364445	-0.179370503888858	-0.0941227156871871	-0.631364565037148	0.769753012600225	-13.1171829824817	-37.7793808077925	102.346219597837
47804	1652425787254	5.95741984086572	-1.80241947055346	7.57799254131901	0.049104734604189	-0.0545302951587913	-0.00655902263162389	0.0158996047687766	-0.00853568153810165	-0.00457290857169592	0.36474609375	-0.629150390625	0.517822265625	0	0	0	-0.182851229659012	0.285862119016839	-0.709081193749637	-0.61810366233665	-0.169026580836415	0.77203088555107	0.612697581785649	-0.981111845451709	-0.0724614230344464	-0.179356875770531	-0.0940721089648439	-0.631440934630512	0.76969655344678	-13.11714966996	-37.7848123214636	102.34934411841
47805	1652425787255	5.95019913020511	-1.83064993798345	7.56217348302369	0.0762650308654136	-0.0502043905819384	-0.0180827436917497	0.0207325056344238	-0.0057923472750707	0.00070598387401543	0.3671875	-0.62353515625	0.518798828125	0	0	0	-0.182799689800329	0.286032388311313	-0.709093893995336	-0.618025562371299	-0.169257355329085	0.771903041508734	0.61279494300832	-0.981049568933354	-0.0724597541851313	-0.179697877892614	-0.0943063675616999	-0.631597402253204	0.769539492491659	-13.1438129494854	-37.7918710717972	102.367671487021
47806	1652425787256	5.96953860331127	-1.82095181154387	7.57531165984484	0.0624544716684326	-0.0447868846206541	0.00213289823176943	0.0180869339455574	-0.00476736804308678	-0.00305482987242657	0.35791015625	-0.614990234375	0.519775390625	0	0	0	-0.182834069887267	0.286037085833597	-0.709106769547555	-0.617998444818522	-0.169299250180692	0.77185911249805	0.612838701733154	-0.98104841066465	-0.0725214154594228	-0.179679326112174	-0.0942431950891867	-0.631644009512861	0.769508976832563	-13.1430061887129	-37.7950438267311	102.371320884433
47807	1652425787256	5.99156987408924	-1.83286739174712	7.55249257135005	0.0723149329836262	-0.0131036478475246	0.000215115806730282	0.0214170107820853	0.000565872519576759	-0.00276306522806079	0.360595703125	-0.61669921875	0.515869140625	0	0	0	-0.182855263084855	0.28604319632015	-0.709139220981779	-0.61795210806864	-0.169398289791385	0.771819145206179	0.612861669962282	-0.981037160873195	-0.0726289639449518	-0.179697308221756	-0.0941823146966331	-0.631680489400683	0.769486485202241	-13.1446467214317	-37.7967092077196	102.378956263396
47808	1652425787257	5.97218518345254	-1.80967520380633	7.52203960687223	0.0561366194037125	-0.0103804437651951	-0.039267249681183	0.0221457210617399	0.00182243895435132	-0.0022566218648765	0.36767578125	-0.625244140625	0.51416015625	0	0	0	-0.182877715841301	0.286014129926008	-0.709166232169365	-0.617927919487414	-0.169441654733249	0.771816007271877	0.612853633880192	-0.981038450388699	-0.0727220076012496	-0.179652632792802	-0.0940908311165322	-0.631673618674504	0.769503317062674	-13.1412147143803	-37.7961265229889	102.382076254753
47809	1652425787258	5.9694868223936	-1.78638643760987	7.55838502354624	0.0290470580456098	-0.038979167683897	-0.0171388662259844	0.0165307052141109	-0.00663895787545951	-9.57825323878204E-05	0.359619140625	-0.617431640625	0.521484375	0	0	0	-0.182916429616517	0.286133502528211	-0.709192471327285	-0.617831074906387	-0.169652685312728	0.771645256399049	0.613010248399671	-0.980999331103566	-0.0728247632219131	-0.179824542919005	-0.0941184293352656	-0.631870360231051	0.769338397014568	-13.1560741719453	-37.8074832442938	102.399679326375
47810	1652425787258	5.96208347196099	-1.81484340423903	7.54268627959768	0.0596505391214926	-0.0332532963964667	-0.0286417723600003	0.015344368099491	-0.00310299045367507	-0.00284841081723179	0.3642578125	-0.62646484375	0.5224609375	0	0	0	-0.182936154927491	0.286144127537744	-0.709202994754953	-0.617808233780204	-0.16969469898746	0.771610686268704	0.613042133928408	-0.98099511205605	-0.0728690490980961	-0.179829618822033	-0.0940866582342774	-0.631907469903213	0.769311802992017	-13.1568715911905	-37.8097956006288	102.403193501462
47811	1652425787259	5.94075312191878	-1.79945300107481	7.56577641998572	0.0455144296552238	-0.0656892778620024	-0.0267196280601514	0.0243890809408161	-0.00747908797394473	-0.00690789130052093	0.366455078125	-0.62353515625	0.521484375	0	0	0	-0.182954884839149	0.28615588925611	-0.709209409710362	-0.617789875553022	-0.16972635955535	0.771577550402203	0.613075074185393	-0.980992021461786	-0.0729009534164525	-0.179833547535748	-0.0940617706637933	-0.631944249682129	0.769284634315078	-13.1575975325956	-37.8121845224939	102.405952233621
47812	1652425787260	5.98499209426432	-1.82477268421639	7.5196630033407	0.0677499058822951	-0.00125280031184655	-0.030526784209643	0.0173539091733264	-0.00602263463439162	-0.00355107824170926	0.358642578125	-0.61328125	0.519287109375	0	0	0	-0.182992019320014	0.286167872961195	-0.709218009457674	-0.617763453443908	-0.169764472908481	0.771525059659009	0.613130578307971	-0.980990807409738	-0.0729525281478441	-0.179819254848939	-0.0940056355528499	-0.632002382080162	0.769243738700098	-13.1572632953929	-37.8162100154367	102.409469866572
47813	1652425787260	5.95279276146026	-1.81756648060684	7.56328811556994	0.0621246054180567	-0.0546436100186724	-0.0180066079356909	0.0202708895003453	-0.000996061541245825	-0.0015324711750947	0.362060546875	-0.619873046875	0.51513671875	0	0	0	-0.183019370377094	0.286160013829022	-0.709252529842146	-0.617719358175428	-0.16985340920422	0.771492383920601	0.613147063056011	-0.980983686152954	-0.0730704820414239	-0.179810211489775	-0.0939192572557281	-0.632028643501813	0.769232713104292	-13.1568066325578	-37.817405630833	102.416278931595
47814	1652425787261	5.94496425996498	-1.81610310256802	7.5298464273031	0.0655016656469661	-0.0401258595797551	-0.048798950777293	0.0184055240335232	-0.00780372600356989	-0.00588182160449868	0.36376953125	-0.616943359375	0.5205078125	0	0	0	-0.183069510696995	0.286171685977272	-0.709253700453887	-0.617697748733599	-0.169870090925214	0.771430207048294	0.613220668163171	-0.980987449157067	-0.0731105147087391	-0.179773405250426	-0.0938497565546667	-0.632099903727607	0.769182640796177	-13.1550336881634	-37.8227443411589	102.418430329926
47815	1652425787262	5.97573298626282	-1.82776869427918	7.54018213717666	0.0706535607723587	-0.0235654058698403	-0.0198878522534791	0.019362630493733	-0.00894220829103451	-0.00425056549018759	0.357666015625	-0.618896484375	0.51904296875	0	0	0	-0.183132638909226	0.286219690043345	-0.709271478834758	-0.617636377579227	-0.169975483313907	0.771311399524686	0.613340900344559	-0.98097606810636	-0.0732071882446038	-0.179796166232501	-0.0937778698563244	-0.632233685082177	0.769081451195269	-13.1583121302677	-37.8314658274721	102.427750365539
47816	1652425787262	5.98412484586365	-1.79624753857735	7.55578875182067	0.0372755732834691	-0.0299817129625012	-0.00840715388750368	0.0215498845468764	-0.00517155927880811	-0.00273713619647587	0.364501953125	-0.623779296875	0.517333984375	0	0	0	-0.18317873450848	0.286215291877797	-0.709289045228176	-0.617604572715004	-0.170020285970779	0.771263205492861	0.613389085500625	-0.980977425345461	-0.0732907969136504	-0.179754694098242	-0.0936824066781229	-0.632282790324582	0.769052715838359	-13.1558570222642	-37.8349614055012	102.431676912227
47817	1652425787263	5.95489118622757	-1.81071486252269	7.56327966727574	0.0545213777992313	-0.0567865220430357	-0.0179735236569414	0.0188094364173086	-0.00350787753734756	-0.00253690391418195	0.35498046875	-0.627197265625	0.51416015625	0	0	0	-0.183151257845885	0.286273845809355	-0.709303420021722	-0.617569073303125	-0.170128112897979	0.771224881690379	0.613407374477544	-0.980950541483828	-0.0733114498100813	-0.179892930626324	-0.0937681201920778	-0.632327140955063	0.769005803909983	-13.1663971654893	-37.8362882173376	102.439914628703
47818	1652425787264	5.95804467222377	-1.83096685938915	7.52734608853982	0.0774284608521475	-0.0304805075428026	-0.040034157514981	0.022183236300104	-0.00327017135094149	0.00173249272315954	0.360595703125	-0.622802734375	0.518310546875	0	0	0	-0.183185885262421	0.286265840351807	-0.709337410709105	-0.617523471502743	-0.170215387167647	0.771185277885235	0.613432954074397	-0.980944723426181	-0.0734332615817485	-0.179874972344126	-0.0936705479523942	-0.63236130753434	0.768989600176594	-13.1653963209503	-37.8381439823785	102.446716625736
47819	1652425787265	5.98551234240965	-1.82068779833124	7.57414014316198	0.0554350513097932	-0.0397603109003732	0.0109681013643179	0.0214132401977941	-0.00342046274427098	-0.00782191856909515	0.364501953125	-0.622314453125	0.519775390625	0	0	0	-0.183079834167204	0.28636512122957	-0.709321623249139	-0.617527024878822	-0.17028429573124	0.771195185562553	0.613401372995248	-0.980905901186477	-0.0733107817749683	-0.180136454647827	-0.093951432372591	-0.632363435882154	0.768953583328965	-13.1844626932055	-37.8358528247024	102.451443342132
47820	1652425787265	5.9449715775559	-1.78411193675726	7.56609601182948	0.0274864112813145	-0.0694191701058847	-0.0266781340122435	0.0152955851950554	-0.0115424964448869	3.93549003321702E-05	0.358642578125	-0.62158203125	0.51708984375	0	0	0	-0.183124124012605	0.286406273909567	-0.709333135811217	-0.617481581838746	-0.170364102589073	0.771104497459889	0.613493216381528	-0.980896089545504	-0.0733758847103165	-0.180163373240283	-0.0939091798673549	-0.632466468312835	0.768874002939708	-13.1876812025777	-37.842516115558	102.458516123089
47821	1652425787266	5.99718566583419	-1.78029006345858	7.53533795347302	0.0162514055872646	-0.0112549177775054	-0.018985524280998	0.0158896100592313	-0.00853544888739635	-0.00454609806945038	0.354248046875	-0.619384765625	0.52294921875	0	0	0	-0.183113858018077	0.286488728037372	-0.709333083860522	-0.617446434802394	-0.170458430303098	0.771030254894903	0.613560322686617	-0.980870479973363	-0.0733682177146844	-0.180305868307707	-0.0940054522643748	-0.632557863492402	0.768787047418529	-13.199187215511	-37.8473850974966	102.466361387229
47822	1652425787266	5.9794225935946	-1.81642470869467	7.5399984417983	0.0545264993934002	-0.0261559581892612	-0.0197913542395529	0.0210448683480146	-0.00882148404413107	-0.00210497967328812	0.359375	-0.6220703125	0.52001953125	0	0	0	-0.183169075252751	0.286499534947511	-0.709348650522102	-0.61740715767505	-0.170514983045335	0.77095815848561	0.613635199790174	-0.980869577992325	-0.0734528362529513	-0.180276320728916	-0.0939122543984917	-0.63263591323199	0.768734212691824	-13.1979751886361	-37.8528182789678	102.471497654263
