// Start Time : 14/06/2022 10:12:05																																
// Update Rate : 100Hz																																
// Filter Profile : 46.1 human																																
// Firmware Version : 4.3.5																																
PacketCounter	Time_Of_Arrival	Acc_X	Acc_Y	Acc_Z	FreeAcc_X	FreeAcc_Y	FreeAcc_Z	Gyr_X	Gyr_Y	Gyr_Z	Mag_X	Mag_Y	Mag_Z	VelInc_X	VelInc_Y	VelInc_Z	OriInc_q0	OriInc_q1	OriInc_q2	OriInc_q3	Mat[1][1]	Mat[2][1]	Mat[3][1]	Mat[1][2]	Mat[2][2]	Mat[3][2]	Mat[1][3]	Mat[2][3]	Mat[3][3]	Euler_X	Euler_Y	Euler_Z
13805	1655201569713	6.9082968060407	1.19417200405837	6.9261949866895	2.08166817117217E-15	-1.22243794947741E-15	0.0424021064582778	0.0073115592036774	0.00303077406708711	-0.00780542182043354	0.563720703125	-0.368408203125	0.35693359375	0	0	0	0.266065090459598	-0.278945391351498	0.513880796033629	0.766371557242523	0.316231992223207	0.639211990220191	0.70100310887562	-0.936082513353087	0.330271790213139	0.12112007589155	-0.154100146947069	-0.694498794922029	0.702797672564971	9.77829506619223	-44.5075390710174	63.677402336309
13806	1655201569714	6.91886167268196	1.2274954208648	6.92307583159085	6.93889390390723E-16	-1.06116287632019E-15	0.0517117954361694	-0.000546481437454743	0.00811340719742975	-0.00845436901480814	0.56396484375	-0.36865234375	0.36669921875	0	0	0	0.269917938368888	-0.276127711998573	0.519697068000781	0.762110720777836	0.307336888355649	0.643069768662061	0.701430901578189	-0.941197059658753	0.314118528116161	0.124409184483517	-0.140328656893682	-0.698420233761207	0.701795586426244	10.0525422062626	-44.541918466363	64.4558602599483
13807	1655201569715	6.90726417777972	1.1954428856887	6.92700558360012	0.0113916898993861	-0.0105750157152689	0.042389848745799	0.0021151280138624	0.00565282435310532	-0.00372500779667134	0.564453125	-0.372314453125	0.36328125	0	0	0	0.267980708942959	-0.27752867610683	0.516802977445217	0.764250519186332	0.311785032884297	0.641189224908881	0.701189326166684	-0.938678550409318	0.322202044276375	0.122753499606277	-0.147216413048278	-0.696464084160034	0.702328347145639	9.91405816317065	-44.5225018581305	64.0681726839629
13808	1655201569717	6.89836175309327	1.21413182887984	6.89927079884434	-0.00420439740373276	0.00942551745442108	0.0189626502519697	0.00329564055982819	0.00550489547100282	-0.00478940135610588	0.568115234375	-0.36962890625	0.36328125	0	0	0	0.26798572345251	-0.277492706968225	0.516796624721506	0.764266117449636	0.311838092511812	0.641212132114613	0.701144782258006	-0.938668467433314	0.322209801404189	0.122810228097938	-0.147168312842775	-0.696439405481989	0.702362899210163	9.91807057046903	-44.5189223509639	64.0651432427852
13809	1655201569718	6.90869841321481	1.19315199506697	6.90360159069571	0.0187623215825488	0.00658716321892285	0.0266746554023101	0.00136847760198354	0.00453369260068837	-0.00699652388932354	0.56884765625	-0.375	0.357666015625	0	0	0	0.26798825735878	-0.277463216438621	0.516778303350842	0.764288324277667	0.311908697418721	0.641221479273045	0.701104827392769	-0.938649014691237	0.32224495820726	0.122866651818832	-0.147142759569494	-0.696414532752504	0.702392914882678	9.92212117014428	-44.5157118021469	64.0603698053046
13810	1655201569721	6.89280024201935	1.22192847892375	6.94820354480061	-0.0190126864089646	-0.0248884972121305	0.0503930831187329	0.00234489979035401	0.00956777700730748	-0.00514430773479675	0.56689453125	-0.36279296875	0.364501953125	0	0	0	0.267979632524373	-0.277413701273482	0.516774717258843	0.764311746933077	0.311971059895581	0.641271530388918	0.701031298944835	-0.938636417286894	0.32226161630829	0.12291918807571	-0.147090903629189	-0.696360736233041	0.702457109795698	9.92539029460007	-44.5098039308111	64.0576231447527
13811	1655201569722	6.91630322190129	1.2302646868048	6.92514038594144	-0.0152107500755248	0.00940783379774184	0.0516955818527407	0.00565715786807922	0.00520849426504253	-0.00691794254741338	0.565185546875	-0.378173828125	0.35595703125	0	0	0	0.267997217143439	-0.277369801216479	0.516763167278077	0.764329322950019	0.312043644635723	0.641285813851029	0.700985926246653	-0.93862315323361	0.322266641096205	0.123007269095632	-0.147021563235636	-0.696345257031305	0.702486969953007	9.9319472309286	-44.5061586193296	64.0528813632952
13812	1655201569723	6.92667917254782	1.20944014823456	6.92941070995465	0.00777827832177695	0.00656604299017179	0.0594076014245388	0.00473500876925824	0.00395764162792575	-0.00350840010696464	0.5654296875	-0.371826171875	0.368896484375	0	0	0	0.268009952310981	-0.277337740740169	0.516761629010018	0.764337531334369	0.312082392688102	0.641302066272072	0.700953807300624	-0.938619164951304	0.322256168490356	0.123065125263138	-0.146964769112144	-0.69633513602653	0.702508886046809	9.93622180338718	-44.5035782722223	64.0506535749724
13813	1655201569723	6.89826785389574	1.21394248937559	6.87702964944068	0.00316911544467934	0.0265894959211499	0.00324740870181017	0.00400127327444115	0.00738695097740069	-0.0060315001779566	0.568603515625	-0.36279296875	0.364501953125	0	0	0	0.268014696567172	-0.277291039283655	0.516753949444372	0.764358003615217	0.312150070533268	0.641333886806349	0.700894556334928	-0.938606181823967	0.3222669563153	0.123135877424518	-0.146903944494044	-0.69630083620597	0.702555603913995	9.9411724453824	-44.4988185134995	64.0468836810074
13814	1655201569724	6.8907337944768	1.22442959114465	6.94981271800822	-0.0190098403516852	-0.0248866770840197	0.050393093197302	-0.00097971005804017	0.0093757587390656	-0.0041204121960811	0.56298828125	-0.36474609375	0.36572265625	0	0	0	0.267992439924738	-0.277252216432066	0.51674940729694	0.764382960750012	0.312202517083537	0.641385887918556	0.700823609124029	-0.938591879743239	0.322300204402895	0.123157872350516	-0.146883871159353	-0.696237546402647	0.702622521253386	9.94198467411743	-44.4931196811248	64.0449238548428
13815	1655201569725	6.87058717643213	1.21046875908145	6.92576435037367	-0.00801373121823625	-0.024864671790011	0.0176601424452869	0.00378424681369151	0.0080196798360755	-0.00386362438081399	0.572265625	-0.370361328125	0.365966796875	0	0	0	0.267991992951112	-0.277206227003294	0.51675041727692	0.764399114120901	0.312251427909454	0.641429023910026	0.700762337068951	-0.938585220842309	0.32229859591644	0.123212817055223	-0.146822440331509	-0.696198550958074	0.702673998849379	9.94561744497527	-44.4881984534342	64.0429080963058
13816	1655201569726	6.90254891009177	1.2004480591698	6.93083916292551	0.0113844137614693	-0.0105732061100999	0.0423898590953851	0.00282110313588757	0.00753353081790175	-0.00496740772894958	0.568115234375	-0.37646484375	0.363037109375	0	0	0	0.267990195109999	-0.277163488403607	0.516745436050721	0.764418609363743	0.312309110033388	0.641465460572604	0.700703277202647	-0.938573849911207	0.322310819291311	0.123267449193286	-0.14677243628491	-0.69615931988313	0.702723312041696	9.94925491042905	-44.4834552965154	64.04002384241
13817	1655201569727	6.89121761632969	1.22245546046458	6.92730243712253	-0.0115951934426886	-0.0077082844465029	0.0346779059779472	0.000677104312370378	0.00719525427707862	-0.00500718929986339	0.5712890625	-0.364013671875	0.35400390625	0	0	0	0.267980480884284	-0.277126555703552	0.516737073614762	0.764441057728434	0.312367337751876	0.641501054916642	0.700644733689366	-0.938559085569615	0.322338517234161	0.123307433685128	-0.14674293577728	-0.696113695345896	0.702774667977828	9.95170491031903	-44.47875398899	64.0370710554836
13818	1655201569728	6.86859767689942	1.15770332863087	6.93473066186429	0.0415646604563061	-0.0476584411330909	0.0160664450138945	-0.000503727330344099	0.00734277633579615	-0.0039432599164688	0.564208984375	-0.371337890625	0.358154296875	0	0	0	0.267965047781676	-0.277094507754771	0.516731141839541	0.764462094542764	0.312415121650691	0.641539455991165	0.700588265795642	-0.938546028033353	0.322367320441137	0.123331520603686	-0.146724725342392	-0.69606496616204	0.702826733879011	9.95288738107554	-44.4742197219215	64.0349713534693
13819	1655201569728	6.90107647970201	1.20165195209381	6.93209668636508	0.0113762559642743	-0.0104778840668894	0.0423899703228177	0.00328523651209318	0.000953709106378975	-0.00553750284307316	0.562255859375	-0.37548828125	0.362060546875	0	0	0	0.267979551142816	-0.277073746261469	0.516717056386805	0.764474056421071	0.312467245543182	0.641533371922738	0.70057059114132	-0.938533764549165	0.322380887616502	0.123389367859511	-0.146692171787829	-0.696064290140673	0.702834198603861	9.95735861929177	-44.4728005523756	64.0309947327714
13820	1655201569729	6.92490978320587	1.20997155323166	6.90873417293597	0.0151783249202463	0.023814119320792	0.0436921447556298	0.0025518789049701	0.0043816659502054	-0.00806117477057256	0.568359375	-0.365966796875	0.36083984375	0	0	0	0.267989152346292	-0.277039603474671	0.51669564926179	0.764497533263025	0.312549328281069	0.641537881613692	0.700529845078474	-0.938512315619811	0.322414840517307	0.12346377624283	-0.146654528811738	-0.696044407397126	0.702861744662626	9.96286034677699	-44.4695290175172	64.025228391109
13821	1655201569730	6.88971793448541	1.22445095548498	6.92844161771962	-0.0116572208093605	-0.00757957769209947	0.0346779326533557	0.000665608059748185	0.00264621311285897	-0.00575540084575423	0.55908203125	-0.36865234375	0.36767578125	0	0	0	0.267989469728215	-0.27702029739754	0.516679517347725	0.764515320512212	0.3126040623662	0.641541768407344	0.700501862653431	-0.93849585882142	0.322447840936223	0.123502683576559	-0.146643183159643	-0.696025537796096	0.702882797889137	9.96564450284088	-44.4672823918282	64.0214145971123
13822	1655201569731	6.89175194957651	1.22169234337163	6.90453991348821	-0.00426417177923155	0.00957891322677061	0.0189624762525451	0.00495390472628515	0.0033221428481225	-0.00567557677061565	0.5703125	-0.372802734375	0.36328125	0	0	0	0.26800768488837	-0.27698719505178	0.516669134868393	0.764527945658279	0.312662197703386	0.641546590752844	0.700471499791883	-0.938485378311048	0.322449771830244	0.123577260622622	-0.146586305034463	-0.696020198370726	0.702899949236246	9.97130307895982	-44.4648447457834	64.0173885399419
13823	1655201569732	6.8915358467203	1.22236318185326	6.90463687938121	-0.00428889070623146	0.0096315421416606	0.0189624140835321	0.00328571788249793	0.000952924689347514	-0.00553751384435364	0.565673828125	-0.371826171875	0.363525390625	0	0	0	0.268022757024644	-0.276967220763494	0.516654874428235	0.764539535321098	0.312713798704183	0.641539119004516	0.700455308272348	-0.938473191462455	0.322463084892907	0.123635058893603	-0.146554252774441	-0.696020917550802	0.70290592067891	9.9757900451927	-44.4635448706054	64.0134019068598
13824	1655201569733	6.90441186202634	1.19807585045874	6.88469283577641	0.0260931827214155	0.0239483211596633	0.0109591063521091	0.0028098927371341	0.00298354620861683	-0.00571564127845711	0.566162109375	-0.372802734375	0.353759765625	0	0	0	0.268033705935703	-0.276940896502047	0.516640914847798	0.764554666084934	0.312771809899745	0.641541454645348	0.700427267390105	-0.938459433903746	0.322480195175206	0.123694844827184	-0.146518551211435	-0.696010837337532	0.702923344654031	9.98027462446576	-44.4612937824232	64.0092979191197
13825	1655201569735	6.88873211605617	1.22689368339863	6.92898970603427	-0.0117342848617469	-0.00751913644528081	0.0346778874606031	0.00377289691262735	0.00346947499319964	-0.00461182121147302	0.564453125	-0.375244140625	0.356689453125	0	0	0	0.268043872262103	-0.276913546526163	0.516633955110684	0.764565711184939	0.312816488353987	0.641551256037566	0.700398337012946	-0.938451173208386	0.322483677938857	0.123748426118603	-0.146476073533132	-0.696000189180756	0.702942740586079	9.98424088345354	-44.4589713776277	64.0064189152318
13826	1655201569736	6.91221993651986	1.18096358789204	6.91326007420861	0.0416367163309809	0.00395596148389407	0.0343870764424121	0.00211577369231175	0.00564803138875568	-0.0037261741281884	0.566650390625	-0.363525390625	0.369140625	0	0	0	0.268042529192492	-0.276881498719726	0.516630208493595	0.76458032009899	0.312859726677165	0.641578545958796	0.700354025324968	-0.938442614772568	0.322492860431913	0.123789392717095	-0.146438554357497	-0.695970778363459	0.702979676421621	9.98696540693369	-44.4554144072136	64.0042593452881
13827	1655201569737	6.89024797140869	1.22420561687331	6.90559570278138	-0.00442821546419031	0.00965334781211031	0.0189623309322435	-0.00142794690614772	0.00609197215972929	-0.000534696274425305	0.5654296875	-0.365478515625	0.365478515625	0	0	0	0.268019250268547	-0.276864177730314	0.516635766804631	0.764590997222302	0.312867423095817	0.641620253600731	0.700312377253692	-0.938439970966716	0.322506331887354	0.123774338150335	-0.146439053730121	-0.695926085200072	0.703023817150408	9.98516093776963	-44.4520714470995	64.0051713830613
13828	1655201569738	6.86784604930128	1.15922876024925	6.91288156866493	0.0487321607341547	-0.0302971715455952	0.000352916039171092	0.00237348807992438	0.00425134747546868	-0.00138016774165768	0.57080078125	-0.3662109375	0.36083984375	0	0	0	0.268019254411136	-0.276839939804703	0.51663947283711	0.76459726791326	0.312886605671044	0.641645390339442	0.700280775866222	-0.938439127370162	0.322498668742985	0.123800698219889	-0.146403470629565	-0.695906460463724	0.703050653987656	9.98687109777814	-44.4495350304732	64.0046717769631
13829	1655201569738	6.91111663239137	1.18173063860466	6.91423198236663	0.0414075821068943	0.00400846794530091	0.0343880213985095	0.00495472196815396	0.00332075133750423	-0.00567546388750159	0.56201171875	-0.36474609375	0.3662109375	0	0	0	0.268032237662603	-0.276811375206006	0.51663144480231	0.764608483062812	0.312934825596075	0.641652826011831	0.700252415776044	-0.938430315239544	0.32250133963011	0.123860523881482	-0.146356886987136	-0.695898366723055	0.703068364260276	9.99135332751334	-44.4472588633002	64.0014548402605
13830	1655201569739	6.86256849778889	1.16724050716719	6.96143978202047	0.0338039727945074	-0.0645757339779423	0.031784579764464	0.00277189863650476	0.0037439121860108	-0.0102294420381293	0.57568359375	-0.370361328125	0.369140625	0	0	0	0.268047337522855	-0.276776180192393	0.51660117758841	0.764636380405278	0.313036338784752	0.641645872707979	0.70021341363691	-0.938402345469246	0.322547696322353	0.123951690649871	-0.14631913278193	-0.695883293113119	0.703091141850034	9.99824167734789	-44.4441287152629	63.993887839688
13831	1655201569739	6.85409026441261	1.18644555296073	6.93318181988631	0.0179596424957992	-0.0444361723141127	0.0083573526755849	0.00633407755563391	-0.00655733279398611	-0.0104013974792988	0.563720703125	-0.36279296875	0.365234375	0	0	0	0.268090971206912	-0.276776875897061	0.516566965547218	0.764643944742478	0.313106262148005	0.641576841585636	0.700245403372778	-0.938382367453068	0.322571602525349	0.124040693715423	-0.146297645424934	-0.695935857378558	0.703043584251995	10.0059390020537	-44.44669606487	63.9864149889429
13832	1655201569740	6.88693053100674	1.17715243188825	6.93729705910338	0.0373571149668087	-0.0301435158339543	0.0330876773563578	0.00511416337148027	-0.00564902949865418	-0.013851603273388	0.57373046875	-0.364013671875	0.35986328125	0	0	0	0.268144300370765	-0.276766656379976	0.516513507385265	0.764665056598962	0.313228029209641	0.641492857835835	0.700267888070743	-0.938346463599693	0.322624861734489	0.124173720411173	-0.146267275791255	-0.695988586067628	0.702997704189843	10.017093088369	-44.4485006512223	63.9746758256633
13833	1655201569740	6.88517346894686	1.23597199128764	6.95327955455054	-0.0199163825026042	-0.0242646009988346	0.0503928543050431	0.0101368915548304	-0.00839964636829684	-0.0112471133366682	0.559326171875	-0.3701171875	0.364501953125	0	0	0	0.268203507853152	-0.276763964897314	0.516480052690223	0.764667863377746	0.313300125814846	0.641413264270105	0.700308543131362	-0.93832952920133	0.322630467096738	0.124287072255133	-0.146221495660568	-0.696059340946812	0.702937172219166	10.0268975902983	-44.451763703739	63.9666727549828
13834	1655201569741	6.90128044883078	1.26306194167098	6.90095831950524	-0.0317069774865802	0.030025979252618	0.0282636076830212	0.00370491436101387	-0.00941628236684165	-0.0113670639610489	0.568603515625	-0.3681640625	0.361083984375	0	0	0	0.26825776815692	-0.276775124413458	0.516429049326465	0.764679238204587	0.313393135035357	0.641310989738344	0.70036059094836	-0.938299298364376	0.322677613670464	0.12439286283728	-0.146216174213491	-0.696131720349505	0.702866600658766	10.0362459817589	-44.4559414266825	63.9563612797328
13835	1655201569742	6.93411521930593	1.19950773541652	6.91241100225747	0.0369945079505647	0.0217385510724934	0.0514069833452364	0.00659333559339452	-0.00795642598820508	-0.00805588758767167	0.5751953125	-0.375	0.35986328125	0	0	0	0.268298691350978	-0.276781616209401	0.51640408977975	0.764679387198722	0.31343750597452	0.641246835001404	0.700399476334152	-0.938287416677368	0.322685256556201	0.124462640604202	-0.146197310349353	-0.696187274949737	0.70281549829573	10.0424765162121	-44.4590628356295	63.9508999861885
13836	1655201569742	6.92365952203707	1.22195925656689	6.90787731099881	0.0140060258731574	0.0245800271916696	0.0436920000437162	0.00253307231899549	-0.00472134188510212	-0.00955653284594752	0.567138671875	-0.365234375	0.365478515625	0	0	0	0.268333772158546	-0.276780308154955	0.516364742538682	0.764694122116663	0.313520227361218	0.641183158682382	0.700420747877627	-0.938261175268077	0.322728878764252	0.124547331549644	-0.146188351177303	-0.696225701790485	0.702779295473628	10.0496778309749	-44.4607704162662	63.9426892001099
13837	1655201569743	6.9262484215311	1.21960248828438	6.88335028762931	0.0210455744131627	0.0418465316524016	0.0279764577386299	0.00537308419681259	-0.0070497643998153	-0.0115062239685437	0.573486328125	-0.367919921875	0.35986328125	0	0	0	0.268374824956362	-0.276789012930183	0.516324988344643	0.764703407905105	0.313592697464078	0.64110455055746	0.700460259651981	-0.938237362137388	0.322766919481092	0.124628118729928	-0.146185746181623	-0.696280454230336	0.702725591301554	10.0568163378756	-44.463942370403	63.9346904881309
13838	1655201569744	6.89149151621768	1.2345147836509	6.90251885068066	-0.00574591492237776	0.0103950439902144	0.0189608929099023	0.00372336681604152	-0.000322442913586066	-0.00987432526773456	0.572021484375	-0.3681640625	0.36181640625	0	0	0	0.268403523154016	-0.276767467669426	0.516291958207758	0.7647234346405	0.313684765459703	0.641070392282035	0.70045029806393	-0.938211845949591	0.322804325297019	0.1247232924894	-0.146151975827737	-0.696294563894401	0.70271863519673	10.0644369873881	-44.4631426507518	63.926846101539
13839	1655201569744	6.93938448283745	1.19640423577142	6.86299048441845	0.0510861075143843	0.0561301741424415	0.0199785069886431	-0.0010022775147864	0.000271402438526686	-0.00561787589867596	0.56982421875	-0.366455078125	0.364013671875	0	0	0	0.268398674696281	-0.276776089284941	0.516272446298349	0.764735188816712	0.313715515186506	0.641050742298272	0.700454510535908	-0.938196084505062	0.322849825228797	0.124724084959978	-0.146187149061174	-0.696291559728084	0.702714295642829	10.0645605095829	-44.4634808280873	63.923935383098
13840	1655201569745	6.92141362093349	1.22845553643221	6.93132693723901	0.00590783635395229	0.00749720390921992	0.0594082347215714	0.00136886492095471	0.00452296959132599	-0.00699973296256625	0.561767578125	-0.375	0.358642578125	0	0	0	0.268401918730256	-0.27674606169601	0.516253571225485	0.764757659363146	0.313787735065362	0.641059397616032	0.700414238897753	-0.938176093457036	0.3228853204377	0.124782560927149	-0.146160442624685	-0.696267131619764	0.70274405471533	10.0687649934649	-44.4602479003139	63.9190334096268
13841	1655201569746	6.901552891253	1.21464634020203	6.90699951705451	0.0164354903824892	0.00747681025950242	0.0266781814125423	0.00136897504578621	0.00452263454794392	-0.00699978731098364	0.57470703125	-0.364501953125	0.363525390625	0	0	0	0.26839481958881	-0.276734779219243	0.516241235151512	0.764772560907888	0.313825698199437	0.64106590062115	0.700391277937148	-0.938162625191141	0.322918415894264	0.124798178555643	-0.146165385245971	-0.696245795489735	0.702764165576735	10.0697171239028	-44.458404719758	63.9165257929006
13842	1655201569746	6.87705892308818	1.20747206635059	6.93083531673256	0.0126278748800229	-0.0268165723505681	0.0253778838878933	0.00115007504321734	0.00515845196187612	-0.00483203296177954	0.57470703125	-0.37158203125	0.359619140625	0	0	0	0.268392470674777	-0.276705874188176	0.51623129124734	0.764790556173355	0.313878226253721	0.641086086247108	0.700349262228627	-0.938149179141462	0.322941471244385	0.124839592384434	-0.146138895438611	-0.69621651529598	0.702798681749692	10.0725057247328	-44.4550320787112	63.9134512564022
13843	1655201569747	6.93554851682764	1.20169554533386	6.88826081404305	0.0427771250136183	0.0387829099499996	0.0356987190831557	0.000672802558793237	0.00718867315957917	-0.00501079416614091	0.568603515625	-0.37548828125	0.35498046875	0	0	0	0.26837676471088	-0.276691652956253	0.516224564979498	0.764805753024509	0.313907855392129	0.641107813011979	0.700316093216565	-0.938138255583599	0.322972221350098	0.124842130896371	-0.146145378762649	-0.696182243619572	0.702831282695315	10.0722486895948	-44.4523697080146	63.9120821791827
13844	1655201569748	6.90018427555104	1.21595160451788	6.90813715976932	0.0159825699635384	0.00732790946417514	0.0266790395590935	0.000187854300165706	0.00467028174201467	-0.00593586981622498	0.566162109375	-0.36669921875	0.36181640625	0	0	0	0.26837360801948	-0.276665727360021	0.516208278707751	0.764827232005071	0.313970176595863	0.641120738950418	0.700276321387517	-0.938119856818188	0.323009239024375	0.124884609733616	-0.14612960840222	-0.696153165325393	0.702863363645915	10.0751552081531	-44.4491775102867	63.9080460537587
13845	1655201569748	6.93243357976906	1.20589989682322	6.91298550087555	0.0347562928186936	0.0214908719908411	0.0514156663864931	0.000665362380532243	0.00263967671208151	-0.00575713822072306	0.567626953125	-0.372802734375	0.362060546875	0	0	0	0.268365847798567	-0.27667396665843	0.516196751618	0.764834754393307	0.313984859585029	0.641110744232588	0.700278888430107	-0.938110118736916	0.323041370708762	0.124874648884441	-0.146160572914783	-0.696147460269835	0.702862575817692	10.0743791319175	-44.4493835430048	63.9066348714749
13846	1655201569749	6.89708594239483	1.22008388821628	6.93284857114531	0.0079569877994832	-0.00996435677630046	0.0423938568056812	-0.00291100787943592	0.00839109928802696	-0.00633338467322491	0.566162109375	-0.36328125	0.364013671875	0	0	0	0.268341659994608	-0.276641495087482	0.516179701099344	0.764866493500723	0.314055998737508	0.641148239961884	0.700212656305757	-0.938085992022544	0.32310253936866	0.124897640588613	-0.146162584911683	-0.696084537572342	0.702924473414202	10.0753269007859	-44.4440679367023	63.9028311247946
13847	1655201569751	6.9205469318879	1.17410289653351	6.91726194961071	0.0608406970331002	0.00145690047550932	0.0421234722575239	0.00280971467958744	0.00297859009957027	-0.00571722556292742	0.566650390625	-0.36962890625	0.36376953125	0	0	0	0.268342307883999	-0.276635036839971	0.516172847748447	0.764873227037851	0.314077295279614	0.641147815078917	0.700203493142796	-0.93807935198777	0.323115994093496	0.124912704458669	-0.146159440215298	-0.696078683469407	0.702930924384074	10.076426602721	-44.4433325647866	63.9012812673831
13848	1655201569753	6.92023366315085	1.17469732929765	6.91747443561791	0.0608295510201192	0.00145386789862373	0.0421235415112822	-0.000554499452457809	0.00354493392504733	-0.00920773187287302	0.572021484375	-0.37060546875	0.36181640625	0	0	0	0.268343564446783	-0.276611101483974	0.516141636455441	0.764902504292486	0.314168219305844	0.641142442713258	0.700167621452087	-0.938049678464299	0.323179085074188	0.124972315748873	-0.146154475508691	-0.696054342075594	0.702956059911636	10.0807836243408	-44.4404538406927	63.8945390536588
13849	1655201569754	6.9005792008162	1.21503879167145	6.88556256237557	0.0215055091803948	0.0242064415489957	0.0109695880721112	0.00158967515419718	0.0038838821278773	-0.00916782286046782	0.566162109375	-0.37744140625	0.362060546875	0	0	0	0.268336056958742	-0.27661134193469	0.516123413094679	0.764917347498685	0.314205575937178	0.641133910643059	0.700158671069297	-0.938033097862342	0.323224765982667	0.124978630054211	-0.146180584773641	-0.696040989654337	0.70296385209785	10.0811730586171	-44.4397355893657	63.8915458141887
13850	1655201569755	6.90011658261562	1.21592043225119	6.88587053909362	0.0214925560679919	0.0242041136666528	0.0109696221557964	0.00443804972052328	0.00610430279649335	-0.0103706748246506	0.57666015625	-0.36474609375	0.3642578125	0	0	0	0.268351343136429	-0.276563220000798	0.516098145100913	0.764946433812893	0.314310979932375	0.641142648086085	0.70010335858294	-0.938007094283484	0.323260522520543	0.125081276191127	-0.146120836870742	-0.696016335573317	0.703000683959331	10.0887650454516	-44.4352970625939	63.8842595828933
13851	1655201569755	6.93003862980367	1.26375792672667	6.90733446624365	-0.0169235935590112	0.04396556779083	0.0529889703481388	0.00255217961780768	0.00437081274600953	-0.00806409018993359	0.563232421875	-0.368896484375	0.358154296875	0	0	0	0.268346386809515	-0.276566575145437	0.516085000176943	0.764955827999869	0.314334404209375	0.641133174952212	0.700101517143073	-0.937995739562453	0.323292978557286	0.125082543059551	-0.146143336806792	-0.69600998699103	0.703002292397203	10.0888425203377	-44.4351493028394	63.8822372805828
13852	1655201569756	6.89060276121111	1.23549454894496	6.85853303852892	0.00506560747001823	0.0440121497610335	-0.0124646187682593	0.00115675645177236	0.00970359887770385	-0.00408652333691944	0.567138671875	-0.36669921875	0.357666015625	0	0	0	0.268331086588784	-0.276521677987051	0.516084084008882	0.764978044002585	0.314385959671877	0.641187261612722	0.700028830768256	-0.937984710891199	0.323311292405591	0.12511790574246	-0.146103218635133	-0.695951653312646	0.703068379146615	10.0907070730776	-44.4293171431179	63.8804335317146
13853	1655201569756	6.8743838930057	1.26399780826154	6.90331836572596	-0.0333542020182403	0.0122053336914677	0.0112317773508863	0.00286082746600986	0.011316135207406	0.000289178977605997	0.56494140625	-0.371337890625	0.35986328125	0	0	0	0.268308520829069	-0.276505060768936	0.516107838656512	0.764975939423579	0.314355300492941	0.641242829726948	0.699991698790614	-0.937997485153607	0.323286473055641	0.125086266971049	-0.146087175677748	-0.695911984135222	0.703110978039369	10.0876091822833	-44.4263379974174	63.88460479436
13854	1655201569757	6.91476229639204	1.23550747959615	6.93671004769001	0.0015901723542832	0.00649242865662409	0.0594105863151544	-0.000729073379300765	0.00797005822383926	-0.00178018717605823	0.574462890625	-0.367919921875	0.357421875	0	0	0	0.268287200675862	-0.276474951483139	0.516110829407118	0.76499228161113	0.314382425942184	0.641292220323916	0.699934267207092	-0.93799098348554	0.323303179444412	0.125091842503669	-0.14607054856656	-0.695858708584693	0.703167158311811	10.0872601446312	-44.421730487571	63.8843949778767
13855	1655201569758	6.90315208399282	1.20300764168926	6.94083830493321	0.0274915708053209	-0.0139303070593737	0.0501227106147777	-0.000244849984756041	0.0104874171727666	-0.000855307431469434	0.56689453125	-0.37109375	0.365478515625	0	0	0	0.268258706113113	-0.276473913018532	0.516121241770651	0.764995624698509	0.314362078426686	0.641327915176257	0.699910700634681	-0.937994051897779	0.32331226077528	0.125045354318998	-0.14609463457513	-0.69582159153626	0.70319888402948	10.0831427356637	-44.4198399393138	63.887121063271
13856	1655201569759	6.90477185793535	1.19977540341054	6.91746260645535	0.0348713937626715	0.0032227172239456	0.0344136257016494	-0.000986132417825108	0.0093620646328699	-0.0041272655432762	0.565185546875	-0.368408203125	0.360107421875	0	0	0	0.268236015505747	-0.276436297315173	0.516116689374205	0.765020245785488	0.314413072952176	0.641379091252126	0.699840896819675	-0.937979774984061	0.323346005870023	0.125065191835112	-0.146076559644659	-0.695758738207793	0.703264827024557	10.0837833148574	-44.4142405239073	63.8852549360897
13857	1655201569760	6.90398245519856	1.14607967659233	6.92558402329174	0.0838249928638494	-0.0196836964749285	0.0328584471621482	0.00377979826548554	0.00801144080452171	-0.00386691795964212	0.56591796875	-0.373291015625	0.36376953125	0	0	0	0.268223419694066	-0.276415884384262	0.516128275763447	0.76502422114933	0.314411723635036	0.641418836823542	0.699805075580894	-0.937983691892768	0.323335600170145	0.125062717889171	-0.146054311076599	-0.695726933092681	0.703300911975374	10.0830811860905	-44.4113672788523	63.8867553510264
13858	1655201569761	6.9012180941271	1.20421338524691	6.94255222559099	0.0268230521583953	-0.0140290246559437	0.0501244114615567	0.00229775696230661	0.00576099440958172	-0.0104108650229561	0.562255859375	-0.36474609375	0.35693359375	0	0	0	0.268231103870531	-0.276375106178053	0.516099582376496	0.765055616718336	0.314516043511753	0.641424968941303	0.699752575981226	-0.9379545681912	0.323386591974406	0.125149271433912	-0.146016733229357	-0.695697578944923	0.703337751202934	10.0893985331198	-44.4071565065511	63.8794590930398
13859	1655201569762	6.90295569802558	1.2017135875448	6.91893860847158	0.0334830165493519	0.00308541922662705	0.0344184884412879	0.0027817938998871	0.00827778097594564	-0.00948606921355571	0.566650390625	-0.3662109375	0.349609375	0	0	0	0.268216646150493	-0.276352690617467	0.516090979000014	0.765074586240502	0.314558583566587	0.641451400777619	0.699709223853032	-0.937940968105946	0.323419864245176	0.125165217852693	-0.146012457869399	-0.69565774045292	0.703378042232536	10.0900915614458	-44.4036796429865	63.8773291489075
13860	1655201569763	6.9133572896461	1.23506434096595	6.91586014872996	0.00686393163562829	0.0230595439025583	0.0437032359266158	0.00255537834199426	0.00436750239480374	-0.00806396131878041	0.5673828125	-0.381591796875	0.364990234375	0	0	0	0.268225477884712	-0.276319807827455	0.516069918929832	0.765097572595465	0.314638405155911	0.641455659518444	0.699669429711419	-0.937919709532567	0.323453863578549	0.125236642427261	-0.145977027203904	-0.695638005724146	0.703404913631433	10.0953532440407	-44.4004883137102	63.8717321860959
13861	1655201569764	6.89112149009872	1.22488844503526	6.91560072242921	0.00920645146121092	0.00568963041919169	0.0266887967961917	0.00444256430458788	0.00609875097743974	-0.0103703453715563	0.57275390625	-0.375244140625	0.3671875	0	0	0	0.268216255057953	-0.276327603975245	0.516056946209881	0.765106740313088	0.314656567099665	0.641446185646383	0.699669947690167	-0.937908406075892	0.323490537582439	0.125226570290832	-0.146010501653936	-0.695629688134666	0.703406191607975	10.0945400621094	-44.4005298523935	63.8700899683576
13862	1655201569765	6.87963889160407	1.19303806095699	6.91949934346917	0.0357497848876458	-0.0142860993135947	0.0174072491956352	-0.000287426470828321	0.0066927585819798	-0.00611681624364436	0.5673828125	-0.3759765625	0.36376953125	0	0	0	0.268205174174865	-0.276296367322601	0.51604266731937	0.76513153604859	0.314720565820488	0.641472806782081	0.699616754808481	-0.937889268068644	0.32353190010348	0.125263045057573	-0.145995500928267	-0.695585902512803	0.703452603900329	10.0967673085997	-44.3962642671386	63.8664226711519
13863	1655201569766	6.92016145387833	1.21912793897121	6.94526019461017	0.0199441469589202	0.00289760791017993	0.0671476747478898	0.00566664131055476	0.0097408942046528	-0.00617350895784954	0.572265625	-0.368896484375	0.36279296875	0	0	0	0.268177001690409	-0.276278921102201	0.516060456800911	0.765135712436285	0.314703125362077	0.641529265166221	0.699572830249024	-0.937895875932019	0.323525401381554	0.125230350037907	-0.145990646265618	-0.695536854951766	0.703502107037892	10.0934904533737	-44.3927421514017	63.8696721317038
13864	1655201569768	6.92421440713051	1.21300483934126	6.89767472116312	0.0347114658113342	0.0372218344192486	0.0357364737102017	0.000674276188056497	0.0071803434972359	-0.00501278560929156	0.565185546875	-0.3720703125	0.364013671875	0	0	0	0.268166467563665	-0.276244904106209	0.516052721592677	0.765156903626026	0.314756682984284	0.641563364890023	0.699517461788998	-0.937881845356525	0.323552668422433	0.125264978774451	-0.145965320084504	-0.695492717134921	0.703550997259555	10.0955369363919	-44.3883027019814	63.8670210181147
13865	1655201569770	6.91271102793342	1.18098484425088	6.90163353158278	0.0604973535332179	0.0171115907923987	0.0264635943659961	0.00400113152713511	0.00737120302888701	-0.00603500649283624	0.564697265625	-0.366943359375	0.359130859375	0	0	0	0.2681556469379	-0.276232707110583	0.516055419380107	0.765163279742368	0.31476459130156	0.64158659388212	0.699492597969057	-0.937880035004703	0.323558706287476	0.12526293755597	-0.14595989861033	-0.695468479613788	0.70357608107535	10.0950232948991	-44.3863092276223	63.8672720813086
13866	1655201569771	6.89895942378756	1.20655163842013	6.92208179352526	0.030051258582405	0.00279952956987617	0.0344296448449892	0.00304007462690035	0.0068820025408184	-0.00713951964801949	0.5693359375	-0.363525390625	0.371337890625	0	0	0	0.268157777237408	-0.276190880136283	0.516042511612993	0.765186337074044	0.314837447875398	0.641611893450095	0.699436601557776	-0.93786282349245	0.323583065430493	0.125328863704157	-0.145913350061178	-0.69543380558468	0.703620008473277	10.099609385327	-44.3818199243112	63.8629217024313
13867	1655201569772	6.90683962266667	1.18918854724472	6.95066511417713	0.0453382019964799	-0.0172907315570309	0.0578746218185255	0.00614542563882128	0.00771021704387988	-0.00599389944284657	0.57421875	-0.3623046875	0.368896484375	0	0	0	0.268167199493078	-0.276148974275209	0.516044648938409	0.765196718122095	0.314879328617569	0.64164314939574	0.699389074294749	-0.937859537692816	0.323568546836149	0.125390920951088	-0.145844081017942	-0.695411722889297	0.70365619424558	10.1039983158638	-44.3780098734221	63.8610114784941
13868	1655201569772	6.90008959413839	1.20487496183793	6.89894979765493	0.0371364537575644	0.0198810574213028	0.0187262635103327	0.00396699527428915	0.00812270754554852	-0.0105504828692434	0.561767578125	-0.365478515625	0.3603515625	0	0	0	0.26817454057906	-0.276094985019862	0.516021635625263	0.765229146464457	0.314986461627021	0.641666300045658	0.699319589585052	-0.937832883101194	0.323608174703676	0.125487978065861	-0.145784129334411	-0.695371921097387	0.703707950064185	10.1109295132834	-44.3724400370904	63.8541199392336
13869	1655201569773	6.88622066261374	1.23067171698065	6.91945464281192	0.00651205349307109	0.00534544418422614	0.0266911419663725	0.00182327197131827	0.00778176422872272	-0.0105920099418057	0.568359375	-0.37060546875	0.357666015625	0	0	0	0.26817903607003	-0.27606030907183	0.51599500017794	0.7652580415514	0.315079731093068	0.641671471404813	0.699272826470114	-0.937805821741124	0.323658328807835	0.125560849398905	-0.145756659411415	-0.695343806313468	0.703741420735431	10.1162085029819	-44.3686918430273	63.8475919546133
13870	1655201569774	6.88331041233901	1.2347523486468	6.94393353107891	-0.00093535677473458	-0.011806913551662	0.0423949894173319	0.0023360781313674	0.00500031752356709	-0.00589686728777037	0.5712890625	-0.370361328125	0.372314453125	0	0	0	0.268182050328217	-0.276028300386933	0.515983208533092	0.765276481919542	0.315139411794794	0.641687958018762	0.699230802859358	-0.937791300204285	0.323679432787299	0.125614895819124	-0.145721063662012	-0.695318768137467	0.703773530534509	10.1200207298661	-44.3653237380525	63.8438808735399
13871	1655201569775	6.91785087071005	1.22152960146953	6.924839580946	0.0249591389893572	0.0195686524282967	0.0514493220345518	0.00137527136635263	0.00451096236541873	-0.00700148694105506	0.5703125	-0.366455078125	0.36572265625	0	0	0	0.268165607370863	-0.276033722782997	0.515977217079852	0.765284327792297	0.315145790682183	0.641693053608303	0.699223251591474	-0.937784057308074	0.323709436955896	0.125591648944124	-0.14575387636049	-0.695300097351171	0.703785181819952	10.1180225237769	-44.3647185401669	63.8436020149633
13872	1655201569776	6.91752427598665	1.22211952278937	6.9250617477749	0.0249224056206798	0.0195793658724606	0.0514493936529341	0.00185385547801846	0.00248254285648895	-0.00682147648682301	0.574462890625	-0.360107421875	0.361083984375	0	0	0	0.268174447801772	-0.27601133002164	0.515957961386723	0.765302288855559	0.315210255562684	0.641689245573842	0.699197687998881	-0.937765989636186	0.323739695255744	0.125648551115336	-0.145730722463632	-0.69528952374575	0.7038004224918	10.1222972812623	-44.3626697872981	63.8388302037183
13873	1655201569776	6.89789000654557	1.20819849942893	6.90056795591413	0.0357814264244983	0.0189622414260582	0.018733103600848	0.000670770379348527	0.00263117211275505	-0.00575848284374956	0.56298828125	-0.368408203125	0.3583984375	0	0	0	0.268196084536435	-0.276018426108111	0.515923846213068	0.765315146587889	0.315272826715032	0.641634545701273	0.69921967542242	-0.937742790269692	0.323786890296081	0.125700075455851	-0.14574465352913	-0.695318027549347	0.703769377376253	10.1267996756715	-44.3644319295595	63.8323963522519
13874	1655201569777	6.91077088346093	1.18392195320718	6.88080337059873	0.0661496685852029	0.0332835347520786	0.0107741860260262	0.00255865817611617	0.00436118799810647	-0.00806467749559485	0.56298828125	-0.366943359375	0.361572265625	0	0	0	0.268205029292598	-0.275985181843289	0.515902816449358	0.76533817730772	0.315352926765093	0.641639014857338	0.699179452067633	-0.937721469979747	0.323820692483552	0.12577203130464	-0.145708532075896	-0.695298161749603	0.703796483330167	10.1320944353996	-44.3612083418042	63.8267930018072
13875	1655201569778	6.93196151569887	1.19570155826607	6.88183565237925	0.0616299759904216	0.0503704189980271	0.0277963189439312	0.00352300866292235	0.0093951623215486	-0.00621579860770601	0.566650390625	-0.366455078125	0.353759765625	0	0	0	0.268182837021591	-0.275966122484765	0.515914669267675	0.765344836790711	0.315349506550299	0.641686501397581	0.699137413276257	-0.937724011996829	0.323820039922953	0.125754757639098	-0.145699574615214	-0.695254640882339	0.70384133033555	10.1300995707612	-44.3578394505283	63.8287174673956
13876	1655201569779	6.92658875334091	1.20337594954499	6.93042777586545	0.0467671727553935	0.016052020733789	0.0591984561325134	0.00466984428127254	0.00545179415200164	-0.0125385613662243	0.562255859375	-0.36572265625	0.364501953125	0	0	0	0.268202954790366	-0.275917426842587	0.515881110857717	0.765377964189256	0.315472506049548	0.64168433046927	0.699083913387387	-0.937691807098616	0.323867709003849	0.125872085724874	-0.145640560377082	-0.6952344403831	0.703873497212565	10.1389011099702	-44.3535523735519	63.819795283344
13877	1655201569779	6.88502355121855	1.23292268697158	6.89794438557623	0.0109950609558749	0.0214208198863962	0.0109934435101025	0.00854577671566887	0.00665777115317007	-0.00360441945607223	0.564208984375	-0.36474609375	0.36083984375	0	0	0	0.268214781705569	-0.275907459853748	0.515894838902995	0.765368159557829	0.315455177580609	0.641694048521914	0.699082812711871	-0.937703884984359	0.323826692135772	0.125887638573625	-0.145600326314284	-0.695244576787161	0.703871808943372	10.1401517029256	-44.3534641770227	63.8213849159498
13878	1655201569780	6.92544252420555	1.20537980103105	6.93122499989173	0.0458788162360692	0.0157049940574239	0.0592031828472894	0.00803416598730073	0.0094353863789065	-0.00830052389245767	0.570068359375	-0.36572265625	0.36669921875	0	0	0	0.268231579987786	-0.275840753668264	0.515887466540998	0.765391285538901	0.31554400096327	0.641733140055521	0.699006838600719	-0.937689944781362	0.323823882726334	0.125998652500604	-0.145497597615968	-0.695209802815324	0.70392739622596	10.1481232197791	-44.3473767336366	63.8163800644859
13879	1655201569780	6.88141740457335	1.23819913591341	6.92288941075189	0.00308029531895836	0.00400632682828676	0.0266934511434691	0.00448106808201112	0.00533717897903645	-0.0058557952593723	0.567626953125	-0.372314453125	0.358642578125	0	0	0	0.268241911940406	-0.275824459258865	0.515883572885622	0.765396161200117	0.315570013802639	0.641735252002659	0.69899315642264	-0.937685973248765	0.323820831810641	0.126036044280917	-0.145466772704692	-0.695209274407749	0.70393428870622	10.1509748673555	-44.3462805131039	63.8145844546324
13880	1655201569781	6.90495199236429	1.19246023438573	6.90742505762841	0.0564210085648919	0.015487698854792	0.0264905040342693	0.00473968104723717	0.00849261741980672	-0.00276417173407986	0.564208984375	-0.37060546875	0.36328125	0	0	0	0.268241020916405	-0.275777033547788	0.515891542356022	0.765408191092068	0.315605888586215	0.641785798420527	0.698930548792534	-0.937684650517152	0.323805342446499	0.126085670825958	-0.145397452777661	-0.695169827559304	0.703987564930614	10.1541361306284	-44.3412646310292	63.8137923011495
13881	1655201569782	6.90197879887034	1.19637092887433	6.93198280576242	0.0474642327577307	-0.00178722874952157	0.0421969216634093	0.00185858658456982	0.00702333844049847	-0.00607851180774941	0.568359375	-0.367919921875	0.368408203125	0	0	0	0.268203552625521	-0.275798900331095	0.515904224146073	0.765404894447015	0.315555596168794	0.641810746696566	0.698930347854029	-0.937691726212612	0.323819371734576	0.125996988383995	-0.14546096493207	-0.69514025916661	0.704003641870417	10.1469157552991	-44.3412485333013	63.8182898325738
13882	1655201569783	6.89903155761399	1.20037495645451	6.95649423280627	0.0399990130952399	-0.0189428983640466	0.0578946696693876	0.00304241190966779	0.0068736926442972	-0.00714131736615354	0.568603515625	-0.3623046875	0.352783203125	0	0	0	0.268205911611516	-0.275756652688114	0.515891245344955	0.765428037408687	0.315628982949357	0.641836118047113	0.698873910439192	-0.937674375715736	0.323843623906135	0.126063763157567	-0.145413583438616	-0.695105535027275	0.704047714949765	10.1515592008794	-44.336727354084	63.8139109770394
13883	1655201569784	6.88993826198217	1.21925459607867	6.92883780746199	0.0237706348044282	0.000421645685898716	0.0344471979184338	0.00374738680093227	0.00875115415832128	-0.00838488251703382	0.57568359375	-0.37060546875	0.36474609375	0	0	0	0.268213345634053	-0.275748718625806	0.515866428627112	0.765445016454822	0.31568894398347	0.641815801144078	0.698865486376589	-0.937653746651801	0.323886858078594	0.126106124172527	-0.145416443487117	-0.695104150876515	0.704048490800028	10.1548884781863	-44.3360525356256	63.8088825426757
13884	1655201569785	6.91351554701155	1.22775133232679	6.90579263430959	0.0275260551292973	0.0347139934948449	0.0357683369177621	0.00256157789380135	0.00435563426179983	-0.00806549572105409	0.56201171875	-0.361572265625	0.363037109375	0	0	0	0.268221861545101	-0.275716304576062	0.515845551856781	0.765467777904318	0.315767772040987	0.641820015699819	0.698826002369228	-0.937632577586728	0.323920799237707	0.126176326104674	-0.145381785614085	-0.695084443264478	0.704075104760402	10.1600477933678	-44.3328897308839	63.8033656180607
13885	1655201569786	6.91279671104867	1.17446586325857	6.91391959395264	0.0765265617948136	0.0115667398855322	0.0342625361773834	0.000869210830578746	0.0118242121761982	-0.0109566574443433	0.570556640625	-0.360107421875	0.364990234375	0	0	0	0.268207227014648	-0.275685476664384	0.51582202130255	0.765499865233689	0.315850320591365	0.641841701134611	0.698768778400238	-0.937605050032074	0.323985051432929	0.12621591263527	-0.145380002533647	-0.695034471902388	0.704124802666889	10.1624665937279	-44.3283061969409	63.7981997765016
13886	1655201569787	6.91213269121354	1.22936578011122	6.9068895982059	0.026914854276836	0.0343822878291764	0.0357711898498216	0.00662636300191406	0.00567517969770725	-0.00581334629883911	0.5654296875	-0.365478515625	0.36279296875	0	0	0	0.26822493435065	-0.275640424407417	0.51581703032601	0.765513247599768	0.31591029531631	0.641862270622135	0.698722771108083	-0.937596809586394	0.323976351636491	0.126299430852732	-0.145302814723518	-0.695019531475271	0.704155482050177	10.1686170934213	-44.32462135777	63.7946173623523
13887	1655201569788	6.90062808323241	1.25153174442565	6.90332231155531	0.00383738953337537	0.0367977707340469	0.0280183880992908	0.000900990892458109	0.0110739080735941	-0.00644131992112679	0.565185546875	-0.370849609375	0.36474609375	0	0	0	0.268222312213691	-0.275602693793719	0.515801533174531	0.765538192893856	0.315983867096898	0.641885963633275	0.698667736069924	-0.937577130759968	0.324011139211089	0.1263562643601	-0.145269816584165	-0.694981432383423	0.704199892808774	10.1724691537763	-44.3202137678462	63.7901689185165
13888	1655201569788	6.87585186525921	1.24419326465902	6.92734325721459	1.00095015328344E-05	0.0025034877780604	0.0266944304389192	0.000930571048329424	0.005781678969506	-0.00266821534395912	0.5634765625	-0.36572265625	0.363525390625	0	0	0	0.268213987237353	-0.275575774638673	0.515800608296617	0.765551423461139	0.31601544982627	0.641917225203472	0.698624728633459	-0.937570334410915	0.324021979062162	0.126378895062609	-0.145244977550709	-0.694947503824364	0.704238498965073	10.1737069116571	-44.3167696626643	63.7890054871367
13889	1655201569788	6.92112569326371	1.20933420560764	6.9125934669198	0.0487855515603956	0.0313633617253919	0.0435317273907749	0.00138058025662906	0.00904610332222278	-0.00626040462256371	0.56201171875	-0.3720703125	0.362060546875	0	0	0	0.268174915423148	-0.275554171866967	0.515824819843403	0.765556574224282	0.315989307200462	0.641992730488506	0.698567170524699	-0.937579597428184	0.324013939942616	0.126330776967711	-0.145242060786038	-0.694881501209216	0.704304226208994	10.1689849176632	-44.3121606323544	63.7935539126385
13890	1655201569789	6.90962382594305	1.17722062098993	6.91662219931732	0.0753519598983975	0.0113988795645721	0.0342717903998633	-0.000284053677399126	0.00667821625328541	-0.00612197295976074	0.567138671875	-0.37060546875	0.36767578125	0	0	0	0.268164011468488	-0.275522209440196	0.515810647657419	0.76558144623649	0.316053775736855	0.642019841371207	0.698513088014941	-0.937560405099782	0.324054877432725	0.126368204866548	-0.145225678279051	-0.694837362047949	0.704351150116643	10.1712712688362	-44.3078302443615	63.7898812855503
13891	1655201569789	6.87399880651017	1.19159731164405	6.93648719574458	0.0470971859551667	-0.0196033484709756	0.0251993927143683	0.00470910768603106	0.0092365810348698	-0.00728016547789091	0.571044921875	-0.368408203125	0.3671875	0	0	0	0.268119340887161	-0.275503447503619	0.51585072369897	0.765576841548322	0.315991762545739	0.642111130006125	0.698457230419655	-0.937582341033369	0.324020099802968	0.126294610756214	-0.145219006282325	-0.694769221861427	0.70441973891171	10.1645021371168	-44.303358060573	63.7975636123326
13892	1655201569789	6.93857824876117	1.2257567982219	6.93880342276775	0.0361633238142512	0.0317953890849835	0.076246956332346	0.00230945525540232	0.00573885900879722	-0.0104143634269497	0.563720703125	-0.36767578125	0.36376953125	0	0	0	0.268126045269809	-0.275462682673385	0.515823114770356	0.765607764178867	0.316093649445982	0.642118923772968	0.698403960836826	-0.937553802671476	0.324069876233162	0.126378726115114	-0.145181513548305	-0.694738802033448	0.704457468604709	10.1705972834033	-44.2990934008253	63.7905207061562
13893	1655201569790	6.87771938715838	1.2406105554945	6.88158280896667	0.011482962091937	0.037566859916166	-0.0046917837251641	0.00662768006640502	0.00567303618671497	-0.00581256713290381	0.574462890625	-0.369384765625	0.35791015625	0	0	0	0.268125259838372	-0.275445382007897	0.515838548388154	0.765603865301065	0.316080867054652	0.642148243790228	0.698382787931594	-0.937563702278816	0.324038874066816	0.126384778603872	-0.145145408646705	-0.694726162664568	0.704477373134258	10.1707928242631	-44.2973984250181	63.7924753953692
13894	1655201569791	6.91337428527455	1.2196140958684	6.96302521061195	0.0314712599912972	-0.00246175600178749	0.0749274185222699	-0.000538242060357093	0.0080625015441341	-0.0084715701488105	0.583251953125	-0.364013671875	0.36083984375	0	0	0	0.268112245982649	-0.275405513475903	0.515817786389816	0.765636753261705	0.31616762878197	0.642178928944218	0.69831529678967	-0.937537292040334	0.3240956695961	0.126435054406336	-0.145127035882583	-0.694671303689099	0.704535253402428	10.1739358168483	-44.2919958154948	63.7873291621209
13895	1655201569792	6.85006130102967	1.23752689984631	6.92995278912277	-0.00087355049980852	-0.0159692647432919	0.00967500594536474	0.00233994136913642	0.00499046254375313	-0.00589838530719607	0.5712890625	-0.357666015625	0.37255859375	0	0	0	0.268150100529981	-0.275491065663974	0.515732407105288	0.76565023384472	0.316249514001427	0.641995362297116	0.69844699131921	-0.937487190108741	0.324231215694294	0.126459033490766	-0.145272204071802	-0.694777715214295	0.704400392650178	10.1777325304587	-44.3025383139496	63.7749562017444
13896	1655201569792	6.88707541624298	1.2208863892119	6.88688122430198	0.0332798067401625	0.0326362850962757	0.00308217763742569	0.000196031918394569	0.00464912704698921	-0.00594145848999136	0.57177734375	-0.365234375	0.35888671875	0	0	0	0.268145980197313	-0.275466881232898	0.515716519877869	0.765671079363	0.316308936937759	0.642007775080252	0.698408672017902	-0.937469122600621	0.324268408858163	0.126497601506971	-0.145259425111509	-0.694748886831134	0.704431461295685	10.1803320361815	-44.2994705563816	63.7711278538101
13897	1655201569793	6.91682890245234	1.21431302253257	6.91602055279304	0.0456871270949707	0.0289752519037276	0.0435538865574792	0.00307448159426276	0.00612036144149276	-0.00262577453617766	0.561279296875	-0.361572265625	0.367919921875	0	0	0	0.268184710013115	-0.275436696594821	0.515688170326415	0.765687467880668	0.316400674308654	0.641976117499989	0.698396218386576	-0.937447759912999	0.324285344601153	0.126612450853036	-0.145197488721843	-0.694770235283977	0.704423174968228	10.1894987177019	-44.2984735810193	63.763419982585
13898	1655201569794	6.90558152820957	1.23626958911384	6.91220830820409	0.0226897488411164	0.0318092822653586	0.0357904769079163	0.00473869686571342	0.00394470538333505	-0.00350639490274092	0.56884765625	-0.3662109375	0.35791015625	0	0	0	0.268197203894506	-0.27540620991558	0.515686314649182	0.765695307708392	0.316438088846962	0.64199083188354	0.69836574064337	-0.937443533621708	0.324275769413428	0.12666825427934	-0.145143229941078	-0.694761107970797	0.704443358726209	10.1936095522205	-44.2960337569199	63.7612541999148
13899	1655201569795	6.89433960683277	1.20409370465858	6.9160020275922	0.0489243660661406	0.0116788445171987	0.0265358944099159	0.000930560306299824	0.00577882670543545	-0.00266908592809984	0.57080078125	-0.3701171875	0.367919921875	0	0	0	0.26818906601441	-0.275393636621939	0.51569566682338	0.765696381732375	0.316432648255465	0.642017487939554	0.69834370069316	-0.937447736707353	0.324265208179816	0.126664184781504	-0.145127943760997	-0.69474140508817	0.704465939556924	10.1929690431726	-44.2942694636655	63.7625882068643
13900	1655201569795	6.90712572210511	1.1797878674538	6.89646020994543	0.0793025319471176	0.0259875719485278	0.0186138863232284	0.00423039999678401	0.00671588333465641	-0.00820441142602152	0.564453125	-0.36669921875	0.36376953125	0	0	0	0.268198982860514	-0.275347366884198	0.515678862069469	0.765720865823351	0.316518277529353	0.642036362037943	0.698287540924893	-0.937427896964594	0.324289233614647	0.126749481080454	-0.145069355766098	-0.694712748395125	0.70450626628505	10.1991174017213	-44.2897741259287	63.7571082763183
13901	1655201569796	6.89327452828722	1.20511236471278	6.91688620667205	0.0479311122759266	0.0118032283462746	0.0265406346854409	-0.000733754948877838	0.0079535577954369	-0.00178893666194481	0.567626953125	-0.36865234375	0.362548828125	0	0	0	0.268151506899083	-0.275346269577649	0.515709133833162	0.765717500425891	0.316457042221445	0.642105983598484	0.698251277303148	-0.937444052023635	0.324277717257602	0.12665943082024	-0.145098551867215	-0.694653775572567	0.704558402354847	10.1912849119357	-44.2868715683502	63.7639682736648
13902	1655201569796	6.90604800642184	1.23462270879664	6.88979580460007	0.0287337286279101	0.0489354302871747	0.0201076716873345	0.00425950770115663	0.00596969102688541	-0.00368789472781916	0.56494140625	-0.37109375	0.3603515625	0	0	0	0.268156970248799	-0.275308718187696	0.515708993970043	0.765729183546793	0.316498686456507	0.642134950296253	0.698205762708483	-0.937438757305425	0.324272145690781	0.126712871606472	-0.145041917296231	-0.694629599957507	0.704593897993665	10.1949918415471	-44.2832287614491	63.76200354962
13903	1655201569797	6.87882583164187	1.23096941153481	6.93780180594773	0.0156930993405933	-0.00270948458995979	0.0344630200816294	0.00231281095927079	0.0102750165268683	-0.00967346243527989	0.565673828125	-0.364013671875	0.359619140625	0	0	0	0.268112651383316	-0.275325623951081	0.51571324953126	0.765735758092872	0.316471290107714	0.642163586114135	0.698191844127811	-0.937436718239295	0.324310900852235	0.12662874430852	-0.145114857386485	-0.694585033136653	0.704622813928314	10.1879556583661	-44.2821148187807	63.7649834213076
13904	1655201569798	6.89143481896804	1.20680302951573	6.91842445404717	0.0460519576389164	0.0116084107712334	0.0265498411819021	0.000902636900220523	0.00652231627746335	-0.0071860073744261	0.5673828125	-0.369140625	0.3642578125	0	0	0	0.268108144063092	-0.275290569934981	0.515696131335228	0.765761467637147	0.316545204461506	0.642185165205448	0.698138487065765	-0.937415740338803	0.324351046425848	0.126681207949371	-0.145089156374547	-0.69454633558353	0.704666250383834	10.1914730892587	-44.2778447005754	63.7604410388696
13905	1655201569798	6.89087622486507	1.20735086452932	6.91888524918992	0.0449933872085079	0.0112424129202685	0.0265551638116861	0.00282091206801045	0.00750346228029677	-0.00497518151137357	0.5673828125	-0.36474609375	0.361572265625	0	0	0	0.268092145024339	-0.27529963295991	0.51569850775384	0.765762210460173	0.316530322385203	0.642193520207915	0.698137549207666	-0.937416196706457	0.324363301753423	0.126646447356484	-0.145118672689355	-0.694532886966906	0.704673427736774	10.1886335962154	-44.2777696474014	63.7618048825073
13906	1655201569799	6.87701492667832	1.23283320516563	6.93926597901502	0.0145386431080943	-0.00308580350766129	0.0344646814934624	0.00208804004890366	0.00637179071555579	-0.00824805153162866	0.5712890625	-0.3720703125	0.3662109375	0	0	0	0.268093896652223	-0.275260984613714	0.515678772084723	0.765788780897519	0.316613588741362	0.642210456496143	0.698084210530028	-0.937393616341816	0.324402133198039	0.126714103469878	-0.14508288481392	-0.694499089663606	0.704714105854632	10.1933862966559	-44.2735013160713	63.7564275742062
13907	1655201569799	6.86820409521734	1.19759255414339	6.91895995462737	0.0474056667451983	-0.0062440235921798	0.009541302423278	0.00208886409139185	0.00182986342181828	-0.00898961218118072	0.5712890625	-0.367431640625	0.36572265625	0	0	0	0.268090490121689	-0.275294050781062	0.515655008753099	0.765794088942131	0.316626195104791	0.642163681270092	0.698121521678788	-0.937378549276012	0.324454802108307	0.126690712943207	-0.145152705557499	-0.694517737603946	0.704681349421733	10.1920079260998	-44.2764870407697	63.7538675650319
13908	1655201569801	6.90889796536339	1.22413170234107	6.94443698427618	0.0326302836480144	0.0108206110342001	0.0592624262145307	0.00493823989133863	0.00404638610503415	-0.01018983687058	0.564697265625	-0.375732421875	0.363037109375	0	0	0	0.268111686823109	-0.275254656262822	0.515628675168216	0.765818560064179	0.316723887099811	0.642158038697167	0.698082396767741	-0.937353999483328	0.324486385466275	0.126791424393139	-0.14509810127288	-0.694508199363867	0.704701995189005	10.1996473670802	-44.2733561784709	63.7466565139308
13909	1655201569802	6.90016655990392	1.24318195077966	6.9163749572823	0.0152320627542567	0.0309885280904861	0.0358074516246756	0.00758980221931071	0.00161834293449071	-0.00544735254363922	0.566650390625	-0.36767578125	0.37353515625	0	0	0	0.268091495503978	-0.275288088705204	0.515656230926049	0.765795057285314	0.316630239448354	0.642169195012265	0.698114615549752	-0.937378776593905	0.324451203091164	0.126698247833226	-0.145142415090115	-0.694514320795472	0.704686836510952	10.1925236834269	-44.2759343848585	63.7537724129501
13910	1655201569803	6.88912471761024	1.21127252384706	6.91994391577965	0.0417663553773563	0.0110189046106397	0.0265696441860701	-0.00123981838567912	0.00163651796125231	-0.007971804028034	0.567626953125	-0.371337890625	0.37109375	0	0	0	0.268091586664749	-0.275277272741604	0.515627137999216	0.765818502538466	0.316702155341363	0.642154563737427	0.698095452694924	-0.937352647025593	0.324511111436629	0.126738130285553	-0.14515426248047	-0.694499859485486	0.704698648543043	10.1954975102518	-44.2744009242241	63.748093135631
13911	1655201569803	6.91059967037937	1.22316076278909	6.92068699415659	0.0377308357263202	0.0293990307066893	0.0435863004750754	0.0063775233318534	0.00251101723773804	-0.00890241510465292	0.57275390625	-0.365234375	0.3662109375	0	0	0	0.268078153625128	-0.275205159511374	0.515672713844228	0.76581843535122	0.316687544749698	0.642270359679172	0.697995547319605	-0.937376323798844	0.324431511490944	0.126766801383752	-0.145033191310728	-0.694429967260406	0.704792447454524	10.1964268550346	-44.2664068886841	63.7532396047812
13912	1655201569804	6.90188977380473	1.24205961350339	6.8926253329089	0.0221377320345374	0.0494326719497142	0.0201222471487892	0.00186316478479595	0.00246847710404491	-0.00682268849104753	0.569091796875	-0.370849609375	0.361083984375	0	0	0	0.268085934918682	-0.275183630067594	0.515654312931503	0.765835838020615	0.316749198595921	0.642267384263709	0.697970309038927	-0.93735882722766	0.324461122107831	0.126820381874973	-0.145011634730556	-0.694418884644982	0.704807802483195	10.2004285353612	-44.2643875926498	63.7487101156154
13913	1655201569804	6.92927558914746	1.23909924308247	6.94572628373927	0.0254467453394361	0.0286454826018028	0.0762899655362297	0.0023417305247602	0.00498457799492476	-0.00589947971533456	0.572265625	-0.373779296875	0.364013671875	0	0	0	0.268083284350539	-0.275219271622174	0.515631036983077	0.765839630000527	0.316757972455033	0.642217992653745	0.698011774111276	-0.937344737665887	0.324511972703168	0.126794409744149	-0.145083526481285	-0.694440803441224	0.704771410359176	10.1988989491816	-44.2677052188342	63.7463325236132
13914	1655201569804	6.9095781230307	1.22514405373152	6.92135613053671	0.0364628684955709	0.028708354163144	0.0435931087553438	0.00234183207879206	0.00498427345567526	-0.00589952953600989	0.571533203125	-0.369384765625	0.355712890625	0	0	0	0.268085163481789	-0.275188569814763	0.515620004934896	0.765857432343113	0.316814523108487	0.642234880634144	0.69797056961192	-0.937330771542585	0.324532711263761	0.126844566455063	-0.145050276342111	-0.694415493358723	0.704803192328496	10.2023982298726	-44.2644084405464	63.7428724370613
13915	1655201569804	6.91160512595295	1.2221652426883	6.89764316554281	0.0414571709683223	0.0446930946140447	0.0279294041505604	-2.88228934992166E-05	0.00528356928885678	-0.003776138664652	0.563720703125	-0.3642578125	0.357177734375	0	0	0	0.26804652426216	-0.275302400065544	0.515597198398394	0.765845401078347	0.316736235043756	0.642147783487381	0.69808622789205	-0.93732318932178	0.324621179669404	0.126674103390125	-0.145270080092062	-0.694454688134718	0.704719298698253	10.1901624541726	-44.273662746182	63.7454073525493
13916	1655201569806	6.8957114807849	1.19649994090614	6.94939705864752	0.0530737857521309	-0.00961450466438266	0.0500535932013157	-0.00287573646908396	-0.00147451962422127	-0.00331682289572916	0.56982421875	-0.364501953125	0.360107421875	0	0	0	0.268041208533272	-0.27531480640287	0.51557999275721	0.765854384966129	0.31675805688765	0.642126969637171	0.698095472167914	-0.937309823378488	0.324662363192996	0.126667458031364	-0.145308734751042	-0.694454681595943	0.704711335806747	10.1897518018518	-44.2744024824823	63.7431045037968
13917	1655201569806	6.89189933330729	1.20798856155883	6.87332494531137	0.0514643688397269	0.0436434712407958	-0.00475408345745265	0.0016347601646421	0.0076499440181697	-0.00391455793422774	0.5712890625	-0.374755859375	0.361083984375	0	0	0	0.268042565636433	-0.275351831775827	0.515554341965	0.765857866856359	0.316770178437467	0.642070674287928	0.698141750128254	-0.937294720055465	0.32471380697615	0.126647350209961	-0.145379715947048	-0.694482679970135	0.704669103489471	10.1887659225323	-44.2781058316545	63.7402414964802
13918	1655201569807	6.89990714295017	1.19032475774711	6.90187343367232	0.0668679092377524	0.0236113702092417	0.0187123179368225	0.00259561249129585	0.00360019567443184	-0.00354978915936866	0.564453125	-0.372802734375	0.37109375	0	0	0	0.268045582887648	-0.275331112773274	0.515550148223367	0.765867082789381	0.316801646011789	0.642083198882092	0.698115952258334	-0.93728835332376	0.324719220322571	0.126680585239951	-0.145352192304952	-0.694468569243016	0.704688687666903	10.1911063485692	-44.2760413531897	63.7384266667965
13919	1655201569807	6.88372096070118	1.21882771819705	6.94621084222488	0.0267351287736097	-0.00726998155746914	0.0422724386400635	-0.00265307437607747	0.0069657364655377	-0.00400275111280305	0.56494140625	-0.3642578125	0.36376953125	0	0	0	0.267945519860598	-0.2753720659955	0.515599177866902	0.765854366990865	0.31665542610469	0.642178341216031	0.698094778086389	-0.937317186729036	0.324725372339218	0.126451271332173	-0.145484819073413	-0.694377714671333	0.704750847312008	10.1721657481618	-44.2743469410536	63.7522883964359
13920	1655201569808	6.85554859615703	1.22277398148476	6.89372175012465	0.0222123018137355	0.0128054647860199	-0.0138882057542791	0.00256956010018849	0.00434183271934021	-0.00806675670086482	0.5654296875	-0.36474609375	0.370361328125	0	0	0	0.267951827202626	-0.275342897636851	0.515579481799117	0.765875907028985	0.316728173337393	0.642182541478747	0.698057911375737	-0.937297071594985	0.324759232493056	0.12651340043642	-0.145456054510712	-0.694357994359119	0.704776214039434	10.1767005433435	-44.2713968878623	63.7472161947128
13921	1655201569808	6.89858526956838	1.24547614265027	6.89531645085656	0.0150665565933261	0.0475180804818081	0.0201450635478029	-0.00217261296551366	0.00494048970167774	-0.00382049415846235	0.566650390625	-0.36767578125	0.36572265625	0	0	0	0.26793157777994	-0.275295372587545	0.515599524194641	0.765886583059461	0.31673917696429	0.64226086855924	0.697980852526425	-0.937302162690829	0.324739600557225	0.126526074960967	-0.1453992764462	-0.694294727437466	0.704850254920474	10.1766519976256	-44.2652311607935	63.7491986567063
13922	1655201569809	6.89587767406656	1.24907509817566	6.91958993794246	0.0074965400774056	0.0303596218655667	0.0358183365234144	0.000932368265781453	0.00123334486702979	-0.00341134306061319	0.572265625	-0.367431640625	0.358154296875	0	0	0	0.267933216831749	-0.275287777973634	0.515591543500304	0.765894112059561	0.316763999138626	0.642259574975288	0.697970778186499	-0.937294534603049	0.32475430317833	0.126544845688839	-0.145394374901366	-0.694289047097619	0.70485686123306	10.1780367903846	-44.2644251281648	63.7473717290441
13923	1655201569809	6.89821210763119	1.19192669568555	6.90329116894292	0.0632637163170213	0.0238529867082156	0.0187355878060789	-0.00146477015512458	0.00227423727847688	-0.00580536947667046	0.56884765625	-0.377197265625	0.36572265625	0	0	0	0.267923649135077	-0.275353855076056	0.51555704976207	0.765896925943386	0.316762365870769	0.642179499811646	0.69804519451796	-0.937274738433198	0.324835693349549	0.126482556192931	-0.145525490079688	-0.694325040847428	0.704794345457797	10.1740150028494	-44.2703793264936	63.7446547978493
13924	1655201569809	6.89559451375901	1.19570073164943	6.92744458516193	0.0556819183406767	0.00668586694184262	0.034406992402241	0.0011597880793333	0.000591715412693179	-0.00557866546527461	0.56005859375	-0.367919921875	0.372314453125	0	0	0	0.267930781339345	-0.275345854013601	0.515540001638987	0.765908782949042	0.316806334775188	0.6421659708249	0.698037686776886	-0.937260490042554	0.324863206241922	0.126517473241487	-0.145521544973601	-0.694324681359328	0.704795514176818	10.17674844803	-44.2697785898774	63.7410207028603
13925	1655201569809	6.91698801603115	1.20712391878402	6.92835588190696	0.0503601623787102	0.0254045293473403	0.0514296798527667	-0.00265331630604785	0.00696410532147243	-0.00400317010126624	0.568603515625	-0.370849609375	0.36376953125	0	0	0	0.267820967443188	-0.275324515449586	0.515629361413051	0.76589470701854	0.316645545682439	0.642360241202141	0.697931887022077	-0.937310953556281	0.324796582093128	0.126314514621389	-0.145546469359051	-0.694176130951899	0.704936681180492	10.1587710017549	-44.2613136088739	63.7594333223943
13926	1655201569810	6.94078031232281	1.21531371518901	6.90524222286574	0.0540115227626075	0.059726482975109	0.0527728085376431	0.0011344497651522	0.00133267217604105	-0.0100958361011821	0.56103515625	-0.369873046875	0.35302734375	0	0	0	0.267831261145775	-0.275307301810986	0.515597246616116	0.765918915032459	0.31673073770287	0.642339563750522	0.697912261416135	-0.93728317113723	0.324851789669888	0.126378684322981	-0.145540018198201	-0.694169431471207	0.704944610245236	10.1637123140563	-44.2597435087986	63.7525887925793
13927	1655201569811	6.90534847476131	1.22952567214543	6.92479945839255	0.024528660922609	0.0277539298632252	0.0436327673759429	-0.00146772412629049	0.00681372416012437	-0.00506481869260561	0.5703125	-0.373046875	0.356689453125	0	0	0	0.267762360782698	-0.275400288411024	0.515612671894551	0.765899191717137	0.316596507449775	0.642330994515955	0.697981049137259	-0.937298320056643	0.324893781459677	0.126158194295206	-0.14573438403342	-0.694157708487758	0.704915998582402	10.1467519033797	-44.2652468914375	63.7619178806261
13928	1655201569811	6.89406704445449	1.19733710688983	6.92868211757482	0.0509834352225203	0.00781670655029116	0.0344316070070789	0.00138468676447151	0.00448990345481728	-0.00700525208898804	0.56396484375	-0.361083984375	0.359375	0	0	0	0.267760531569973	-0.275375760327272	0.515597211605131	0.765919058218658	0.316655412018381	0.642341941532104	0.697944252922994	-0.937280981398968	0.324927626236758	0.126199839999634	-0.14571791910145	-0.694131736673171	0.704944976715084	10.1496232266341	-44.2623029349938	63.7580779888779
13929	1655201569812	6.93948847333277	1.21674333221121	6.90628875132068	0.0492929833975819	0.0579588921788831	0.052808055992422	-0.00123986464500599	0.0061712578634289	-0.0072323405214544	0.5625	-0.370361328125	0.36328125	0	0	0	0.267742518636931	-0.275459005230145	0.515557858840607	0.765921911384745	0.316644861250616	0.642249945662164	0.698033694846121	-0.937258297028334	0.325028075803283	0.126109613397093	-0.145886656329931	-0.694169833136361	0.704872560303144	10.1435378247568	-44.269459175531	63.7555804277364
13930	1655201569813	6.89558517811796	1.248838950427	6.89770866455072	0.00687269995224993	0.0465485918610593	0.020158842054844	0.00141005292369784	0.00374881501283041	-0.00248801372800544	0.56494140625	-0.360107421875	0.365966796875	0	0	0	0.267736392618872	-0.275444418393875	0.515558403577062	0.765928932045373	0.316659809753463	0.642269205022033	0.698009192752693	-0.937255184813151	0.32503351313701	0.126118729293789	-0.145874204120425	-0.694149467779223	0.704895192886187	10.1439368835493	-44.2674986785107	63.7551890857634
13931	1655201569813	6.89522604117614	1.24901999293457	6.89803489440567	0.00653494712164315	0.0469086182546729	0.0201573613750252	-0.000256646464098887	0.00592231778574325	-0.00160926925542634	0.57470703125	-0.3701171875	0.365478515625	0	0	0	0.267708863249494	-0.275414268243482	0.515595993326134	0.765924093531211	0.316615505027888	0.642353106284981	0.697952082038567	-0.937276468981596	0.324985472407401	0.126084350406902	-0.145833612961235	-0.694094323251656	0.704957890771143	10.1403459033646	-44.2629293070647	63.7613366780121
13932	1655201569815	6.88399111462666	1.21619933268695	6.90198565139507	0.0329783609877514	0.0269678306894296	0.0109609176209648	-0.00500025530954793	0.00652054436904012	0.00263610678608222	0.5703125	-0.3681640625	0.369384765625	0	0	0	0.26766382282415	-0.275412048542566	0.515611374516238	0.765930278771003	0.316586227974128	0.642409044111976	0.697913877423463	-0.937280411170911	0.325001976841277	0.126012483050497	-0.14587183104494	-0.694034822679958	0.705008562937499	10.1339724780061	-44.2598727920495	63.7654160541209
13933	1655201569815	6.89206977184698	1.1980856136101	6.93053948461379	0.0478125937608111	0.00653407164225882	0.0344484481294067	0.00259626835472052	0.00359900853253564	-0.00354918885679135	0.567138671875	-0.366943359375	0.361572265625	0	0	0	0.267665165346419	-0.275426260570502	0.515600047735741	0.765932324049015	0.316593931526103	0.64238545453134	0.697932095785406	-0.937273516836737	0.325023900069952	0.126007218125838	-0.145899407666172	-0.694046390517148	0.704991468496448	10.1337984689295	-44.2613303107145	63.7640289708901
13934	1655201569818	6.90746481318967	1.16994754544173	6.88698696993072	0.0855156931910991	0.0380572913267821	0.0109410703871706	-0.00310916451186336	0.00824480153228212	0.000330625387588966	0.5625	-0.371337890625	0.367919921875	0	0	0	0.267626169638088	-0.275409423921221	0.515611454358068	0.765944326093603	0.316588954700278	0.642445797456329	0.697878808313081	-0.937272874281404	0.325042122919206	0.125964985073038	-0.145914334107587	-0.693981999520791	0.705051765080453	10.1296239191792	-44.257067269241	63.7665200948614
13935	1655201569819	6.91519164453528	1.20601449258265	6.90816012214302	0.0500209584593566	0.0413343403839895	0.0358055179720296	-0.00076143485833846	0.00868575877353643	-0.00630921729593852	0.562255859375	-0.369384765625	0.367431640625	0	0	0	0.26756307308239	-0.275402223927629	0.51565053882629	0.765942647191407	0.316516273727746	0.642542546732966	0.697822702484964	-0.93729240820417	0.325029047461729	0.125853326650307	-0.145946531265153	-0.69389854729927	0.705127233956847	10.1197696413805	-44.2525790909864	63.7751560863048
13936	1655201569821	6.90621790754345	1.22447548248022	6.88044306150573	0.0343459631472741	0.0613826860884218	0.012318246188606	0.00115806708027792	0.00513016419079544	-0.00483778904524182	0.57177734375	-0.36669921875	0.36083984375	0	0	0	0.267555028636755	-0.275379434143445	0.515644421045801	0.765957769688619	0.316553996590355	0.642565396616796	0.697784550067838	-0.937282006169687	0.325050275391052	0.125875968233533	-0.145931518710669	-0.6938674437808	0.705160947804043	10.1210786875024	-44.2495272890972	63.7732569645672
13937	1655201569822	6.87915990715328	1.22051240933422	6.92822868740627	0.0219827012465951	0.00973171849742828	0.0266350909427295	0.00115814679719988	0.00512992571931945	-0.00483782817765577	0.574951171875	-0.36669921875	0.366455078125	0	0	0	0.267533084478595	-0.275396387897612	0.515652887474067	0.765953639512193	0.316517858345211	0.642577121554441	0.697790146249838	-0.937287701988489	0.325056296698053	0.125817994253942	-0.145973316224914	-0.69385376473127	0.705165756484634	10.1164460189285	-44.2499749163249	63.7762644780739
13938	1655201569823	6.90293397487449	1.22861996501931	6.90517559910819	0.0255729918062427	0.0440566101598308	0.0279863723113731	-0.000985607838040527	0.0047870335757455	-0.00488288274009781	0.5625	-0.36962890625	0.370361328125	0	0	0	0.267517574945777	-0.275380543177069	0.515643341564801	0.765971179506461	0.316555001478777	0.642597606890126	0.697754431485644	-0.937274147282047	0.325092582790034	0.125825217868341	-0.145979806396235	-0.693817791811357	0.705199807069266	10.1165364289467	-44.2471182234064	63.7743234024012
13939	1655201569824	6.90252302376981	1.22887873403268	6.90554034833049	0.0252432447274936	0.044358302604016	0.0279858684024923	0.000929743985394053	0.00577129579971096	-0.00267054250974061	0.572509765625	-0.360595703125	0.371826171875	0	0	0	0.267495302355379	-0.275351292103121	0.515667050207644	0.765973512913529	0.316538318534577	0.642664249612475	0.697700620015015	-0.937284958152751	0.325067513095902	0.125809455726673	-0.145946565975014	-0.693767810005393	0.705255858309891	10.1145079710165	-44.2428143033244	63.7778756934646
13940	1655201569825	6.90804776720526	1.21422277520152	6.95820966182736	0.0330611479752061	0.00721049920970715	0.0671404469308872	-0.00262884042773463	0.00621965733033128	0.000512677194181836	0.571533203125	-0.374755859375	0.364013671875	0	0	0	0.26746228767206	-0.275340935891639	0.515678102914953	0.765981323446976	0.316526926392705	0.642712958280155	0.697660919162855	-0.93728622469353	0.325080037694528	0.125767651215545	-0.145963138730771	-0.693716817117256	0.70530258739109	10.1105603482516	-44.2396391729683	63.7804142182007
13941	1655201569826	6.91264039460472	1.20739370431483	6.91047218794046	0.0478560276713092	0.0410772648844191	0.035817351395071	0.00022454861776606	0.00389717764467684	-0.00142664341382657	0.573486328125	-0.362060546875	0.370361328125	0	0	0	0.267466479300973	-0.275345005726514	0.515663131804887	0.765988475611078	0.316553324637282	0.642692913970566	0.697667407145486	-0.937275151069674	0.325106433895035	0.12578194555409	-0.145976997668819	-0.693723017473166	0.705293620543616	10.111811673779	-44.240158046606	63.7778120030568
13942	1655201569827	6.89044734760988	1.19624657357127	6.91029507656997	0.0513545018690187	0.0239989672240512	0.0188046532264163	-0.00336172505370509	0.00962407764231297	-0.00202037257931326	0.564697265625	-0.36572265625	0.3662109375	0	0	0	0.267425612891246	-0.275319869049544	0.515667859838152	0.766008596300474	0.316571256072964	0.642756857500361	0.697600359779613	-0.937267196387209	0.325140399799362	0.125753421403839	-0.145989185917472	-0.693647851978632	0.705365022552567	10.1085636192155	-44.2347961828464	63.7787850168926
13943	1655201569828	6.88996072283739	1.19617938940237	6.91079189374939	0.0522556974487044	0.0237818546440498	0.0188004321349577	-0.000961647109662857	0.00404638035320062	-0.000365644306550751	0.568359375	-0.37255859375	0.362548828125	0	0	0	0.267445418793195	-0.275275332779437	0.515657400987695	0.766024728018827	0.316641871939572	0.642770387367723	0.69755584296725	-0.937254894002254	0.325140785546297	0.125844083067742	-0.145915004723392	-0.693635133696011	0.705392878259406	10.1153097014143	-44.231236386182	63.7741974615435
13944	1655201569829	6.89796062603109	1.1783714229195	6.93936255539033	0.0675708060297688	0.00380562927945682	0.0422906856907463	0.00186467055967732	0.00700253446666245	-0.00608144599159048	0.563720703125	-0.3623046875	0.361572265625	0	0	0	0.267437385220848	-0.275240531980948	0.515650074328832	0.766044969558414	0.31669530079903	0.642803074624488	0.69750146502005	-0.937241507343607	0.325164491661812	0.125882525692006	-0.145885034750296	-0.693593728789138	0.705439789082161	10.1176769168514	-44.226888333824	63.7715201815684
13945	1655201569830	6.89993840639795	1.22961446008316	6.90799195211995	0.0240051718768465	0.0432672038456816	0.0279938242171909	0.00186907239127349	0.00246375509921212	-0.0068221285720915	0.56640625	-0.369873046875	0.362548828125	0	0	0	0.267428865940513	-0.275288224526435	0.515640896738442	0.766036983904582	0.316661718095716	0.642759959246977	0.697556442935977	-0.937240030014505	0.325192534545093	0.125821069835497	-0.145967401946735	-0.693620537660876	0.705396390197709	10.1134487798369	-44.2312843613815	63.7724053760471
13946	1655201569831	6.91058825010724	1.20868941677338	6.91229792357534	0.0467773641756163	0.0404621715568093	0.0358250800753783	0.000682728270511009	0.00261297980345912	-0.00576126958488953	0.564208984375	-0.36865234375	0.364990234375	0	0	0	0.267426980372939	-0.275274219851102	0.515627324912205	0.766051810165515	0.316705131378501	0.642762984461	0.697533945815768	-0.937225998018187	0.32522254394499	0.125848025605339	-0.145963311819579	-0.693603664001811	0.705413828107958	10.1153258405099	-44.2294854546621	63.7693983253433
13947	1655201569832	6.8994342841875	1.23058138559094	6.90832328005437	0.0221037106817728	0.0434320853577935	0.0279975525732699	0.000682791500371254	0.00261279083328624	-0.00576130062428835	0.573974609375	-0.3671875	0.370849609375	0	0	0	0.267386604481794	-0.275312705024273	0.515652891826236	0.766034864315688	0.316610019206915	0.64278632731393	0.697555612948577	-0.937246044782482	0.325212997789873	0.125723337563547	-0.146040909602037	-0.693586507572626	0.705414636391829	10.1054990646512	-44.2312179932476	63.777045560871
13948	1655201569835	6.90767776521679	1.21282287883645	6.9366443695243	0.0373872283666288	0.0234581103004381	0.0514922016359147	-0.00120911750367485	0.000888604916035436	-0.0034566368544894	0.56884765625	-0.378173828125	0.363525390625	0	0	0	0.267378257980938	-0.275313604502984	0.515643633101431	0.766043686728512	0.316628125635063	0.642785355537287	0.697548289915207	-0.93723684341913	0.325241021602072	0.125719438453191	-0.146060704484718	-0.693574267525868	0.705422572669307	10.1050807731538	-44.230632426084	63.7757124079802
13949	1655201569837	6.90990186861998	1.20979755513443	6.91279022683006	0.043031640570551	0.0405575137320833	0.0358417665973025	0.00234562589221157	0.00497846150595116	-0.00589871782724991	0.556396484375	-0.36669921875	0.366943359375	0	0	0	0.267336973162129	-0.275354293548632	0.515654470048138	0.766036176250325	0.316560961087415	0.642795190235151	0.69756971072859	-0.937244723773102	0.32526282059977	0.125604240752307	-0.146155689847826	-0.693554930013505	0.705421911609689	10.096021238843	-44.2323453016684	63.7808778778701
13950	1655201569838	6.86611744102283	1.24195677125822	6.90401904686739	0.000631130895315751	0.0291708307384284	0.00314948425123873	0.000934765901654761	0.00123142716032512	-0.00341111085916896	0.56201171875	-0.36474609375	0.363525390625	0	0	0	0.26733548179538	-0.275348784455483	0.515649094250256	0.766042295614943	0.316578116995558	0.642797031874106	0.697560227975611	-0.937239031690821	0.325275503544247	0.125613869732961	-0.146155031780638	-0.693547274962476	0.705429574144241	10.0966718720097	-44.2315870247772	63.7797122445744
13951	1655201569838	6.90951481531433	1.21053803636517	6.91304746963592	0.0422349703915261	0.0418690842450282	0.0358397267529327	-2.24245767141568E-05	0.000738797493724632	-0.00451757011864815	0.56201171875	-0.371826171875	0.371826171875	0	0	0	0.267297025648398	-0.275307790695498	0.515720788879992	0.766022185304631	0.316475376598725	0.642929224228282	0.697485016785246	-0.937285038591236	0.325168735993037	0.125547001420648	-0.146082485054577	-0.693474805429808	0.705515840923767	10.0901990153787	-44.2255731987472	63.7917514295709
13952	1655201569839	6.89843404699869	1.23204967433852	6.90906041503726	0.0190854714714667	0.0447696148951927	0.0279978750317831	-0.00406320988666666	0.0032098606799433	-0.00151805643796675	0.57177734375	-0.3681640625	0.365966796875	0	0	0	0.267268156991136	-0.275309555505164	0.515719213185118	0.766032684719022	0.316476683598543	0.642952591870927	0.697462883130654	-0.937278501878584	0.325202850820568	0.125507432984715	-0.146121588599032	-0.693437142374586	0.70554476181222	10.0866792312291	-44.22380352661	63.7924827838145
13953	1655201569840	6.90915062219209	1.21050701044447	6.91341688962808	0.0411654137743918	0.0427682359271712	0.0358403918089039	-0.000481135697158871	0.00202277986485541	-0.000182965121942593	0.5712890625	-0.365966796875	0.35986328125	0	0	0	0.267218365263087	-0.275302156771242	0.515778839547715	0.766012569360346	0.316361822303829	0.643054563635659	0.697420981600033	-0.937317732778912	0.325133067881871	0.125395199221988	-0.146118668235103	-0.693375306999806	0.705606135486452	10.076985683587	-44.2204534812449	63.8043220453837
13954	1655201569841	6.94152198492986	1.25419878714271	6.91074793520972	0.0106128443539022	0.0799179929311452	0.0620115989192413	-0.00358201628269982	0.00118694486759427	-0.00133514702652691	0.56201171875	-0.37451171875	0.357177734375	0	0	0	0.267195885152584	-0.275310287941431	0.515776523839834	0.766019047913843	0.316357645618608	0.643065731299956	0.697412578956176	-0.937312835612449	0.325161872826449	0.125357108518608	-0.146159119642948	-0.693351441685708	0.705621208622267	10.0737765641491	-44.2197817092058	63.8050157906297
13955	1655201569841	6.88956961209626	1.19560689982975	6.88912413838392	0.049248010771282	0.0416528870886229	0.0031934605997801	-0.00477368091436099	0.00587422432215313	0.000466264409255279	0.55859375	-0.36865234375	0.365234375	0	0	0	0.267127791473058	-0.275453569691502	0.515784065371128	0.765986208672302	0.316184257706881	0.643004354004312	0.697547787545661	-0.937329568904557	0.325219081863916	0.125083284449961	-0.146426754507321	-0.693381532435851	0.70553614793387	10.0534083316735	-44.2305922556339	63.8152898459948
13956	1655201569843	6.90836904146874	1.2098704391177	6.91430932001424	0.0378292857999804	0.041661409054148	0.0358585155888029	-0.00262988752618139	0.00621725919667186	0.000512008743156568	0.570556640625	-0.3681640625	0.362060546875	0	0	0	0.267093031025926	-0.275443857083001	0.51579675192788	0.765993280044461	0.316168784591777	0.64305542235949	0.697507722841702	-0.937331961022573	0.325230046956066	0.125036840181335	-0.146444851378721	-0.693329027468931	0.705583988745246	10.0490840244543	-44.2273886919337	63.8182018971247
13957	1655201569843	6.9080990069317	1.20960132545404	6.9146261927068	0.036466430691545	0.041706278699846	0.0358634662482586	-0.003811397034465	0.00182856564009114	0.000831950921237843	0.564697265625	-0.36962890625	0.370849609375	0	0	0	0.267041703768099	-0.2754932157258	0.515835344836919	0.765967436353965	0.316034770212069	0.643089797923057	0.697536763062913	-0.937362508738937	0.325205250931215	0.124872222601391	-0.146538565666691	-0.69330877433799	0.705584433075378	10.0361168208135	-44.2297107233642	63.82903110076
13958	1655201569845	6.90780863701987	1.15549225948583	6.92265690002598	0.0858159630179937	0.0189893141741065	0.0345678917042846	-0.000988993936551337	0.00932181430742208	-0.00414248912476761	0.56591796875	-0.373291015625	0.354736328125	0	0	0	0.267011285961172	-0.275461374884464	0.515836900325781	0.765988444024068	0.316066646418103	0.643147617420419	0.697469008077386	-0.937352801182552	0.325234530863304	0.124868835380767	-0.14653191166854	-0.693241402500287	0.705652008232244	10.0349085943137	-44.224293234701	63.8287826885871
13959	1655201569846	6.91803821686273	1.1883385204009	6.91970965205155	0.0567311025191798	0.0389377977053046	0.0437343150853291	0.000930235354278499	0.00576901543503503	-0.00267007164046886	0.557861328125	-0.37548828125	0.3603515625	0	0	0	0.266945933979889	-0.275522557524896	0.515886495495962	0.765955816213599	0.315896888119671	0.643193270560343	0.697503815604042	-0.937391776364387	0.325201984193001	0.124660848229728	-0.146648606132918	-0.69321431475614	0.705654377253091	10.0184999387214	-44.2270762795193	63.8425745161336
13960	1655201569847	6.86080421127646	1.19123181694574	6.93861389084062	0.0334728513922708	-0.00956628216592787	0.0175119441493496	0.00330376616800689	0.00547035660258795	-0.00479137215030589	0.566162109375	-0.361083984375	0.354736328125	0	0	0	0.266942162961208	-0.275494192387591	0.515886748621568	0.765967162606184	0.315927625114752	0.643222586937194	0.697462858755344	-0.937386649333974	0.325205488460518	0.12469025593679	-0.146615160675078	-0.693185468636627	0.705689663188601	10.0203245176784	-44.2238015777381	63.841401985798
13961	1655201569848	6.90627196792755	1.21067391403664	6.91626335862348	0.0309379402740017	0.0410885776396656	0.0358849814150108	0.00116016346725333	0.00512671518039449	-0.00483751037771315	0.564208984375	-0.370849609375	0.360595703125	0	0	0	0.266902688962477	-0.27558526408238	0.515905611415824	0.765935452211809	0.315788324660619	0.643191899512735	0.697554237611126	-0.937409691600822	0.325208709468527	0.124508495206823	-0.146767857860268	-0.693212431861269	0.705631433690488	10.0068223178114	-44.2311080175498	63.8503181489081
13962	1655201569849	6.90584973747316	1.21100545317589	6.9166269132974	0.0306530535265191	0.041156796747188	0.0358855873785515	0.000930305719536552	0.00576838361304004	-0.00267025259770136	0.562255859375	-0.365478515625	0.368408203125	0	0	0	0.266885676905674	-0.275565791517871	0.51591119785071	0.765944623285506	0.315798260954749	0.643229690570482	0.697514891272264	-0.937407941775662	0.325215342789692	0.124504343338299	-0.146757654225849	-0.693174253692955	0.705671060015459	10.0059448234924	-44.2279618650397	63.8509366999686
13963	1655201569849	6.90786912556924	1.20779261895746	6.89302778033809	0.0370673702340315	0.0587742894931758	0.0202380621094136	-0.00265125652332372	0.00695430031740174	-0.00400630196051208	0.5615234375	-0.367431640625	0.360107421875	0	0	0	0.266828919068157	-0.275559878228137	0.515954015306222	0.765937683855025	0.315716415200562	0.643322558026362	0.697466294172933	-0.937431935811029	0.325187564076611	0.124396197255006	-0.146780485400795	-0.69310109977141	0.705738162919627	9.99649754370901	-44.224076249296	63.8600830371022
13964	1655201569852	6.89656066164527	1.22942158612526	6.88924206996107	0.0138413262436087	0.0616811247751145	0.0123666600808843	0.00045474846181499	0.00325320515027698	-0.00359392793397279	0.56689453125	-0.369384765625	0.35693359375	0	0	0	0.266817491743742	-0.275549966681869	0.515952460972638	0.765946277474783	0.315730547755799	0.643340631751635	0.697443225468016	-0.937426835592147	0.325202968231713	0.124394362271679	-0.146782659485095	-0.693077095993433	0.705761283922398	9.99603217915577	-44.2222318643037	63.8597053150941
13965	1655201569853	6.89376740857095	1.17876855063232	6.9213209994135	0.0536580856210298	0.020672264036158	0.0267690337496553	-0.00311145235460019	0.00823755446409721	0.000328130150390592	0.569091796875	-0.365966796875	0.365478515625	0	0	0	0.266761319722726	-0.275647641026685	0.515967691803322	0.765920437977317	0.315591438023151	0.643316143978822	0.697528768684632	-0.937444657973761	0.325231478629883	0.124185339491735	-0.146967879085661	-0.693086447858013	0.705713552592427	9.9802349441159	-44.2290714905268	63.8688281523429
13966	1655201569855	6.89572232728119	1.17546852300237	6.89780575676743	0.060845217018522	0.0379185589290343	0.0111253861780405	-0.000276967736689998	0.00665515759290071	-0.0061273684750603	0.566650390625	-0.3759765625	0.361083984375	0	0	0	0.266741535913215	-0.275624217132742	0.515959871002399	0.765941026100449	0.315633404890301	0.643348812018736	0.697479648299099	-0.937430520070197	0.325268729067692	0.124194500408063	-0.146967934456041	-0.693038642475849	0.705760487897244	9.98030594413826	-44.2251439624239	63.8669660558617
13967	1655201569855	6.91450149003708	1.1904397953979	6.92288271664592	0.0476875876139086	0.0373215029565113	0.0437884709742509	0.00259872558104307	0.00359641143400989	-0.00354742942700287	0.566650390625	-0.374267578125	0.357421875	0	0	0	0.266715656562214	-0.27568995848325	0.51596992733781	0.765919603756887	0.315540161749039	0.643321308025152	0.69754720339501	-0.937444621163029	0.325275585255206	0.124070044287045	-0.147078171649964	-0.69306095567251	0.705715610672183	9.97112671272885	-44.2305455458414	63.872691079314
13968	1655201569857	6.90567196498558	1.20898463646807	6.89502006744139	0.0319325345923819	0.0573991724023754	0.0202642015632488	0.00186688621086243	0.00699805027451922	-0.00608104820252048	0.569091796875	-0.376708984375	0.355224609375	0	0	0	0.26670285413037	-0.275660345748059	0.515965772814997	0.765937518773038	0.315581390130966	0.64335628564032	0.697496290979456	-0.937433889566608	0.325297817764275	0.124092838027913	-0.147058114006089	-0.6930180513413	0.70576192276155	9.97228051612462	-44.226474635062	63.8709630165333
13969	1655201569857	6.88343326872519	1.19828377362224	6.89479072479632	0.0309040223444197	0.0387240283478354	0.00328034597873383	-0.000276635104318224	0.00665402746005715	-0.00612769303317662	0.568359375	-0.3720703125	0.36669921875	0	0	0	0.266618480846289	-0.275865437082178	0.515967368373111	0.765891977415094	0.315351870795171	0.643248888584193	0.697699122058489	-0.937452183595584	0.325384520890686	0.123726783828767	-0.147433378370903	-0.693077038214324	0.705625692589352	9.94533320098373	-44.2426944990764	63.8836608990194
13970	1655201569859	6.89969693317322	1.21648632670059	6.94394195040308	0.0117841879657156	0.0215276515601322	0.0515604169524622	0.000224679686782799	0.00389431300376291	-0.00142675507559517	0.564697265625	-0.373779296875	0.365478515625	0	0	0	0.266600216387661	-0.275860269246763	0.515974640346189	0.765895297669843	0.31534256474145	0.643276286568178	0.697678067593744	-0.937453916463959	0.325388990283347	0.123701897757342	-0.147442264526385	-0.693049510598947	0.705650872946312	9.94302501368272	-44.2410106213354	63.8852937217228
13971	1655201569859	6.90177859551287	1.21319654307675	6.92030556035074	0.017382324567585	0.039282340065146	0.0359256054889521	-0.00073771411120954	0.0079375566119132	-0.0017932620565229	0.556884765625	-0.3671875	0.36474609375	0	0	0	0.266515162224557	-0.275880423514518	0.516035598619325	0.765876570462541	0.315194505758091	0.643386517359203	0.697643327797457	-0.937491780669409	0.325353858524027	0.123507197850289	-0.147518082678753	-0.692963675832957	0.705719320451737	9.92674311131428	-44.2382323340622	63.8998058627838
13972	1655201569860	6.9039365523387	1.20976215162062	6.89662137756353	0.0245165818453793	0.0565246131267501	0.0202905546061647	-0.00166840376238014	0.00217077019386262	0.000876975251143056	0.5654296875	-0.375	0.363525390625	0	0	0	0.266490347074683	-0.27588997135905	0.51604733269998	0.76587385973981	0.315159748233477	0.64341029656294	0.697637100052887	-0.93749835345053	0.325356090658502	0.123451413717954	-0.147550568860159	-0.692940549072002	0.705735237239035	9.92212931891473	-44.2377342890647	63.9031386516524
13973	1655201569861	6.89294504768504	1.1771134828424	6.90030066726254	0.0492581508769607	0.037623178010886	0.0111914544278218	0.000224823634697507	0.00389406369859746	-0.00142674091297131	0.5712890625	-0.36181640625	0.363525390625	0	0	0	0.266408986017518	-0.275903358301245	0.516137708105322	0.765836441623796	0.31495840629976	0.643547863678757	0.69760113923045	-0.937560399374208	0.325256236881806	0.123243165712188	-0.147586245383472	-0.692859673760852	0.705807178094425	9.90473399541381	-44.2348585137218	63.9224372509911
13974	1655201569862	6.87665296335314	1.20550381846541	6.94455304502863	0.0109190703195259	0.00616847569059989	0.0345587060719445	-2.55111305736175E-05	0.00527352665574998	-0.00377728673744861	0.5634765625	-0.37353515625	0.36572265625	0	0	0	0.266388150584829	-0.275890645650697	0.516138772692198	0.765847551536353	0.314970237932465	0.643579232921509	0.697566857131937	-0.937555228355684	0.325276241103572	0.123229707280559	-0.147593844721544	-0.692821144254195	0.705843409740872	9.90317549241038	-44.2321171162302	63.922690125611
13975	1655201569862	6.90324771798766	1.15606265297763	6.90500392944903	0.071453689178021	0.0343047125483187	0.0191032548951249	-0.000250314092578071	0.00137950402010343	-0.00235054475925653	0.568359375	-0.375732421875	0.36572265625	0	0	0	0.266397866313805	-0.275912950100573	0.516121851444681	0.765847540474973	0.314980556856227	0.643536058638317	0.697602028405023	-0.937546543418877	0.325300822569533	0.123230896121473	-0.147626988473848	-0.69284970669536	0.705808441580502	9.90375006762578	-44.2349296190303	63.9204312604086
13976	1655201569863	6.9137568764252	1.18903869467324	6.90175078532488	0.0443907815284874	0.0543209408667248	0.028201302790313	0.00234910811305167	0.00497497158295454	-0.00589767078222596	0.5673828125	-0.366943359375	0.35888671875	0	0	0	0.266389974043424	-0.275892403697963	0.516117526497968	0.765860602298175	0.315012160846759	0.643558218881	0.697567313905526	-0.937538099920513	0.325318161141526	0.123249361981841	-0.147613175956926	-0.692820981886527	0.705839526621808	9.90477714631925	-44.2321536416838	63.9189403987634
13977	1655201569864	6.91356866541316	1.18948941041618	6.90186165306049	0.0423868462476188	0.0535308001453547	0.0282144679950935	0.000462030786608567	-0.00128419510680936	-0.0043344994165733	0.564453125	-0.376953125	0.36376953125	0	0	0	0.266375644153039	-0.275992945948461	0.516106731275296	0.765836635269607	0.314923471438038	0.643471287522304	0.697687544156985	-0.937542482557168	0.325355716268766	0.123116819694875	-0.14777449217628	-0.692884088448874	0.705743819977487	9.89565142766391	-44.2417685246361	63.9222546286027
13978	1655201569865	6.90004369763121	1.21494107301573	6.92172939843223	0.0115465016371355	0.0392483860158047	0.0359343117843593	0.00233621080086976	0.00117579719849313	-0.0111560545719283	0.572265625	-0.37158203125	0.369140625	0	0	0	0.266384552884796	-0.275980658999879	0.516077163011791	0.765857889990083	0.314998075351388	0.643449565367489	0.697673899005339	-0.937517503177625	0.325407263604137	0.123170792111039	-0.147773961713539	-0.692880054282166	0.705747891684721	9.89984772456013	-44.240677234903	63.9161318571286
13979	1655201569867	6.90500676685013	1.15496668658877	6.88133293754163	0.0741408154579916	0.0511617712476705	0.0035081869541731	0.00210527317532852	0.00181753063128056	-0.00898887577405945	0.56201171875	-0.37353515625	0.361328125	0	0	0	0.266338350369848	-0.276023068971754	0.516093878026716	0.76584741142151	0.314916748917518	0.643467263366578	0.697694289948504	-0.937529378782417	0.325421984371226	0.123041440205109	-0.147871921510052	-0.692856704566983	0.705750297035364	9.88962340670836	-44.2423080360499	63.9225960682037
13980	1655201569871	6.921255050918	1.28189822044483	6.91482238448747	-0.0442765923758893	0.0795321909591793	0.0541012376831755	0.00425583453192625	-0.00237479398684484	-0.00968231339422659	0.56982421875	-0.36572265625	0.356201171875	0	0	0	0.266361236814669	-0.276021661788454	0.51606831007498	0.765857188438193	0.314971083119789	0.643426307548921	0.697707534395543	-0.937512192435373	0.325450381717829	0.123097270785094	-0.147865160985832	-0.692881400958115	0.7057274674922	9.89433594249907	-44.243367307956	63.9172529241179
13981	1655201569872	6.85648976833298	1.14086060222544	6.92788381352543	0.064003173697126	-0.0186565310024814	0.000780145017303724	-0.000975309726979919	0.000242990581045018	-0.00562509450676631	0.56689453125	-0.37158203125	0.360107421875	0	0	0	0.266352520413238	-0.276141612154543	0.51604376124867	0.765833520670473	0.314889293026031	0.643305192217529	0.697856118984089	-0.937509249770878	0.325510342691684	0.122961064548044	-0.148057893175648	-0.692965689242052	0.705604289812411	9.88529529527643	-44.255252198134	63.9188696295166
13982	1655201569874	6.90205544478216	1.21429476198451	6.89770756798377	0.0139714019310242	0.0555863554171138	0.0203165411904429	0.00068666488260904	0.00260829914750645	-0.00576161790709364	0.558837890625	-0.367919921875	0.361572265625	0	0	0	0.266343329457444	-0.276136511401391	0.51603470889307	0.765844656012064	0.314913612577427	0.643310612582178	0.697840148137507	-0.937499083907818	0.325538820142335	0.122963182507359	-0.148070538208773	-0.692947279610418	0.705619715849185	9.88525035724003	-44.2539746169444	63.9173129420522
13983	1655201569874	6.89091246944521	1.18225529332568	6.9014516375195	0.038707414276811	0.0355023257641969	0.0112465847321381	0.00114215674802736	0.00585870274200994	-0.00935602320468707	0.5732421875	-0.36865234375	0.3681640625	0	0	0	0.266306034386007	-0.276172541847897	0.516050613992782	0.765833916052654	0.314840981853888	0.643325296339304	0.697859383568944	-0.937510954042571	0.325545719694542	0.122854366787467	-0.148149813349417	-0.692930405941685	0.705619646357741	9.87667574572924	-44.25551335065	63.9230478429723
13984	1655201569875	6.90977353249348	1.19758798922113	6.92636958549258	0.0269679079574033	0.0354951349101217	0.0438736850355674	0.00258765955383596	-0.000205349411513901	-0.00880567229943085	0.566650390625	-0.3759765625	0.36181640625	0	0	0	0.266315209280589	-0.276169724223651	0.51602901317727	0.765846296777207	0.314888681963051	0.643301421735649	0.697859870435652	-0.937494213349986	0.325580533730257	0.122889853084834	-0.148154371879009	-0.692936214127111	0.705612985456137	9.87956382780528	-44.2555522979576	63.9187809279061
13985	1655201569876	6.92022241228014	1.23097069750501	6.92307892902924	-0.00125189086131166	0.054958822003918	0.0529482908344185	0.0011422136142502	0.00585766589915321	-0.00935625955759914	0.56298828125	-0.36767578125	0.37158203125	0	0	0	0.266292433614242	-0.276207377801431	0.516007781730833	0.765854942819518	0.314890907282565	0.643270350709883	0.697887506986868	-0.937478089977689	0.32564861798606	0.122832440403798	-0.148251635142908	-0.692933065671824	0.705595648495724	9.87527695666075	-44.2577631491665	63.9175282309785
13986	1655201569877	6.90908403211011	1.19900800743392	6.92681171370464	0.0249852451641969	0.0350815605657804	0.0438803909367778	0.00187460101610487	0.00245793393748023	-0.00682194905826792	0.56982421875	-0.376708984375	0.364013671875	0	0	0	0.266289117869189	-0.276199189928769	0.515996371300892	0.765866736444046	0.314923504574008	0.643271236525736	0.697871981473304	-0.937466591095001	0.325675701017523	0.122848395787098	-0.148255107323636	-0.69291951482506	0.705608226374283	9.87636186417196	-44.2565211387963	63.9152172572754
13987	1655201569878	6.90029167712413	1.21763723823379	6.89888289444469	0.00851305098927098	0.0559663027947969	0.0203206266092408	-4.51866683102042E-05	0.00600592305448014	-0.00829633646072664	0.5615234375	-0.365234375	0.352783203125	0	0	0	0.266231098637375	-0.276175890628568	0.516024748648026	0.765876189952785	0.314890672436518	0.643368915273389	0.697796749256129	-0.937475358390186	0.325678921802156	0.122772929854171	-0.148269406229571	-0.692827308031178	0.705695759107707	9.86921393685005	-44.2505030817632	63.9210114524901
13988	1655201569879	6.91089404631072	1.19671691798958	6.90329074677443	0.0309740608689498	0.0532118279032216	0.0282587372236058	0.00308097498943807	0.0015733046938776	-0.00336385225361162	0.568603515625	-0.369873046875	0.368408203125	0	0	0	0.266229518424296	-0.276172332225438	0.516027587095858	0.765876109947788	0.314888744538377	0.643375948040452	0.697791134972417	-0.937476856082425	0.325674745751187	0.122772571406288	-0.14826403094769	-0.692822740290003	0.705701372865459	9.86910872492316	-44.2500540025892	63.921397259648
13989	1655201569880	6.92379522608675	1.17221642307262	6.88391981879546	0.0602985926121697	0.06664443379345	0.0205880939161993	-0.00195487462388927	0.0133537927107677	-0.00451285647506392	0.56201171875	-0.36669921875	0.369384765625	0	0	0	0.266198867215323	-0.276189847034987	0.516023690353419	0.765883073635988	0.314877438777659	0.643384771239549	0.697788101565121	-0.937470468907897	0.325715428174636	0.122713405032299	-0.148328414251717	-0.692795421452861	0.705714662976138	9.8642639510612	-44.2498113657539	63.9225197682101
13990	1655201569881	6.90704191861675	1.20101388909429	6.92850059830222	0.0218567647841482	0.0351747863641744	0.0438874925241723	0.00447470401200499	0.00605077528372553	-0.0103693030708267	0.5615234375	-0.369384765625	0.35791015625	0	0	0	0.266200779606324	-0.276156629076405	0.516007402308566	0.76590536094018	0.314947753959845	0.643399451518707	0.697742830891923	-0.937451891333081	0.325747011399501	0.122771478773866	-0.148296539783225	-0.69276693797389	0.705749322308284	9.8683652897894	-44.2461903643376	63.9179844147311
13991	1655201569882	6.90655189939998	1.20180695179497	6.92885155040451	0.0210112144721657	0.0356554806237513	0.0438876040908465	0.00330491908622848	0.00546506201174181	-0.00479111116044449	0.5576171875	-0.36767578125	0.357177734375	0	0	0	0.266176768160852	-0.27612954197813	0.51605183297603	0.765893536870806	0.314885963458057	0.643482988978398	0.697693681290377	-0.937480065288297	0.325680867547049	0.12273182024582	-0.148249644870204	-0.692720445352401	0.705804808276785	9.86447987186317	-44.242259356903	63.9253604421142
13992	1655201569884	6.90612609833546	1.20237197455509	6.92917793414016	0.0205502454286097	0.0357308973015092	0.0438883028539809	0.00234937241892308	0.0049708018243033	-0.00589849298711017	0.566162109375	-0.37060546875	0.352783203125	0	0	0	0.266166904882299	-0.276111744419196	0.516048624582537	0.765905542743776	0.314912243320522	0.643505386958715	0.697661161282432	-0.937472620613553	0.325697991623699	0.122743243611395	-0.148240900586827	-0.692691587365838	0.705834966678332	9.86496673840919	-44.2396585362957	63.9242599715899
13993	1655201569885	6.88410492761665	1.19166731774113	6.92872550104154	0.0213193050352719	0.0172761195641619	0.026898793902971	0.00164374792543341	0.00309926115050227	-0.00465478201977622	0.561767578125	-0.37158203125	0.364013671875	0	0	0	0.266143606901184	-0.276244156645802	0.516056293984415	0.765860723541656	0.314750134716243	0.64341326092808	0.697819266255957	-0.937495725868438	0.325706963889399	0.12254279926769	-0.148438932475676	-0.692772942121619	0.705713492849356	9.85083473736282	-44.2523042214358	63.9326681411226
13994	1655201569887	6.90545041985814	1.20338259651507	6.92967587394896	0.0170475579522955	0.034450169835744	0.0438995428655478	0.00139395725464372	0.00447622255193437	-0.00700594971625	0.552734375	-0.37060546875	0.364990234375	0	0	0	0.26613257124216	-0.276230468781551	0.516046747299228	0.765875928099747	0.314784965437223	0.643427713236781	0.69779022877479	-0.937483412885826	0.325738418251848	0.122553390156002	-0.148442837815204	-0.692744729834643	0.705740365281523	9.85130165342769	-44.2499815173536	63.9306734778237
13995	1655201569888	6.91600762530281	1.18262386371626	6.93411670944135	0.038081690329959	0.0335791782520224	0.0518530418356864	0.00162656234637348	0.00383242310789636	-0.00917328462303331	0.573486328125	-0.374755859375	0.35791015625	0	0	0	0.266045346117014	-0.276192614271547	0.516153166884165	0.765848171602423	0.314607096274592	0.643630398932402	0.697683513166096	-0.937549437567749	0.325611564249852	0.122385298721546	-0.148402921433735	-0.692616068826649	0.705875027262653	9.83621385359801	-44.2414461384999	63.9505752904067
13996	1655201569889	6.9073590572322	1.20142040694596	6.90601121693664	0.0222209485960948	0.053670026287013	0.028279906344185	0.00354692412846403	0.000285393493512126	-0.00769809985918015	0.568603515625	-0.3740234375	0.363525390625	0	0	0	0.266053486661109	-0.276188257211056	0.516139361777889	0.76585621890646	0.314640411604465	0.643615382468302	0.697682342356142	-0.937538777691729	0.32563140291796	0.122414173027391	-0.148399635139954	-0.692620696257239	0.705871177628373	9.83854177090547	-44.2413525010859	63.9476541121242
13997	1655201569890	6.90697499315948	1.20208349576534	6.9062799550197	0.0192829864965176	0.0521402751196279	0.0282943256692771	-0.000526239528608418	0.00802150527983275	-0.00848154884851495	0.566650390625	-0.378173828125	0.361328125	0	0	0	0.266014285491743	-0.276313233675348	0.516106356711063	0.765846998670506	0.314570450916611	0.643510473707754	0.697810648842896	-0.937523543419997	0.3257412569535	0.122238451608189	-0.148643993969934	-0.692666516981135	0.70577479362038	9.82600983818968	-44.2516149061909	63.9489961211474
13998	1655201569892	6.91748618302139	1.18148319611567	6.91074856967413	0.0416735750621353	0.0493901082009197	0.0362611736513934	0.00353051864821641	0.00101770934297818	-0.0122166389837328	0.56591796875	-0.36572265625	0.355712890625	0	0	0	0.266026508007576	-0.276301247154885	0.516075993552173	0.765867538636472	0.314646379399585	0.643484789984845	0.697800101023848	-0.937498613739854	0.325790931832865	0.122297252509312	-0.148640523298949	-0.692667015089959	0.705775035715901	9.83064098253017	-44.2507711868917	63.9426374505342
13999	1655201569892	6.90877618766332	1.20027059785139	6.88270247786638	0.0235141520439677	0.0681949520129767	0.0126995422021867	0.000206036192339395	0.00462367461360782	-0.00594651126516711	0.571533203125	-0.364013671875	0.36376953125	0	0	0	0.265992846330528	-0.27642071318448	0.516070237242042	0.765839999775743	0.31452619911105	0.643402596178118	0.697930060467389	-0.937506325316735	0.325838631867852	0.122110916684782	-0.148846095225463	-0.6927209288117	0.705678790047135	9.8172670246614	-44.2611674779269	63.9483864373188
14000	1655201569893	6.9249718529143	1.21869031998393	6.93181851062565	0.0040662436020804	0.0509925159668193	0.0609103773533501	0.000206125232642323	0.0046234101965528	-0.00594655500624173	0.56396484375	-0.36962890625	0.3583984375	0	0	0	0.265974102449412	-0.276412862150404	0.516063988986813	0.765853553713156	0.314547777817681	0.643421553986022	0.697902858094285	-0.937496205649729	0.325871472194497	0.1221009746159	-0.148864232985362	-0.692687871610297	0.705707412928103	9.81609286726214	-44.2589912331845	63.9475016008248
14001	1655201569894	6.9190099510399	1.17963141428604	6.88746358473018	0.0454327781787573	0.0639710037955414	0.0206857706585541	0.000455871746807843	0.00324698382623114	-0.00359522761277038	0.56787109375	-0.367919921875	0.3544921875	0	0	0	0.266008998516129	-0.276459250267177	0.516016131628357	0.765856936737836	0.314595269682033	0.64330777116422	0.697986337870171	-0.937470364340587	0.325933129215504	0.122134807745036	-0.148926600299665	-0.692764539248014	0.705618991300312	9.81996633227167	-44.2656700394584	63.9400895809753
14002	1655201569895	6.91605579321751	1.18335618979304	6.91185964677772	0.0373452666728708	0.0468379062169406	0.0362910047725986	0.000678764411360643	0.0071375813049756	-0.00502321599952482	0.562744140625	-0.365478515625	0.366455078125	0	0	0	0.265984628926146	-0.276442076827033	0.516016963906057	0.765871038945691	0.314612542241464	0.643346210071843	0.697943122503947	-0.93746358296949	0.325957340272391	0.122122245838162	-0.148932799847351	-0.692717450558845	0.705663910669154	9.81836311492859	-44.2622124958381	63.9401991938196
14003	1655201569896	6.89365617578503	1.22666412928169	6.90391559162744	-0.00914499487406741	0.0514319548054197	0.0203448217280933	0.00330507326143967	0.00546257904986006	-0.0047913321645452	0.563720703125	-0.362548828125	0.3603515625	0	0	0	0.266009770119153	-0.276464641573117	0.515994922888851	0.76586901211234	0.314633083025553	0.643284452193857	0.697990785491817	-0.937453635197613	0.325976083508168	0.122148576886744	-0.148952022210564	-0.692765982526802	0.705612208322007	9.82114442194043	-44.2660258930812	63.9365520675232
14004	1655201569897	6.89341942650699	1.17317452995655	6.91193311390098	0.0399327755442235	0.0287195412904655	0.0192997077053221	-4.28528254457618E-05	0.00599812600609047	-0.00829827108488068	0.574462890625	-0.37548828125	0.358154296875	0	0	0	0.26599027674977	-0.276449599911309	0.515980426486983	0.765890978446521	0.314679636382376	0.643303696227193	0.697952062011917	-0.937435318578281	0.326026744313784	0.122153941705498	-0.14896895625697	-0.69272427156307	0.705649582766916	9.82105730519607	-44.2629277048146	63.9338827446383
14005	1655201569897	6.89026435548635	1.17711102491261	6.93648526589453	0.0308766378379992	0.00966068711419217	0.0349069792352505	0.00138455690215712	0.0090069020948267	-0.00626736442358962	0.5654296875	-0.375	0.370361328125	0	0	0	0.266000956698557	-0.276524047257639	0.515926457763963	0.765896750549861	0.314708682934769	0.643181472806861	0.698051601189668	-0.937404117289617	0.326126762429164	0.122126392380781	-0.149103875784421	-0.692790681133535	0.705555884647414	9.82016405000466	-44.2708919652085	63.9274975604425
14006	1655201569899	6.92457789324721	1.21821113643209	6.91020694107485	0.00738145929273445	0.0639241852961062	0.0453366019837187	0.00210110873844348	0.00634251484294184	-0.00825046729101556	0.57177734375	-0.373046875	0.365234375	0	0	0	0.265988907372403	-0.276502963734743	0.515915088414244	0.765916205434551	0.314755465184851	0.643202011271267	0.698011582878726	-0.937388896107408	0.326163045402714	0.122146327280685	-0.149100820221759	-0.692754531208727	0.705592024401477	9.82124253284565	-44.2676899178616	63.9248575680241
14007	1655201569899	6.88083041727126	1.19624745894629	6.90909557541631	0.0136439317597442	0.0303521894883444	0.0113306274241971	0.00141125275993907	0.00374058657304363	-0.00248779901061926	0.557861328125	-0.3662109375	0.365234375	0	0	0	0.265931478461216	-0.276514370447865	0.515950951637637	0.765907871224385	0.314668836880076	0.643274039352011	0.697984264430287	-0.937409540747903	0.326150128535297	0.122022319971452	-0.149153866900413	-0.692693730267683	0.705640503398506	9.81080456683132	-44.2655041445422	63.9336162805077
14008	1655201569901	6.88889378608536	1.17857046860366	6.93759865470055	0.0284311140853186	0.010372256177692	0.0349136196209585	0.00020719777802285	0.00462094790615811	-0.00594709593855152	0.567138671875	-0.365234375	0.357177734375	0	0	0	0.265913089644206	-0.276507746084451	0.515943898611958	0.765921398445208	0.31469071968078	0.643290886544543	0.697958871449836	-0.937399002832031	0.326184244481933	0.122012081947917	-0.149173926797906	-0.692662019992786	0.705667390222339	9.80963089433927	-44.2634725025072	63.9326358678862
14009	1655201569903	6.89113203242603	1.17553866131948	6.91381207135571	0.0356370612533308	0.0271786196054642	0.0193205967014567	-0.000498367796049046	0.00275053430246364	-0.00470322746554494	0.57080078125	-0.373779296875	0.36181640625	0	0	0	0.265921218673314	-0.27651166764792	0.515941789715985	0.76591858101141	0.314690734558465	0.643278167650858	0.697970587207518	-0.937399446204159	0.326179950167932	0.12202015556694	-0.149171109264457	-0.692675854301418	0.705654406227731	9.81044439291185	-44.2644098483335	63.9321876318085
14010	1655201569904	6.92330687350687	1.21970163178138	6.91121748566099	0.00456531497877885	0.0642540904396265	0.0453361636183693	0.00189425355977466	0.0017208266318975	-0.00230343901947703	0.566162109375	-0.3671875	0.35498046875	0	0	0	0.26591181950147	-0.276516608847667	0.515947100642887	0.765916482796266	0.31467430873917	0.643286708104543	0.697970121563628	-0.937402846428781	0.326178987175232	0.121996605823929	-0.149184392369795	-0.692668376282157	0.705658938561608	9.80852599386917	-44.2643725931503	63.9336684066387
14011	1655201569905	6.85056182904445	1.19602480135366	6.98128024807066	-0.00883533725008012	-0.0403699608971704	0.0411057541801689	-0.0109661522565486	-0.000353252093963649	-0.00259267289482085	0.57373046875	-0.3662109375	0.361572265625	0	0	0	0.265873658211342	-0.276684581799862	0.515891831594963	0.765906298549077	0.31460252057566	0.643123322509595	0.698153024838868	-0.937375890244813	0.326333631925825	0.121789987527069	-0.149504830808857	-0.692747250242337	0.705513680127108	9.79421283189005	-44.2790081148646	63.9330836281064
14012	1655201569906	6.99353116388128	1.19273206804827	6.87305809308228	0.05515856697911	0.125457394105071	0.0641660506403809	0.0142829233381722	0.00128063839559526	-0.00293753029560167	0.566162109375	-0.370849609375	0.36669921875	0	0	0	0.265913728584934	-0.276659310403211	0.51591090831307	0.765888666583376	0.314591121301606	0.643125617733321	0.69815604717952	-0.937395652841539	0.326251647267283	0.121857509777481	-0.149404874190847	-0.692783734271034	0.705499029834555	9.79973719518845	-44.2792499865961	63.9339838103658
14013	1655201569906	6.86085048073895	1.1290967578708	6.89284070868242	0.0703385661939761	0.0047025301996051	-0.0222628464318575	-0.0102605738361955	0.00151660865224791	-0.00383664806002768	0.568603515625	-0.367919921875	0.36328125	0	0	0	0.265901231318782	-0.27671504112433	0.515849643855191	0.765914137572345	0.314655861900067	0.643035329861926	0.698210035104975	-0.937350810499473	0.326391360235257	0.121828313703179	-0.149549813199173	-0.69280173535662	0.705450642397432	9.79809375439942	-44.2835706974433	63.9261541800794
14014	1655201569907	6.93088149684899	1.25648742852431	6.93223400586682	-0.0331407552010426	0.0643282793621659	0.0699494709774964	0.00472805680105544	0.00466742414660858	-0.00801792137157274	0.56396484375	-0.3740234375	0.355224609375	0	0	0	0.265903279088305	-0.276694718818405	0.51584025747476	0.765927090209286	0.314697722692754	0.643043988760443	0.698183193618303	-0.937340120921365	0.326408549876921	0.121864499664041	-0.149528729825127	-0.692785599652811	0.705470957496182	9.80067083344656	-44.2814225051217	63.9234495530793
14015	1655201569908	6.89253611949074	1.17360976362172	6.89067452646908	0.0370920109316024	0.0407960603240616	0.00376664679812499	-0.00335876741072446	0.0050677329225688	-0.00276875334290077	0.566162109375	-0.365478515625	0.36083984375	0	0	0	0.265856991566056	-0.276795144142997	0.515834845103679	0.765910517483059	0.314597721511442	0.642990817694404	0.698277224303134	-0.937342514902204	0.326468945224618	0.121684171364789	-0.149724024046307	-0.692806492582601	0.705409016428607	9.78729169315087	-44.2889483640047	63.9287682454909
14016	1655201569909	6.9519343687979	1.21419097140638	6.94138376702982	0.00989603284219627	0.0577062092960585	0.0859505137920227	-0.000509730019251412	0.00728339477931908	-0.00396430545844754	0.568603515625	-0.376953125	0.359375	0	0	0	0.26582646243113	-0.276784380388345	0.515837129632667	0.765923465064704	0.314604924930742	0.643030298084913	0.698237622127417	-0.937336748864217	0.326496695127365	0.121654129808926	-0.149744984683897	-0.692756771035647	0.705453397288782	9.78431842518888	-44.2857786387442	63.9296391047296
14017	1655201569910	6.90240318116032	1.15275558933265	6.89586389287602	0.0574725356678074	0.0370041096092296	0.0117862344696675	0.00352819512762167	0.00934956635860881	-0.00621923064588599	0.5625	-0.369140625	0.37255859375	0	0	0	0.265804959575249	-0.276839183993935	0.51582650160369	0.765918278874496	0.31456617289774	0.642991436391596	0.698290867472532	-0.937332348833008	0.326541487416996	0.121567778735536	-0.149853897846087	-0.692771729881184	0.705415579341544	9.77802159478208	-44.2900403915706	63.9310583025586
14018	1655201569910	6.9208510025789	1.16814281400601	6.92115392094789	0.0454883511187859	0.0369138294505655	0.0443748731802138	0.00520044999403216	0.00718056264646337	-0.00709423757963602	0.567138671875	-0.37158203125	0.367919921875	0	0	0	0.265800785435942	-0.276810523873645	0.51582445900638	0.765931461571602	0.314602122727147	0.643019454277176	0.698248870959814	-0.937325272927373	0.326550139904824	0.12159909070287	-0.149822685555953	-0.692741645600452	0.705451752668869	9.77999963832184	-44.2866789685567	63.929459140022
14019	1655201569911	6.89815501251779	1.21179025566482	6.91339518615659	-2.89991195355499E-05	0.0441838343371309	0.0283521566099161	0.000887680319332166	0.0117509669037823	-0.0109717834519799	0.56884765625	-0.3681640625	0.360107421875	0	0	0	0.265748517808201	-0.276681845315834	0.515859156926604	0.765972722732567	0.314672973375195	0.643212505360954	0.698039105476547	-0.937323666549437	0.326534110995435	0.121654504572336	-0.149683880072415	-0.69256995841843	0.705649763510738	9.78167782804112	-44.2698921075511	63.9311554444504
14020	1655201569912	6.87314993410122	1.2047649940283	6.93733090555388	-0.00434482529886272	0.0099203988118701	0.0269310962885303	0.0061552948116425	0.00767477709346936	-0.00598622662701619	0.5693359375	-0.3671875	0.36474609375	0	0	0	0.265744994748232	-0.276649465751123	0.515863875765598	0.765982462296609	0.314699069559428	0.643248941891343	0.697993763850436	-0.937321785183876	0.326528118892716	0.121685079578788	-0.14964079202591	-0.692538942102213	0.705689341731761	9.7835505841594	-44.2662641923669	63.930561025294
14021	1655201569913	6.8966088732415	1.21329164166057	6.91467429557508	-0.000885216813695501	0.0429514495798225	0.0283575727754748	-0.0014897526301818	0.0120474892873227	-0.00885394095349216	0.56298828125	-0.37451171875	0.354248046875	0	0	0	0.26575317392306	-0.276648725242485	0.515805004091387	0.76601953703924	0.314821361151984	0.643192867283298	0.697990290790855	-0.937273974463134	0.326640896608208	0.121750652799348	-0.149683022940123	-0.692537840221657	0.705681466743056	9.78882786677475	-44.2659863120159	63.919800276116
14022	1655201569914	6.928458685711	1.20356880255355	6.92030432962995	0.0176096882675626	0.0572284512810937	0.0533728635299404	0.0035424657264666	0.00861736266709708	-0.00170041417201775	0.56591796875	-0.37841796875	0.362548828125	0	0	0	0.26573158638844	-0.276625324607382	0.515823405045212	0.76602308619839	0.314809289186846	0.643249100645918	0.69794391319066	-0.937281446018466	0.326625877606092	0.1217334260899	-0.149661626314855	-0.692492693532768	0.705730307562687	9.78680536470578	-44.2622757546998	63.9226456220371
14023	1655201569915	6.89780331611579	1.21070374953099	6.89187472240472	0.00196655645882896	0.059916676547753	0.0127814516811764	0.00258843743585476	0.00812151381396906	-0.00280855884983056	0.560791015625	-0.370361328125	0.361083984375	0	0	0	0.265624650958196	-0.276753729512341	0.515881717632532	0.765974523999888	0.314546853227036	0.643279280601458	0.698034414820531	-0.937329731813836	0.326619196431689	0.121379052476609	-0.149910810093107	-0.692467809844753	0.705701836008693	9.75925010363508	-44.2695167841562	63.9425682810072
14024	1655201569916	6.90539853435381	1.1929607734973	6.9208582678269	0.0166695773269923	0.0399007694963041	0.0363782475561472	-0.00100474397178194	0.0138302444590731	-0.00341229766415606	0.572998046875	-0.368408203125	0.3583984375	0	0	0	0.265573850875894	-0.276720883814875	0.515894543460668	0.765995366969782	0.314556744976445	0.643365998806731	0.697950030997377	-0.93732532173672	0.326646699516913	0.121339090675102	-0.149917628786533	-0.692374266761932	0.705792164383325	9.7548741981423	-44.2627652119051	63.9449049724725
14025	1655201569917	6.90202888035879	1.19654809877746	6.9456464919068	0.00765217174956787	0.0214758716773964	0.0519573546869925	0.000445433008383653	0.00777455286881965	-0.00285766742078914	0.56298828125	-0.364013671875	0.358154296875	0	0	0	0.265563589547495	-0.276780023513077	0.515879003627722	0.765988023474793	0.31452334440034	0.643308883563543	0.698017726247302	-0.937319669800233	0.326689667045438	0.121267052620747	-0.150023006345051	-0.69240706363668	0.705737596981501	9.7499333153739	-44.2681814654313	63.945298566201
14026	1655201569918	6.90403893724956	1.19354146955162	6.92211445370829	0.0146546199303619	0.0386908109519087	0.0363862792527101	0.00282431335441514	0.00747549669550395	-0.0049756323389769	0.5634765625	-0.379150390625	0.364501953125	0	0	0	0.265546063310343	-0.27676005499914	0.515882461470155	0.765998985746552	0.314538315808735	0.643345798327995	0.697976956397501	-0.937315970674298	0.326701148415748	0.121264713510282	-0.150014729300504	-0.692367347148569	0.705778320434505	9.74919709421153	-44.2649194361282	63.945519717661
14027	1655201569919	6.90080349891517	1.19738329110113	6.94672005814214	0.00508064351031467	0.0215684647184872	0.0519588122755117	0.00115169921861596	0.0096425858993295	-0.00410180334214444	0.568603515625	-0.3818359375	0.361083984375	0	0	0	0.265481923868658	-0.27678425038639	0.515924745768753	0.765983996921925	0.314424270882984	0.643417767171508	0.697962000948286	-0.937342628328002	0.326682009604887	0.121110122284088	-0.150087224635738	-0.692309498337661	0.70581965367408	9.73644735205708	-44.2637228836819	63.9562459228605
14028	1655201569919	6.90541069904986	1.19082966447304	6.8991746903755	0.0196770478856208	0.0559865830471995	0.0208197391850096	-0.000260493971450893	0.00590480289710749	-0.00161403706113438	0.5634765625	-0.370361328125	0.36669921875	0	0	0	0.265451652169678	-0.276783020296504	0.515934965356461	0.765988049226984	0.314404542396345	0.643455015222334	0.6979365494841	-0.937345055343215	0.326693063766032	0.121061510443195	-0.150113393620189	-0.69226966239493	0.705853160071867	9.73216087708292	-44.2616866242584	63.9589724076549
14029	1655201569920	6.89128362614475	1.21593189713855	6.91951809858423	-0.0134628827477151	0.0420773341715523	0.0283521800218178	0.00138771677345026	0.0089968719355239	-0.00626902632573576	0.557373046875	-0.367431640625	0.35888671875	0	0	0	0.265357127702199	-0.276826258011323	0.515974431767869	0.765978592008231	0.314275217274547	0.643535096118735	0.697920961048233	-0.937366378912464	0.326711961078928	0.120845215761721	-0.150250988321449	-0.692186300464993	0.705905635306176	9.71439612145579	-44.2604394970659	63.9710810040887
14030	1655201569920	6.89322073738542	1.21298565417571	6.89605720815532	-0.00647552771431839	0.0592994405929708	0.0127832591957393	0.00354295523788639	0.0086145498339502	-0.00170016083663688	0.569580078125	-0.37255859375	0.3642578125	0	0	0	0.265334017904144	-0.276805098222978	0.515993606368608	0.765981327923423	0.314259071568972	0.643591317836736	0.697876387006884	-0.937374553388152	0.326696914259124	0.120822484968364	-0.150233759844357	-0.692141128541528	0.705953593081223	9.71195642397614	-44.2568735701011	63.9742152779135
