// Start Time : 14/06/2022 10:12:05																																
// Update Rate : 100Hz																																
// Filter Profile : 46.1 human																																
// Firmware Version : 4.3.5																																
PacketCounter	Time_Of_Arrival	Acc_X	Acc_Y	Acc_Z	FreeAcc_X	FreeAcc_Y	FreeAcc_Z	Gyr_X	Gyr_Y	Gyr_Z	Mag_X	Mag_Y	Mag_Z	VelInc_X	VelInc_Y	VelInc_Z	OriInc_q0	OriInc_q1	OriInc_q2	OriInc_q3	Mat[1][1]	Mat[2][1]	Mat[3][1]	Mat[1][2]	Mat[2][2]	Mat[3][2]	Mat[1][3]	Mat[2][3]	Mat[3][3]	Euler_X	Euler_Y	Euler_Z
13805	1655201569713	9.09941146223571	-0.0577297887378173	3.42173804966196	3.03576608295941E-15	-1.95156391047391E-16	-0.0910150317251421	0.00400514482310679	-0.00819490021925676	-0.00390025080669374	0.5693359375	-0.424560546875	0.10595703125	0	0	0	0.345960841078232	-0.452003237695303	0.503875678122068	0.649702601618949	0.0836047482199774	0.341987837370538	0.935977865745604	-0.967489518503142	0.252840794874936	-0.00596355880056859	-0.238692852137703	-0.905050192827797	0.35200833910681	-0.970585148256581	-69.3867045245362	76.2625110311822
13806	1655201569714	9.11869622421214	-0.0610118874522337	3.43572418341183	-8.06646416329215E-15	1.26851654180804E-15	-0.0680199084898607	0.0106189115113216	-0.0118599928513341	-0.00503201387410566	0.565185546875	-0.4287109375	0.110595703125	0	0	0	0.348889737163554	-0.449400682107715	0.508678718626546	0.646189553799442	0.0785699762751517	0.343823176709754	0.935741621381316	-0.970988320156484	0.239043825036803	-0.00630331908305298	-0.22585048361208	-0.908098933414739	0.352629956446133	-1.02406252135403	-69.3482911925764	77.1278773718814
13807	1655201569715	9.1366654128198	-0.0351704996576007	3.41901338007537	-0.0192430002743189	0.0246794934421165	-0.0572496551848687	0.0134996973165317	-0.0107586977676703	0.000894008362870021	0.5693359375	-0.424560546875	0.110595703125	0	0	0	0.347458292990361	-0.450714722240963	0.506279570931316	0.647927441805853	0.0810744704257069	0.342855718433246	0.93588294491502	-0.969273990495124	0.245907461379653	-0.00611978655421802	-0.232238802948272	-0.90663083820011	0.352257947574951	-0.995300952399865	-69.3712621766271	76.6957564045081
13808	1655201569716	9.13706512068387	-0.0348574928538722	3.41794825688301	-0.0192430002743191	0.0246794934421152	-0.0572496551848651	0.0157954436028095	-0.0126683446568008	0.00321504279364904	0.57373046875	-0.424560546875	0.110595703125	0	0	0	0.3475342859564	-0.450721361627982	0.50630357143138	0.647863309512756	0.0810138954560933	0.34274876165397	0.93592736637396	-0.969313267968678	0.245753227281207	-0.00609424488759153	-0.232095965675639	-0.906713095563055	0.352140348513985	-0.991478707124917	-69.3784875762151	76.7013423094739
13809	1655201569718	9.13479754513862	0.0235795950601472	3.35552469454392	-0.0616922498105145	0.0935441872570946	-0.0817022348868388	0.019025661081911	-0.0147468410161234	0.00747414458365035	0.565185546875	-0.4267578125	0.11962890625	0	0	0	0.347619623423908	-0.45072990078977	0.506342971748422	0.647780787694141	0.0809187029900427	0.342633381408299	0.935977846666856	-0.96936361492204	0.245554784743195	-0.00608520788456707	-0.231918834016741	-0.906810461802487	0.352006307889329	-0.990385671796618	-69.3867014195677	76.7120996224705
13810	1655201569719	9.08726177556411	-0.00408934816314446	3.4080605892042	-0.0513467922314037	0.0215270285491358	-0.107527897336631	0.0200384157746299	-0.0133049661369495	0.00952367152278303	0.569580078125	-0.4267578125	0.10595703125	0	0	0	0.347696744388425	-0.450738812038746	0.506395847994771	0.647691857596842	0.080795536911114	0.342536099903366	0.936024092359933	-0.969417769964878	0.245340438150695	-0.00610382538640697	-0.231735341481544	-0.906905226399659	0.351882994527181	-0.993763180403572	-69.3942289834387	76.7279742594341
13811	1655201569722	9.1266021571793	0.0410859882696	3.40937559577064	-0.0927367651064442	0.0436591665323907	-0.0705166297443611	0.018598380407811	-0.0131733187954248	0.00902957600174908	0.569580078125	-0.4306640625	0.1083984375	0	0	0	0.3477716237213	-0.450749898625035	0.50644296117562	0.647607098246646	0.080680111930381	0.342436064754684	0.936070649627595	-0.969468161302843	0.245140849619841	-0.00611948263719508	-0.23156468590652	-0.906996970999897	0.351758853247542	-0.996663365943108	-69.4018099212359	76.742530043866
13812	1655201569722	9.07773972448162	0.0426832517834502	3.43125676888114	-0.103676391635774	0.00607471866701154	-0.108568779213464	0.0208912295787195	-0.0164458753208266	0.00641480660503943	0.5673828125	-0.430908203125	0.110595703125	0	0	0	0.347866454138083	-0.450761400086224	0.50648221436739	0.647517456758665	0.0805798534436245	0.342302610860714	0.93612809476959	-0.969521690501963	0.244929393229804	-0.00610606078373926	-0.231375406785637	-0.907104467484323	0.351606180555409	-0.994909555398173	-69.4111674154203	76.7534433970933
13813	1655201569723	9.07697723705804	0.0720342599452633	3.39901879828872	-0.124854610699252	0.0404600929474031	-0.120793455391496	0.0169190619968335	-0.0192349329327585	0.00326723941125888	0.5673828125	-0.4287109375	0.1083984375	0	0	0	0.347966944960299	-0.45078417532751	0.506494449267765	0.647438032054216	0.0805140002704796	0.342131554310288	0.936196291012559	-0.969563523610935	0.244764756151878	-0.00606529711223408	-0.231222986408344	-0.90721343337229	0.351425264978585	-0.98877758958578	-69.4222814885262	76.757503228569
13814	1655201569724	9.11421108168483	0.0936020923988939	3.39626798084956	-0.142354901687999	0.0589423504181569	-0.0870253447055784	0.0138816471513606	-0.0221926351070472	0.00205803050677151	0.57568359375	-0.424560546875	0.11279296875	0	0	0	0.348063443102809	-0.450824438960096	0.506493783747158	0.647358642359256	0.0804427445236036	0.34193524350124	0.936274134057573	-0.969597269338613	0.244631773201809	-0.00603579582533187	-0.231106252932751	-0.907323307753023	0.351218329623465	-0.984548808733776	-69.4349747420115	76.7614817353137
13815	1655201569725	9.16428472346589	0.0921542595159391	3.37106751992672	-0.131153927595242	0.0964221136334445	-0.0489685914760258	0.00625549680598364	-0.0199682392080254	0.00114302935839576	0.57177734375	-0.4306640625	0.110595703125	0	0	0	0.348141914439971	-0.450869276700298	0.50646976777698	0.64730400668137	0.0804105393113654	0.341746833584831	0.936345687714958	-0.969612806195256	0.244571163476009	-0.00599600351491791	-0.231052269475578	-0.90741062795778	0.351028205475645	-0.978588853546354	-69.4466490493897	76.7595563944131
13816	1655201569726	9.20287613643225	0.0842577812881972	3.39898932323171	-0.127367841371993	0.0804711826730265	-0.0029749051652761	0.000926128110423877	-0.0196523466610122	0.00254951477621316	0.565185546875	-0.422607421875	0.10595703125	0	0	0	0.348188929334657	-0.450934972339555	0.506445895580939	0.647251631947831	0.0803404111406908	0.341574734379161	0.936414501794772	-0.969616995253013	0.244554048676013	-0.00601662635449429	-0.231059085201738	-0.907480037306593	0.350844240419819	-0.982468770688249	-69.4578823696575	76.7642666113107
13817	1655201569727	9.18080296273765	0.0928870533862548	3.34839242396117	-0.126182723362135	0.118968185183095	-0.0414322200478772	-0.00584318476875394	-0.019206127292475	0.00346288467294848	0.5673828125	-0.4287109375	0.110595703125	0	0	0	0.348230171678515	-0.451009190940893	0.506397134006669	0.647215883526838	0.0803053047133453	0.341386521023299	0.936486145812369	-0.96960655298304	0.244595380405168	-0.00601932693904544	-0.231115102161768	-0.907539719873494	0.350652914439187	-0.983445866408978	-69.4695839018014	76.7628094705137
13818	1655201569727	9.19657758461792	0.0935781056021929	3.32771670594098	-0.121658364828446	0.141747663410543	-0.0339041429972156	-0.0080616318808997	-0.0156878120079792	0.00125307978961533	0.57373046875	-0.4306640625	0.103759765625	0	0	0	0.348240977975707	-0.451082549836392	0.506355692772584	0.647191368057716	0.0802568912597904	0.341247210453001	0.936541068380538	-0.969588923664204	0.24466426731064	-0.00605932414035099	-0.231205861761774	-0.90757354393977	0.350505508983244	-0.990395621549798	-69.4785586624737	76.7652982646062
13819	1655201569728	9.19837357919169	0.0640372806431135	3.35726358647902	-0.0997142127091643	0.106853941224121	-0.0216692680122517	-0.00766746873026731	-0.00763972576794122	0.00180580448769905	0.57177734375	-0.4306640625	0.106201171875	0	0	0	0.348263681267453	-0.45111998110519	0.506308633690378	0.647189878171992	0.0802846601964711	0.341138235285012	0.936578388477849	-0.969573056537002	0.244727951521248	-0.00602642362517108	-0.231262753971827	-0.907597341430021	0.35040634191539	-0.985297810989081	-69.4846591906827	76.7568001089548
13820	1655201569729	9.16452075415566	0.0663254103735534	3.36067340958857	-0.106134704903306	0.0920519060418702	-0.0521941755250115	-0.0155303716941549	-0.0102441387158533	0.000562196035331901	0.57177734375	-0.4306640625	0.103759765625	0	0	0	0.348238090049695	-0.45119342330512	0.506257581840154	0.647192388887654	0.0802555111911344	0.341046635617715	0.936614245704862	-0.969537579516748	0.244866986935801	-0.00608610004738969	-0.231421552212093	-0.907594265651133	0.350309454809495	-0.995327883690285	-69.4905222264546	76.7580085736326
13821	1655201569729	9.14576488330731	0.0696687645849367	3.34524402368763	-0.107183413022602	0.0993803760109453	-0.0751742380201516	-0.012255577782553	-0.00245732859811735	0.00210219853993555	0.567138671875	-0.42041015625	0.10595703125	0	0	0	0.348243486738499	-0.451224764714826	0.5062022955209	0.647210878818979	0.0803108954348432	0.340967094354433	0.936638457806399	-0.969511435822631	0.244971419907169	-0.00604807719902734	-0.231511848257478	-0.907595969579064	0.350245371304527	-0.989291761211143	-69.4944820683653	76.7462104825658
13822	1655201569730	9.15491709995381	0.0510861129831732	3.28852692377018	-0.0761142195638578	0.149238988687289	-0.086359149865082	-0.0163019824769132	-0.00549084084902345	0.00378237318388154	0.571533203125	-0.426513671875	0.1083984375	0	0	0	0.348196095934767	-0.451290377946815	0.506168192873015	0.6472173005043	0.0802615105925738	0.340926527316813	0.936657457606086	-0.969476718252839	0.245106478598906	-0.00614059561856667	-0.231674303027126	-0.907574744646711	0.350192947096815	-1.00457237315053	-69.4975899609826	76.7525525563023
13823	1655201569732	9.12853403348522	0.0427438511463889	3.36012098882998	-0.0867644674589975	0.0720132568688678	-0.0859376684495086	-0.0124852916937591	-0.00592057324369152	0.00670586948247846	0.578125	-0.4306640625	0.103759765625	0	0	0	0.34821265260467	-0.451342270651306	0.506111899308143	0.647216230226071	0.0802818002040554	0.340801492493334	0.936701219850979	-0.969453849677759	0.245197387889447	-0.00612162700313384	-0.231762951959474	-0.907597148346395	0.350076206578685	-1.00180372427311	-69.5047500867438	76.7446319273029
13824	1655201569732	9.12640925211892	0.017653383115296	3.35609341419929	-0.0628489711492293	0.0683362941250643	-0.0891900234855924	-0.0126433511601944	-0.00913893280781654	0.00648393717946935	0.573974609375	-0.4326171875	0.1083984375	0	0	0	0.348180232552347	-0.451415125925525	0.506088434998942	0.647201209598497	0.0801977600919283	0.340734447545459	0.936732809040085	-0.969429741635044	0.245290043240231	-0.00622661389666884	-0.231892853080146	-0.907597284561328	0.349989819490872	-1.01923268763584	-69.5099200153937	76.7555049762998
13825	1655201569735	9.10162262367387	0.0015481690704474	3.30297274964179	-0.0370261817247809	0.102345358665872	-0.130883809643628	-0.0118651618569215	-0.0125262501796062	0.00819890733114281	0.573974609375	-0.4326171875	0.1083984375	0	0	0	0.348221035993541	-0.451488065708246	0.506020475707505	0.647181516098353	0.0802036093755549	0.340538913331095	0.936803410300374	-0.969409481249676	0.245370776512671	-0.00619997554861712	-0.231975513161126	-0.907648847595174	0.349801273229224	-1.01542008976934	-69.5214792268153	76.7472359375647
13826	1655201569736	9.11962679036686	0.0255599317532048	3.28601287759908	-0.0564139803120165	0.128799013612897	-0.12009458602429	-0.0110078995072436	-0.0143041716272599	0.0100248604247295	0.571533203125	-0.426513671875	0.1083984375	0	0	0	0.348198975800057	-0.451579656341487	0.506003156192316	0.647143023723281	0.0800732398038393	0.340433677363143	0.936852809989021	-0.969391972684133	0.245436558350412	-0.00633238664886993	-0.232093687037978	-0.907670538875264	0.349666574460592	-1.03750086403925	-69.5295709194513	76.764073311518
13827	1655201569737	9.14060028952974	-0.00874661502534374	3.32983740177998	-0.0319635859529563	0.0850565579322998	-0.0848813119094593	-0.00938088152725146	-0.0208331915267553	0.00862860643688153	0.571533203125	-0.426513671875	0.1083984375	0	0	0	0.348278711441026	-0.451678234781655	0.505920724583483	0.647095767115216	0.0800619853229029	0.340138491556245	0.936960983749055	-0.969378145939094	0.245492319187803	-0.00628739973898723	-0.232155311552072	-0.907766119538306	0.349377422763012	-1.03098415755626	-69.5473005334483	76.7547877375888
13828	1655201569737	9.20957057899613	-0.0155215977576462	3.31947245396979	-0.0190954311312954	0.114635936710099	-0.023825218181674	-0.00548410027944519	-0.0196549252711482	0.0116621845434039	0.569580078125	-0.4267578125	0.1083984375	0	0	0	0.348284348900607	-0.451776001242138	0.505911843396986	0.64703142406162	0.0799033028246545	0.339988700082507	0.937028892838379	-0.969374741848658	0.245502438043087	-0.00641582268679042	-0.232224184923878	-0.907819495676925	0.349192914025088	-1.05259354124526	-69.5584383123105	76.7744972522675
13829	1655201569738	9.1746023512526	0.0154196883686982	3.29148200542583	-0.045558349317809	0.132740565891563	-0.066522784732177	0.000506284209252102	-0.0167148566940411	0.00902963602582257	0.578125	-0.4306640625	0.106201171875	0	0	0	0.348392354139474	-0.451842314061895	0.505855323758004	0.646971160273803	0.0798978292977528	0.33971079649309	0.937130146574923	-0.969384426476495	0.24546631800568	-0.00633406895841654	-0.232185638182775	-0.907933291310967	0.348922581600693	-1.03998875536978	-69.5750557472239	76.7649334666089
13830	1655201569738	9.24096387456347	-0.0150080110535844	3.27829980985487	-0.00876794062504042	0.158634766592296	-0.00872662129706114	-0.00307330682998271	-0.0114547769985219	0.00644234322918692	0.577880859375	-0.42431640625	0.103759765625	0	0	0	0.348396835812673	-0.451898350733314	0.505849266931244	0.646934343303361	0.0798087994992674	0.339622615616399	0.937169693537067	-0.969382437634206	0.245472327881681	-0.00640514252088942	-0.232224557549046	-0.907964655262651	0.348815050800457	-1.05197982040971	-69.5815495819633	76.7758509217182
13831	1655201569739	9.22863896283331	0.00737028950964404	3.2995214751803	-0.0358606991738251	0.137560286077284	-0.0129697959229116	0.00497643175616582	-0.0152530681064208	0.00579238514396885	0.571533203125	-0.42236328125	0.108154296875	0	0	0	0.348537154922976	-0.451952656435574	0.505781187232603	0.64687405159011	0.0798483739648137	0.339308865538547	0.937279964014018	-0.969398037674292	0.245414484559553	-0.00625901922039612	-0.232145819967554	-0.908097585359257	0.348521295958051	-1.02885202004636	-69.5996670690381	76.7577210613666
13832	1655201569739	9.21005202331043	0.010870368179847	3.28357518037128	-0.0377719497094356	0.14555431252978	-0.0359583826029599	0.0062323329576079	-0.00898614280818351	0.00817415674907851	0.57373046875	-0.424560546875	0.1015625	0	0	0	0.348561596112704	-0.451980205002638	0.505806005799784	0.646822226348173	0.0797483575652849	0.339247250209253	0.937310782340148	-0.969419016877519	0.245330196424466	-0.00631382915171996	-0.23209258752029	-0.908143379620087	0.348437416002276	-1.03810945686053	-69.6047332881383	76.7714069579177
13833	1655201569740	9.26200404807502	0.0327117586432012	3.26284869507259	-0.0494206553342636	0.184548902461491	0.00543210660443272	0.00927279514246261	-0.00603066443465414	0.00938089348168453	0.57373046875	-0.424560546875	0.10595703125	0	0	0	0.348693313045333	-0.452006881047762	0.505773589379871	0.646757937105332	0.0797657115425516	0.339002612875705	0.937397812951126	-0.969449720363034	0.245212099446541	-0.00618594964860669	-0.231958338824337	-0.908266620959101	0.348205505845887	-1.01776543437167	-69.619046744684	76.7594174890007
13834	1655201569741	9.21139477145227	0.0630498169356306	3.25532014481865	-0.0816940126437141	0.181450211053486	-0.0448175812056117	0.00857464995210167	-0.00103396434334902	0.00777787598530788	0.569580078125	-0.4267578125	0.1083984375	0	0	0	0.348706129218581	-0.452002100978518	0.505816245949877	0.64672100745961	0.0796880520883582	0.339012178278515	0.937400958679486	-0.969475790402055	0.245107921557135	-0.00622885336565904	-0.231876057795264	-0.908291170147986	0.3481962723128	-1.02484999184587	-69.6195642859385	76.7722151283202
13835	1655201569741	9.21281065410562	0.0333675347215132	3.28594005616279	-0.0589318454977119	0.144323915728065	-0.0326007975469604	0.0111123609067785	0.0018835419641947	0.0104287005820115	0.57373046875	-0.4287109375	0.106201171875	0	0	0	0.348841685864733	-0.452005797679011	0.505792382099131	0.646663980192263	0.0797296501500966	0.33879850095234	0.937474670932176	-0.969512358884259	0.244967088827075	-0.00607547218483412	-0.231708801856175	-0.908408884337904	0.348000474135224	-1.00018126816366	-69.6316951711657	76.7575001687071
13836	1655201569742	9.21130354535505	0.0620784580313277	3.25559693776773	-0.0802297712335847	0.178772237175701	-0.0447560653347505	0.0121983563270296	0.00356847362738808	0.00765088338633595	0.57373046875	-0.426513671875	0.110595703125	0	0	0	0.348854857108021	-0.451976735530459	0.505850861868916	0.646631444300265	0.0796638721714086	0.338849587842406	0.937461798842859	-0.969546705800918	0.244830388437234	-0.00610460221971909	-0.231587678301859	-0.908426682631408	0.348034638422743	-1.00487721921736	-69.6295763025021	76.7699656782593
13837	1655201569743	9.13904750717092	0.0723658147230575	3.23062102485584	-0.0888356815533017	0.176924981184012	-0.121188815472163	0.00839114160541036	0.00536545555869138	0.00966643034946822	0.569580078125	-0.4287109375	0.10595703125	0	0	0	0.348993911276522	-0.451979563608291	0.505808226853161	0.646587783382919	0.0797450234562415	0.338622608994233	0.93753691122638	-0.969575071877084	0.244722575079154	-0.00591956427230728	-0.231440945445074	-0.908540362297992	0.347835447944749	-0.974982031637383	-69.6419434961855	76.7483995657792
13838	1655201569743	9.17304974281089	0.0688506013815967	3.22676229572074	-0.0823783301092018	0.191678619039423	-0.0906479687953769	0.00636741966384198	0.0038506532674186	0.0105078934950798	0.569580078125	-0.4306640625	0.11279296875	0	0	0	0.348981050491612	-0.451969298407655	0.505863288463954	0.646558824144484	0.0796521733626536	0.338683304837712	0.937522879882305	-0.969598187030752	0.244629119564411	-0.00599579584535764	-0.231376072629137	-0.908542906463611	0.347871959389327	-0.987431656967454	-69.639632700301	76.7655741101785
13839	1655201569744	9.14744583526488	0.113816152294276	3.27199702260955	-0.137483312288235	0.150151243689513	-0.0991279328937526	0.00392059964239148	0.00390756440192984	0.0129045762199509	0.5673828125	-0.430908203125	0.1083984375	0	0	0	0.349114843203118	-0.451994533807943	0.505814879534025	0.646506825412526	0.0797044980994407	0.338429542429871	0.937610067028625	-0.969621545625976	0.244540267794484	-0.00584086336892525	-0.231260137595325	-0.908661379303484	0.347639535326006	-0.962564095764459	-69.6539954596116	76.7476069400892
13840	1655201569745	9.16768789905487	0.0795648493158693	3.31786556923364	-0.114252899685702	0.107674863662153	-0.0640250862227223	0.00061673924548479	0.00574276488917456	0.0134752884770609	0.571533203125	-0.42236328125	0.103759765625	0	0	0	0.349071824906525	-0.451997868397939	0.505869958326765	0.646484627259323	0.0795870244523933	0.338514861350079	0.937589245983523	-0.969633744452191	0.244488892637812	-0.00596514847765151	-0.231249447909478	-0.908643422923357	0.347693576040295	-0.982889326851161	-69.6505646260944	76.7696694668269
13841	1655201569746	9.17882966447899	0.0841111630977778	3.2654256338098	-0.105193896500788	0.157757492503697	-0.0717921428228401	-0.00376286775270474	0.00726037255748772	0.021760371176906	0.57373046875	-0.4287109375	0.103759765625	0	0	0	0.349159416021982	-0.452046404202693	0.505833173366704	0.646432170743671	0.0795736983383707	0.338301155574698	0.937667507525764	-0.969646189599694	0.244441005849917	-0.00590437582434816	-0.231201845856707	-0.908735892763076	0.347483501301209	-0.973465681023119	-69.6634632175938	76.7637446477163
13842	1655201569746	9.15856173118076	0.0328912207714749	3.27859598958125	-0.0619088601241345	0.127658493373058	-0.0859511806057611	-0.0026758547458889	0.00894474069027826	0.0189825321596542	0.57373046875	-0.4306640625	0.106201171875	0	0	0	0.349085184959024	-0.452057376324094	0.505904201174917	0.64640900472276	0.0794101354890913	0.338428996680708	0.937635240691866	-0.969655127985458	0.244400945751386	-0.00609183776329209	-0.231220594137093	-0.908699065654586	0.347567324306202	-1.00412447991557	-69.6581442453278	76.7948119217453
13843	1655201569747	9.14307438692642	0.0300143155274311	3.29860948328991	-0.0642072237879924	0.100953915512306	-0.0934682557387756	-0.00641293589700007	0.0109875959328861	0.0161718255328777	0.5673828125	-0.424560546875	0.10595703125	0	0	0	0.349183523690961	-0.452099300987235	0.505820797058382	0.646391839438618	0.0795030866201523	0.338185616919864	0.937715174094138	-0.969648124827638	0.244432376091974	-0.00594369718928411	-0.231218021002072	-0.908781217910319	0.347354177659234	-0.980312182900204	-69.6713231719714	76.7707178979034
13844	1655201569748	9.17831379676656	-0.00383646371449862	3.32571917228736	-0.0364264645354489	0.0812075745915932	-0.0508256043269242	-0.00622205071040962	0.00595467773794443	0.0192205719199581	0.57373046875	-0.426513671875	0.114990234375	0	0	0	0.349104843690795	-0.452129423400498	0.505879306997505	0.646367480121705	0.0793302224945142	0.338286722450904	0.937693344976062	-0.969649009187864	0.244423869726699	-0.00614580253664931	-0.231273679392975	-0.908745874995453	0.347409585214318	-1.01347756708209	-69.66772330957	76.8022815877738
13845	1655201569748	9.19574662240489	0.0198202442036003	3.31044754533742	-0.0535388940042821	0.103763552430785	-0.039889485332278	-0.00328189993554976	0.00456827263235746	0.0104434893370724	0.571533203125	-0.424560546875	0.103759765625	0	0	0	0.349253811705107	-0.452160015488954	0.505795405608529	0.646331264188718	0.0794446561166641	0.337985550035298	0.93779225555655	-0.969659985675927	0.244385565349515	-0.00593360158420914	-0.231188362149713	-0.908868232152569	0.347146190804966	-0.979233634093157	-69.6840396425358	76.7725488199332
13846	1655201569749	9.12109764329753	0.00546986655075856	3.28202291731606	-0.0399950938101434	0.101487135501174	-0.119688486637552	-0.00242626256750259	0.00279005595366031	0.0122695094391573	0.578125	-0.4306640625	0.110595703125	0	0	0	0.349211146024945	-0.452178478972778	0.505834562279292	0.646310756718103	0.0793320375151654	0.338041107741999	0.93778176421823	-0.9696641671416	0.244365942191324	-0.00605716588306532	-0.231209495447918	-0.908852846050178	0.34717239729162	-0.999546149750824	-69.6823083918146	76.7927367430802
13847	1655201569750	9.17041885004647	0.00266837034034013	3.25864510102621	-0.0266166715908192	0.134765475495831	-0.0814753795066991	-0.00462403606930692	-0.00330756200746639	0.00795161813785688	0.57373046875	-0.4287109375	0.103759765625	0	0	0	0.349381440949757	-0.452249522664367	0.505696652123791	0.646276932901457	0.0794825305612848	0.337624982831564	0.937918918832306	-0.969655342420829	0.244407009501323	-0.00580780693250466	-0.231194818822394	-0.908996471211306	0.346805955939448	-0.95941755761918	-69.7049524170128	76.7528298788591
13848	1655201569752	9.15913661617873	-0.00428181926117499	3.31143864288926	-0.033750714539111	0.0812032002502963	-0.0737092496118965	-0.000655235740302371	-0.00188938939652255	0.00615905766379242	0.571533203125	-0.4287109375	0.1015625	0	0	0	0.349370211384785	-0.45226795348016	0.505711803688125	0.646258249666743	0.0794185397307431	0.337622949154744	0.937925071501498	-0.969658751194453	0.244392054014909	-0.00586772241911532	-0.231202512484295	-0.909001247600039	0.346788307303638	-0.969362706129266	-69.7059687807853	76.7630425519511
13849	1655201569754	9.18959183495295	-0.00256081320821067	3.27291901957679	-0.0227845685790804	0.122850130062512	-0.0584579083594594	0.00112610419854254	-0.00520317506171733	0.00498516016285167	0.571533203125	-0.42041015625	0.108154296875	0	0	0	0.349542829419948	-0.452335959979821	0.50558463735484	0.646216808958886	0.0795527075598178	0.337212999420691	0.938061170575567	-0.969656164619631	0.244407969743743	-0.00562732093346352	-0.23116723196649	-0.909149128222341	0.346423979420462	-0.930632416110027	-69.728463564163	76.7259213953519
13850	1655201569755	9.20865947300422	-0.00691025154838701	3.28748920585997	-0.0208337442712363	0.114779968335052	-0.0354978973004663	0.00475395034030235	-0.000603971200036711	0.0048588959688448	0.571533203125	-0.42041015625	0.103759765625	0	0	0	0.349548768963007	-0.452334523982379	0.505609916608451	0.646194822601726	0.0795041812816606	0.337219068701927	0.938063102814805	-0.96967097277196	0.244348540687283	-0.00565643239830316	-0.231121807110913	-0.909162851401112	0.346418273060163	-0.935461351214132	-69.7287831014704	76.7339623739892
13851	1655201569755	9.12630121673099	0.0506042502096697	3.28787018601249	-0.0818803523202616	0.0969180000053934	-0.112897284722717	0.00577196963138538	0.000835854262167089	0.00690683847839131	0.571533203125	-0.424560546875	0.10595703125	0	0	0	0.34973560369709	-0.4523646069787	0.50554109815754	0.64612651078044	0.0795889208533488	0.336870993791502	0.93818097253106	-0.969703029443072	0.244226411160601	-0.00543090973424937	-0.230958087899792	-0.909324690984215	0.346102539719276	-0.898989852487964	-69.7482845269133	76.7070890027887
13852	1655201569755	9.18055255161615	0.0959875734445551	3.27111048394082	-0.118645444489598	0.141654641789505	-0.0680591186273833	0.00208443106402871	-0.00263941050185508	0.0167958878256772	0.5673828125	-0.424560546875	0.110595703125	0	0	0	0.349711274416199	-0.452397258074369	0.505595104331337	0.646074559094518	0.0794206227259556	0.336887424895267	0.938189334640539	-0.969721111549593	0.244151230044765	-0.00558056293298653	-0.230940101543327	-0.909338792648298	0.346077490865982	-0.923824873905721	-69.7496687129161	76.7348273921787
13853	1655201569756	9.19710145678921	0.065998957859513	3.28256134100073	-0.0907641330649077	0.126125710737629	-0.0483597493577701	0.00218812166053072	0.00170345088909475	0.0267804490758841	0.571533203125	-0.424560546875	0.103759765625	0	0	0	0.349844364842672	-0.452453689161824	0.505584513160319	0.645971268404505	0.0793399184325962	0.336609391492607	0.93829595272605	-0.969762885514776	0.24398644088054	-0.00552834012176379	-0.230792381202595	-0.909485972528122	0.345789159103365	-0.915944195978995	-69.7673252337579	76.7372717468586
13854	1655201569756	9.23240568751131	0.030844247104558	3.30942697690282	-0.0629264798412288	0.106291370402387	-0.00578600684541008	-0.00625619098804048	0.00982090007182197	0.0388577310000723	0.567138671875	-0.422607421875	0.110595703125	0	0	0	0.349711713527421	-0.452505641939333	0.505712710228911	0.645906352459641	0.078986597452004	0.336793057266011	0.938259854198382	-0.969779150959729	0.24391274426929	-0.00591367456421227	-0.230845220411389	-0.90943774375184	0.345880722869575	-0.979515658433845	-69.7613454735517	76.8012095430116
13855	1655201569757	9.24856030597662	-0.000721007879988256	3.32189435713949	-0.0350674471216053	0.0907319235847662	0.0138780304902077	0.000160495757413924	0.0111787103785462	0.0346693713569496	0.569580078125	-0.4267578125	0.1083984375	0	0	0	0.349795097410093	-0.452552258725513	0.505739543342297	0.645807523376914	0.0788479348447211	0.336619681071224	0.938333732467415	-0.969821926767419	0.243741808255575	-0.00594653423713465	-0.230712881157194	-0.90954775642833	0.345679685900598	-0.98553003304929	-69.773585302735	76.8170216714234
13856	1655201569758	9.20268145551806	-0.0679209865056659	3.28358856640435	0.0327304662574332	0.0959427323778907	-0.0420356025298041	0.00157907232225241	0.0192992160808721	0.0323359590178214	0.573974609375	-0.4326171875	0.11279296875	0	0	0	0.349678602275802	-0.452542296635103	0.505880890813732	0.645766884545942	0.0785799881314613	0.33687353810813	0.9382651036822	-0.969850969140309	0.243618798839892	-0.00624327713726802	-0.230682212411065	-0.909486723473366	0.345860689733335	-1.03415795553454	-69.7622149510473	76.869822710116
13857	1655201569759	9.18928445489912	-0.0475778145747734	3.30794280981004	0.00671011517264656	0.0727206274281642	-0.0462978599072237	0.00663944185366921	0.0223969773739346	0.0277665846076382	0.5673828125	-0.424560546875	0.110595703125	0	0	0	0.349781652553328	-0.452527326060101	0.505887436647436	0.645716436331184	0.0785938412223628	0.336748153683719	0.938308951845031	-0.969891177423082	0.243461393958698	-0.00613625362539072	-0.230508377459001	-0.909575302348461	0.345743629411916	-1.0167780309553	-69.769478966587	76.8628680139116
13858	1655201569760	9.17198970133706	-0.021613117681162	3.29872070244136	-0.0191565271541177	0.0844790789764856	-0.0658973313848534	0.00839951939562626	0.0273346060587559	0.0237669332300507	0.571533203125	-0.4287109375	0.1083984375	0	0	0	0.349686184979405	-0.452459019443198	0.506030769476588	0.645703699928985	0.0784273921348639	0.33705454352066	0.938212864362349	-0.969929216995118	0.243304864754962	-0.00632904462042089	-0.230404987320505	-0.909503698441435	0.346000815518098	-1.04793715002098	-69.7535640911653	76.9012347713777
13859	1655201569762	9.1419873713737	0.0275577353648629	3.31200662406783	-0.071627511101281	0.0734844039979692	-0.0897480338095775	0.00391384016593287	0.0245195032105507	0.0220658691552004	0.5693359375	-0.424560546875	0.10595703125	0	0	0	0.349768496262856	-0.452433229491487	0.50605111732862	0.64566124130567	0.0784328790047171	0.336981404479866	0.938238677803153	-0.969968965834207	0.243148531344952	-0.00624475966813959	-0.230235724442475	-0.909572605534913	0.345932343747847	-1.03418926112345	-69.7578383683646	76.8976048774407
13860	1655201569762	9.0918314186874	0.027633889415131	3.337582388709	-0.0826847286792249	0.0361270263276682	-0.127984181312998	-0.00422062992151492	0.025360412984807	0.017661543663874	0.575927734375	-0.4306640625	0.1083984375	0	0	0	0.349651107279252	-0.452392400294114	0.50614279572929	0.64568156986696	0.0783211729749369	0.337255142471568	0.938149648371896	-0.96997315722179	0.243127147019464	-0.00642375679551782	-0.230256092499247	-0.90947686021067	0.346170438669046	-1.06309457515116	-69.7431002217507	76.9258782981443
13861	1655201569763	9.10765111880133	-0.00203447378565889	3.3507930579026	-0.0548029766351487	0.0204865546314829	-0.108373691197862	-0.0125981719894997	0.0117517806896592	0.0108130676635623	0.571533203125	-0.42236328125	0.110595703125	0	0	0	0.349728688299726	-0.452446657150806	0.506030707244844	0.645689391533187	0.0784498915166879	0.337010167054168	0.938226924482101	-0.969944470777958	0.243245535810872	-0.00627159591727616	-0.230333102545613	-0.909536011717075	0.345963734026427	-1.03853840024213	-69.7558921063365	76.8959408535163
13862	1655201569764	9.05166513017959	-0.0203332496132527	3.33787149272885	-0.0393951518249821	0.0103426668539384	-0.165263767620805	-0.0144680999382238	0.0120918902078314	0.00693756918690472	0.571533203125	-0.4287109375	0.110595703125	0	0	0	0.349636155243876	-0.452455865136095	0.506041213797937	0.645724816766506	0.0784119600837162	0.337136881904494	0.938184569994382	-0.969916598319399	0.243353697768381	-0.00638514580733524	-0.230463352445362	-0.909460114926526	0.346076498100455	-1.05699290534368	-69.7488800064983	76.9068116242333
13863	1655201569766	9.08680780378394	-0.0534213361252644	3.3648576588781	-0.00937274809962403	-0.0130608174306611	-0.122747295965716	-0.0183603983469223	0.00130004705061041	0.00178968953771185	0.569580078125	-0.4267578125	0.10595703125	0	0	0	0.349752041852556	-0.452513619825236	0.505900072395079	0.645732181204626	0.0785930812466312	0.336816789438569	0.93828438009617	-0.96988703943844	0.243477251941244	-0.00616104832624759	-0.230526046922032	-0.909545643791137	0.345809866185259	-1.02069014828231	-69.7654080307019	76.8655748553245
13864	1655201569767	9.1361056685516	-0.0558025086220928	3.34169509864378	0.00173684399745822	0.0242686234560463	-0.0844873818217042	-0.0163410096468406	0.00144324340148186	-0.00398673208644375	0.57373046875	-0.424560546875	0.10595703125	0	0	0	0.349705280871216	-0.452542539920139	0.505852401202835	0.645774584735835	0.0786371955199113	0.336820216590879	0.938279453668488	-0.969846280706662	0.243639129456221	-0.00617789586098849	-0.230682429500423	-0.90950102599914	0.345822932186826	-1.0234419958564	-69.7645919369404	76.8585873670809
13865	1655201569769	9.08685051382233	-0.0537782122431055	3.364736632773	-0.00779040932726485	-0.0161922590497503	-0.122750621393035	-0.0147378998588927	-0.00646050915800282	-0.0103206368603259	0.571533203125	-0.4287109375	0.1083984375	0	0	0	0.349837185043285	-0.452616641353368	0.50566507860621	0.645797915921972	0.0788820084963437	0.336430644407205	0.938398662743792	-0.969799171266438	0.243833544478332	-0.0058966090309342	-0.23079687204664	-0.909593109082785	0.345504239861974	-0.977753600592907	-69.7843485298384	76.804372543698
13866	1655201569771	9.1579125075091	-0.0352087714993638	3.3589381835012	-0.0185828905240604	0.0166327916346877	-0.0581784144133177	-0.0149043761415144	-0.009678753907283	-0.0105437129025178	0.571533203125	-0.426513671875	0.10595703125	0	0	0	0.349838190353955	-0.452666430073698	0.505579725100768	0.645829300373742	0.0789644893027329	0.33631639082802	0.938432679892156	-0.96975640975189	0.244004764273805	-0.00584643111739103	-0.230948295456546	-0.909589445998633	0.345412687308409	-0.969691784034933	-69.7899896062003	76.7867284154931
13867	1655201569772	9.17212462955605	-0.00432369728409615	3.30860756049476	-0.0337748868216768	0.0710374135081355	-0.0623752757273159	-0.00932646288618575	-0.0051811878489651	-0.0116160737787721	0.571533203125	-0.426513671875	0.10595703125	0	0	0	0.349977778913166	-0.452711052300991	0.505410153376486	0.645855118626069	0.0792265599769733	0.335965851980094	0.938536146612108	-0.969721086275066	0.24415226226193	-0.0055396449244467	-0.231006854936649	-0.90967940459025	0.345136514783074	-0.919552144116868	-69.8071568118436	76.7310797988503
13868	1655201569772	9.19131866210335	-0.00782978515954223	3.32277168322383	-0.0317533887071343	0.0628867520768975	-0.0394459035633794	-0.0125294869306936	-0.00998305614332717	-0.00811234419096361	0.571533203125	-0.4287109375	0.1083984375	0	0	0	0.349981770345026	-0.452760089731997	0.505337368477995	0.64587553413314	0.0792848903312164	0.335854530074366	0.938571063262496	-0.969685641058276	0.244293808891792	-0.00550385887714527	-0.231135595896793	-0.909682510310969	0.345042123144069	-0.913862747813724	-69.8129533419976	76.7174112803985
13869	1655201569773	9.17258326954672	-0.00361400801435869	3.30733668411688	-0.0322051467953324	0.068305910921542	-0.0623504463921058	-0.00736484461486673	-0.00254634190404113	-0.00269082778097269	0.571533203125	-0.424560546875	0.1083984375	0	0	0	0.350096502446422	-0.452805089747446	0.505210453270564	0.645881093994662	0.0794598972099174	0.335560804090823	0.938661318843655	-0.9696627169329	0.244389673761867	-0.00528230526145118	-0.23117166808607	-0.909765153276651	0.344799979347179	-0.877697626034586	-69.8279441103645	76.6778987827863
13870	1655201569773	9.17272080472739	-0.00360323546362613	3.30695523350104	-0.0321768413804537	0.0682974343569929	-0.0623502935622096	-0.00753076718389813	-0.00576493017609966	-0.00291467093635682	0.57177734375	-0.4306640625	0.103759765625	0	0	0	0.350094260047731	-0.45283698618568	0.505173055183165	0.645889198965898	0.0794776965183547	0.335500380700979	0.938681410440003	-0.969642899104659	0.244468386797078	-0.00527788525313805	-0.231248662638397	-0.909766289992288	0.344745346047804	-0.877102275241174	-69.8312826253488	76.672706819975
13871	1655201569774	9.20196162103936	-0.0547234972771459	3.29572280729888	0.023574707431192	0.0729152497248764	-0.038486179371894	-0.000504575310324922	-3.64358393571076E-05	0.00144420586448168	0.571533203125	-0.42236328125	0.10595703125	0	0	0	0.350205025999844	-0.452869953257968	0.505078277827093	0.645880157976535	0.0796094774066891	0.335245408236448	0.938761336742951	-0.969634743257467	0.244504746063333	-0.00508859710842907	-0.231237531069377	-0.909850507176252	0.34453049040115	-0.84617747525325	-69.844568806508	76.6416108404217
13872	1655201569775	9.19173405927484	-0.0075737224067554	3.32162298658323	-0.0287566743319217	0.0574819933523787	-0.0394033438049313	0.00159666840954916	0.00171866653587749	-0.00422061877966766	0.580078125	-0.42431640625	0.10595703125	0	0	0	0.350216370721169	-0.452852454053721	0.505070278376224	0.645892531647007	0.0796573375169736	0.335249555658417	0.938755795726738	-0.969634927381894	0.244505015159713	-0.00504035344589232	-0.231220276318531	-0.909848906683183	0.344546297072831	-0.838117790730636	-69.843647450412	76.6340275118507
13873	1655201569776	9.15623735725685	0.0250128661275333	3.29556722363581	-0.0548451716924239	0.0742212472472253	-0.0818315571168764	0.00608189722099897	0.00453399091155602	-0.00251658335239194	0.571533203125	-0.42236328125	0.108154296875	0	0	0	0.350369262190289	-0.452853611627685	0.504953505485776	0.645900103611712	0.0798911274667758	0.33496707145232	0.938836763657423	-0.96963101459712	0.244526674819717	-0.00473295182445382	-0.231156015027617	-0.909947122828722	0.344329973095987	-0.78750358339855	-69.8571147554149	76.5853175830725
13874	1655201569777	9.15364143534822	0.00124902142487662	3.29247217981336	-0.0309035419223612	0.0705520155357281	-0.0852214265913051	0.00202729540658448	0.00151135496846451	-0.000838855746260021	0.57373046875	-0.4287109375	0.110595703125	0	0	0	0.350375325759946	-0.45284150389386	0.504956438874331	0.645903009970625	0.0799071343810033	0.334976788657086	0.938831934339689	-0.969634746434827	0.244512251875932	-0.00471351130590469	-0.231134827278985	-0.909947421417055	0.344343406899518	-0.784238738046524	-69.856311258417	76.5831021519546
13875	1655201569778	9.16230931757615	0.0442751443952767	3.33334538464166	-0.0795376249409743	0.0443972209825818	-0.0631865326496967	0.00448512502385193	0.00281550268607878	0.00170406424111249	0.57373046875	-0.424560546875	0.1083984375	0	0	0	0.350515557599075	-0.452828004334742	0.504895904352473	0.645883711003245	0.0800538485166278	0.334761559875292	0.938896202659026	-0.969654601618766	0.244437939298217	-0.00447743131650535	-0.231000724884642	-0.910046587742354	0.344171284742449	-0.745336575106099	-69.8670066734529	76.5510334470019
13876	1655201569778	9.14326848766967	0.0480889273603044	3.31875668177305	-0.0814977305334729	0.0525493473861053	-0.0861045212462752	-0.00134817079218493	0.00310967749554564	0.00455631962467832	0.571533203125	-0.426513671875	0.110595703125	0	0	0	0.350494654946893	-0.452828401958395	0.504911354223973	0.645882698025871	0.0800219255110404	0.334799146471031	0.938885521754263	-0.969654884449273	0.244436042458744	-0.00451953656628945	-0.231010598244264	-0.910033270089273	0.34419987046693	-0.752282357858697	-69.865228799712	76.5576562599765
13877	1655201569779	9.14571711586494	0.0716102953651358	3.32226986099469	-0.103616730681493	0.0537766618741598	-0.0826761470485202	-0.00345846456117215	-1.09543167999152E-05	0.00528324076932775	0.571533203125	-0.42041015625	0.110595703125	0	0	0	0.35060507537653	-0.452844373427419	0.504841898635423	0.645865862201687	0.0801332616746203	0.334581224916693	0.93895370722237	-0.969659367634123	0.244421477004799	-0.00434192793423338	-0.230953179525159	-0.910117325135632	0.344016109150693	-0.723108396864697	-69.8765810952463	76.5311860331494
13878	1655201569780	9.1432007737244	0.0467358971205501	3.31896256840106	-0.0796608604071148	0.0501132754772562	-0.0860764476589875	-0.00344977898725974	0.00135500543924209	0.0102211729200685	0.569580078125	-0.4267578125	0.110595703125	0	0	0	0.35056917332649	-0.452865359277239	0.504867746221876	0.64585043152786	0.0800430503830825	0.334616834263743	0.93894871229087	-0.969659372783844	0.244419627076051	-0.00444372281396194	-0.230984438562026	-0.910104730307076	0.344028442159759	-0.740033012099078	-69.8757492736386	76.5471769252688
13879	1655201569780	9.14571937858053	0.0696715399633839	3.32230486884101	-0.101764645486	0.0517556813976451	-0.0826456403169367	-0.00268083372258292	-0.00203444307266716	0.0119349258800556	0.5693359375	-0.424560546875	0.10595703125	0	0	0	0.350679477548803	-0.452869466277746	0.504857481322411	0.645795690673296	0.0800563401322006	0.334445516020204	0.939008615092863	-0.969693627348544	0.24428565515778	-0.00433448540845649	-0.230835983945873	-0.910203667042774	0.343866301078816	-0.722183498175519	-69.8857272486138	76.5383830721273
13880	1655201569781	9.11542656326563	0.066160447594363	3.36020248541273	-0.110819102441221	0.00631796279174799	-0.0980582697736754	-0.00521314794638707	-0.00358137002382492	0.0142179538237184	0.569580078125	-0.4306640625	0.1015625	0	0	0	0.350641502675818	-0.452917354104871	0.504883602021906	0.64576230562125	0.0799168375200567	0.33444635456148	0.939020199463957	-0.96969284108663	0.24428617002126	-0.00447895988852498	-0.230887619906594	-0.910203220746268	0.343832813903774	-0.746324881200518	-69.8876573981269	76.5610215127758
13881	1655201569781	9.14718158615794	0.0376670287880974	3.35229987195794	-0.0794825798923291	0.0153492713232763	-0.0708337941929642	-0.00809272019375084	-0.00331136710500314	0.0132312295674062	0.565185546875	-0.4287109375	0.10595703125	0	0	0	0.350666734859559	-0.45300039080478	0.504827806434367	0.645733979936256	0.0798790635627632	0.334264601395476	0.939088127631406	-0.969673273129941	0.244363453827202	-0.00449953454354701	-0.230982853436795	-0.910249239872006	0.343646973987305	-0.750158236671771	-69.8989789394549	76.560104324676
13882	1655201569782	9.15992988163156	0.0132959756263075	3.32968981489352	-0.0509615381511967	0.0343970845297656	-0.0665319099085586	-0.00598163532908377	-0.000190977619071991	0.0125046410994607	0.569580078125	-0.4267578125	0.103759765625	0	0	0	0.350621520065567	-0.453036748396143	0.504852394056576	0.645713802303237	0.079763529635986	0.334291451199894	0.939088390405652	-0.969669184672763	0.24437721976451	-0.00463106426504378	-0.231039935154223	-0.910235683828555	0.343644508539122	-0.772089671913699	-69.8990227477282	76.5798784371798
13883	1655201569783	9.13082478740231	0.0630223484762144	3.34066069554148	-0.104580084040357	0.0257055898157493	-0.0903240136822703	-0.00886118217028565	7.94114529500305E-05	0.0115179746607537	0.57373046875	-0.426513671875	0.1083984375	0	0	0	0.350639577462547	-0.453087756734146	0.504829485327749	0.645686117365261	0.0797173508826783	0.334181781476127	0.939131343794727	-0.969663779774983	0.244398154921213	-0.00465790334803173	-0.231078554090899	-0.910270332813581	0.343526742829013	-0.776829913692328	-69.9061849306026	76.5831245840164
13884	1655201569785	9.14099020723607	0.0145196154855409	3.3148404295823	-0.0521687300051445	0.0411084341675894	-0.0894333718020928	-0.0113103223980604	0.00014260750898174	0.0139131804555948	0.5673828125	-0.424560546875	0.110595703125	0	0	0	0.350572950919475	-0.453139322845004	0.504847147208573	0.645672299336551	0.079588224093873	0.334214857528463	0.939130525322659	-0.969648415878166	0.244455928077954	-0.00482170224189604	-0.231187508681907	-0.910242675463404	0.343526720350365	-0.804144284744568	-69.9060484331297	76.6053513265427
13885	1655201569786	9.1574846017596	-0.0149403618239741	3.3261138960938	-0.0243467427880688	0.0275945442824895	-0.0699245726329316	-0.00954270430607236	-0.00454009849644093	0.00779942106663931	0.5693359375	-0.424560546875	0.110595703125	0	0	0	0.350658844841002	-0.453158108113257	0.504794757520233	0.645653433636093	0.079659963662605	0.334037139506217	0.939187670074398	-0.969652734391532	0.244441254629726	-0.00469550019380055	-0.231144683859043	-0.910311849019636	0.343372207171975	-0.783451807404137	-69.9155806617585	76.5868384301819
13886	1655201569787	9.1752479459114	0.00900117528782273	3.31029642826375	-0.0436231039838488	0.0539245752800514	-0.0587903283377553	-0.0102170918145066	0.00182498401730389	0.0111374854686569	0.571533203125	-0.4287109375	0.103759765625	0	0	0	0.350597936636506	-0.453196233686975	0.50480891537824	0.645648681213561	0.0795622654531716	0.334079092113438	0.939181029476543	-0.969637749801795	0.244498091561739	-0.00482880751093873	-0.231241172967249	-0.910281189213162	0.34338852119633	-0.805653184971617	-69.914472731082	76.6043171813938
13887	1655201569788	9.12343228975392	-0.0142686340429063	3.33009223346124	-0.0293734605048353	0.011380950528982	-0.100543303211701	-0.010478181125509	-0.00436763619541878	0.00586166127745459	0.571533203125	-0.42041015625	0.10595703125	0	0	0	0.35066011825895	-0.453238043944849	0.504734762780994	0.645643536499887	0.0796361895229222	0.333892462294393	0.939241130350059	-0.969622486651016	0.244560601406067	-0.00472711546329646	-0.231279723925315	-0.910332870912003	0.343225513967333	-0.789063257927234	-69.9245022170133	76.5850965916604
13888	1655201569788	9.15402527365911	-0.0128826682837038	3.29137988616716	-0.0201852562749696	0.0567761982005602	-0.08510312134276	-0.00726185265780434	-0.00782081443685453	0.00517892214216012	0.569580078125	-0.4267578125	0.110595703125	0	0	0	0.350646675153674	-0.45328935043108	0.504719384212665	0.645626840511941	0.0795742159715155	0.333831955526257	0.939267890232618	-0.969609569971164	0.244610504807324	-0.00479403360850011	-0.231355194393495	-0.910341653670434	0.343151347978887	-0.800404911611147	-69.9289693863365	76.5928173407674
13889	1655201569788	9.175753641197	0.00643896635731466	3.30890040772503	-0.0402152220477968	0.0505967221266648	-0.0587578520060337	-0.00531753565853091	-0.00791996194647451	0.0042278801146268	0.569580078125	-0.4267578125	0.10595703125	0	0	0	0.350758164464814	-0.453303415381072	0.504660052423313	0.64560278434439	0.0796684901839079	0.333620122134362	0.939335161579119	-0.969619617833145	0.244573883098746	-0.00462735551973514	-0.231280626912247	-0.91042914595978	0.34296944733026	-0.77298971639438	-69.9402035620669	76.5692939238828
13890	1655201569789	9.12294356755231	0.0130343451952442	3.29753784947859	-0.0487786475544972	0.0442704212344037	-0.112291194450203	-0.000493692333197988	-0.00829060561920079	0.0042630310936646	0.57177734375	-0.432861328125	0.1083984375	0	0	0	0.350770139901392	-0.453337169290464	0.504656021151421	0.645575727710456	0.0796154225106529	0.33355307160755	0.939363472208506	-0.969621640785617	0.244565218538351	-0.00466128753646844	-0.231290419643052	-0.910456040840226	0.342891439786536	-0.778834413062239	-69.9449331825222	76.5753159378308
13891	1655201569789	9.17632767176348	0.00555191040764854	3.30730976899092	-0.0389367916379842	0.0491032449499519	-0.0587450320547536	0.00230185536903561	-0.0101710677996118	0.00513663093015824	0.565185546875	-0.4287109375	0.103759765625	0	0	0	0.350866506006562	-0.453375386067342	0.504597251333879	0.645542460429467	0.0796647465091659	0.333329427066388	0.939438673472209	-0.969626377541685	0.244548617818084	-0.00454549212450117	-0.231253575408078	-0.910542402403567	0.342686908542071	-0.759942197367157	-69.9575016263372	76.5586146990709
13892	1655201569789	9.22849422662055	0.0272156819811763	3.28651914158039	-0.0515953209371432	0.0899283108770664	-0.0169584360409818	0.00188147892017889	-0.00859792380931188	0.00669363464627542	0.569580078125	-0.4287109375	0.110595703125	0	0	0	0.350881273314711	-0.453408501172032	0.504606046533633	0.64550429967869	0.0795869377332575	0.333265640916735	0.939467898294881	-0.969635849808565	0.244510139677488	-0.00459460127955874	-0.231240649774787	-0.910576083685078	0.342606126203957	-0.768332676222825	-69.9623880325658	76.5687900976114
13893	1655201569790	9.18308635593987	0.0233758774213753	3.34333383503742	-0.0644913754399357	0.0207630737232488	-0.0401282132841256	0.00518173944812798	-0.000823610865102837	0.00824239359302826	0.571533203125	-0.426513671875	0.110595703125	0	0	0	0.350953603040173	-0.453399811501148	0.504629282516823	0.645452915920597	0.0795557963145608	0.333184288790679	0.939499390620242	-0.96967347864693	0.244361711479355	-0.0045495902719353	-0.231093531024817	-0.910645696012412	0.34252035888769	-0.760997078971274	-69.9676548458468	76.5706957826623
13894	1655201569791	9.1603849386469	0.0319799385748152	3.29456127885451	-0.0639501562177904	0.0598645540258694	-0.0782055818071061	0.00332173801571526	0.000885382669076958	0.00930639127800253	0.567626953125	-0.432861328125	0.106201171875	0	0	0	0.350942933080827	-0.453403349432747	0.504666711260549	0.645426967974885	0.0794738265372547	0.333213607936307	0.939495929944135	-0.969688413210706	0.244301136532175	-0.0046190880043418	-0.231059066432007	-0.910651220926627	0.342528920887584	-0.772601058858687	-69.9670760133943	76.5851698776456
13895	1655201569791	9.21346667075262	0.024293808708101	3.30516566475263	-0.0541203553746757	0.0649874777117625	-0.0246576341122164	0.00712578401446104	-0.000923177920156904	0.00729107118075653	0.571533203125	-0.424560546875	0.10595703125	0	0	0	0.351030102495454	-0.453384761612042	0.504670351206992	0.64538977501401	0.0795001891012062	0.33311477016634	0.939528748804367	-0.969721567520548	0.244171407509285	-0.00451721600392374	-0.230910808361938	-0.910722171494667	0.342440250160046	-0.75575929354104	-69.972565939046	76.5770434349678
13896	1655201569792	9.18181950574912	0.0510471640165956	3.31293976780807	-0.0845671616883942	0.0541155063726367	-0.0518520981964574	0.0055078367342491	0.00424805660769855	0.00375363299496286	0.571533203125	-0.424560546875	0.10595703125	0	0	0	0.351030417952208	-0.453362111308154	0.504701025612995	0.64538152781723	0.0794793415508075	0.333161655169682	0.939513888024679	-0.969737220834469	0.244109040834978	-0.00452755020596285	-0.230852240177328	-0.91072173999923	0.342480883405022	-0.757398209965663	-69.9700798550795	76.5822562380497
13897	1655201569793	9.18676561040717	0.09890060647339	3.32008686351989	-0.130643617651775	0.0595942752027531	-0.044944468129378	0.00644322095671464	0.00407641214787408	0.00569107918434552	0.5693359375	-0.422607421875	0.1015625	0	0	0	0.351124630963393	-0.453337874022372	0.504657968141381	0.645380973301127	0.0796102143365764	0.333037113890838	0.9395469623944	-0.969749488762176	0.244063657444468	-0.00434282860902135	-0.230755591088888	-0.910779452933634	0.342392531015394	-0.726687604607099	-69.9756133237769	76.5561198851112
13898	1655201569793	9.18408784221792	0.0746193311750365	3.31708746300485	-0.106679310560806	0.0559447330093147	-0.0483852122453907	0.00406807474875973	0.00438410891339499	0.00326060573515343	0.571533203125	-0.4287109375	0.110595703125	0	0	0	0.351121440997626	-0.453317472999193	0.504683546808917	0.645377037030098	0.0795955725079963	0.333083375457	0.93953180352306	-0.969761312852517	0.244016502504244	-0.00435230974980266	-0.230710946709701	-0.910775170664949	0.342434004690753	-0.728185722845904	-69.9730770045652	76.5603018740912
13899	1655201569794	9.15111165873632	0.130569876465763	3.29465202198959	-0.157055150014713	0.0780679357248577	-0.0872637693533882	-0.0026154599431608	0.00646524467750779	0.00428936502733422	0.571533203125	-0.4287109375	0.103759765625	0	0	0	0.35117543822145	-0.453303731906368	0.50463409536038	0.645395977698609	0.0797203128791425	0.332999357311056	0.93955100965561	-0.969755904109606	0.244040482779568	-0.00421060675876728	-0.230690611336944	-0.910799467937449	0.342383076459465	-0.70458457789727	-69.9762905467713	76.5367329048166
13900	1655201569795	9.13311744768639	0.10496266233605	3.31108380215376	-0.137653938833731	0.0517132442729429	-0.0984450105613987	-0.00100685772647163	0.00954789683929191	0.00500722980120533	0.57177734375	-0.432861328125	0.1083984375	0	0	0	0.351139094430476	-0.453282543279483	0.504662569272321	0.645408369558444	0.0797012542670879	0.333096448485847	0.939518209549112	-0.969757335559049	0.244034055076012	-0.00425324494622764	-0.230691179280152	-0.910765686644635	0.342472544641259	-0.711532824401025	-69.9708027794064	76.5436150813105
13901	1655201569795	9.16444554637188	0.0771911834313711	3.30421541637703	-0.105926028162467	0.0610247123033075	-0.0712338911505466	-0.00700869507250189	0.00663017071418029	0.00763599916422775	0.57373046875	-0.424560546875	0.10595703125	0	0	0	0.351142880693521	-0.453309796645863	0.504593791747081	0.645440943025344	0.0797906671903804	0.333017969898295	0.939538440487739	-0.969724001261585	0.244167565337118	-0.00419063414834348	-0.230800370031192	-0.910758602354193	0.342417811206284	-0.701171656152948	-69.9741874359404	76.5260101299789
13902	1655201569796	9.11736461146954	0.102006872450507	3.33175404107378	-0.140949523534242	0.0274585617209211	-0.106158279113917	-0.0125881371218693	0.01175909743185	0.010826690516777	0.57373046875	-0.4287109375	0.103759765625	0	0	0	0.351050262544587	-0.453321214748512	0.504618672501472	0.645463852426425	0.0797197432435715	0.333149161809226	0.939497950249488	-0.96970328762721	0.244247417060457	-0.00432818949162328	-0.230911880383317	-0.910689208920971	0.342527178852621	-0.723953626774823	-69.9674139275829	76.5426592311183
13903	1655201569797	9.12976439811811	0.0775038895595138	3.31001647139932	-0.110522278466649	0.044487067902772	-0.101836763691399	-0.0169000258619668	0.00391425535956627	0.012166145556701	0.571533203125	-0.424560546875	0.10595703125	0	0	0	0.351042941851125	-0.453387968154437	0.504493160165092	0.645519058321238	0.0798520033588599	0.333002607076876	0.939538674690713	-0.969637191640227	0.244511008646294	-0.00425243916201407	-0.231143622338215	-0.910672076178235	0.342416406618598	-0.711514656533835	-69.9742266215473	76.5154312218631
13904	1655201569797	9.09296099884812	0.054820162312964	3.31120597320019	-0.093189522170588	0.0263443648128115	-0.135929050397374	-0.0154604895096991	0.00377867697443636	0.0126596323407329	0.57177734375	-0.4306640625	0.103759765625	0	0	0	0.350957388650608	-0.453435763999824	0.504502786536183	0.645524482614463	0.0797458926062465	0.333064537204305	0.939525734969147	-0.969611063820991	0.244611699457547	-0.00441603944933489	-0.231289812850372	-0.910622386362961	0.342449838554885	-0.738813018475726	-69.972061725736	76.5351098722997
13905	1655201569798	9.14964677677906	0.0407480755519877	3.3561134194905	-0.0854474193822528	-2.1931836510232E-05	-0.0672324068655552	-0.0145257560087092	0.0036070333863514	0.0145974369512451	0.5673828125	-0.424560546875	0.10595703125	0	0	0	0.3509415737009	-0.453497040077559	0.504421527407239	0.645553537034209	0.0797987146580828	0.332960272520845	0.93955820578704	-0.969564132174919	0.244797869072968	-0.00440419087123339	-0.231468267239408	-0.910610487651102	0.342360892978458	-0.737022352428315	-69.9774947204038	76.5224508384472
13906	1655201569798	9.10915945664138	0.0233489137543581	3.32319600527904	-0.0656029687934114	0.0127567756366574	-0.116476956262426	-0.0131811889710426	0.000496904555938215	0.0100387822667603	0.571533203125	-0.426513671875	0.110595703125	0	0	0	0.350877751297625	-0.453545323914211	0.504421698541393	0.645554174984943	0.0797107783923379	0.332985140159643	0.9395568573753	-0.969540993625928	0.244887107369875	-0.00453501078960461	-0.23159545221557	-0.910577399827646	0.34236288559975	-0.758907561652367	-69.9772690769554	76.5377306499142
13907	1655201569799	9.12812811923155	0.017956362054184	3.33795926440993	-0.061602507162342	0.0035544687544787	-0.0935716708675294	-0.0142860181342374	-0.00254836454296156	0.00787516508373377	0.569580078125	-0.4267578125	0.10595703125	0	0	0	0.350924803904795	-0.453546669370278	0.504383953799112	0.645557145307435	0.0797844917062078	0.332895778685988	0.9395822664441	-0.969538882727739	0.244897218308714	-0.00443929540609583	-0.231578906125386	-0.9106073539115	0.342294401415018	-0.743040582515043	-69.9815214448698	76.5222500001381
13908	1655201569800	9.20925862635847	-0.0120986582156623	3.30641047607863	-0.019754282476498	0.0514975908398237	-0.0280106340128246	-0.00794323571138305	-0.0110696256704128	0.00639404062278765	0.575927734375	-0.4306640625	0.110595703125	0	0	0	0.350915527496302	-0.453612286488168	0.504363899795311	0.6455317518854	0.0797059002604827	0.332806634061641	0.939620515840425	-0.969525013228837	0.244950698290514	-0.00451709315952664	-0.23166402005337	-0.910625554073434	0.342188372217937	-0.756294962685362	-69.9879243565544	76.5315672421771
13909	1655201569802	9.17532837499314	-0.00970929364404036	3.3100714697544	-0.0243775122808722	0.0358269989506375	-0.0586399794337939	-0.00735795448949496	-0.00116926588575398	0.00224704193003764	0.573486328125	-0.42236328125	0.096923828125	0	0	0	0.350975472781918	-0.453607720957714	0.504278502850355	0.645569085811938	0.0798864541011057	0.332682855518109	0.939649015375139	-0.969503592800758	0.245038818137026	-0.00433141459936376	-0.231691471568494	-0.910647075024307	0.342112505986115	-0.725371076813562	-69.9926964284667	76.4973348664662
13910	1655201569802	9.17810159932357	0.0142078246434146	3.3128997705145	-0.0481762951622591	0.0394264409507348	-0.055168199168099	0.00278805498280745	-0.0115020789014753	-0.00125078173712197	0.571533203125	-0.426513671875	0.103759765625	0	0	0	0.351019411406691	-0.453633985690709	0.504257302412701	0.645543300488455	0.0798815599796543	0.332571177287353	0.93968896365389	-0.969508515892248	0.245019891558332	-0.00430004106425796	-0.231672557692162	-0.910692958564217	0.342003159684124	-0.720347799287068	-69.9993873602006	76.49376391682
13911	1655201569803	9.21752793936347	0.0594217376117248	3.31502296100173	-0.0877249647199742	0.0587973819647421	-0.017557108397364	0.00346914955870911	0.0013711850471412	-0.000344933816604684	0.57373046875	-0.426513671875	0.110595703125	0	0	0	0.351089698848897	-0.453675309380753	0.504099998502005	0.645598891364249	0.0801238103371129	0.332331344847891	0.939753186878691	-0.969454255830566	0.245238429744939	-0.00406920486595697	-0.231815920223497	-0.910721686250981	0.341829474040939	-0.682027941701498	-70.0101486014003	76.4448968530788
13912	1655201569803	9.18848564119507	0.110388392244038	3.32617983867072	-0.142066356109556	0.0515732276132633	-0.0412451126769433	0.00289013741617618	0.00109016952181429	0.00592574524694646	0.571533203125	-0.42041015625	0.110595703125	0	0	0	0.351086472910281	-0.453673944072221	0.504123073217683	0.645583587197609	0.080079759039028	0.332349594242685	0.939750487841839	-0.969464733745134	0.245196431177954	-0.00410367665299982	-0.231787321087088	-0.910726335044902	0.341836482018748	-0.687791008585709	-70.0096962390443	76.4527910528562
13913	1655201569804	9.22136886213454	0.135534686528613	3.29168209992231	-0.153698847038132	0.0996578310002969	-0.0222006975767552	-0.00385631111552699	0.00429502240377062	0.0167209804171856	0.5693359375	-0.422607421875	0.10595703125	0	0	0	0.351166344811115	-0.453596109020532	0.504142438083314	0.645579716438525	0.0801819440096913	0.332352889194336	0.939740609369949	-0.969503639695474	0.245045200790827	-0.00394235800160525	-0.231589180386425	-0.910765835225257	0.341865536306869	-0.660699715984178	-70.0080406770392	76.4362720618623
13914	1655201569804	9.21226254171112	0.150843938212747	3.34879364445172	-0.184556613835579	0.0496176378010169	-0.0113389901938117	-0.0114417468651307	0.0106480903053642	0.0306316373651821	0.571533203125	-0.424560546875	0.1015625	0	0	0	0.351037317876301	-0.453642351357668	0.504229346389091	0.645549521534118	0.0799227665894311	0.33251923801849	0.939703840435004	-0.969500815201267	0.245051135396486	-0.00425562744764346	-0.231690571031216	-0.910703517830307	0.341962837025798	-0.712992405457388	-70.0018796188618	76.4850189173012
13915	1655201569804	9.21050266013505	0.0335998119576107	3.27979542753547	-0.0560933386291186	0.0833622956832556	-0.0361107949167678	-0.0123661715176187	0.0121878703700778	0.0336342136867056	0.57373046875	-0.4287109375	0.106201171875	0	0	0	0.350979725685273	-0.453686047529254	0.504233641342236	0.645546773962912	0.0798348104320648	0.332543591965998	0.939702698988158	-0.969482010002212	0.245123334193278	-0.00437987625865349	-0.231799558509819	-0.910675194828717	0.341964404870347	-0.733803577051677	-70.0016883854406	76.5003001493356
13916	1655201569805	9.19231782374978	0.00528443536891225	3.29658997692912	-0.036662675672758	0.0569652946937587	-0.0473583684032786	-0.0117863385008684	0.012470655422553	0.027363930271929	0.569580078125	-0.4267578125	0.1015625	0	0	0	0.350852847662398	-0.453721647914731	0.504311645994572	0.645529789564334	0.0796128598555741	0.332717316993519	0.939660034011371	-0.969475445861356	0.245144086002865	-0.00466229232738496	-0.231903325585345	-0.910606152005605	0.342077891001455	-0.780854716245186	-69.9945417239992	76.5432369025648
13917	1655201569806	9.15505616672841	-0.0184391097658759	3.29889056578056	-0.0179259626839717	0.0371887530068689	-0.0814815200531687	-0.00746751486435355	0.0203141587538089	0.026030159440356	0.569580078125	-0.4287109375	0.103759765625	0	0	0	0.350779641721329	-0.4537413320911	0.504297337008832	0.64556691550284	0.079605998875989	0.332788908888026	0.939635262782359	-0.969441796508324	0.245275677679313	-0.00473762827430452	-0.232046305994445	-0.910544553583223	0.3421448930121	-0.793315241489749	-69.9903935050739	76.5471438647359
13918	1655201569806	9.10143059202472	-0.0133604287101464	3.28982455476346	-0.0265651146507265	0.0309288911652654	-0.135006843313864	-0.0076602296805492	0.0143683881249626	0.0159230592886756	0.569580078125	-0.4267578125	0.10595703125	0	0	0	0.350687448720554	-0.453740657817276	0.504350570000356	0.645575891196171	0.0794998359677236	0.332950830065101	0.939586888393013	-0.969435444748006	0.24529763170037	-0.00489799432679278	-0.232109229776286	-0.910479443283125	0.342275457506829	-0.819852090499296	-69.9822950502892	76.5707310193062
13919	1655201569807	9.14139272552651	0.000719836802272579	3.32426773119631	-0.0450010031649	0.016780443256408	-0.0857397216312172	-0.00427628978961448	0.0141283017149408	0.015466228622282	0.569580078125	-0.4287109375	0.103759765625	0	0	0	0.350665854619199	-0.453734444663202	0.504343871467257	0.645597220752833	0.0795246260791898	0.33298764982999	0.939571742288829	-0.969424357061949	0.245341435435212	-0.00489857056882664	-0.232147043448744	-0.910454175189114	0.342317024260724	-0.81984898092084	-69.9797600560307	76.5681267280271
13920	1655201569808	9.10943707725038	0.0263690107969052	3.33306965482085	-0.0754418119233803	0.00591242181734815	-0.112885002119761	-0.0111405062010144	0.0116377840509984	0.0113259901717845	0.57373046875	-0.4306640625	0.110595703125	0	0	0	0.350579833608521	-0.453743506952173	0.504369303891528	0.645617700700454	0.079456870381438	0.333112854228194	0.939533092603519	-0.969406146901152	0.245410771117995	-0.00502750132097424	-0.23224626606137	-0.910389685666098	0.34242122033153	-0.841168404206097	-69.9732926761549	76.5840185840953
13921	1655201569808	9.10400053594825	-0.0231498101192007	3.32683991219388	-0.0260453574291545	-0.00243714886289545	-0.119878636844703	-0.0136044338569444	0.00208533650374813	0.0115934402559639	0.5693359375	-0.424560546875	0.10595703125	0	0	0	0.350570063123721	-0.453774079952665	0.504308137532208	0.645649299251024	0.0795247735638175	0.33305317550269	0.939548504696377	-0.969371606914347	0.245547866520452	-0.0049932910542026	-0.232367162262488	-0.910374553431075	0.342379430409086	-0.835547339556363	-69.9758713925859	76.5706496074768
13922	1655201569808	9.10142664254353	-0.0484509991275664	3.323306427884	-0.00202291215498432	-0.00616635158827399	-0.123382029561201	-0.0124342900025728	-0.0042448487014156	0.00680498306206032	0.569580078125	-0.4287109375	0.10595703125	0	0	0	0.350530245603099	-0.453829662045935	0.504288141878863	0.645647469386404	0.0794642156152731	0.333022679493454	0.939564438119946	-0.969346771089186	0.24564403375559	-0.00508390197124231	-0.232491453209833	-0.910359766039385	0.342334369529408	-0.850819378539326	-69.9785376717291	76.5793215769142
13923	1655201569809	9.12577671542054	-0.00529170319186917	3.34442651827628	-0.0461180064432847	-0.00818882110251951	-0.0934886607980907	-0.00923297529230399	-0.00906878149069304	0.00117963670424345	0.571533203125	-0.426513671875	0.1083984375	0	0	0	0.350597344847994	-0.453858782438588	0.504202406514397	0.645657525824635	0.0795842777369062	0.332840788492	0.939618727065994	-0.96932752472765	0.245722870101255	-0.00494175217597581	-0.232530627106328	-0.910405009116945	0.342187414777798	-0.827388294221349	-69.9876248736676	76.5527013959816
13924	1655201569809	9.12357878676144	-0.0294239862552508	3.33986892383958	-0.0220896227965128	-0.0119213952642323	-0.0969964542330217	-0.00611862954122446	-0.0155016695996913	-0.00456018401735673	0.569580078125	-0.4267578125	0.10595703125	0	0	0	0.350632302985685	-0.453914782761677	0.504140036320413	0.645647877617689	0.079608387538544	0.332679517666811	0.93967379614337	-0.969308260222707	0.245799623763614	-0.00490322564186801	-0.232602668294115	-0.910443234629509	0.342036716186748	-0.821300404554368	-69.99684670318	76.5424920789571
13925	1655201569809	9.14714151369931	0.0438828819904827	3.32967638661727	-0.087207621613421	0.0208197790280484	-0.0786835821037908	-0.00230592350801328	-0.0159532911084797	-0.00163508305156358	0.5693359375	-0.422607421875	0.103759765625	0	0	0	0.350754499254631	-0.45392257823241	0.504055206978679	0.64564225585161	0.0797652825770458	0.33244790855837	0.939742458224895	-0.969309455071489	0.245799259140628	-0.00468022594874234	-0.232543931342912	-0.910527930544189	0.341851148446951	-0.78437777019689	-70.0083505220467	76.5078869796248
13926	1655201569810	9.12620563080973	0.0236688673404233	3.30975874035198	-0.0652737603238533	0.0253508951584844	-0.105072378696047	-0.00263178940529584	-0.0196630550460164	0.00778972322295033	0.569580078125	-0.4267578125	0.1015625	0	0	0	0.350783453013284	-0.454004541024351	0.504033098597335	0.64558615330544	0.0796610244952745	0.332279017355685	0.939811031964141	-0.969308139692616	0.245803209220892	-0.00474475103143862	-0.232585148928308	-0.91058851132762	0.341661691642692	-0.795631296481884	-70.0198458798852	76.5182792776413
13927	1655201569811	9.16623827501869	0.0676778654278571	3.31053920483221	-0.104837911744515	0.0454892278723975	-0.0673749750540597	-0.00372881499086904	-0.0213427096443116	0.010564575061397	0.569580078125	-0.4306640625	0.103759765625	0	0	0	0.350868017154829	-0.454112109989858	0.503922153915884	0.6455511512585	0.0796893087066716	0.33194822201385	0.939925524698472	-0.969281884406398	0.245908194661231	-0.00466780034257824	-0.232684856919046	-0.910680809998925	0.341347652196797	-0.783449333992886	-70.0390530183873	76.50071946352
13928	1655201569811	9.20100625003484	0.0631673778007146	3.30455727001589	-0.0979592205026985	0.0598011592068885	-0.0367254030529054	-0.00260916409005934	-0.0169350897501125	0.0176714573827762	0.5673828125	-0.430908203125	0.1083984375	0	0	0	0.350868108109969	-0.454202824594772	0.503935997854506	0.645476471227144	0.0794966083930292	0.331827087711369	0.939984613233109	-0.969288230766455	0.24588016155543	-0.00482409070306961	-0.23272433253023	-0.910732523858936	0.341182729682925	-0.810069197863295	-70.0489725657246	76.5274348714878
13929	1655201569812	9.18265316851763	0.0654196770162775	3.28815440371803	-0.0994351527138794	0.0675982425046519	-0.0595903747942046	-0.00412379826806215	-0.0170407038616786	0.0220052841961076	0.571533203125	-0.426513671875	0.1083984375	0	0	0	0.35088554792431	-0.454293254945828	0.503954594077092	0.645388826892111	0.0792948112386353	0.331683453196639	0.940052349492401	-0.969303203916579	0.2458181987329	-0.00497112147984058	-0.232730814005546	-0.910801570072903	0.340993941537163	-0.835217493462619	-70.0603496819934	76.5547832205271
13930	1655201569813	9.19834350736438	0.0640952357136568	3.26773667211929	-0.0946715734215711	0.0901808667679881	-0.0518145297040853	-0.00681610428696438	-0.0121797537671341	0.0261889898012941	0.5673828125	-0.4267578125	0.099365234375	0	0	0	0.350840461581976	-0.454394270450568	0.503995009768464	0.645310659781108	0.0790297542203648	0.331626913389982	0.940094616654783	-0.969306495730311	0.245800001290865	-0.00522271006618968	-0.232807249206062	-0.910827069031682	0.340873634997285	-0.877791068452723	-70.0674521146308	76.5958997685112
13931	1655201569813	9.19982807633455	0.0323159857119062	3.29718217297492	-0.0717808137183326	0.0543469020772536	-0.0402166085903612	-0.007159182738472	-0.0103592111886276	0.0229214778625584	0.5693359375	-0.424560546875	0.103759765625	0	0	0	0.350859201412761	-0.45447790281405	0.503960769716921	0.645268315682764	0.0789467568801428	0.331464326008686	0.940158928140192	-0.969295342173022	0.245842726740656	-0.00528141556817757	-0.232881835315235	-0.910874719317825	0.340695313275485	-0.888120776291474	-70.0782634614371	76.6031380487352
13932	1655201569814	9.21638399881495	0.0018785893098889	3.30784986108406	-0.0456256462905311	0.0423231266208696	-0.0208675658754132	-0.00588735513565872	-0.00546086855178749	0.020375219726514	0.569580078125	-0.432861328125	0.1015625	0	0	0	0.350813625884531	-0.454544791489538	0.503995881366519	0.645218555211385	0.0787543681906357	0.331453975956843	0.940178712433596	-0.969296001674334	0.245835902918668	-0.00547448393129285	-0.232944222141363	-0.910880327298029	0.340637664846962	-0.920737357427081	-70.0815905137873	76.6342101916209
13933	1655201569815	9.18133851660486	0.0324692083816168	3.28116031765584	-0.0727487609253271	0.0611573364793551	-0.0630714003976198	-0.0115716631962974	-0.00465554869321034	0.0135778757270137	0.567626953125	-0.432861328125	0.103759765625	0	0	0	0.350799066704031	-0.454638270652555	0.503914784186848	0.645223951768344	0.078747866271953	0.331302414749359	0.940232675213353	-0.969249138880762	0.246019810155007	-0.00550997188708557	-0.233141331248916	-0.910885812268771	0.340488115315271	-0.927111892099151	-70.0906679489085	76.6293796121261
13934	1655201569816	9.13478182459298	0.0569473552314677	3.30766466981896	-0.10781556325044	0.0276161404943512	-0.0979696367082212	-0.0113959630993678	-0.0014373353955488	0.0138068207097821	0.569580078125	-0.4287109375	0.1083984375	0	0	0	0.350740581115452	-0.454694933705826	0.50392285336361	0.645209516265009	0.0786285502402645	0.331311710350768	0.940239385301192	-0.969231571463703	0.246085605233346	-0.00566001545401629	-0.233254607596755	-0.910864658158053	0.340467124042098	-0.952412449917725	-70.0917969746315	76.6492735486743
13935	1655201569819	9.1348523962383	0.0552320943816415	3.3074988607018	-0.106894309227467	0.0271878389674177	-0.097958248068922	-0.0191864445075843	-0.00238055706712162	0.0126740928124315	0.569580078125	-0.426513671875	0.099365234375	0	0	0	0.35070476853764	-0.454744905588441	0.503905411500795	0.645207387145045	0.0785728142031504	0.331284574129223	0.940253606114976	-0.969209401561483	0.246171003170351	-0.00574222282190984	-0.233365483293975	-0.910851452291823	0.340426472332642	-0.966358264967888	-70.0941899428952	76.6573449739495
13936	1655201569820	9.16379839266255	0.00216886789202251	3.29598742265819	-0.0522474219105928	0.0341825942451651	-0.0743692217534839	-0.0213069048827825	-0.00549223678486427	0.0133971786245299	0.5693359375	-0.424560546875	0.10595703125	0	0	0	0.350625285921492	-0.454838835436167	0.503882795093459	0.64520203925619	0.0784475251757496	0.331256420434808	0.940273986513781	-0.969168407326827	0.246328075362551	-0.00592262845059593	-0.233577790111522	-0.910819226415922	0.340367085303086	-0.996886554459306	-70.0976198796519	76.6767696049421
13937	1655201569821	9.14776160188787	0.0284974560798305	3.28396884747635	-0.0763978080702651	0.0446243493100104	-0.0936865130202946	-0.021483531188878	-0.00870853521102196	0.0131678239362449	0.57373046875	-0.4287109375	0.1015625	0	0	0	0.350626982895615	-0.454936020691546	0.503765855938423	0.645223913330472	0.0785063589359395	0.3310578652505	0.940339003478216	-0.969109242632955	0.246561362512292	-0.005896639675463	-0.23380339486415	-0.910828295768124	0.34018787188572	-0.99303580417957	-70.1085657582853	76.6594235028173
13938	1655201569822	9.15788873398045	-0.0203865806129706	3.25723762046362	-0.0238564919997257	0.0598804229906483	-0.0929762833494916	-0.0213953760637438	-0.00709862148474496	0.0132830794157106	0.57373046875	-0.4306640625	0.1015625	0	0	0	0.350551939482221	-0.455035208510506	0.503739151323721	0.64521559510346	0.0783796528789165	0.331013762844383	0.940365098683583	-0.969067662348602	0.246720410297821	-0.00607494301960221	-0.234018152724948	-0.910801256010376	0.340112593482108	-1.02328344832877	-70.1129606211672	76.6784752541542
13939	1655201569824	9.21488564382268	-0.0351747657375816	3.30110952370972	-0.0157833843628714	0.0330457150823064	-0.0243607836397839	-0.0194366587852063	-0.0058414259242255	0.0172728322699349	0.569580078125	-0.4287109375	0.1015625	0	0	0	0.350505924730728	-0.455181888725828	0.503565566184437	0.645272628784139	0.0784623374586711	0.330786255656958	0.940438256702147	-0.968962050971061	0.24713463456401	-0.00608409211542132	-0.234427398950032	-0.910771609937071	0.33991008980929	-1.02543463923744	-70.1252866094021	76.6560802311481
13940	1655201569824	9.18096059480866	-0.0339320643430536	3.30482481098325	-0.0223633349051241	0.0185258942601386	-0.0550128293468823	-0.0145401236855566	-0.00597998541656194	0.0124783111151272	0.57177734375	-0.4306640625	0.1015625	0	0	0	0.35045234522397	-0.455259171305942	0.503553021220367	0.645256999565823	0.0783468835233366	0.330748934652141	0.940461008265975	-0.968935511727694	0.247235017093721	-0.00623060475872561	-0.234575659340803	-0.910757919838824	0.339844481337694	-1.05032562473538	-70.1291213896112	76.6735644501266
13941	1655201569826	9.19359100050949	-0.0588103028610971	3.28190926102316	0.0072421546377023	0.03601908180113	-0.0507637660931834	-0.0134121832340139	-0.00157813620325388	0.0195886086485539	0.569580078125	-0.4306640625	0.103759765625	0	0	0	0.350404731023541	-0.455368396656527	0.503467337317323	0.645272646295649	0.0783205271621392	0.330620921054244	0.940508214523556	-0.968873883242448	0.247474329461851	-0.00631305220208939	-0.234838866876298	-0.91073940445039	0.339712295605569	-1.06463505044267	-70.1370802790959	76.672913482469
13942	1655201569826	9.1784881166851	-0.0617384591699186	3.30073667890062	0.00277935605474894	0.0132049471005571	-0.0585530548019744	-0.000902157564088921	-0.00399709094331607	0.0156943878411443	0.57373046875	-0.4306640625	0.1015625	0	0	0	0.350382972953022	-0.455410975013183	0.50349920730671	0.645229543917247	0.0781787841581126	0.3306086251053	0.94052432967656	-0.968881630467515	0.247440641012232	-0.00644323816613246	-0.234854133134099	-0.910753021505523	0.339665232204287	-1.08673495976695	-70.1397979654456	76.6956970403329
13943	1655201569828	9.19485628601929	-0.0915599202134866	3.3117135317749	0.0300380638347423	-5.94665860000863E-05	-0.0392381582966177	-0.0028461586667732	-0.00389073253430178	0.0166472069939789	0.569580078125	-0.4306640625	0.1015625	0	0	0	0.350383607088942	-0.455481294594758	0.503432729357309	0.645231435354382	0.0781845545722679	0.330474887211876	0.940570850254585	-0.968847603058485	0.247573629790385	-0.00645134716479129	-0.234992547699206	-0.910765418071366	0.339536236315251	-1.08851560812579	-70.1476452763923	76.6895571542734
13944	1655201569829	9.17596925240345	-0.0887794407783599	3.29673770169237	0.0280827722264176	0.00808356114710476	-0.0621017974938223	0.00418819587972497	0.00044022829811098	0.0160727238148613	0.5654296875	-0.430908203125	0.106201171875	0	0	0	0.350366374828694	-0.45549761126606	0.503484839548431	0.645188612628279	0.0780498849516084	0.33050327661041	0.940572059764069	-0.968867463820086	0.24749283946858	-0.0065674928713223	-0.234955427708908	-0.91077707402062	0.339530659040626	-1.10812586411327	-70.147849341871	76.7127707781929
13945	1655201569830	9.17868720244646	-0.0661657317446415	3.30009722557418	0.00472228924886919	0.011295080333041	-0.0585514033694263	0.00638449582501831	-0.00309490441256194	0.0182711134850531	0.5673828125	-0.430908203125	0.1015625	0	0	0	0.350389011624565	-0.455512314661283	0.503544224568839	0.645119590175378	0.0779034901905744	0.330479468144086	0.940592561820117	-0.968905507012026	0.247341508872254	-0.00665555937295459	-0.234847109196382	-0.910826821697736	0.339472143449362	-1.12317496956298	-70.1513087048816	76.7358897088261
13946	1655201569831	9.14086772030756	-0.0589561219340404	3.27033308513633	0.000631936047771306	0.0277382026144362	-0.104276211300846	0.00757179303249082	0.000193252965006596	0.0156122687762195	0.5673828125	-0.4287109375	0.10595703125	0	0	0	0.350384205273038	-0.455520176534465	0.503602301393627	0.645071313496604	0.0777721816021044	0.330504645998074	0.940594581497542	-0.968932946161524	0.247231261452447	-0.00675641942009092	-0.234777412907626	-0.910847617515861	0.339464554930383	-1.1402168717589	-70.1516495213943	76.7584316655388
13947	1655201569832	9.1777411212313	-0.0393220975810425	3.2693293907763	-0.0157538022723987	0.0452346593907309	-0.0700645890196902	0.00874268829592328	-0.00477357120930046	0.0157584136592415	0.569580078125	-0.4287109375	0.10595703125	0	0	0	0.350434400811901	-0.455523865261124	0.503652409755275	0.645002317091089	0.0776645166505396	0.33045147704472	0.940622158027548	-0.968976408157933	0.247059961750616	-0.00678938385539735	-0.234633636307307	-0.910913385903812	0.339387477810339	-1.14603863207673	-70.1563035674791	76.7740653815018
13948	1655201569833	9.19952107097369	-0.0205132737656512	3.28718122495533	-0.0373325556655688	0.0404516806831219	-0.0436475412771493	0.0116949800333782	-0.00480988413437093	0.0119157978814407	0.57177734375	-0.434814453125	0.1015625	0	0	0	0.350463865395932	-0.455531015920404	0.503699239223303	0.644944686769441	0.0775571398807809	0.330421974839356	0.940641381503479	-0.969010617428159	0.246924310915217	-0.00684163653987807	-0.234527852002724	-0.910960868107025	0.339333145172533	-1.1550412943841	-70.1595485019594	76.790571797141
13949	1655201569836	9.2175074443987	0.00375348417834637	3.27127027554292	-0.0555840110091215	0.0659087079277723	-0.0322869005086872	0.00993062323198119	-0.00148535192442242	0.0130991895259332	0.5673828125	-0.424560546875	0.1015625	0	0	0	0.35050207743477	-0.455540994400704	0.503692420792602	0.644922197920351	0.0775526953130124	0.33034871639848	0.940667478455359	-0.96902097597507	0.246884477899998	-0.00681195217015756	-0.234486518951538	-0.910998232789681	0.339261392268658	-1.15027433406092	-70.1639544986129	76.7884757973981
13950	1655201569838	9.19589462975015	-0.0171005909584929	3.25292608065238	-0.0336764651511558	0.0703940858162898	-0.0587031002266958	0.0070681519747056	0.000161419535179054	0.0170572944638102	0.5673828125	-0.4287109375	0.10595703125	0	0	0	0.350492419661255	-0.455552847589779	0.503753907529493	0.644871047157189	0.0774072074032207	0.330376980045506	0.940669535648969	-0.969048259386773	0.246774128817532	-0.00692822674385718	-0.234421831793672	-0.911017881494299	0.339253333625684	-1.16993096782331	-70.1643018583534	76.8134823464634
13951	1655201569838	9.26407113942024	-0.0247644879556866	3.2444853173153	-0.0185678768525249	0.0983332290841089	0.00262200882611729	0.00528749801758905	0.0021234764154477	0.0132981625134406	0.567626953125	-0.432861328125	0.103759765625	0	0	0	0.350557643792925	-0.45551116608539	0.503790432171902	0.644836503620824	0.0774095560471531	0.330359079470183	0.940675629132697	-0.969090763887231	0.246609077660802	-0.00685960376060324	-0.234245281662292	-0.911069065124539	0.339237831899762	-1.15839907791478	-70.1653307850385	76.8124066629542
13952	1655201569839	9.2146339176129	-0.0235572968107422	3.26825825634027	-0.0298100676916171	0.0611521569894721	-0.0358311760585828	0.00894106400911347	0.00669999460783804	0.0131827282607816	0.5693359375	-0.424560546875	0.099365234375	0	0	0	0.350546679239244	-0.455490199110346	0.503854862392759	0.644806933765395	0.0773179123151839	0.330437064316213	0.940655774957718	-0.969119371212827	0.246494606635026	-0.00693204442419038	-0.234157179636407	-0.911071761951784	0.339291408377513	-1.17044413525415	-70.1619784593142	76.8304749760344
13953	1655201569839	9.20795064314498	-0.0431855810300436	3.23151931356482	-0.00247348605027291	0.0870705583188288	-0.0544421505971311	0.00606201691221161	0.00698453885290832	0.0121983540359836	0.569580078125	-0.4267578125	0.103759765625	0	0	0	0.350566356560998	-0.455497723774715	0.503834976538289	0.644806459102468	0.07734428010543	0.330387739496199	0.940670932858864	-0.969116449278318	0.246507092128417	-0.00689646783345488	-0.234160564726768	-0.911086272051656	0.339250106567201	-1.16458057299713	-70.1645377823387	76.8242421901658
13954	1655201569840	9.16216652676134	-0.0470518350178846	3.28942238749513	-0.01622956091502	0.0189194360647285	-0.0778433687709334	0.00994962684391931	0.00676930808386574	0.0102930792789802	0.569580078125	-0.4287109375	0.103759765625	0	0	0	0.350565242954522	-0.455469205009229	0.503892042133124	0.644782617317967	0.0772812263263413	0.330458314519856	0.940651324573666	-0.969145004569309	0.246393640614294	-0.00693786589585133	-0.234063179880671	-0.911091365467553	0.339303627440996	-1.17138461657944	-70.1612270981495	76.8373230700804
13955	1655201569841	9.19602221683114	-0.0508477893490082	3.28585293520726	-0.00768421654195606	0.0321872913553849	-0.0471794652821273	0.0119837899467457	0.0082704261253848	0.00945544143306626	0.571533203125	-0.4287109375	0.1015625	0	0	0	0.350637529106756	-0.455403123275426	0.503898743020649	0.644784751118624	0.0773881041863944	0.330449599429525	0.9406455993451	-0.969175303000703	0.246278759928237	-0.00678265889643181	-0.233902358654058	-0.911125586648227	0.339322636985793	-1.14512249084938	-70.1602605443397	76.8194189877222
13956	1655201569842	9.14542039573095	-0.0197021426628508	3.27957032721757	-0.0403001383518656	0.0296430759738264	-0.0971235066792957	0.0154574282720767	0.00962948016623493	0.00911028352155448	0.571533203125	-0.4287109375	0.1015625	0	0	0	0.350650030115525	-0.455349243492845	0.503969130124344	0.644760993479124	0.0773443646644117	0.330542822155869	0.940616442539621	-0.969215725931259	0.246119344523387	-0.00679300073019318	-0.233749279918037	-0.911134847853275	0.339403245660951	-1.14659573628999	-70.1553388878324	76.830194543474
13957	1655201569843	9.11749808415595	0.00188254405186052	3.32193302980942	-0.0719214613794185	-0.013838637364347	-0.109149364952524	0.0133323977402778	0.00652100169817584	0.00983351493370254	0.571533203125	-0.4287109375	0.1015625	0	0	0	0.350703764750503	-0.455348644488097	0.503896842949107	0.644788688655904	0.0774911672575513	0.33042900137398	0.940644350457736	-0.969198936958037	0.246189682111495	-0.00663784763708425	-0.233770270985158	-0.911157129957745	0.339328962705352	-1.12065929071516	-70.1600497086586	76.8016855413225
13958	1655201569844	9.11898349555708	0.0548196881089258	3.29558879311063	-0.116957600952741	0.0242991298159213	-0.117043953945704	0.0124881798033733	0.00830605615612935	0.00801067513504451	0.569580078125	-0.4287109375	0.103759765625	0	0	0	0.350712951794845	-0.45530482469451	0.503953830012333	0.644770097995518	0.0774561076516047	0.330506122654446	0.940620143456107	-0.969231318794629	0.246061925318495	-0.00664677186166562	-0.233647602288336	-0.911163669049903	0.339395884106498	-1.12194436128254	-70.1559635360689	76.8104187988162
13959	1655201569845	9.14138172985743	0.0444183179016207	3.34500452188865	-0.115820689519138	-0.0164228419827341	-0.0791266648346713	0.00886469905307909	0.00646256499697472	0.0180107382400613	0.57177734375	-0.432861328125	0.106201171875	0	0	0	0.350738943405347	-0.455306198451831	0.503935690725937	0.64476916709999	0.077490170527829	0.330457161220841	0.940634540121418	-0.969231621104443	0.246062026382946	-0.00659877439925549	-0.233635053283582	-0.911181400035241	0.339356918460485	-1.11397252168586	-70.158393614115	76.8029346807117
13960	1655201569846	9.11853726606538	0.0525570626987309	3.29686013201388	-0.115253738955731	0.0226855239773758	-0.117019640438178	0.00404205687037364	0.00685626554381569	0.0179776070431569	0.569580078125	-0.4306640625	0.103759765625	0	0	0	0.350702203131365	-0.455305905620937	0.504002475351085	0.644737157193134	0.0773560742933543	0.330544677952356	0.94061482746515	-0.96925181475229	0.245978939117571	-0.00672912401326925	-0.233595713508002	-0.91117208988641	0.339408994051011	-1.13579754306317	-70.1550662981816	76.8283415657622
13961	1655201569847	9.12213424717084	0.0455506595542191	3.33112977949015	-0.116638793190028	-0.00899157090969616	-0.101964014727903	-0.00359298733145474	0.000890830411135054	0.0198837478271747	0.569580078125	-0.4287109375	0.10595703125	0	0	0	0.350679827834452	-0.455340324596409	0.504000071602598	0.644726899524917	0.0772982332420268	0.330527473778254	0.940625628087725	-0.969242140320463	0.24601517234915	-0.00679767614900412	-0.233654994735122	-0.911168548651556	0.339377694292872	-1.14747105509358	-70.1568892780903	76.8371861141808
13962	1655201569848	9.10045974665611	0.0238921602145456	3.31293328332048	-0.0947153258017652	-0.00453213905264202	-0.1283973243257	-0.00359309256737503	0.000891541168300532	0.0198839141576584	0.57373046875	-0.4287109375	0.103759765625	0	0	0	0.35062922771747	-0.4553817685383	0.50404510676609	0.64468994090054	0.0771319504561823	0.330565304546074	0.940625983932608	-0.969245935822874	0.245995350030823	-0.00697163209408119	-0.233694197851953	-0.911160176474792	0.339373179106361	-1.17684291312384	-70.1569493419993	76.8659701220437
13963	1655201569849	9.14975250704941	0.0195916532368672	3.28964508147554	-0.0810198587511792	0.031414077616226	-0.0899013357939609	-0.0113852528418198	-3.69542507891323E-05	0.0187505432838581	0.571533203125	-0.4287109375	0.1015625	0	0	0	0.350627310076162	-0.455408663901935	0.503992662523409	0.644712986059979	0.0771886899312388	0.330503799196942	0.940642942281016	-0.969218658434201	0.24610377110264	-0.00693728996556797	-0.233788576046192	-0.911153210259091	0.339326876543617	-1.17120717516557	-70.1598119845165	76.8542828069225
13964	1655201569851	9.15349883249043	0.0123595764789462	3.32347537419777	-0.0833098567146306	0.000244238019463217	-0.0748620739443293	-0.00758867979623027	-0.00186401577088674	0.0167318973125516	0.571533203125	-0.4287109375	0.106201171875	0	0	0	0.350578391557049	-0.455463221782236	0.50401315323461	0.644685028788108	0.077047989940502	0.330508340993663	0.940652881662383	-0.969210595816895	0.246131065479556	-0.00709362827882914	-0.233868399324039	-0.911144190092609	0.339296089954035	-1.19770245523555	-70.16148997932	76.8775890495602
13965	1655201569853	9.10942914853271	0.000414679213867249	3.25585216750102	-0.0591437655874185	0.0429531374371735	-0.139170443391876	-0.012960236535607	-0.0111201281364652	0.0160111072378793	0.569580078125	-0.4306640625	0.1083984375	0	0	0	0.350599271855708	-0.45554195334099	0.503911818981167	0.644697260744618	0.0771088148747338	0.330315784425836	0.940715532574943	-0.969166492990148	0.246306058530679	-0.00704516829171942	-0.234031065317814	-0.911166729029449	0.339123358641045	-1.19012843769032	-70.1720700225593	76.8601985923885
13966	1655201569854	9.10808633711092	-0.0547796411560468	3.28156410035394	-0.0136908811177269	0.00441619476373547	-0.131329346991556	-0.0162054058547828	-0.0172676288740781	0.0145672504790863	0.5673828125	-0.4287109375	0.10595703125	0	0	0	0.350566754198554	-0.455663908391011	0.503878142234701	0.644655079262256	0.076954440735869	0.330173972701531	0.940777955631146	-0.969136442181787	0.246419537257595	-0.00720888985777085	-0.234206256291881	-0.911187444716092	0.338946706881038	-1.21841190086955	-70.182616978508	76.8801568709812
13967	1655201569855	9.17416297242411	-0.0870396978763231	3.26778423574276	0.0255558709538321	0.0294932052252945	-0.0736046296679511	-0.0149670087484021	-0.0219925283990071	0.00988805685889258	0.569580078125	-0.4287109375	0.103759765625	0	0	0	0.350631894837218	-0.455699399452609	0.503864162901708	0.644605489431137	0.0769179253637855	0.33002172285563	0.940834361192837	-0.969152698480632	0.246356359332447	-0.0071827045165766	-0.234150976477659	-0.911259681243423	0.338790663322788	-1.21454649021423	-70.1921518584508	76.8803265002997
13968	1655201569856	9.14630312818682	-0.0371796295836732	3.27695608354961	-0.0287659767832766	0.0223261360759316	-0.0970629403713943	-0.018350300868996	-0.0217376230894877	0.0103487791427634	0.57177734375	-0.4306640625	0.106201171875	0	0	0	0.350613475979558	-0.45583314672198	0.503804344372256	0.644567696524354	0.0767946498823601	0.329829523424188	0.940911827551987	-0.969114499579761	0.246502746106348	-0.00731319808973691	-0.234349457976152	-0.9112896804199	0.33857266562214	-1.23740124434053	-70.2052540714367	76.8932577438298
13969	1655201569857	9.21338339193758	-0.0984060189211413	3.29345169087644	0.0320553172052411	0.0119851949546707	-0.0279150234888448	-0.0133624328792536	-0.0202816067106997	0.00566784876424732	0.569580078125	-0.4287109375	0.103759765625	0	0	0	0.350678307984882	-0.455896777110277	0.503703875059882	0.644565946338295	0.0768810697402425	0.329594508978893	0.940987120404184	-0.969086950630064	0.246614261117038	-0.00720335562234081	-0.234435029878473	-0.91134453740869	0.338365705858646	-1.21956668703144	-70.2179966524322	76.8699864772324
13970	1655201569858	9.2346946302582	-0.0499829343469618	3.27961901588943	-0.0107479819715319	0.0417956886745146	-0.0128852467690326	-0.00624717757602308	-0.0157196235494203	0.000263352625748805	0.57177734375	-0.432861328125	0.106201171875	0	0	0	0.350707015724211	-0.45596259678732	0.503649458004204	0.644546292290052	0.0768706675660703	0.329432218338723	0.941044799139964	-0.969069344743294	0.246683625147779	-0.00719681615394846	-0.234511205588881	-0.911384442814545	0.338205398905564	-1.21903722100577	-70.2277635484986	76.8654581331226
13971	1655201569859	9.23788106072223	-0.0266694899226698	3.28191223938508	-0.0329908471274347	0.0449848132077217	-0.00926992280263405	-0.00746410513973385	-0.00962970612033759	0.0098874572030684	0.57373046875	-0.426513671875	0.0947265625	0	0	0	0.350741909671324	-0.455989115342775	0.503606145244472	0.644542388025048	0.0769095543218359	0.329322028750597	0.941080188843442	-0.969060001169246	0.246721926544235	-0.00714178522238207	-0.234537064422402	-0.911413897382464	0.338108078978054	-1.21006665070162	-70.2337584758537	76.8547999955852
13972	1655201569859	9.20033463433219	-0.0194711818320161	3.25144334650607	-0.0370760954103038	0.0614549532357743	-0.0549586978796874	-0.00219094729489958	-0.00887282316559978	0.0182430745619522	0.575927734375	-0.4326171875	0.1015625	0	0	0	0.350725647040942	-0.456053860400005	0.503630846325321	0.644486126733234	0.0767416940877874	0.329266616354551	0.941113281036328	-0.969065757451796	0.246694982274707	-0.00728995575152042	-0.234568263247426	-0.911441210981217	0.33801279384393	-1.23551227241923	-70.2393657902825	76.8803659703493
13973	1655201569861	9.25355782657458	-0.0293464797468436	3.2613617686116	-0.0261805569294711	0.06463232013924	-0.00142796877884876	-0.00781692437553743	-0.00395915873447975	0.026277292643845	0.5654296875	-0.430908203125	0.099365234375	0	0	0	0.350680067500443	-0.45623037733171	0.503433943599935	0.644539833904056	0.0768162144623663	0.328984661742258	0.941205801902009	-0.968948259816005	0.247155509378605	-0.00730917117998114	-0.235028804607452	-0.911418261020775	0.337754666115301	-1.23971434601042	-70.2550511222003	76.8572032258789
13974	1655201569861	9.21026862664466	-0.0716593343877879	3.22439989380145	0.0174655406554432	0.0737218573900756	-0.0543474904460925	-0.00119641040345901	-0.00495442806388913	0.0350094948410197	0.5673828125	-0.430908203125	0.099365234375	0	0	0	0.350619467281518	-0.456309950996377	0.503520538735983	0.644448822526611	0.0764965913854198	0.329004132745527	0.941225027367407	-0.968968740479948	0.247066112468502	-0.0076102590236084	-0.235048615139756	-0.911435470401534	0.337694435569818	-1.29099530043957	-70.2583119727913	76.910749992638
13975	1655201569862	9.24167131304655	-0.10235844744125	3.21624650200327	0.0480573037375084	0.0830316716284523	-0.0272899392562476	-0.00160787789092022	-0.00337699734613563	0.0365706728079837	0.569580078125	-0.4287109375	0.0947265625	0	0	0	0.350546108972936	-0.456452749981208	0.503554845516155	0.644360791851684	0.0761668091835885	0.328926527123266	0.941278894341852	-0.968957468866901	0.247099886082272	-0.0079416512877673	-0.235202127341228	-0.911454324721078	0.337536625037054	-1.34782163326861	-70.2674511602453	76.9622774567398
13976	1655201569863	9.20760463684177	-0.102205578196144	3.22036817504904	0.04145988845574	0.068504872052842	-0.0579558058836298	0.00440806431802795	-0.000493230572916402	0.0339405641226162	0.569580078125	-0.434814453125	0.1083984375	0	0	0	0.350494662391936	-0.456502538105853	0.503658308270421	0.644272638599416	0.0758674824261833	0.328983128494858	0.941283286941847	-0.96898994039275	0.246963600289881	-0.0082143502185662	-0.235165092069308	-0.911470834035623	0.337517848675353	-1.3941624417807	-70.2681965974884	77.0139325013079
13977	1655201569864	9.21032117599571	-0.0807507819570853	3.2240348230334	0.0184307515010563	0.0710757010199302	-0.0543296334552057	0.00627237055706289	0.00467374063360246	0.0251223815057738	0.569580078125	-0.4287109375	0.1015625	0	0	0	0.350473332277118	-0.456541073366606	0.503677393401727	0.644242015913183	0.0757586634106183	0.32896933598172	0.941296871822054	-0.968991221198386	0.246955053477229	-0.00831954340819507	-0.235194893989429	-0.91147812784828	0.337477383383681	-1.4121781798713	-70.2705021630799	77.0314034192929
13978	1655201569865	9.1609072709366	-0.0803770813543947	3.2478078869506	0.00713438030796451	0.0339062757248669	-0.0928243117922598	0.00380396194014328	0.00338873300593072	0.0225785259943655	0.567626953125	-0.432861328125	0.09716796875	0	0	0	0.350436195506109	-0.456560127939275	0.503749398003005	0.644192414164345	0.0755787871753658	0.329032693157139	0.941289187106099	-0.969013470176427	0.246862033781627	-0.00848710161587168	-0.235161097007435	-0.911480456790467	0.337494644910554	-1.44053437266731	-70.2691979154096	77.0635654025409
13979	1655201569866	9.18535458997518	-0.0384641755639241	3.2698357387436	-0.0377930156645655	0.0312775193272675	-0.0627315977154765	-0.00485292744973066	0.00289288366152916	0.0146847789120426	0.571533203125	-0.4287109375	0.1015625	0	0	0	0.350403183121788	-0.456649106826688	0.50367243199319	0.644207485009739	0.0755713489689082	0.328916500162557	0.94133039212374	-0.968961702569729	0.247063381016369	-0.00853842572924346	-0.235376698439317	-0.91146783908242	0.337378404985014	-1.44974112996256	-70.2761921869322	77.0603800197155
13980	1655201569869	9.18245466404562	-0.063668971456155	3.26655706398702	-0.0136691701290288	0.0273406200194301	-0.0663553327256334	-0.00149127244046355	0.00126923891964166	0.009279666796494	0.569580078125	-0.4306640625	0.099365234375	0	0	0	0.35038484517039	-0.456665472158709	0.503685257141449	0.64419583090186	0.075515616552832	0.328926563960521	0.941331348239169	-0.96896120698849	0.24706324402655	-0.00859841860384308	-0.235396624886711	-0.911464244483679	0.33737421362597	-1.45994106941434	-70.2763545092948	77.0699842231435
13981	1655201569872	9.178657227741	-0.0591572917341187	3.2327999886178	-0.00956231007683593	0.0566474710616918	-0.081349148105101	-0.00818360858680704	0.00202730700784654	0.00537525766333349	0.565185546875	-0.4287109375	0.099365234375	0	0	0	0.350395288636562	-0.456713548958101	0.503558487432723	0.644255171212358	0.075683167865128	0.328779767450004	0.941369174456769	-0.968900870695615	0.247303982871537	-0.00847601446164115	-0.235591088259251	-0.911451921151848	0.337271751798792	-1.43960368130356	-70.2827774004839	77.0366727123218
13982	1655201569873	9.18228886554433	-0.0650453714300279	3.26699597368784	-0.0118152038050657	0.0254021986665226	-0.0663476639473863	-0.013773711175498	0.0044587382735781	-0.00130473843596397	0.57177734375	-0.434814453125	0.106201171875	0	0	0	0.350353919735075	-0.456732150849568	0.503514080988056	0.644299187919207	0.0757386252541616	0.328791628334624	0.941360571609878	-0.968863225611336	0.247451402346045	-0.00847664644619711	-0.235728043946	-0.911407630324677	0.337295746613191	-1.43960859896449	-70.2813164607271	77.0279470896356
13983	1655201569874	9.19449640022256	-0.088396065702006	3.24480985344125	0.0176159095874169	0.043706791061286	-0.0621413116802891	-0.0108952191299581	0.00416852427666042	-0.000321027836052233	0.569580078125	-0.4287109375	0.103759765625	0	0	0	0.350348427376697	-0.456736212113305	0.503459428781251	0.644342002006949	0.0758412722312946	0.3287664852606	0.941361088847277	-0.968833739820143	0.247569166011865	-0.00840789071677905	-0.235816212361352	-0.911384719100327	0.337296023958132	-1.42793533404053	-70.281404295304	77.0100024803991
13984	1655201569875	9.16405889054069	-0.0907451674365685	3.2832299489708	0.00847793902311608	-0.00181992467510173	-0.0778153171993825	-0.011587361516265	0.000919832435141358	0.000893448093553768	0.567626953125	-0.432861328125	0.103759765625	0	0	0	0.350318054148529	-0.456764496626887	0.503420841287855	0.644368615092171	0.0758673023564291	0.328751481293455	0.941364231305033	-0.968802879943308	0.247689434989234	-0.00842161553771892	-0.235934593153927	-0.911357453111606	0.33728691111755	-1.43030391786751	-70.2819379392839	77.0051224420964
13985	1655201569876	9.15658995324926	-0.0807081356351979	3.21540020199209	0.0148104078956204	0.0597605883671452	-0.107809150868782	-0.00887611080557461	-0.00122194647604578	0.00658964152294635	0.57177734375	-0.432861328125	0.1015625	0	0	0	0.350337366372805	-0.456760407743169	0.503404685460064	0.644373635632398	0.0759073051502951	0.32872093810435	0.941371672548424	-0.968801891352792	0.247694904759642	-0.00837433384607394	-0.235925785653187	-0.91136698371617	0.337267319282522	-1.42235961972305	-70.2832016471302	76.9973363472102
13986	1655201569877	9.13864500638765	-0.106718957096463	3.23080747449408	0.0342407043222657	0.0331732641088327	-0.119284171512588	-0.00709999560725405	-0.00318597349056549	0.0103485038255732	0.569580078125	-0.4306640625	0.103759765625	0	0	0	0.350310342144852	-0.456806901449636	0.503399589622466	0.644359350162836	0.0758326159118315	0.328692101000837	0.941387761288421	-0.968788828764644	0.24774303470858	-0.00846132461335819	-0.236003431383524	-0.91136430229247	0.337220237948678	-1.43732918105671	-70.2859341804548	77.0085951889825
13987	1655201569878	9.15677801774084	-0.0829112847565958	3.21480854068014	0.0163833706097881	0.0586331881382846	-0.107804801999098	-0.00431562349223824	-0.0050849850064758	0.0112164095628291	0.5673828125	-0.430908203125	0.099365234375	0	0	0	0.35032642120919	-0.456848994173554	0.503344844600029	0.644363532906655	0.0758659278743709	0.328581578349973	0.941423659866694	-0.96876667099733	0.247830732034668	-0.00843003107413554	-0.236083667695398	-0.911380312837731	0.337120790250747	-1.4324378066073	-70.2920325549326	76.9988588337696
13988	1655201569879	9.16068461704183	-0.0894362811635511	3.24819902194084	0.0141477380121125	0.0273828181206457	-0.0928114228487988	0.00575921032896824	-0.00610414525677563	0.0146586623788256	0.57177734375	-0.4306640625	0.1015625	0	0	0	0.350338522206389	-0.456879965336193	0.503377672728535	0.644309347853223	0.0757432317456053	0.328536576316015	0.941449244976745	-0.968787183842368	0.247747676913295	-0.00851357779313244	-0.23603888507512	-0.911419116875774	0.337047234265284	-1.44694370357798	-70.2963800054344	77.0174547207274
13989	1655201569880	9.17988573638848	-0.09503993910595	3.26215548139551	0.0173318422762494	0.0176503766051311	-0.069978245704883	0.00343842367055796	-0.0124228669672735	0.0151498066464684	0.563232421875	-0.430908203125	0.106201171875	0	0	0	0.350383464567197	-0.45696644573985	0.503314481499823	0.644272945216809	0.0757124003609069	0.32831683383375	0.941528379313642	-0.968770779630897	0.247811920940906	-0.00851048605678412	-0.236116092134641	-0.911480832744694	0.336826190451553	-1.44736727950376	-70.30983243481	77.0141688695329
13990	1655201569881	9.21717597662617	-0.0753723019269589	3.26029618971804	0.000675566949139873	0.035363962957541	-0.0356584656146293	0.00173499982811332	-0.0102152454306974	0.00656307912698985	0.567626953125	-0.432861328125	0.103759765625	0	0	0	0.350411652436222	-0.457006769939638	0.503304401127265	0.644236886457288	0.0756589840705275	0.32821352578678	0.941568690866485	-0.968775515503136	0.247792707285683	-0.0085308134234211	-0.236113783356773	-0.911523261198881	0.33671297213251	-1.45131047695169	-70.3166885852895	77.019074062578
13991	1655201569882	9.25152003350216	-0.0792732451653613	3.25524882022708	0.00805883418618352	0.050107188852674	-0.00498751218424864	0.00827970906355833	-0.00594171879980366	0.00743068925544557	0.57177734375	-0.4306640625	0.099365234375	0	0	0	0.350485730818167	-0.456949101466156	0.503413808591856	0.644152007278694	0.07554411197663	0.328241751044372	0.941568075083786	-0.968858310140653	0.247468579623794	-0.00853680094528309	-0.235810648650692	-0.911601149061532	0.336714542324256	-1.45232190238936	-70.316583836306	77.0391937082218
13992	1655201569883	9.27251433742659	-0.0305137641235588	3.24272945871976	-0.0346433475155447	0.0798943580438283	0.0101515503663805	0.00566263752041638	-0.00219133468120232	0.00185054823035583	0.569580078125	-0.4306640625	0.1015625	0	0	0	0.35051701037256	-0.456945054826276	0.503412048156787	0.644139233458018	0.0755550532808006	0.328200872582023	0.941581446907347	-0.96886893067095	0.247428270420143	-0.00849977513966799	-0.235763502485571	-0.911626808641176	0.336678084618587	-1.44618209197448	-70.3188585982962	77.0358199553051
13993	1655201569885	9.25268610783777	0.0031536542827575	3.19754750534315	-0.0568438974918412	0.121471288298436	-0.0239931848133637	0.00112465418363921	0.0030381890053591	0.00216811610943407	0.569580078125	-0.4306640625	0.1083984375	0	0	0	0.350550899644271	-0.456963067270508	0.503310869799693	0.64418707705976	0.075725846984411	0.328075087465575	0.941611561676549	-0.968830344809104	0.247584470200137	-0.00834823890348524	-0.235867248840457	-0.911629676513535	0.336597643818642	-1.42074914739656	-70.3239825291826	77.0026951892063
13994	1655201569886	9.27234433626378	-0.0308385327599723	3.24321246670228	-0.0330160119202795	0.0781322746373969	0.0101713287727812	-0.00206860779327074	0.0065139023214168	0.00286163065745204	0.565185546875	-0.4287109375	0.103759765625	0	0	0	0.350533359930924	-0.456952319954879	0.503309441901565	0.644205360545942	0.0757483659611788	0.328115216888719	0.941595767567102	-0.968823345056777	0.247611938536546	-0.00834589522886825	-0.235888768548247	-0.911607773299594	0.336641881726782	-1.42016388042984	-70.3212950526045	77.0004974612771
13995	1655201569888	9.25316185640733	-0.0268635567748852	3.22917681240164	-0.0335391352555073	0.0868456668390551	-0.0126546204496645	-0.00526186672275787	0.00998981660656311	0.00355511639677182	0.569580078125	-0.432861328125	0.1015625	0	0	0	0.350574749943845	-0.456828571538481	0.503388364031572	0.644208938067098	0.0758156223674561	0.328269442387612	0.941536597589048	-0.96887969132484	0.247394999318856	-0.00823759979034605	-0.235635598209009	-0.911611149288198	0.336810001855842	-1.40104398017522	-70.3112300051897	76.9952525939071
13996	1655201569889	9.23190985230847	-0.0763309662298208	3.24239532657904	0.00976628138426097	0.0565610772615417	-0.0278103216804055	-0.00651184827737672	0.0133522687226693	0.00329470622480791	0.571533203125	-0.4287109375	0.1015625	0	0	0	0.350524855951426	-0.456807037598007	0.503390419538746	0.644249750700589	0.0758508318350768	0.328373862482527	0.941497348773874	-0.968862746689082	0.247460821753675	-0.00825347048729347	-0.235693931589287	-0.911555674731556	0.336919311522332	-1.40328692969144	-70.3045563514026	76.9934150654942
13997	1655201569890	9.20598370277886	-0.0910092794067642	3.19142979561657	0.0352673534750172	0.0910076914059165	-0.0692733590855443	-0.00456855092298916	0.0132388658916378	0.00234102827920569	0.56982421875	-0.43701171875	0.099365234375	0	0	0	0.350518063940824	-0.45678950725642	0.503317798226808	0.644322610886605	0.0760290800971094	0.328372128294383	0.941483576244963	-0.968824023142396	0.24761656167859	-0.0081271498482815	-0.235795655519288	-0.911514006333359	0.336960865823227	-1.38164745773608	-70.302215060581	76.9638261183384
13998	1655201569891	9.21203336812859	-0.0726055156194645	3.23033071129586	0.00921886658567395	0.0634489568591701	-0.0506304181084065	-0.00318145318913073	0.0197364969238979	-8.69921695628508E-05	0.57177734375	-0.434814453125	0.10400390625	0	0	0	0.35047081653252	-0.456733076094336	0.503327376134083	0.644380831802448	0.0761128992707704	0.328525798372065	0.941423191964483	-0.96881225483683	0.247663518386017	-0.00809916900900481	-0.235816965976952	-0.911445874127837	0.337130207920869	-1.37620108575396	-70.2919530570405	76.9558413480996
13999	1655201569892	9.18964838133863	-0.0923733475235582	3.21383143474926	0.0307608246973296	0.067226998095961	-0.0771125610477856	0.000631521388534452	0.0192669105593366	0.00283447983521602	0.57177734375	-0.4306640625	0.103759765625	0	0	0	0.350397383465819	-0.456737318841515	0.503287309274285	0.644449051175671	0.0761858118018288	0.328606934954618	0.941388976130392	-0.968765180767659	0.247847115967517	-0.00811366987182555	-0.235986750925346	-0.911366715107764	0.337225390475544	-1.37827512422183	-70.2861405256231	76.9468868910652
14000	1655201569893	9.14268193469749	-0.0661470079511803	3.24222100418953	-0.00443025842642381	0.0337946731867572	-0.111973802720891	0.00322564480263147	0.0141505030576933	0.00347151163089407	0.571533203125	-0.4287109375	0.0947265625	0	0	0	0.350376565718634	-0.45668928664379	0.503313209587795	0.644474181573191	0.076221417038437	0.328718289938653	0.941347216198391	-0.968771185357629	0.247824150499296	-0.00809820042220916	-0.235950600773612	-0.911332802157977	0.337342315320005	-1.37517170333025	-70.2790486439698	76.9452678471269
14001	1655201569894	9.19515508121549	-0.0741925592618016	3.25421528994435	0.00614202696324678	0.0375582635710132	-0.0584651960409683	0.00197587257368535	0.0175136749794138	0.0032109307055856	0.5673828125	-0.4267578125	0.099365234375	0	0	0	0.350376652820754	-0.456688419521847	0.503195404297149	0.644566733338753	0.0764601451377332	0.328660116329643	0.941348168394512	-0.968711955585903	0.248061172504707	-0.00792475870456333	-0.236116482504827	-0.911289296891923	0.337343777265525	-1.34572433560841	-70.2792103234209	76.9035489704271
14002	1655201569895	9.13298450930308	-0.0490012234671083	3.30166725352186	-0.0337886035686632	-0.0184952422391082	-0.101182335887826	0.00281538269072542	0.0157276267262846	0.00503293098140281	0.569580078125	-0.4287109375	0.1015625	0	0	0	0.350347388991017	-0.456639326434809	0.503227385286338	0.644592453631142	0.0764854485020787	0.328788358578106	0.941301328709862	-0.968717941486314	0.248037811450105	-0.00792426233543964	-0.236083726694482	-0.911249394707375	0.337474465160682	-1.34511916558822	-70.2712586226625	76.9042980478419
14003	1655201569895	9.15725650684433	-0.0954142102910041	3.25768134172034	0.0247937715098763	0.0178117384994084	-0.0928104975240185	0.000997516237069125	0.00944035827623793	0.00407753596664947	0.567626953125	-0.432861328125	0.099365234375	0	0	0	0.35038864699194	-0.45661829267919	0.503174588293238	0.644626143237947	0.0766301369733454	0.328731256926361	0.941309504268953	-0.968706719980885	0.248086259510177	-0.00777807856247092	-0.236082851497776	-0.911256807141579	0.337455061699799	-1.32038967608106	-70.2726463180628	76.8781808184522
14004	1655201569896	9.18070003454095	-0.0228781753150833	3.24990810500307	-0.0416921009247474	0.051304481797042	-0.0739344254539453	0.00193150461504642	0.00926239005584172	0.00601534715746245	0.569580078125	-0.4287109375	0.10595703125	0	0	0	0.350370912477533	-0.456594030474906	0.503195840438226	0.644636379046365	0.0766316750006966	0.328802154884007	0.941284616537539	-0.968711223241156	0.248068339710656	-0.00778876112241844	-0.236063873460577	-0.911236106493171	0.337524230048684	-1.32193162000886	-70.2684222391506	76.8806581366218
14005	1655201569897	9.14348041703217	-0.0440722188196774	3.25145359540042	-0.0239170147138603	0.0326130599455213	-0.108281597028391	0.0008267073758068	0.0075900977161941	0.00879008950129209	0.567626953125	-0.432861328125	0.1083984375	0	0	0	0.350378396948957	-0.456575594485991	0.503201627958362	0.644640851242998	0.0766536962796371	0.328820201823844	0.941276519264767	-0.968717101351919	0.248046201143067	-0.00776270873014889	-0.236032600280142	-0.911235620995481	0.337547410942486	-1.31742104439554	-70.267048113884	76.8777138649472
14006	1655201569898	9.13101840274824	-0.0218701607755611	3.27433678028306	-0.0521738478509991	0.0134267763580505	-0.112462917495469	0.00128632742888122	-0.000630320736304008	0.0101492096694346	0.5654296875	-0.430908203125	0.110595703125	0	0	0	0.350374145467793	-0.456592021900969	0.503217287971715	0.644619302232326	0.076592173245553	0.328811075085213	0.941284715640719	-0.968723233089069	0.248020638548212	-0.00781412359766376	-0.23602740660988	-0.911245872284448	0.337523367448197	-1.32623806776901	-70.2684390577507	76.8875305392128
14007	1655201569899	9.18123595281911	-0.0544349363195516	3.28115639125716	-0.0180100361346831	0.0169409376134247	-0.0626395342206614	0.000572777855345125	-0.00524556067573655	0.00641892909761893	0.567626953125	-0.432861328125	0.099365234375	0	0	0	0.350449791275513	-0.456473239056255	0.503371560500659	0.644541851162181	0.076498508209245	0.328946172154737	0.941245129637602	-0.968829977555226	0.247604031748162	-0.00779217892483602	-0.235619296391661	-0.911310407757314	0.33763425164088	-1.32208069260464	-70.2617220922636	76.9082063448741
14008	1655201569900	9.16246104895735	-0.0506843135211796	3.26599572411825	-0.0198924157783231	0.0250653877994317	-0.0854593182405168	0.000257690101861168	-0.00206037178914779	0.00809566290809449	0.5673828125	-0.430908203125	0.1015625	0	0	0	0.350450426689833	-0.456492382118736	0.503376502107831	0.644524088476266	0.0764536043864942	0.328920662174503	0.941257692861525	-0.96883246255118	0.247593191117199	-0.00782759346283557	-0.235623653064226	-0.911322560736367	0.337598407000953	-1.32822820655404	-70.2638535863009	76.9146467519693
14009	1655201569902	9.19952493303441	-0.0307892252949776	3.26489307939294	-0.0367989616394246	0.041840822651022	-0.0510978948189553	-0.000866287455741808	-0.00509901909976799	0.00592638425166564	0.569580078125	-0.4306640625	0.1015625	0	0	0	0.350456694940428	-0.456574470434338	0.503316518754986	0.64450937919273	0.0764244697919318	0.328765274275254	0.941314344333358	-0.968803593885632	0.247705173839588	-0.00785769224284211	-0.235751769646181	-0.911348199802807	0.33743971583807	-1.33396050315948	-70.2734679005574	76.9134920985527
14010	1655201569903	9.21486146663538	-0.0305590399623009	3.24541156636796	-0.0317346105765651	0.0641979473399126	-0.0432363331697658	-0.00178116544826999	-0.00355405563305389	0.00893266840079877	0.57177734375	-0.4306640625	0.106201171875	0	0	0	0.350452576121924	-0.456605370308138	0.503316701529674	0.644489585374787	0.076367667534116	0.328727687970946	0.941332080892113	-0.968801801153314	0.247710579701593	-0.00790814681176399	-0.235777542267058	-0.911360288725144	0.337389055390551	-1.34272430617601	-70.2764788946809	76.9214403788272
14011	1655201569904	9.23960942095297	-0.0773701471450915	3.20003292106176	0.0270257824044921	0.10132960968975	-0.0348767187571788	-0.00211499715998035	-0.00173550991988437	0.00566535708865677	0.567626953125	-0.434814453125	0.1015625	0	0	0	0.350496236415541	-0.456595319930704	0.503274594721428	0.644505845112286	0.0764707922507211	0.32865695358763	0.94134840775934	-0.968796718390277	0.247734141133048	-0.00779190306030408	-0.235765002425672	-0.911379395298999	0.337346204151838	-1.32316233881528	-70.2792509669016	76.9016664556564
14012	1655201569905	9.25930070491309	-0.111965965975164	3.24533463393146	0.0509216744651182	0.0579393083567762	-0.000784757135166458	-0.00334420642382844	0.00299463054357359	0.0103485141214825	0.571533203125	-0.4287109375	0.103759765625	0	0	0	0.350467614596072	-0.456611262246886	0.503287069967173	0.644500373554975	0.0764165607863252	0.328682489443728	0.941343895911937	-0.968792328953199	0.247749152646393	-0.00786007152831769	-0.23580062043817	-0.911366105632675	0.337357212617289	-1.33469048705924	-70.2784848813169	76.9116174866156
14013	1655201569906	9.24015320501417	-0.108267120945969	3.23122129057655	0.0495345064457219	0.0655164876159204	-0.0236017131313719	0.00406904494839108	0.0123644488601619	0.00529455040116511	0.569580078125	-0.4287109375	0.1015625	0	0	0	0.350470849439935	-0.456575408218339	0.503280213437458	0.644529368660152	0.076495846745207	0.32872501414865	0.94132260702891	-0.968790498755316	0.247758420910394	-0.00779322715022368	-0.235782431389959	-0.911348248443458	0.337418160606215	-1.32310498591028	-70.2748705375754	76.9001422458585
14014	1655201569907	9.2406470731845	-0.137745256169012	3.26256846915985	0.0712101970990559	0.0305135675956518	-0.0123361903526664	0.00673706564234381	0.00748776511828064	0.00110417939972793	0.57177734375	-0.432861328125	0.1083984375	0	0	0	0.350484611171176	-0.456535279261367	0.503293664354926	0.644539807569809	0.0765420524198732	0.328768423473168	0.941303690600606	-0.968802782824545	0.247712049504761	-0.0077400595326077	-0.235716953575195	-0.911345194894404	0.337472152243871	-1.31387139827514	-70.271659513437	76.8941736004928
14015	1655201569908	9.21476299415284	-0.151728605080406	3.21162515955333	0.0969968468987921	0.0658035467392432	-0.0538105848839532	0.0142651324133726	0.0198333363817009	0.00111047578601764	0.569580078125	-0.434814453125	0.106201171875	0	0	0	0.350541260901254	-0.45638809558885	0.503334589533956	0.644581276170217	0.0767283943669337	0.328914387148744	0.941237525508008	-0.968845821100895	0.247550230768885	-0.00752716291870026	-0.235479358826215	-0.91133649612689	0.337661461221083	-1.27702832351934	-70.2604320724206	76.8690002665505
14016	1655201569908	9.20833351486598	-0.109610927321488	3.2734072820949	0.0424067213090761	0.0193151611605122	-0.0393335786626228	0.0176477647457449	0.0195729958969889	0.000651286961732224	0.57177734375	-0.434814453125	0.099365234375	0	0	0	0.350561028760864	-0.456280369746184	0.503392585457939	0.644601500311923	0.0768082581805144	0.329067000020951	0.941177667059991	-0.96888346330739	0.247405740040193	-0.0074319798601839	-0.235298376545086	-0.91132064022076	0.337830378596821	-1.260254946053	-70.2502800749866	76.8616914072441
14017	1655201569910	9.18594474715623	-0.128608227713542	3.25691738009455	0.0640757121527489	0.0231995116149183	-0.0658423578642644	0.018152984680853	0.019605644138283	-0.000793548480457806	0.5673828125	-0.430908203125	0.110595703125	0	0	0	0.3505628905517	-0.456217100826497	0.50339502450788	0.644643363405079	0.0769188124283535	0.329154952270578	0.941137882401068	-0.968886094609991	0.247398218137495	-0.00733875560242708	-0.235251422877762	-0.911290919003447	0.337943233363005	-1.24403628532913	-70.2435353644515	76.8468313401475
14018	1655201569910	9.15979316720851	-0.0523489231100945	3.2734444469307	-0.01408253366321	0.0198551949625875	-0.0854371415805293	0.0221364490103309	0.0209857358946348	-0.0025815924235608	0.567626953125	-0.434814453125	0.1015625	0	0	0	0.350600861908031	-0.456088021130639	0.503455304479486	0.644666975268589	0.0770329467452109	0.329312310014774	0.941073497442406	-0.968931723272094	0.247223584041628	-0.0071982727499238	-0.235026042711695	-0.911281461441165	0.338125505220967	-1.21957188336018	-70.2326248354285	76.8340690506204
14019	1655201569911	9.15918685430696	-0.0515998686058933	3.27515240054851	-0.0137471288904593	0.0200942787171572	-0.0854371527382849	0.0203334809136052	0.0160672699386331	0.00140809684339676	0.569580078125	-0.4287109375	0.10595703125	0	0	0	0.350650674280766	-0.455948858764023	0.503572848587476	0.644646514753415	0.0770500487145599	0.32949541400643	0.941008003229417	-0.969010513059031	0.246916981583878	-0.00711546109395478	-0.23469536760268	-0.911298401378077	0.338309485636459	-1.20489022130337	-70.2215322629224	76.8383111520189
14020	1655201569912	9.14254990406862	-0.0225354605002052	3.26553432881902	-0.0394756158548906	0.0319453176049542	-0.104553567495696	0.0231643373621796	0.0224200587852975	-0.000527612985316443	0.575927734375	-0.4306640625	0.103759765625	0	0	0	0.350683527548187	-0.455815898399695	0.503644938158673	0.64466635288309	0.0771472860664497	0.32967163653486	0.940938312705465	-0.969060145188265	0.246725679547012	-0.00699099848117662	-0.234458378524377	-0.911286481363842	0.338505860544877	-1.18313394164399	-70.2097355274374	76.829078720843
14021	1655201569912	9.10706280505718	0.0109160721254578	3.2410007355298	-0.0657127761868967	0.0514536838242043	-0.146466176225697	0.013045263629803	0.0151910096310185	-0.00117434416117354	0.569580078125	-0.4287109375	0.1015625	0	0	0	0.35075728147853	-0.45570507379193	0.503606857902312	0.644734323488243	0.0774260367881042	0.329701507988913	0.940904949746319	-0.969068999345835	0.246698924327103	-0.00670188351971879	-0.234329860099281	-0.911282917850262	0.338604430420165	-1.13388802736001	-70.2040904623653	76.7843121323181
14022	1655201569913	9.11604407176221	0.0538436755455453	3.28291354395375	-0.115555220710641	0.0275994533530997	-0.124108250363792	0.0106402095044442	0.0086323627089034	0.00414592067475127	0.57177734375	-0.4306640625	0.103759765625	0	0	0	0.350774220692709	-0.455655984913984	0.503640911397616	0.644733202089104	0.0774469115572924	0.329763288992577	0.940881580818243	-0.969092781041262	0.246606556928004	-0.00666241801667417	-0.234224588000386	-0.911285564086755	0.338670139018981	-1.12699396348258	-70.2001373230861	76.7832638137556
14023	1655201569915	9.14697990713366	0.0264199203664766	3.27608072838577	-0.0835167530031673	0.0367124531505606	-0.0971162798583283	0.00395417918493916	0.00939296019209308	0.00023161318082091	0.5654296875	-0.432861328125	0.106201171875	0	0	0	0.350807563772764	-0.455638009638095	0.503565024761634	0.644787037098039	0.0776325400197001	0.329701880357688	0.940887803523191	-0.969066920851332	0.246712638073266	-0.00649439193825413	-0.234270125371989	-0.911279070484742	0.338656114745707	-1.09862373167825	-70.2011898955314	76.7503206544168
14024	1655201569916	9.14666553132784	0.0264509974508454	3.27695809873792	-0.0831521968521266	0.036442455928579	-0.097112136417083	-0.000867241896920963	0.00980012063651778	0.000194574725052255	0.57177734375	-0.4306640625	0.106201171875	0	0	0	0.350793724209648	-0.455607265263432	0.503561749302015	0.644818848618895	0.0776951689581438	0.329763876069419	0.940860907233496	-0.969060553504348	0.246738655390041	-0.00645597228632289	-0.234275701604782	-0.91124959367672	0.338731565788605	-1.09188284292978	-70.196640765469	76.7424139652014
14025	1655201569917	9.1523454303689	-0.0152609998792022	3.21761628579539	-0.0275272650788783	0.0825494134618315	-0.111597620191617	-0.00371367639591124	0.00207752242972519	-0.00281216538746084	0.569580078125	-0.4287109375	0.099365234375	0	0	0	0.350818159016413	-0.455573580085039	0.503553963164601	0.644835435296525	0.0777722386194487	0.329771908741173	0.940851724293112	-0.969065847388971	0.246720050971116	-0.00637180297126549	-0.234228227001816	-0.911251724088362	0.338758664865672	-1.07756468461928	-70.1950878296124	76.730039982631
14026	1655201569918	9.20809818331814	0.00102054748861564	3.23194060792321	-0.0417726750578857	0.0918005996712818	-0.0543913540726333	-0.00515205970308568	0.00222349245773576	-0.00330620286976151	0.57177734375	-0.432861328125	0.10400390625	0	0	0	0.350817546865649	-0.455571700889865	0.503516518368669	0.644866334901564	0.0778510821564169	0.329756610470412	0.940850565636297	-0.969046796580787	0.246796329082123	-0.00631490206589796	-0.23428084651458	-0.911236604731533	0.338762948318966	-1.06793065103382	-70.1948918963508	76.7164694810413
14027	1655201569919	9.17103735349811	-0.0193076206199446	3.23296858115243	-0.0242267019147831	0.0722925537000031	-0.0887698589568107	-0.00742739553323775	0.00415531823559121	-0.00562424576144758	0.57373046875	-0.4306640625	0.106201171875	0	0	0	0.350818014700458	-0.455623151353505	0.503370552199795	0.644943681022152	0.0780512622575486	0.329609694888972	0.940885460348496	-0.968972932526585	0.247089615479404	-0.0061788310440552	-0.234519629222873	-0.911210278123243	0.33866852902466	-1.0452157160448	-70.2007935405103	76.6778046772856
