// Start Time : 01/07/2022 05:29:58																																
// Update Rate : 100Hz																																
// Filter Profile : 46.1 human																																
// Firmware Version : 4.4.0																																
PacketCounter	Time_Of_Arrival	Acc_X	Acc_Y	Acc_Z	FreeAcc_X	FreeAcc_Y	FreeAcc_Z	Gyr_X	Gyr_Y	Gyr_Z	Mag_X	Mag_Y	Mag_Z	VelInc_X	VelInc_Y	VelInc_Z	OriInc_q0	OriInc_q1	OriInc_q2	OriInc_q3	Mat[1][1]	Mat[2][1]	Mat[3][1]	Mat[1][2]	Mat[2][2]	Mat[3][2]	Mat[1][3]	Mat[2][3]	Mat[3][3]	Euler_X	Euler_Y	Euler_Z
24567	1656653427461	5.8954009466283	-0.292046725278645	8.16391901318561	1.23165366794353E-14	1.11943874309128E-15	0.261567786669982	0.0161744665734488	-0.00833261688801018	-0.0150679631994888	0.266845703125	-0.44287109375	0.5439453125	0	0	0	-0.230982447082132	0.203589949212068	-0.744108961487922	-0.59287443455857	-0.190294027973613	0.788274950243571	0.585158769682274	-0.976377768924894	-0.214102074853367	-0.029099035941594	0.102345665598623	-0.57687338676869	0.810396483439555	-2.05644519996952	-35.8142071530136	103.571860524148
24568	1656653427462	5.9225083035008	-0.411771440842148	8.09603571168442	0.0298013019268787	0.0942162344939016	0.226321030308597	-0.0320186525881826	-0.000680503763500938	-0.0144863235429185	0.26123046875	-0.458251953125	0.5537109375	0	0	0	-0.228807288860732	0.204625479521063	-0.747287124325446	-0.589353536947377	-0.200619266103638	0.787193017270789	0.583162982045459	-0.974472222074955	-0.221581643236784	-0.036131202371196	0.100775981624293	-0.575524742248846	0.811551275389955	-2.5491910496868	-35.6733188544171	104.297695543638
24569	1656653427463	5.88699057532924	-0.33046292721423	8.14824812766811	-0.0370693355416403	0.0173639213595622	0.245052711226911	0.00686481606175468	-0.0137923075981696	-0.0129145161624187	0.257080078125	-0.449951171875	0.554443359375	0	0	0	-0.228892263987576	0.204625696593259	-0.747240309150392	-0.589379823340767	-0.200479510650897	0.787142244873784	0.583279566026651	-0.974491200726847	-0.221519496265061	-0.0360001733387911	0.100870538390186	-0.575618101791054	0.811473311560732	-2.54020230346424	-35.6815419991718	104.289027313365
24570	1656653427464	5.89615282323416	-0.363533571668844	8.14870045238133	-0.00617674981135798	0.0309355761290166	0.251958614673418	-0.0170093702179675	-0.00380027873904056	-0.0148543831231587	0.260986328125	-0.453369140625	0.556884765625	0	0	0	-0.228863607702372	0.204682411629694	-0.747180086574949	-0.589447603833249	-0.200345942809392	0.787158313009459	0.583303774597694	-0.974535733644634	-0.221313265409388	-0.0360630337540962	0.10070554626996	-0.575675454413279	0.811453118877814	-2.54469520065571	-35.6832496349016	104.279617274905
24571	1656653427468	5.87218447437343	-0.387317626670691	8.1458937148725	0.0219770185005234	0.0181964956772401	0.236558159094844	0.00373517795879788	-0.0116854945471837	-0.0129783104091116	0.27294921875	-0.454833984375	0.552490234375	0	0	0	-0.228931553235662	0.204688045177365	-0.747132284141039	-0.589479853844701	-0.200207691688675	0.787119755093784	0.583403266471653	-0.974557963538685	-0.221232612145398	-0.0359570163758606	0.100765350652011	-0.575759170543054	0.811386296189152	-2.5374328305184	-35.6902680239687	104.270836542363
24572	1656653427469	5.93066203635491	-0.372032914063012	8.15099603514259	-0.00329648625729826	0.0571154314594043	0.274265793732747	-0.00688508098588288	-0.00612006596357869	-0.0126268633721415	0.26708984375	-0.455078125	0.554931640625	0	0	0	-0.228947350002128	0.204718009562822	-0.747080902079858	-0.589528432931936	-0.200078675383637	0.787111575378795	0.583458560277797	-0.974590158527269	-0.221093526650903	-0.0359398855710237	0.100710210795735	-0.575823775453721	0.811347294975278	-2.53634727055406	-35.694168845126	104.262157710768
24573	1656653427465	5.86685384609793	-0.405313334676933	8.15847148964543	0.0433319383134537	0.00923937970324195	0.244297615506307	0.000604835576767603	-0.00957996935648502	-0.013040965026049	0.26708984375	-0.454833984375	0.555908203125	0	0	0	-0.228998265748316	0.204729059438402	-0.74703211209621	-0.58956664593819	-0.199941928562913	0.787085234354013	0.583540966055025	-0.974615632592725	-0.220994364437321	-0.035858884433685	0.10073526645831	-0.575897842285274	0.811291613011462	-2.53081176474664	-35.699982693017	104.253264886334
24574	1656653427470	5.92266435922312	-0.409085261051804	8.13509360421185	0.034515871231258	0.0667316577674337	0.25803293159046	0.000531734663474854	-0.00749564010947975	-0.014668435642599	0.2646484375	-0.46435546875	0.556884765625	0	0	0	-0.229043332282737	0.204734556043783	-0.74698063226672	-0.58961245620898	-0.199792606840067	0.787072000763246	0.58360995524973	-0.974644340562025	-0.220881826089537	-0.0357718927898349	0.10075377741041	-0.57595909969189	0.81124582699675	-2.52482241743297	-35.7048503074447	104.243283215891
24575	1656653427472	5.88877490456299	-0.345554376734869	8.11671905912983	-0.0207640000783762	0.0360234356348308	0.22107946111247	0.0148401083177028	-0.0108015420374602	-0.0166285146044231	0.268310546875	-0.455810546875	0.553955078125	0	0	0	-0.229144444956786	0.204691928482657	-0.746934425954138	-0.589646505191085	-0.199619644522774	0.787046511062948	0.583703509449997	-0.974662584420118	-0.220836426659982	-0.0355544538918387	0.100919988367508	-0.576011338502717	0.811188075518995	-2.50967343487375	-35.7114516097973	104.231895995807
24576	1656653427466	5.8963878291141	-0.358354198157574	8.18783563615075	-0.00134522740016995	0.00323085370046169	0.283670758400433	-0.00818852435305459	-0.00479316999823559	-0.0137196169131629	0.26708984375	-0.45751953125	0.55859375	0	0	0	-0.229154225650606	0.204725587945418	-0.746879374918924	-0.589700749387001	-0.19948273407776	0.787043187029775	0.583754794888124	-0.974698121335764	-0.220680919625624	-0.0355458011264451	0.100847464367695	-0.576075475491887	0.811151549013749	-2.50917628471811	-35.7150706070076	104.222588773169
24577	1656653427468	5.91644205952563	-0.371215708702598	8.1327182327052	0.00344996791513683	0.0531725077328142	0.251126697233502	0.0240117943252595	-0.010864200278289	-0.0213326138879196	0.260498046875	-0.45361328125	0.550048828125	0	0	0	-0.229287429115428	0.204643506312967	-0.746828596151137	-0.589741772426284	-0.199263833410285	0.787027673090276	0.583850465859833	-0.974716406880944	-0.220651354358879	-0.0352264953791222	0.101103169345679	-0.576107994745515	0.811096620347145	-2.48683311886209	-35.7218221435492	104.207882734723
24578	1656653427469	5.8894706876027	-0.321466684381684	8.18590074564046	-0.0324121698552222	-0.0103694362853646	0.27676349984497	-0.0062868003004973	-0.00765538237600197	-0.0131245018004966	0.26806640625	-0.451416015625	0.558349609375	0	0	0	-0.229314047874147	0.204680718157734	-0.746773553818092	-0.589788208071258	-0.199129874135336	0.78700414427768	0.583927880920755	-0.97474880028783	-0.220511346469058	-0.0352068518308609	0.101054784964801	-0.576193737355901	0.811041742124015	-2.48561607578913	-35.7272857724015	104.199124914723
24579	1656653427470	5.85784163708083	-0.402620679608545	8.09749272942854	0.0451654992378504	0.032697211803061	0.189446969289102	0.00668918155150143	-0.0134347577087895	-0.0166375182498268	0.2578125	-0.45458984375	0.553955078125	0	0	0	-0.229400962958147	0.204676282646158	-0.746715927906812	-0.589828907842175	-0.198954115335162	0.786963407783818	0.584042682344778	-0.974775153118708	-0.220418957591713	-0.0350554417541914	0.101146729327258	-0.576284719512381	0.810965635032049	-2.47517177007169	-35.7353886632671	104.187803240685
24580	1656653427471	5.92287430184476	-0.275951536749762	8.17324441627544	-0.0819648912879735	0.0111497122203772	0.28442463611653	0.00556420190331347	-0.0124659813754121	-0.0140183081292969	0.267822265625	-0.4521484375	0.5498046875	0	0	0	-0.229481496042438	0.204683355776274	-0.746664799963427	-0.589859850589836	-0.198807199272522	0.786913089297182	0.584160497988508	-0.974797260091285	-0.2203401610606	-0.034935871855619	0.101222523362833	-0.576383555730518	0.810885933684576	-2.46698185733275	-35.7437051605316	104.178619005859
24581	1656653427476	5.86263902537572	-0.381041794164124	8.12453693561085	0.0286507949387461	0.0139347250626042	0.213419281040638	-0.00378532737200303	-0.0120449535083588	-0.0130274344051456	0.259521484375	-0.451416015625	0.553955078125	0	0	0	-0.229528631285107	0.204718063296739	-0.746608680641357	-0.589900500060298	-0.198668014897991	0.786872354383715	0.584262712966625	-0.974826981855069	-0.220215829177286	-0.0348904575363828	0.101209561326137	-0.576486675029345	0.810814243960835	-2.46399647003263	-35.7509211251705	104.169796472991
24582	1656653427475	5.91710520025052	-0.332382190275973	8.08625430983475	-0.0325240824616333	0.0667732959324902	0.212511085160466	0.00258187009093279	-0.0145315860594643	-0.010825392725279	0.26708984375	-0.45166015625	0.55029296875	0	0	0	-0.22960757755622	0.204745174780253	-0.746560658849365	-0.589921144214521	-0.198546807874788	0.786801748992691	0.584398984311894	-0.974845923383166	-0.220144914025667	-0.0348086554157678	0.101264953196819	-0.576610114904927	0.810719547465936	-2.45851340551236	-35.76054234949	104.162719088905
24583	1656653427476	5.89474515363324	-0.317064482283855	8.18227514647078	-0.0324356816111222	-0.0107151921659298	0.276763063011421	-0.000970444624104427	-0.0112610572312959	-0.0066753567161314	0.267822265625	-0.450927734375	0.550537109375	0	0	0	-0.229653583773981	0.204774349111732	-0.746527045947534	-0.589935646553489	-0.198470328770568	0.786751504764461	0.584492599053708	-0.974860157318436	-0.220086797742767	-0.0347775090023613	0.10127784689051	-0.576700850710479	0.810653394811267	-2.45651644955967	-35.7671525455633	104.158350868786
24584	1656653427477	5.91398950154164	-0.403361426984452	8.11304919400076	0.0413227857199956	0.0620995949100975	0.234898192910279	-0.00804243230044659	-0.00897277980027386	-0.0104663231221003	0.26416015625	-0.458740234375	0.5576171875	0	0	0	-0.229684660572537	0.204825150888513	-0.746474097513442	-0.589972911244804	-0.198353841390019	0.786708602440591	0.584589880558836	-0.974889383474779	-0.219957243121658	-0.0347778835826054	0.101224718295428	-0.576808795047623	0.810583228522352	-2.45675526019785	-35.7740222362121	104.151115540055
24585	1656653427477	5.90726136230021	-0.297813668378091	8.12540444561078	-0.0585853402007972	0.0255289868095518	0.237314782958402	0.000962048079535191	-0.0103113379711189	-0.00562417908227689	0.2646484375	-0.451904296875	0.55224609375	0	0	0	-0.229731743939574	0.204845518202844	-0.746446649011098	-0.589982236748525	-0.198288572295378	0.786661490924128	0.584675414904791	-0.974899563463908	-0.219918547986831	-0.034737204971691	0.101254546835892	-0.576887797538129	0.810523278997381	-2.45406646177001	-35.7800628725806	104.147459237968
24586	1656653427477	5.91559254067612	-0.403191314503025	8.11188887710292	0.0414343213292475	0.0617515919703367	0.234899878400276	-0.00969108440498867	-0.00856124549116131	-0.00572121146722798	0.263427734375	-0.4541015625	0.5478515625	0	0	0	-0.229755330896058	0.204910018027268	-0.746405195303082	-0.59000309902701	-0.198217662126734	0.786604418725814	0.58477623657433	-0.974921094708902	-0.219816455301178	-0.0347790895571017	0.101186053943255	-0.577004518543703	0.810448744873815	-2.45724752912447	-35.787183725056	104.14358793561
24587	1656653427478	5.89262089849118	-0.3554794307591	8.12300651922444	0.000717521114438182	0.0258986357897044	0.228822000043351	0.00106638704622779	-0.00858766034097214	-0.00353959191232846	0.26904296875	-0.44677734375	0.55126953125	0	0	0	-0.229794152440022	0.204927305806132	-0.746385979985115	-0.590006284475913	-0.1981744635666	0.786562644572787	0.584847063900259	-0.974927030770936	-0.219794767227936	-0.0347497477887802	0.101213470754919	-0.577069724090496	0.810398893678825	-2.45532782649403	-35.7921865127316	104.141350092579
24588	1656653427478	5.91520720999868	-0.350664993106363	8.09633633809437	-0.0109128203225297	0.0567844304231917	0.220256411879463	-0.00582628194058339	-0.00666082136849222	-0.00361648780614668	0.270751953125	-0.459716796875	0.557373046875	0	0	0	-0.229820750325677	0.20498003213129	-0.746356485246543	-0.590014920216112	-0.198129633284236	0.786505594618645	0.584938969507269	-0.974940253763422	-0.219731160699661	-0.0347810093196443	0.101173860291912	-0.577171695989288	0.810331218294396	-2.45773896997954	-35.7986786044249	104.139263793285
24589	1656653427479	5.89660799215173	-0.33624206551528	8.15053020376653	-0.0157073428121014	0.00683776856469935	0.252792933359457	-0.00209445412619924	-0.0102927237946999	-0.00405694062779505	0.26513671875	-0.45751953125	0.5498046875	0	0	0	-0.229857140805815	0.205013551103957	-0.746330540923505	-0.590021916854916	-0.198079664902853	0.786455095359701	0.585023785272648	-0.97495041009251	-0.219687162989192	-0.0347742473420553	0.101173831658288	-0.577257250626204	0.810270277368642	-2.45744631806226	-35.8046703497286	104.136712122951
24590	1656653427479	5.91257311583864	-0.350816256352757	8.13735220954401	-0.00594372498339659	0.0287025055598371	0.251965371014936	-0.00757841315711388	-0.00797307960954467	-0.000956620421174956	0.26611328125	-0.44775390625	0.54736328125	0	0	0	-0.229884253089259	0.205081583738798	-0.746304311368581	-0.590020888634842	-0.19805716231229	0.786380212571096	0.585132054952932	-0.974960319371719	-0.219633789971476	-0.0348335176713602	0.101122381832107	-0.577379562834886	0.81018954838556	-2.46187469956402	-35.8123196358547	104.136462573148
24591	1656653427479	5.89740509745779	-0.408599555270383	8.13533456120931	0.0532473816009465	0.0294210068502559	0.243470344615252	-0.000819157202761518	-0.0154333111632656	-0.00342701247885507	0.2607421875	-0.4580078125	0.5498046875	0	0	0	-0.229942937948153	0.205126235450726	-0.746275619246368	-0.590018790324542	-0.198008144703473	0.786298617773311	0.585258283426103	-0.974967934692449	-0.219602109187555	-0.0348201085856533	0.101144950208245	-0.577502724953015	0.81009894563517	-2.46120306734655	-35.8212386466546	104.13451194972
24592	1656653427480	5.92136828475943	-0.331744015249496	8.12225716311435	-0.0272945978692342	0.0370633538642685	0.244230609259127	0.00385564797335103	-0.0116114274831316	0.0023516859280481	0.27099609375	-0.4521484375	0.548583984375	0	0	0	-0.230012720534765	0.205170082555627	-0.746267425262471	-0.589986707993015	-0.198019665567522	0.786192265304133	0.585397244633491	-0.974959180747982	-0.219641843231364	-0.0348146029297062	0.101206758290892	-0.577632394069001	0.809998771232626	-2.46111834775169	-35.8310584818835	104.137136878085
24593	1656653427480	5.890839406509	-0.374992136914972	8.13299094364472	0.0222174006893314	0.0153843505974784	0.23656232909163	-0.00522751439846382	-0.00818963798015128	-0.00411460540297073	0.263916015625	-0.451171875	0.5546875	0	0	0	-0.230032073849482	0.205209014608643	-0.746240508877507	-0.589999667994903	-0.197971273532821	0.786153994558083	0.585465004672493	-0.974972615370223	-0.219579304178508	-0.0348328645768644	0.10117200271785	-0.577708253374358	0.809949010647712	-2.46255880976383	-35.8358472548012	104.134480992038
24594	1656653427481	5.89577327276464	-0.375190265661556	8.09026885213947	0.0173638829536945	0.0422804146303152	0.204860793126825	0.000513472678610223	-0.012956146080641	-0.00187823813608822	0.269287109375	-0.450439453125	0.5478515625	0	0	0	-0.230104375744431	0.205266644194738	-0.746213526210226	-0.589985554352984	-0.197938043836135	0.786044895806502	0.585622704972127	-0.974975907900839	-0.219565300871666	-0.0348289773905387	0.101205285510491	-0.577862008121041	0.809835162088594	-2.46263006553581	-35.8469934522382	104.134086437162
24595	1656653427482	5.89531484520059	-0.355620356073524	8.16018089839243	0.00577563596641894	-0.00388305701480796	0.260529936297974	-0.000685903328643351	-0.00990124691546615	-0.000882400121136931	0.258544921875	-0.450927734375	0.5576171875	0	0	0	-0.230140219188115	0.205297381007937	-0.746198821850215	-0.589979476874136	-0.197919392758735	0.785989612590748	0.585703203738429	-0.974978349646398	-0.219554404437206	-0.0348293154255097	0.101218237935657	-0.577941339922721	0.809776929726657	-2.46283081268653	-35.8526836784899	104.133762202453
24596	1656653427483	5.88687230442633	-0.394021566548954	8.14459277611548	0.0436011296118676	0.00512368018057172	0.244299391009111	0.00393265368340656	-0.0136980408449602	0.00397551960203537	0.264404296875	-0.43994140625	0.5498046875	0	0	0	-0.230218075949495	0.205352038347869	-0.746192768416757	-0.58993773418474	-0.197946214582176	0.785863039808133	0.585863959290985	-0.974966044451146	-0.219608020262701	-0.0348357518016099	0.101284294438346	-0.578093072177671	0.809660355704976	-2.46363960170837	-35.8640482483755	104.137786239869
24597	1656653427483	5.91673270763406	-0.369793960450448	8.10390073293425	0.0105635163469243	0.0454132330605755	0.22800516448282	0.00959718997261625	-0.0163800258567633	0.00458381533178413	0.26123046875	-0.4599609375	0.551513671875	0	0	0	-0.230302805902982	0.205369768305086	-0.746197298296065	-0.589892759639565	-0.197974299436063	0.785758299278295	0.585994941853666	-0.974947234831521	-0.219699580782267	-0.0347848170681975	0.101410384365566	-0.578200647975577	0.809567751719058	-2.46032289617148	-35.8733092298082	104.141520866281
24598	1656653427484	5.89596776402438	-0.374419600082359	8.12930033055753	0.0221370777223122	0.0133853429634275	0.236565367801633	0.00281012825925475	-0.0127289896623881	0.00659717652122224	0.2685546875	-0.45361328125	0.55322265625	0	0	0	-0.23036822878688	0.205432599478334	-0.746200044261796	-0.589841860315851	-0.198034117969463	0.785629756396479	0.586147058326206	-0.974930332704113	-0.219768053781421	-0.0348259803964542	0.10145607174292	-0.578349278897739	0.80945585247434	-2.46357088354624	-35.8840658204353	104.147843807179
24599	1656653427485	5.89446320550302	-0.393526552211277	8.09996104481638	0.0386117455881357	0.0319991914934746	0.212601336381171	0.00818597112167671	-0.0167752065752145	0.00140569150160866	0.27197265625	-0.451171875	0.55517578125	0	0	0	-0.230453515827759	0.205453069514187	-0.746193304990539	-0.589809939605226	-0.198030824371009	0.785529691886288	0.586282266288153	-0.974919220714886	-0.219826542740157	-0.0347678614181192	0.101569216200668	-0.57846295842685	0.809360426539646	-2.45975425325721	-35.8936279884747	104.14934776802
24600	1656653427485	5.94080334627412	-0.344387073310596	8.14573824046113	-0.0129903937032992	0.0290688733291004	0.275116383947283	0.00996558203506532	-0.011653857890838	-0.000795702571569955	0.26123046875	-0.462158203125	0.55322265625	0	0	0	-0.230544565992025	0.205486017592555	-0.746179916102475	-0.589779816940869	-0.198017941241488	0.78541633916113	0.586438461498912	-0.974911078134351	-0.219870528206295	-0.0347180148799117	0.101672438140331	-0.578600142589866	0.809249399331001	-2.45656861273448	-35.9046758532219	104.150424146353
24601	1656653427486	5.92091031843791	-0.368387733358011	8.10091302672612	0.0102814751565476	0.0438996766543405	0.228012188860024	-0.00248519042232717	-0.00531892119808922	0.000612924836773831	0.26611328125	-0.451904296875	0.546142578125	0	0	0	-0.2305565275663	0.205511607827613	-0.746173023656792	-0.589774944713286	-0.19801840437002	0.785384222196857	0.586481316884851	-0.974912392898064	-0.219860987273099	-0.0347415090211948	0.101658928306974	-0.578647362216002	0.809217333289358	-2.4583262569568	-35.9077073329967	104.151011325013
24602	1656653427487	5.91076853784859	-0.387301294955966	8.15617773312025	0.0362255086830888	0.00660385878267886	0.267444891005079	0.00377852762233913	-0.00952955797936757	0.000720993267029088	0.26904296875	-0.455078125	0.553466796875	0	0	0	-0.230614023579525	0.205564844100066	-0.746162486177931	-0.589747243502966	-0.198030721818232	0.785282267248681	0.58661366670145	-0.974906810466337	-0.219882567301539	-0.0347615808506624	0.101688466024928	-0.578777519727274	0.809120533997156	-2.46003871606436	-35.9170701519067	104.153619734084
24603	1656653427487	5.90305749337321	-0.353647873539745	8.15466741545697	0.00518665996427185	-0.00684741903740538	0.26052867788731	0.000540166565012747	-0.00914943259342905	-0.0014195761177763	0.264404296875	-0.457275390625	0.5517578125	0	0	0	-0.230651157903887	0.205588211948446	-0.746148322446497	-0.589742495819757	-0.19800766396376	0.785232429588046	0.58668815953185	-0.974909066137241	-0.219874551464249	-0.0347490198683053	0.101711738629459	-0.578848177972126	0.809067060930875	-2.45931321196653	-35.9223404833036	104.152900083622
24604	1656653427488	5.9010952131238	-0.372860760412953	8.12565073391107	0.0213612939966883	0.0109678333577854	0.236569976071911	0.00124581618678138	-0.00895284956076854	0.000167959318843637	0.269775390625	-0.44677734375	0.5517578125	0	0	0	-0.230699783638431	0.205649421707932	-0.746133362572331	-0.589721061551035	-0.198013358784602	0.785134563082821	0.586817201175621	-0.974907671456375	-0.219874769828626	-0.0347867464462905	0.101714020067787	-0.57898083167369	0.808971850360748	-2.46226937599764	-35.9314709479076	104.154984061579
24605	1656653427489	5.9085112862602	-0.353902621702115	8.1115244503635	6.77053216574519E-07	0.0199152647080305	0.228835675089927	-0.00434171352869986	-0.00835619515434117	0.00118776598368073	0.2626953125	-0.453125	0.551025390625	0	0	0	-0.230716845925498	0.205691727331521	-0.746122777823543	-0.589713024043428	-0.19801657255949	0.785083546110217	0.586884369036012	-0.974909732361801	-0.21985892516186	-0.0348291081268598	0.101688006854463	-0.579056023760808	0.808921300627131	-2.46541798093947	-35.9362238912305	104.156087430888
24606	1656653427489	5.92038123090789	-0.368271711648034	8.14046214962346	0.0143767422900157	0.0140056907125113	0.259713497311113	-0.00199290783047922	-0.00857284692028232	-0.0019725734491297	0.264404296875	-0.44970703125	0.552490234375	0	0	0	-0.230760415923378	0.20575443150917	-0.746100997640346	-0.589701658194453	-0.198003169531164	0.784994034591827	0.587008611956297	-0.974913947364365	-0.219834136474101	-0.0348675734045127	0.101673694189038	-0.579186773067144	0.808829488714416	-2.46841724092787	-35.9450163427919	104.156716970786
24607	1656653427490	5.91554871010339	-0.40713900237632	8.083052676074	0.047328737806627	0.0512454755402456	0.211800311919228	-0.0030070603083481	-0.0058772192223795	0.00273720293998935	0.26513671875	-0.456298828125	0.556640625	0	0	0	-0.230770636161871	0.205786165482879	-0.746099198326981	-0.58968886189001	-0.19802391929662	0.78495396559338	0.587055192708176	-0.974911582880565	-0.219838200517435	-0.0349080385952642	0.101655953842942	-0.579239533778974	0.808793935162597	-2.47138688627029	-35.9483130323072	104.158834525356
24608	1656653427491	5.93669315405252	-0.382905664945192	8.12698089425595	0.0237265333273324	0.0356389908718749	0.25890276436507	-0.000243566430491595	-0.00726115352108057	-0.00463433150401825	0.265380859375	-0.448974609375	0.548583984375	0	0	0	-0.230812179445557	0.205840756950482	-0.746073526516396	-0.589686029704819	-0.197992248381117	0.784877163977725	0.587168550798894	-0.974919378899581	-0.219799938298038	-0.0349312434681672	0.101642875928635	-0.579358114287235	0.808710641195288	-2.47328208003271	-35.9563363721485	104.157990638087
24609	1656653427492	5.90128790989466	-0.393001987050664	8.0950156742541	0.0373217998182341	0.0280872156401555	0.212617944703565	-0.00762810823710705	-0.00207970775089372	-0.00211677386777988	0.2705078125	-0.456298828125	0.559814453125	0	0	0	-0.230799567797326	0.205872831417538	-0.746057099921793	-0.589700551504725	-0.197969638119182	0.784869845531036	0.587185956881675	-0.974931287580553	-0.219739273678299	-0.0349805102858428	0.10157266797463	-0.579391039954384	0.808695873577387	-2.47681121341156	-35.9575684244728	104.156565526804
24610	1656653427492	5.91557064097974	-0.387959553940054	8.15266419998157	0.0350378137396288	0.00338028363050164	0.26745068575482	0.000462444106733685	-0.00706446315471012	-0.00304715232326487	0.26025390625	-0.454833984375	0.549072265625	0	0	0	-0.230843341653788	0.205933196845719	-0.746034455028994	-0.589690988536036	-0.197951779307012	0.784782975901354	0.587308074016187	-0.974936205170606	-0.219712112952591	-0.0350140438887812	0.101560272334835	-0.579518997235917	0.80860574010203	-2.47945861863536	-35.9662127650204	104.156843697531
24611	1656653427493	5.90481406237735	-0.373939200100371	8.1228991151077	0.0204807184445043	0.00855695279188525	0.236574151353748	-0.00632304478151717	-0.00341155990213832	-0.00102810337220621	0.26806640625	-0.45751953125	0.55419921875	0	0	0	-0.230838502190829	0.205965530392713	-0.74602101669109	-0.589698591529211	-0.197938314109519	0.784765536510265	0.587335914544001	-0.974944634665439	-0.219667542877027	-0.0350589495484943	0.101505581839402	-0.579559507999072	0.808583572392686	-2.48270253612568	-35.9681836528989	104.156221358214
24612	1656653427493	5.90503947039158	-0.374090185177916	8.12272829995252	0.0198470450016337	0.00783126776579236	0.236576014541175	-0.000813204579555028	-0.00192184179671351	-0.00367462232708368	0.267333984375	-0.4609375	0.55029296875	0	0	0	-0.23084433954624	0.206015958043326	-0.746006155061485	-0.589697492398714	-0.197935516716258	0.784720682366532	0.587396784029732	-0.974951153448522	-0.219628584980319	-0.0351216891527092	0.101448408620661	-0.579635001812129	0.808536631861902	-2.48728408488527	-35.9724928996153	104.156805954305
24613	1656653427494	5.91634704133315	-0.388270592084414	8.15208597680886	0.0344008150262102	0.00265651439367585	0.267453096513472	-0.00517288394496322	-0.000571197498666501	-0.00319042305045445	0.263427734375	-0.455322265625	0.547607421875	0	0	0	-0.230834345463725	0.206033227017132	-0.745990872175688	-0.589714704708809	-0.197904144009072	0.784724483596548	0.587402276662398	-0.974962664005662	-0.219573752830219	-0.035144997695779	0.101398982139955	-0.579650629182947	0.808531628638482	-2.48894808047975	-35.9728817613463	104.15458649157
24614	1656653427494	5.89003575158842	-0.360018041523887	8.13523870307113	0.00936746424246068	-0.0153245837567378	0.237383299785305	-0.00587906400328287	-0.00076809399260597	-0.00477831704632765	0.27001953125	-0.451171875	0.55322265625	0	0	0	-0.230816169778588	0.206105034560251	-0.745967996507252	-0.589725663918924	-0.197895074168252	0.784688194706457	0.587453808148577	-0.97497769330358	-0.219488712088603	-0.0352590814701348	0.101272094776269	-0.57973195733374	0.808489220995319	-2.49714802667687	-35.9765301275457	104.154592125155
24615	1656653427495	5.93163394852374	-0.402977382965031	8.13933958649913	0.0432714468466198	0.0242933503972599	0.26665083008006	-0.00323911305679097	0.000380020897574272	-0.00213958621358109	0.267333984375	-0.448974609375	0.55517578125	0	0	0	-0.2308070441618	0.206113795982163	-0.745958906109124	-0.589737672077676	-0.197875172995394	0.784695105485586	0.587451280821659	-0.97498516953203	-0.219453162476454	-0.0352736257234884	0.101238999919205	-0.579736061415924	0.808490422942233	-2.49817307794647	-35.9763511919584	104.153106246093
24616	1656653427496	5.87222603156353	-0.365184904104345	8.11933027644737	0.0158598394334434	-0.0198592332596568	0.214240222892281	-0.000107007125982826	-0.00172501172497068	-0.00208711547806386	0.258056640625	-0.448486328125	0.55126953125	0	0	0	-0.230827271015863	0.206153421851441	-0.745947379749199	-0.589730484424551	-0.197873453391507	0.784644155676339	0.587519910646341	-0.974987482782539	-0.219437444798652	-0.0353074530036628	0.101220081309424	-0.579810966421991	0.808439075228622	-2.50072439831906	-35.9812103504706	104.153870265233
24617	1656653427497	5.89886149708847	-0.393596498846105	8.13593416327262	0.040089928803401	-0.00264192686651946	0.244314958703409	-0.00538700212685858	-0.00402170092440686	-0.00736505510881954	0.268310546875	-0.449951171875	0.55078125	0	0	0	-0.230833865085965	0.206176929229497	-0.745915519126449	-0.589759984153969	-0.19779777564037	0.784637014549227	0.58755492964573	-0.975007484411629	-0.219348469888411	-0.0353079891656387	0.101175319584521	-0.579854295626832	0.808413601165939	-2.50084102681936	-35.9836898960889	104.148798076264
24618	1656653427498	5.90187428024408	-0.374430921848492	8.16420215748897	0.0231841682021053	-0.0216271328896175	0.268260517642108	-0.00580144375035204	-0.00285483112963333	-0.00315343745292125	0.263427734375	-0.4541015625	0.55078125	0	0	0	-0.230827706790081	0.206226127245999	-0.745904860069867	-0.589758674326459	-0.197806551669461	0.784602314832148	0.587598311499167	-0.975013130961721	-0.21931098099563	-0.0353848564636848	0.101103721834848	-0.579915425881024	0.808378708438299	-2.5063865933829	-35.9867616876978	104.150001261043
24619	1656653427499	5.90627860144656	-0.374642767583834	8.12180186711112	0.0183104160774191	0.00595876523816767	0.236580216625908	0.000463039724067089	-0.00706450015953192	-0.00304899520846548	0.26806640625	-0.457275390625	0.552734375	0	0	0	-0.230858439211467	0.206241551347609	-0.745888338550376	-0.589762146934794	-0.197769982175417	0.784568210544871	0.587656155547404	-0.975018621123513	-0.219290065081189	-0.0353631986546994	0.101122315107691	-0.57996947364418	0.808337607085155	-2.50498167955142	-35.9908577075616	104.148080609587
24620	1656653427500	5.89621281334737	-0.393771582868007	8.17704629928175	0.0437604017533083	-0.0310938082688086	0.275998672443485	-0.00757953811402345	-0.0079794000089555	-0.000954407232075629	0.2666015625	-0.45263671875	0.55517578125	0	0	0	-0.230852471335148	0.206335010546218	-0.745870325120479	-0.589754574383292	-0.197793356944873	0.784494978057994	0.58774604834934	-0.975026766488228	-0.219230810833748	-0.0355057208445073	0.100997983049112	-0.580090924754874	0.808265999802693	-2.51528695273727	-35.9972235676655	104.150953443876
24621	1656653427501	5.91442089272481	-0.355816928839055	8.1071327526705	-0.00382456829316835	0.0143973519000328	0.228844374299603	0.00173926030093513	-0.0122075925792779	-0.00242391948341486	0.260498046875	-0.455078125	0.546630859375	0	0	0	-0.230905372484016	0.206361677196445	-0.745851059175913	-0.589748899675834	-0.197757888578322	0.784429643063157	0.58784517739695	-0.975029722821043	-0.219222187031626	-0.0354777723171988	0.101038889149497	-0.580182529723947	0.808195134285376	-2.51352966393718	-36.0042440986939	104.149648902452
24622	1656653427505	5.91985517191231	-0.389090213586361	8.14949972591403	0.0313592369894358	-1.83047227545544E-05	0.26746336774724	-0.00515378088214274	-0.0102816568533431	-0.002490623865941	0.26171875	-0.454345703125	0.542236328125	0	0	0	-0.230913224710378	0.206438865046179	-0.745834354557076	-0.58973993693384	-0.19777177887825	0.784357682372436	0.58793651832717	-0.975035538505891	-0.219179603567432	-0.0355808941786496	0.100955545315061	-0.580295896490201	0.808124155304601	-2.52104735498837	-36.0107136120032	104.151848920151
24623	1656653427502	5.89331517671823	-0.432780983919898	8.11820040052667	0.0759993611617504	0.00590148571436085	0.228120877132422	-0.00180675682767037	-0.00893646461368351	0.00173578229108033	0.2685546875	-0.459228515625	0.54931640625	0	0	0	-0.230938990026681	0.206473914285163	-0.745827581476061	-0.589726143489323	-0.197780517141334	0.78430229219995	0.588007467205315	-0.975033801127434	-0.219183196809948	-0.035606360318889	0.100955206395179	-0.580369400197904	0.80807141121044	-2.52301385901156	-36.0157391594475	104.153408405483
24624	1656653427503	5.94336724707433	-0.384585555936835	8.1220219525372	0.0185675857433188	0.0308352231949642	0.258929449283022	-0.00150097360130192	-0.0118288096410863	-0.00456453447203181	0.2705078125	-0.458740234375	0.555908203125	0	0	0	-0.230955717889502	0.206561950879501	-0.745803270853592	-0.589719507907855	-0.197780716734124	0.784216148459637	0.588122283698952	-0.975042803075761	-0.219126124883543	-0.0357109725950562	0.100867835598369	-0.580507341804267	0.807983233645999	-2.53069270149994	-36.0238726764868	104.154914335825
24625	1656653427505	5.90176745790007	-0.413758163928063	8.10331004390483	0.0535226242579667	0.0143528515523545	0.220388828339066	-0.00515412986663484	-0.0102826560301972	-0.00249131240843137	0.266845703125	-0.44677734375	0.552001953125	0	0	0	-0.23098072598586	0.20660907084305	-0.745778983722374	-0.589723921429714	-0.197747201433212	0.784161987244068	0.588205765091407	-0.975052839958434	-0.219076776677864	-0.035739686756181	0.100836519249355	-0.580599124768435	0.807921192136834	-2.53291914823548	-36.0297869649044	104.153550302517
24626	1656653427506	5.89849319939974	-0.413550474686867	8.14491351663506	0.0578405640732048	-0.0137608463712285	0.252069330425012	0.00168956512276135	-0.00631036578006626	-0.0035881451187137	0.263671875	-0.454833984375	0.548583984375	0	0	0	-0.231007952993833	0.206653094607858	-0.745762441985441	-0.58971875013985	-0.197734242774185	0.784103173647389	0.588288519614834	-0.975057207108197	-0.219052588444978	-0.0357687903334318	0.100819700956122	-0.580687675580985	0.80785964828519	-2.53517193412289	-36.0356501961435	104.153678965207
24627	1656653427508	5.91249662169966	-0.375107393206988	8.11725494561234	0.0151216671069638	0.00414682037015643	0.236586431867233	-0.00269941376435359	-0.00877291683775426	-0.00356540402941248	0.265625	-0.45263671875	0.548095703125	0	0	0	-0.231035891704845	0.206685203784021	-0.745739199388802	-0.589725944635179	-0.197691453936585	0.784060106905209	0.588360295907391	-0.975066908338964	-0.219009073521807	-0.0357707978302719	0.100809787732806	-0.580762235751356	0.80780728656181	-2.53547815663251	-36.0407359635068	104.151485263734
24628	1656653427509	5.9065479922201	-0.394184323495191	8.13032714383582	0.0355699828090618	-0.00511264824678805	0.244331008170839	0.000540785100039125	-0.00915258014012318	-0.00142721739536797	0.260009765625	-0.457275390625	0.54541015625	0	0	0	-0.231048886193557	0.206745980803731	-0.745733765880126	-0.589706420209638	-0.197725500304501	0.783991121833849	0.588440776472058	-0.975064836192636	-0.219004874770075	-0.0358528945494396	0.100763047542063	-0.580856940831947	0.80774502322044	-2.54148528614561	-36.0464388697928	104.155019855559
24629	1656653427510	5.87685298447132	-0.365551671651421	8.15519831017876	0.0161935140773191	-0.0499094909167977	0.245917674221257	-0.00259169984974354	-0.00704801290859411	-0.00147768733143577	0.264404296875	-0.451904296875	0.547607421875	0	0	0	-0.23106838530019	0.206775157111496	-0.745718825611831	-0.589707443436482	-0.197705064940744	0.783953481000124	0.588497788376954	-0.97507028769591	-0.21897833111425	-0.0358667611450314	0.100750391311365	-0.580917748162515	0.807702871432558	-2.54259946084755	-36.0504790212426	104.154267959997
24630	1656653427511	5.88998993553926	-0.399284865778044	8.1135183438196	0.0412506873276877	-0.00894602807018789	0.221195636489389	-0.00463407937175618	-0.00972579937331078	-0.00461681302655935	0.261962890625	-0.45068359375	0.546142578125	0	0	0	-0.231057178094137	0.206850136404481	-0.745704814068153	-0.589703257406811	-0.197725297309942	0.783900698227846	0.588561298525132	-0.975077533451873	-0.218926178546489	-0.0359879438762754	0.100640501594069	-0.581008626153628	0.807651203041244	-2.55134178228375	-36.0549799152044	104.156573057138
24631	1656653427512	5.91539554435486	-0.37521073189684	8.11513784150652	0.0130557477897399	0.00377324004479874	0.236589475422244	-0.000686460771039061	-0.00990849504282963	-0.000891294228047726	0.264404296875	-0.4462890625	0.546142578125	0	0	0	-0.231091942442967	0.206881564291155	-0.745690419276481	-0.589696812856952	-0.197708366088579	0.783845202155245	0.588640893106135	-0.975079852345975	-0.218915374525595	-0.0359908369626115	0.100651296700716	-0.581087564704771	0.807593064988762	-2.55173005594848	-36.0606210586016	104.156371470045
24632	1656653427513	5.8877906710573	-0.399218835526771	8.15435471999121	0.0456037508089765	-0.036543883956206	0.252874731892536	0.00140592090405889	-0.0131304720600142	0.0034075400464724	0.264404296875	-0.45703125	0.547607421875	0	0	0	-0.231127291574872	0.206929889362009	-0.745700856876278	-0.589652802954311	-0.197779494114777	0.7837549110968	0.588737217304419	-0.975063490593316	-0.218979185713502	-0.0360458809884037	0.100670060195083	-0.58118530225385	0.807520391955782	-2.55585716561572	-36.0674484287869	104.162825318689
24633	1656653427514	5.93251566610317	-0.389489710133942	8.10103723264482	0.0222320793380818	0.0261647899640007	0.235798574809703	0.00244560135140978	-0.0120139986000573	-0.000842485906668605	0.259765625	-0.455810546875	0.554931640625	0	0	0	-0.231179087653213	0.206955763884403	-0.745687465576308	-0.589640352171757	-0.197760969045189	0.783687150266219	0.588833634934283	-0.975062528983698	-0.218987133771579	-0.0360236007975664	0.100715756931187	-0.58127367543191	0.807451082453703	-2.55449842911735	-36.0742830147735	104.162727324117
24634	1656653427515	5.92681229424237	-0.408549795158583	8.11393812601593	0.0423156839055535	0.0173674025174298	0.243550326909018	-0.000607767972197006	-0.0119965111832546	0.000732094254105481	0.268798828125	-0.4580078125	0.551513671875	0	0	0	-0.231170809257446	0.207023931227066	-0.745696097992312	-0.589608750177259	-0.197843157323337	0.783622109263775	0.588892583561151	-0.975053668133449	-0.219005227227404	-0.0361532115666077	0.100640098170858	-0.5813545392616	0.807402297693098	-2.5638318172591	-36.0784618944012	104.169504901671
24635	1656653427516	5.94567109998216	-0.403434973931725	8.1290686106776	0.0354593462922342	0.0211423348493937	0.266688442669015	0.00437998267870687	-0.0110624101000589	0.000206919351841656	0.267822265625	-0.45703125	0.5478515625	0	0	0	-0.231223162439149	0.207041005552062	-0.745689209118164	-0.58959093834315	-0.197836749150564	0.783557848916022	0.588980235736	-0.975048553149339	-0.219033094887269	-0.0361223247519554	0.100702232780201	-0.581430649988631	0.807339742343259	-2.56184259508907	-36.0846759847793	104.170179646936
24636	1656653427516	5.91346100901521	-0.393834888343151	8.12531740515601	0.0314135011932473	-0.00558767345581267	0.24434459731339	0.00113875077678488	-0.0106833432277104	-0.00193046568624322	0.27001953125	-0.45849609375	0.550048828125	0	0	0	-0.231238145122437	0.207125228989652	-0.745672416283035	-0.58957671879997	-0.197856425778791	0.78347168546434	0.589088238597332	-0.975052700502849	-0.218996864330089	-0.0362298862224268	0.100623387043685	-0.581560393673137	0.807256119512638	-2.5697265980003	-36.0923335101797	104.173027953656
24637	1656653427517	5.94068186647799	-0.422044220053058	8.14147719955003	0.0555774731107576	0.0116270352785776	0.274445493301304	0.00105928271489472	-0.00859640730608069	-0.00355473749059578	0.26513671875	-0.4619140625	0.55419921875	0	0	0	-0.231275315843816	0.207143496812768	-0.745653734178589	-0.589579348955717	-0.197815839132591	0.783429730986094	0.589157661747113	-0.975058441587555	-0.218975526026263	-0.0362043435290514	0.100647549781984	-0.581624944107952	0.807206600019044	-2.56807464498049	-36.0972560841969	104.170966016755
24638	1656653427518	5.92350084833743	-0.426633539087814	8.12515123711435	0.0609052535985608	0.00746013047797325	0.251317601472673	0.00288508770672683	-0.00937003210034441	-0.00459335428616508	0.258056640625	-0.45068359375	0.55517578125	0	0	0	-0.231276858941437	0.207217240000936	-0.745637601955317	-0.589573232529175	-0.197828836006563	0.783366837788337	0.589236921023954	-0.975065047332059	-0.218928837862987	-0.0363086411656	0.100557968931452	-0.581727222506789	0.807144059929155	-2.57566210524235	-36.1028764836271	104.172951515199
24639	1656653427519	5.91574318278839	-0.392508217234201	8.1237201990555	0.0298252347492529	-0.00598239942537055	0.24434920585	0.003923387257214	-0.00825362868725986	-0.00884364544040139	0.2666015625	-0.44970703125	0.555419921875	0	0	0	-0.231326363703418	0.207218107946807	-0.745606718408315	-0.589592563266434	-0.197737445593341	0.78333832978039	0.589305492683624	-0.975078375399739	-0.218882530159725	-0.0362298194679935	0.100608471005312	-0.581783034376	0.807097538389399	-2.57022609977371	-36.1077393318144	104.167162551604
24640	1656653427519	5.92312396607707	-0.372904064590751	8.10960509221671	0.00804547131319404	0.00361824910040254	0.236594792647001	0.00124817959928452	-0.00895834385641484	0.000157177089219777	0.26416015625	-0.45361328125	0.542236328125	0	0	0	-0.231333544903515	0.207221868358471	-0.745625293642459	-0.589564932604539	-0.197795962490757	0.783314313211323	0.589317778401965	-0.975063790766901	-0.218944575034059	-0.0362474412674283	0.100634790990171	-0.581792024508267	0.807087776552796	-2.57150561338207	-36.108610621266	104.171603179885
24641	1656653427520	5.93225812801612	-0.406012659749489	8.11008483211575	0.039027729548201	0.0170844141675265	0.243564109533896	0.000790323575051743	-0.00614911149137336	-0.00889206226096935	0.26904296875	-0.455078125	0.55126953125	0	0	0	-0.231365934949967	0.207227246123281	-0.74559386639125	-0.589590077094785	-0.197706690272185	0.783298839241193	0.589368300017076	-0.975080141426872	-0.218880818911052	-0.0361926084688198	0.100651787945215	-0.581836846165853	0.807053345217777	-2.56773021078276	-36.1121936594968	104.165733140665
24642	1656653427521	5.90230371531742	-0.377083313911082	8.13520879547875	0.0186371734389866	-0.0281673007448343	0.245138564800845	-0.00204405144345907	-0.00267907058786678	-0.0031385617242916	0.266845703125	-0.458251953125	0.551025390625	0	0	0	-0.231346933066192	0.207287775644668	-0.745583386239435	-0.589589508720169	-0.197725615535954	0.783265502490643	0.589406255115271	-0.975087067120671	-0.218831978550792	-0.0363011941615559	0.100547463891126	-0.581900092603211	0.807020749258306	-2.57552748499784	-36.1148855766198	104.167613233538
24643	1656653427522	5.89996866261273	-0.396236978301606	8.10641448296409	0.0350960462307676	-0.00951618345724977	0.221218526924266	-0.000955501853655219	-0.00746330209007475	-0.00622982350111498	0.259033203125	-0.460693359375	0.554931640625	0	0	0	-0.231376222568553	0.207307009303414	-0.745556378204289	-0.589605405710026	-0.197661018374847	0.783236316252459	0.589466703655343	-0.97509996715089	-0.21877853890238	-0.0362767829068636	0.100549370347856	-0.581959469223603	0.806977695047163	-2.57393499834798	-36.1191730030563	104.163677481415
24644	1656653427523	5.91836219856927	-0.391149925431745	8.12187789202618	0.0265511224416084	-0.00547096202241525	0.244358673853394	-0.00327095531445136	-0.00343493784343534	-0.0026010392967742	0.264892578125	-0.45263671875	0.550048828125	0	0	0	-0.231310692762746	0.207364862282314	-0.745567823711245	-0.589596300489355	-0.19774313172577	0.783236641349752	0.589438730914796	-0.975099481146446	-0.218752032679806	-0.0364492807389246	0.100392508302248	-0.581968995605104	0.806990354608511	-2.58611708939446	-36.1171889547034	104.169318847593
24645	1656653427524	5.93389388717231	-0.405513108770214	8.10891306997379	0.036164350289514	0.0169499399965443	0.243575042040138	-0.00338020288405342	-0.00516132765327294	-0.0046900025056886	0.268310546875	-0.45458984375	0.556884765625	0	0	0	-0.231321919084328	0.207388237713547	-0.74554591118618	-0.589611382965748	-0.197697173656723	0.783217821231056	0.589479153180349	-0.975111601804713	-0.218697071870575	-0.0364548320676814	0.100365290583895	-0.582014978554087	0.806960577218426	-2.58660574185526	-36.1200560381138	104.166485002087
24646	1656653427525	5.89730266951306	-0.395815113208815	8.14764426529551	0.0375377075854132	-0.0367138297933244	0.252907426126525	0.00160719799648374	-0.0042258485632061	-0.00521692564679275	0.264404296875	-0.455810546875	0.555908203125	0	0	0	-0.231323743123236	0.20740177695071	-0.745538791080071	-0.589614908037449	-0.19768717217489	0.783207660732756	0.589496006879621	-0.975115482231351	-0.218677526275357	-0.0364682850544102	0.100347288305236	-0.582035995168352	0.806947657570286	-2.58760035595662	-36.1212514736254	104.165973546345
24647	1656653427526	5.93484346505392	-0.404904185791433	8.10824854206567	0.0354880966869688	0.017063370825472	0.243577259417755	0.000351528675945502	-0.00879547687475819	-0.00514459453766164	0.25927734375	-0.4521484375	0.546630859375	0	0	0	-0.231360051471957	0.207421096372342	-0.745515297911444	-0.589623571393308	-0.197633141280587	0.783168873899634	0.589565650646598	-0.975124696031934	-0.218641065674191	-0.0364405212570199	0.100364180145094	-0.58210188056356	0.806898030725178	-2.58579186439889	-36.1261915098838	104.162930747434
24648	1656653427527	5.91751836738502	-0.40947909577407	8.09203261287653	0.0412411722193519	0.0138490653318439	0.220447536221346	0.00220594787555013	-0.00575511896899404	-0.00571881329994556	0.268798828125	-0.4560546875	0.5478515625	0	0	0	-0.231341371591769	0.207429738244155	-0.74552454416313	-0.589616169666638	-0.197667884515363	0.783172491935213	0.589549196680998	-0.975120812552511	-0.218651352319208	-0.0364826952939719	0.10033348572711	-0.582093148907433	0.806908146964	-2.58874802178845	-36.1250243538915	104.165257521762
24649	1656653427528	5.8921687898956	-0.413452356840741	8.16023921161029	0.0576689665205364	-0.045051842476202	0.260680716596683	0.00457863260619521	-0.00215636046800951	-0.00841839467048223	0.26513671875	-0.459716796875	0.55078125	0	0	0	-0.231368300734193	0.207409650337239	-0.745503875522625	-0.589638802948978	-0.197589582944537	0.783179988805168	0.58956548563068	-0.975132062222768	-0.218614638007762	-0.0364019405239112	0.100378373851018	-0.582096852064905	0.806899892724713	-2.58305196205296	-36.1261798044543	104.159741933936
24650	1656653427529	5.91156906758642	-0.427233914936494	8.10521210184638	0.0610619017351058	0.00458602604693458	0.22822351490662	0.00220603951408588	-0.00575552171501977	-0.00571910181609015	0.264404296875	-0.465576171875	0.551513671875	0	0	0	-0.231356273025538	0.207469967095228	-0.745490762670388	-0.589638881399762	-0.197600528946742	0.783141722085879	0.589612647496925	-0.975139635493411	-0.218564404590286	-0.0365005799388516	0.100283210208622	-0.582167196065236	0.806860975370476	-2.5901665712139	-36.1295253097399	104.161158886719
24651	1656653427530	5.89958143592053	-0.392886014738955	8.14613619879484	0.0347842433086767	-0.0364190783870599	0.252918388807831	0.00517738267163508	-0.00368582390670668	-0.00892055563644506	0.269775390625	-0.451171875	0.551513671875	0	0	0	-0.231390894005354	0.207452100705631	-0.745467436862214	-0.589661072703892	-0.197516147018197	0.783141202880859	0.589641609808371	-0.975151311063118	-0.218526890501032	-0.0364131660231987	0.100335896861338	-0.582181977115637	0.806843760168448	-2.58402695096437	-36.1315798700654	104.155363749037
24652	1656653427530	5.88202680833052	-0.397096112832154	8.13011135218101	0.0401727425411616	-0.0403344369183152	0.229792138835382	0.00343263557224892	-0.00500008908702056	-0.00625737478965698	0.268310546875	-0.45458984375	0.5576171875	0	0	0	-0.23137510653767	0.207496835957735	-0.745458441169266	-0.589662899996006	-0.197526448885965	0.783119167440842	0.589667424551555	-0.975157577544643	-0.218485454871659	-0.0364939031454408	0.100254680428222	-0.58222716837699	0.806821246284422	-2.58982076217828	-36.1334111900662	104.156454681458
24653	1656653427531	5.94391683790991	-0.381806700650292	8.09304175088279	0.00991145537156774	0.0261613626063752	0.235818289588551	0.000817464562546187	-0.00233778729775397	-0.00842957363710543	0.2744140625	-0.45654296875	0.55908203125	0	0	0	-0.231391036415065	0.207492157967202	-0.745433646865441	-0.58968963936105	-0.197448634993994	0.783125345815289	0.589685279857563	-0.975172647735407	-0.218426267224698	-0.0364454783889848	0.100261376649861	-0.582241065648902	0.806810385297752	-2.58642369763413	-36.1346778857762	104.150994790065
24654	1656653427532	5.92227527074525	-0.386049144642248	8.11926915233384	0.0212571271136847	-0.0051971932794918	0.244371402098565	0.00346080680967936	-0.00118619263189563	-0.0057925617844461	0.26171875	-0.45263671875	0.552734375	0	0	0	-0.231399311233233	0.207486568501921	-0.745418690043388	-0.589707265671777	-0.197399399149405	0.783133136889265	0.589691416862613	-0.975182133055231	-0.218389329410429	-0.0364130219772346	0.100266068963062	-0.582244442399964	0.806807365304167	-2.58413314902793	-36.135113263488	104.147472705868
24655	1656653427533	5.91971360337694	-0.404714388745635	8.09066657822069	0.037708514250837	0.0134713679593346	0.220461949507433	-0.0013080350816042	-0.00293229814980355	-0.0131929074659957	0.2626953125	-0.453369140625	0.557861328125	0	0	0	-0.231416614835877	0.207485575113733	-0.745376850960213	-0.589753708381952	-0.19727382765528	0.783146305151503	0.589715949970649	-0.975208742831884	-0.21828059913892	-0.0363522756345737	0.100254400534305	-0.582267502757199	0.806792172995254	-2.57987648932774	-36.1368537405518	104.138605921749
24656	1656653427533	5.89542675178993	-0.428317185130829	8.08832495401733	0.0651458654655089	0.00186244684376917	0.205110064732834	-0.00040901628313502	-0.00309446746304566	-0.0078921717998542	0.26318359375	-0.458740234375	0.553955078125	0	0	0	-0.231380813072903	0.207460178927302	-0.745388584887152	-0.589761859584954	-0.197287736641238	0.783198906111991	0.589641435480886	-0.975208125633787	-0.218282446276697	-0.036357741201806	0.100233031824914	-0.582196055562422	0.806846387002349	-2.58009070972846	-36.1315675032695	104.138651244945
24657	1656653427534	5.9230682174844	-0.384323976108198	8.1187725595923	0.0203552293349254	-0.0040079408807004	0.244373812212453	0.00212513622407499	-0.00366952288455347	-0.00734447001905776	0.26611328125	-0.458984375	0.55517578125	0	0	0	-0.231404525459023	0.207454483696531	-0.745367275893906	-0.589781490738552	-0.197219477558592	0.783195833540598	0.589668350851701	-0.975219458957167	-0.218240860752835	-0.0363033547919803	0.100257092231955	-0.582215778747459	0.806829165582581	-2.57629135086233	-36.1334769033865	104.134008759991
24658	1656653427534	5.91004327519651	-0.421855003912347	8.14588445042994	0.0614037677513081	-0.021439675900889	0.259937742143126	0.00185263077037159	-0.00122311775614499	-0.0126825229569532	0.26318359375	-0.451904296875	0.55810546875	0	0	0	-0.23135527156365	0.207464567319231	-0.745361081525487	-0.589805094733769	-0.197209377091599	0.783239483976057	0.589613748421848	-0.975231569223961	-0.218176807066268	-0.0363629928270478	0.10015911329537	-0.582181064274069	0.806866383253508	-2.5803990181899	-36.1296034073804	104.132557808594
24659	1656653427535	5.89892054971905	-0.406727955405047	8.11639395360417	0.0468292480753384	-0.0161991635629003	0.229029951053516	0.003678227207528	-0.00199651115272681	-0.0137229571820618	0.265869140625	-0.459228515625	0.5537109375	0	0	0	-0.231383305497231	0.207440770775796	-0.745324896827069	-0.589848192950388	-0.197081750420674	0.783260424634768	0.589628604167137	-0.975253749582756	-0.218094871786212	-0.0362594928995366	0.100194349021782	-0.582183591405254	0.806860185114238	-2.5730840568124	-36.1306572549202	104.123415388693
24660	1656653427535	5.91044637924356	-0.419909674738235	8.14569248659463	0.0603067313989336	-0.0205838677225825	0.259946155285768	0.000626197892333088	-0.00198031367737256	-0.0121452402029988	0.266845703125	-0.454345703125	0.55126953125	0	0	0	-0.231348168005877	0.207425369791327	-0.745319275139287	-0.589874494475819	-0.197052211854442	0.783314702693412	0.589566368060122	-0.975264619890072	-0.218045593467656	-0.0362634852159925	0.100146627471648	-0.582129019817488	0.806905482254512	-2.57322271636103	-36.1262423997429	104.120443902439
24661	1656653427536	5.91455831688135	-0.419210295231299	8.10345010203336	0.0554096182630148	0.00706720052861091	0.228254857450356	0.00245186006008752	-0.00275354934508832	-0.0131857550817311	0.2724609375	-0.45556640625	0.551025390625	0	0	0	-0.231374497035909	0.207408479885973	-0.745282942483125	-0.589916011171476	-0.19692988376983	0.783330615818373	0.589586098207896	-0.975286746676771	-0.217961644469849	-0.0361729636142808	0.100171765658005	-0.5821390451272	0.80689512918554	-2.56684088045475	-36.1276419743008	104.111753182652
24662	1656653427537	5.91750264005999	-0.3987142193391	8.1318541429215	0.0381353133159985	-0.0119700446301859	0.252165572115286	0.00612989481322811	-0.000485169917072434	-0.0148013353356459	0.264892578125	-0.45703125	0.5498046875	0	0	0	-0.231392135504175	0.207409301000464	-0.745243073845678	-0.589959170087526	-0.196811714512911	0.783340208555094	0.58961281082703	-0.975311732882797	-0.217859118976273	-0.0361168655898919	0.100160734480359	-0.582164514497186	0.806878122970632	-2.56291940933862	-36.1295368960798	104.103457530332
24663	1656653427541	5.92142196010607	-0.397690309267598	8.08976470554542	0.0332432858274623	0.015675152792074	0.22047453693974	0.00106085977665533	0.000661991966068632	-0.0158975991366853	0.263671875	-0.45361328125	0.55712890625	0	0	0	-0.231404669769993	0.207384631462474	-0.745201008083992	-0.590016059944487	-0.196665855632449	0.783381580994863	0.589606512672941	-0.975340669630645	-0.217745327281515	-0.0360215298330335	0.100165460078827	-0.582151415874818	0.806886986883629	-2.55613515020213	-36.1290901177467	104.092707358888
24664	1656653427538	5.92142054124614	-0.396189268001334	8.08983940992067	0.0320376893025353	0.0163369879700111	0.220477403221983	0.0116332752243325	0.00101036019058175	-0.0174584287418509	0.269775390625	-0.456298828125	0.552001953125	0	0	0	-0.231392650617847	0.207324330833771	-0.745195082693324	-0.590049448617712	-0.196598178851961	0.783457242413258	0.589528545010593	-0.975350548210048	-0.217716540060525	-0.0359279318975169	0.100202116636582	-0.582060355542523	0.806948126168752	-2.54930918180173	-36.1235594598128	104.086744548542
24665	1656653427539	5.87767371322808	-0.404404321415365	8.14267699262942	0.0552723171179243	-0.0462827056646331	0.237615246599024	0.000377614676937696	0.00427508628165157	-0.0170223392316071	0.269287109375	-0.456298828125	0.5498046875	0	0	0	-0.231390412660715	0.207289981993379	-0.745153544639343	-0.590114849165237	-0.196445883446786	0.783522514251815	0.589492565294361	-0.975382172147336	-0.217590656319747	-0.0358318927700642	0.100192979464409	-0.582019566632305	0.806978680587776	-2.54240742571426	-36.1210073599684	104.075140167793
24666	1656653427541	5.89944713835629	-0.398301416604661	8.11642911678259	0.0425308650067996	-0.0154017534556132	0.229050331156813	0.0067299959852594	-0.00201642286881843	-0.0153059230868531	0.270751953125	-0.45361328125	0.555419921875	0	0	0	-0.231404860461369	0.207305332532069	-0.745113291509639	-0.590154617430293	-0.196338636161119	0.783521175891232	0.589530072922844	-0.975407022081156	-0.217484053258946	-0.035802623546762	0.100161276075952	-0.582061211135119	0.806952579317246	-2.5404154466934	-36.1236678389524	104.067784287374
24667	1656653427543	5.89951629171643	-0.39691539495283	8.11644674875511	0.0424350455977096	-0.0153353872395856	0.229050838105472	0.00280311596608503	0.0019715374167755	-0.018566202813327	0.2666015625	-0.44873046875	0.553466796875	0	0	0	-0.231420002085772	0.207267422964552	-0.745066827405277	-0.590220654257787	-0.196168723844262	0.783576005764293	0.589513761481265	-0.975439315583371	-0.217359589330287	-0.035678432426527	0.100179705527411	-0.582033892584139	0.806969996024509	-2.53156024242317	-36.1225108299702	104.055148211926
24668	1656653427543	5.86636856112491	-0.386157301780729	8.1134523997683	0.0396932332036407	-0.0411590024236277	0.206705710167164	0.00645507490032994	0.000425715063077134	-0.0206481139893871	0.26123046875	-0.4541015625	0.558837890625	0	0	0	-0.231453113827364	0.207201211180411	-0.745019585479381	-0.59029054832101	-0.195973049324997	0.783641308212017	0.589492038964075	-0.975470770278046	-0.217249453296504	-0.035488749985391	0.100256372722225	-0.581987091872431	0.806994228369976	-2.51804319447388	-36.1209700271201	104.040559552782
24669	1656653427544	5.9022801854904	-0.374459598321998	8.14504906157588	0.0258858245217345	-0.0335510266407857	0.252955174681354	0.00269452905826951	0.000240416505150249	-0.0206585528879044	0.267333984375	-0.4609375	0.55224609375	0	0	0	-0.23147699337318	0.207165775157407	-0.744964787954681	-0.590362776477295	-0.195780387377865	0.783690739662968	0.589490342995271	-0.975507182716011	-0.217108267506901	-0.0353516145263956	0.100278494143281	-0.581973216520023	0.807001486284687	-2.5083029053103	-36.1208497313966	104.026451614251
24670	1656653427545	5.94141813784627	-0.434950842593513	8.12057663054379	0.0745759921078643	0.025660169875334	0.258418650678138	0.0032950197021459	-0.00128968989202349	-0.0211615310447989	0.263916015625	-0.44921875	0.552001953125	0	0	0	-0.231428123646161	0.207140788616594	-0.74494854910474	-0.590411192698493	-0.195711294243922	0.783775514671633	0.58940056999174	-0.975528330832131	-0.217014634455278	-0.0353429508688785	0.100207609737221	-0.581893968892496	0.807067434553825	-2.50748432730648	-36.11448236058	104.020240042797
24671	1656653427545	5.88155828158171	-0.396101140935864	8.10097463866537	0.0475296848245125	-0.0176574675535348	0.205937445808935	-0.000310764729379728	0.00788280679996293	-0.0181522899538406	0.260009765625	-0.4609375	0.554931640625	0	0	0	-0.231411318254981	0.207096678300879	-0.744907407407076	-0.590485158162594	-0.195552159546377	0.783864505894841	0.589335039934828	-0.975562567222178	-0.216876487652878	-0.035245801710636	0.100184980569059	-0.581825597152264	0.807119535240468	-2.50043941273233	-36.1098348062669	104.007761350447
24672	1656653427546	5.95974319687731	-0.355269318420995	8.15060559219236	-0.00290373912639002	0.00758956527101534	0.290631917914776	0.00643139807227348	-0.0033921319941957	-0.0211174448028351	0.26708984375	-0.451416015625	0.5478515625	0	0	0	-0.231375932659801	0.207052012014169	-0.744901178415746	-0.590522545294865	-0.195496602568563	0.783948174964687	0.589242172076716	-0.975575584520154	-0.216825175638718	-0.0352011661369321	0.100166647504597	-0.581731984833889	0.807189284213384	-2.49706133130594	-36.103248858202	104.002502530421
24673	1656653427547	5.83536340900672	-0.422264703525757	8.12522483372339	0.0856842141343347	-0.0604019790883708	0.199208655547814	-0.00125829397994961	0.00040613103306974	-0.0243889355882986	0.263671875	-0.4521484375	0.547607421875	0	0	0	-0.231389769101813	0.207025932763064	-0.744832643612465	-0.590612708064989	-0.1952708076543	0.78400788383806	0.58923760042771	-0.975622614958591	-0.216633784471448	-0.0350758692969906	0.100149013272215	-0.581722821888007	0.807198075837186	-2.48815728730919	-36.1029246629493	103.985941746321
24674	1656653427548	5.93606002380705	-0.304700496551633	8.16235836214422	-0.0446825594886228	-0.0280616197682121	0.284389487503859	0.00350907177909064	0.00216528664908354	-0.016985202686153	0.261962890625	-0.451171875	0.551513671875	0	0	0	-0.231371076719228	0.207010196945167	-0.744805118725758	-0.590660256271249	-0.195175773038734	0.784061220279263	0.589198116487931	-0.975645908915515	-0.21653448004461	-0.0350411096889077	0.100107332574353	-0.581687907563844	0.807228406437017	-2.48560137897689	-36.100124742982	103.978488376812
24675	1656653427551	5.95645534309828	-0.442549899732572	8.108370289969	0.0813246996062091	0.0496823175687428	0.257655101226891	-0.00349481399842928	0.00234815858867425	-0.0191322688690111	0.258056640625	-0.45361328125	0.547119140625	0	0	0	-0.231365428271092	0.20699298279507	-0.744752073289754	-0.590735383234445	-0.195003491191575	0.784120762631957	0.589175922821508	-0.975684843085926	-0.216371224136906	-0.034965416312267	0.100063606748363	-0.581668396059967	0.807247887349069	-2.48017908776229	-36.0985509699343	103.965613716649
24676	1656653427547	5.91092207478432	-0.398463442051348	8.14642461177222	0.0506422498849299	-0.016269490022925	0.260007274353876	0.00643185101719814	-0.00339458457486477	-0.0211222408437404	0.264892578125	-0.45751953125	0.54150390625	0	0	0	-0.231328969572018	0.206946584749787	-0.744751593100401	-0.59076652196241	-0.194963648730373	0.784203136350542	0.589079465447331	-0.975694097177009	-0.216336055177674	-0.034924775791765	0.100051009028807	-0.581570418924601	0.807320037794295	-2.47707883238865	-36.0917114560524	103.961462655852
24677	1656653427547	5.86659862086452	-0.37389985033913	8.11386016254358	0.0332642562350497	-0.0371717757291387	0.206744702702087	-0.00218552638296581	0.00101765667549061	-0.0180471130802145	0.269287109375	-0.454833984375	0.548095703125	0	0	0	-0.231330048692247	0.206929432420897	-0.744702247804219	-0.590834308994791	-0.194802455773381	0.784253284620976	0.589066030921721	-0.975729267332116	-0.216190058625226	-0.0348461679837567	0.100021998061381	-0.581557085859016	0.807333237140016	-2.4714700494738	-36.0907588998565	103.949513326124
24678	1656653427548	5.88193572611285	-0.38714006635001	8.10113379053476	0.0408608075931196	-0.0156000732868706	0.205970279064537	0.00297043613415421	-0.00220804626539479	-0.0153251469274429	0.267578125	-0.451904296875	0.552734375	0	0	0	-0.231306671152561	0.207003956165457	-0.744663638985132	-0.590866017626324	-0.19474914618946	0.784230085644458	0.589114541348762	-0.975755669708628	-0.216053422692517	-0.0349541352963451	0.0998681284992516	-0.581639141833607	0.807293172024341	-2.47924099161192	-36.0941985180693	103.946241363199
24679	1656653427548	5.93319277398683	-0.389907165235393	8.11992346592102	0.036614596833953	0.0144542446116613	0.251427673827877	0.00471122286244814	-0.000895235139269984	-0.0179934488806117	0.26025390625	-0.45654296875	0.547119140625	0	0	0	-0.231334702413664	0.206968082542703	-0.744619174702275	-0.590923643911361	-0.194587005051401	0.784268352514392	0.589117177401482	-0.975783951650964	-0.215946919750232	-0.0348225149984545	0.0999078433635551	-0.581627096252186	0.807296936535557	-2.46990545406078	-36.0943854309599	103.934429460704
24680	1656653427550	5.9088641934482	-0.412544935391812	8.11775314435379	0.0632210685455363	0.00235616089006198	0.236132607131191	0.00776248133315104	-0.000909867076112094	-0.0195748365799244	0.275634765625	-0.46826171875	0.552734375	0	0	0	-0.231307788314882	0.206938640969025	-0.74460728220577	-0.590959475112217	-0.194527211679941	0.784332418595248	0.589051628515325	-0.975798496032978	-0.215886595297971	-0.0347889797267417	0.0998822259253626	-0.581563096414464	0.807346211877541	-2.46737937575804	-36.0897377302526	103.929220867784
24681	1656653427553	5.92498657565617	-0.35348450468062	8.1187740918881	0.0038333185437959	0.00171037719369183	0.244394334052865	0.000414838262976842	-0.00545636517892491	-0.0163400894690466	0.263671875	-0.457275390625	0.55224609375	0	0	0	-0.231337748751053	0.206934257031967	-0.744558324883141	-0.591010964463972	-0.194377771772321	0.784340857055234	0.589089723042838	-0.975827677700222	-0.215768506299988	-0.0347029555407492	0.0998880637264459	-0.581595539565885	0.807322118538845	-2.46135905761648	-36.0924387642477	103.918792434823
24682	1656653427555	5.90941411904357	-0.410312632384271	8.1174659579114	0.0603395361556279	0.00185259706781321	0.23615042827568	-0.00401459877854582	0.00178253552576807	-0.0170101380703316	0.272216796875	-0.45751953125	0.548095703125	0	0	0	-0.231251865542974	0.207029797861507	-0.744526407179132	-0.591051323061925	-0.194361816379285	0.784354582078618	0.589076713090937	-0.975858689992451	-0.215593992608343	-0.0349148609822725	0.0996157693337913	-0.581641745341125	0.807322474960636	-2.47636902254014	-36.0915163031423	103.917460264187
24683	1656653427556	5.89157738349099	-0.414186397347938	8.10169259903077	0.0670453481111572	-0.00182329630021277	0.213037486308462	0.00978126749735784	-0.00203558926696295	-0.01690097589152	0.26416015625	-0.45458984375	0.5478515625	0	0	0	-0.231296640784579	0.206980994307241	-0.744489395584128	-0.591097514645541	-0.194211184283269	0.784383645440444	0.589087695224446	-0.975879680198512	-0.215525192350902	-0.0347525716711459	0.0997038899689542	-0.581628049725653	0.807321463914711	-2.4648758148751	-36.0922949825584	103.906597654204
24684	1656653427556	5.92163792207058	-0.349723360098301	8.16065963710863	0.0039813316410862	-0.0269236005536844	0.276104784138255	0.00226122580433109	-0.00241471917237604	-0.0169193102161259	0.267333984375	-0.451171875	0.5478515625	0	0	0	-0.231280852735834	0.207033570577325	-0.744447239108396	-0.591138372968356	-0.19412918232422	0.784376857878508	0.589123760677474	-0.975908460870781	-0.215385049316657	-0.0348131660680963	0.0995818084338359	-0.581689114008076	0.807292535623578	-2.46925661448763	-36.0948522290075	103.901069254528
24685	1656653427559	5.88328949028804	-0.377945605363545	8.10058491618226	0.0341464786690046	-0.0157516650553038	0.205995176127805	0.00664240321569687	6.04063529698103E-05	-0.0169491281405201	0.2734375	-0.450927734375	0.547607421875	0	0	0	-0.231308292854918	0.206991027584071	-0.744409113372013	-0.591190544651154	-0.193980427143232	0.784417775901853	0.589118279070104	-0.975932740808879	-0.215296908829525	-0.0346774633691856	0.0996337257287883	-0.581666565910095	0.807302376312469	-2.45961328184255	-36.0944635463983	103.89013342589
24686	1656653427560	5.92854690226425	-0.327788732708588	8.14686453260439	-0.0177406162784654	-0.0185965441209435	0.26827761312385	0.00286396479335176	-0.00394532018081665	-0.0174228929881095	0.26416015625	-0.458251953125	0.5517578125	0	0	0	-0.231359039491707	0.207008674691475	-0.744337688123172	-0.591254437182001	-0.193782370716139	0.784399265443094	0.58920810005631	-0.975972578015378	-0.215131198230147	-0.0345845993193141	0.0996289102703089	-0.581752834045864	0.807240806895907	-2.45322151796736	-36.1008326971646	103.876814601067
24687	1656653427561	5.89248093255329	-0.408885824804173	8.10130471222524	0.0647623457964882	-0.00290802595305563	0.213052237603334	0.00255945793992589	-0.00103870043187792	-0.0111109749644191	0.271728515625	-0.454345703125	0.5537109375	0	0	0	-0.231372944699201	0.206991662594411	-0.744310886941585	-0.591288690622316	-0.193688489606734	0.784420678505945	0.589210461657068	-0.975989760516554	-0.215064271917097	-0.0345158849170774	0.0996431450763272	-0.581748706983559	0.807242024155244	-2.44834958525002	-36.1010001637843	103.869987390802
24688	1656653427562	5.93768280566719	-0.359004585365725	8.14760168445037	0.0116255217171312	-0.0047734830962771	0.275336057196835	0.0027761033737424	-0.00186290272775153	-0.0190518255925334	0.26611328125	-0.4462890625	0.556640625	0	0	0	-0.231347740983077	0.206995026827356	-0.74427916991542	-0.591337297014811	-0.193596847802489	0.784464401421943	0.589182368560578	-0.976015728826904	-0.21494652005592	-0.0345150778405377	0.0995668499221916	-0.5817332691342	0.807262563221539	-2.4482301899919	-36.0990080398994	103.862935262021
24689	1656653427562	5.89284275213862	-0.406505978249924	8.10116130227117	0.063129592997367	-0.00254848144260189	0.213062749429707	0.00561039758420611	-0.00105201360099372	-0.012693520688687	0.262451171875	-0.45947265625	0.547607421875	0	0	0	-0.231371998970506	0.206965052896361	-0.744250970852702	-0.591373788188832	-0.193488081471165	0.784489195981421	0.589185084431905	-0.976032868004092	-0.214885019045594	-0.034413212077373	0.0996102550158135	-0.581722554125416	0.807264929943997	-2.44100623312152	-36.09920062423	103.855025949072
24690	1656653427563	5.89168845231199	-0.385600032545435	8.17176580069227	0.0501455028104378	-0.0475654414245014	0.268664693993184	0.00532886886859897	0.00138305436287657	-0.018041327308028	0.265869140625	-0.451416015625	0.5517578125	0	0	0	-0.23133016891937	0.206902741688082	-0.744250487838622	-0.591412563090829	-0.193435066332144	0.784592484819309	0.5890649436846	-0.976043869557648	-0.214844871400582	-0.0343517966313288	0.0996054205955272	-0.581598069114684	0.807355216859382	-2.43638298938654	-36.0906818113383	103.849622649699
24691	1656653427564	5.87764133297783	-0.389264461862688	8.11396106216591	0.052091380928848	-0.0236837575901797	0.213841641895405	0.0104004450561344	0.000247646277126698	-0.0169462798332383	0.262451171875	-0.46337890625	0.55615234375	0	0	0	-0.23136761936692	0.206845779991743	-0.744216647356431	-0.591460421165816	-0.193287189805678	0.784634551982526	0.589057452284753	-0.976064214753659	-0.214778786987925	-0.0341865666207806	0.0996930836836	-0.581565725000344	0.807367696016182	-2.42464072580049	-36.0901506496735	103.838728663252
24692	1656653427565	5.95343105676271	-0.367134181459508	8.13482296645889	0.0174647038180913	0.0202043694512438	0.27456994866386	0.00651884144736863	-0.00549211333927206	-0.0195113517538616	0.2666015625	-0.44775390625	0.55224609375	0	0	0	-0.231315840976892	0.206827106945775	-0.744221095838774	-0.59148160584597	-0.193284983318051	0.784701405382373	0.588969116010907	-0.976070950102292	-0.214744115556626	-0.0342120622034506	0.0996313986158532	-0.581488322517943	0.807431059091188	-2.42625662097231	-36.0838876260065	103.837443081884
24693	1656653427566	5.86039811667459	-0.391075020968482	8.09786494883473	0.056542625766006	-0.0261395050451412	0.190749145472315	0.00601984700472969	-0.00223225462157399	-0.0169185426937358	0.270751953125	-0.455078125	0.551025390625	0	0	0	-0.231348526702127	0.206793775805502	-0.744180559659506	-0.591531476851168	-0.193136742174064	0.784729580271087	0.588980207366897	-0.976095321726178	-0.214653692364761	-0.0340839442911798	0.0996800969434666	-0.581483686960983	0.807428386961719	-2.41718952107104	-36.0846739734758	103.826760400214
24694	1656653427567	5.93010381656517	-0.316399114147053	8.14618167819875	-0.0236761021311681	-0.0153237916610994	0.268270926485769	0.00662344586085586	-0.00376178946880808	-0.0174214869178211	0.268310546875	-0.44580078125	0.5498046875	0	0	0	-0.23138455946627	0.206757722471446	-0.744138043162474	-0.591583470490297	-0.192980366166512	0.784758443135221	0.588993008619138	-0.97612062125644	-0.214560483282152	-0.0339460126034147	0.0997352045778266	-0.581479135431113	0.807424859678042	-2.40742961999893	-36.0855815577929	103.815505794421
24695	1656653427567	5.92737175184653	-0.406313792012588	8.1037182514661	0.061582305278993	0.0265748257460574	0.23542577216736	0.00225970757399934	-0.00242600756781192	-0.0169280906980916	0.26171875	-0.453125	0.55078125	0	0	0	-0.231407058669172	0.206738736105385	-0.744093312235178	-0.591637567162965	-0.192831524639141	0.784785508315849	0.58900569525496	-0.976148719656365	-0.214448168230073	-0.0338476034012079	0.0997480837840163	-0.581484040262673	0.807419736383261	-2.40047389150524	-36.0864810263628	103.804800100768
24696	1656653427568	5.90629794829253	-0.337811448315411	8.14373892621235	0.00386599460140569	-0.0269618354369627	0.25300752395121	0.0103827022213138	-0.00357095337718614	-0.017415950255034	0.266845703125	-0.448486328125	0.5517578125	0	0	0	-0.231428346920446	0.206662238579169	-0.744079380876911	-0.591673486258215	-0.192726811801439	0.784849082182081	0.588955256543992	-0.976159083163104	-0.214426409608993	-0.0336861873824566	0.099848987831737	-0.58140625474804	0.807463278774234	-2.38891087481908	-36.0829050379317	103.796515340321
24697	1656653427569	5.87946769580824	-0.380116105340272	8.11307153480737	0.0484669291850297	-0.0209320823692711	0.213865939259591	-0.000881130167694063	-0.000333704232093904	-0.0169755448666882	0.268798828125	-0.45703125	0.55517578125	0	0	0	-0.231433647388133	0.20664820487114	-0.744033971020797	-0.591733416537535	-0.192580061218882	0.784888831825175	0.588950287967536	-0.976190222943328	-0.214296166352702	-0.0336125232077403	0.0998276948085431	-0.581400614690634	0.807469972560321	-2.38367315465336	-36.0825527861056	103.785739472835
24698	1656653427570	5.89119423324683	-0.392865442259277	8.1423283138765	0.06221977284098	-0.0254202211703483	0.244822538312144	0.0106665047089149	-0.00600420127977231	-0.0120682683567823	0.265625	-0.4541015625	0.548095703125	0	0	0	-0.231459797540989	0.206602981836857	-0.744027083326039	-0.591747639873411	-0.192522185653065	0.784911972425516	0.588938369928853	-0.976193109814809	-0.214299877200736	-0.0335048501241627	0.0999110623577766	-0.581368005805993	0.807483140036809	-2.37600745044742	-36.0817078521563	103.781363649222
24699	1656653427571	5.92248124688407	-0.348100899032211	8.1305537261053	0.0124294135773842	-0.00365728017297935	0.25223659714838	0.00316188641538096	-0.00257484993623814	-0.0116197104334671	0.263916015625	-0.4521484375	0.552734375	0	0	0	-0.231479767377951	0.206586448142539	-0.743999269391424	-0.591780570721554	-0.192425746822245	0.784927458594807	0.588949247986445	-0.976209790432695	-0.214235591120645	-0.0334298752696047	0.0999338632459231	-0.581370790667269	0.807478313477	-2.37071081133847	-36.0824790558834	103.774461838685
24700	1656653427571	5.8739631932235	-0.395629072805063	8.12618785128464	0.0672803523656082	-0.028244995848383	0.221731922001391	0.00479485558361567	-0.00299627651549683	-0.016384141441419	0.26904296875	-0.4501953125	0.551025390625	0	0	0	-0.231442552323711	0.206568885379698	-0.743998319556034	-0.591802451046523	-0.192408407818427	0.784982398049628	0.588881685360508	-0.976217718301394	-0.214198309056633	-0.0334372677068457	0.0998897946498941	-0.581310346673387	0.807527281133751	-2.37109082938797	-36.0776893021048	103.772340665144
24701	1656653427572	5.91925797955978	-0.345349754873815	8.17231489846386	0.0152887811523078	-0.0302416757911348	0.283968707957891	0.00610800706130012	-0.00432090076270231	-0.0152966972922958	0.263671875	-0.457763671875	0.552001953125	0	0	0	-0.231480885590953	0.206542321180422	-0.743961031319058	-0.59184360522533	-0.192275493119824	0.784995959008341	0.588907020747846	-0.976238356683761	-0.214122833030575	-0.0333179128150335	0.0999440127517308	-0.58131984029064	0.807513738334864	-2.36267636768779	-36.0794853832297	103.762959983071
24702	1656653427573	5.92065886238289	-0.363773623660102	8.10167317816803	0.0256042816400926	0.0165484730343178	0.22836394721369	0.00246641712143621	0.00103463368590221	-0.012748284853845	0.261474609375	-0.454345703125	0.544921875	0	0	0	-0.231426779427527	0.206532316232795	-0.743965251589533	-0.591862950810948	-0.192279786442321	0.785056720626254	0.588824616609435	-0.976245155800107	-0.214085299617748	-0.0333598600777003	0.0998693121159866	-0.581251606352302	0.807572096230639	-2.36547684513271	-36.0736437235542	103.762230869029
24703	1656653427575	5.90781042459206	-0.400989863529797	8.12896703035285	0.0680052434863373	-0.00116584674316648	0.2440763147063	0.00621219927811226	-0.00258810007495581	-0.013205402999824	0.2646484375	-0.4541015625	0.54833984375	0	0	0	-0.231456312889019	0.206502744118728	-0.743936532963854	-0.591897817884959	-0.19216989681369	0.785076093502043	0.58883466114877	-0.976261548522785	-0.214027179708919	-0.0332528979449997	0.0999205666242458	-0.581246844083834	0.807569183790511	-2.35790945552057	-36.074355761419	103.7543379078
24704	1656653427577	5.93251992982628	-0.375310663287739	8.13089507792396	0.0369893257149127	0.0120755939428068	0.25933286135297	0.00681685218875693	-0.00411741544649603	-0.0137081482096573	0.269775390625	-0.453857421875	0.552978515625	0	0	0	-0.231393735877028	0.206528721894201	-0.743954516154573	-0.591890618208158	-0.192244870148074	0.785100491920948	0.588777655390586	-0.976258302020976	-0.214022766219826	-0.0333763879821463	0.0998080038717889	-0.581215513493144	0.80760565205924	-2.36654924963571	-36.0703148195706	103.759088776406
24705	1656653427575	5.8994891559668	-0.365052575025329	8.12775804315858	0.0339887596897447	-0.0139781880777722	0.237005954846982	0.00297941381954123	0.00158607301201214	-0.0148814734259037	0.263427734375	-0.451171875	0.55615234375	0	0	0	-0.231398816587039	0.2064974801133	-0.743922755304257	-0.59193945005338	-0.192124550305239	0.785147908261147	0.5887537000505	-0.976280998366841	-0.213932956354718	-0.0332881722714749	0.0998176807877971	-0.581184525205614	0.80762675677795	-2.36023979841061	-36.0686167699722	103.750005470224
24706	1656653427575	5.88428392095199	-0.349839096251645	8.14042966056083	0.0235951122386809	-0.0352025262554013	0.23778445255275	0.00387042396890905	-0.00237294007012769	-0.0100325208074967	0.271484375	-0.454833984375	0.553466796875	0	0	0	-0.231374347349381	0.206447921106409	-0.743935597507309	-0.591950161771185	-0.192121834735431	0.785212088568327	0.588668987278978	-0.976279100598854	-0.213948523699819	-0.0332437503985405	0.0998414660939226	-0.581092079771214	0.80769033451898	-2.35690836730492	-36.0626122864191	103.74873728881
24707	1656653427577	5.90240998245455	-0.343636681845242	8.15607565932317	0.016386413823867	-0.0312623309563311	0.260884694485517	0.00367524201362895	-0.00202573041392632	-0.0137551770247951	0.2607421875	-0.455078125	0.55419921875	0	0	0	-0.231393508089936	0.206425569165058	-0.743904061275486	-0.591990098250429	-0.19200953597456	0.785236603429608	0.588672926784618	-0.976298749863866	-0.213872415936657	-0.0331563073286364	0.0998653548989224	-0.581086969683326	0.807691057617429	-2.35071370872893	-36.0628915103863	103.740592876002
24708	1656653427578	5.92172111603882	-0.357053588680383	8.1011957544607	0.0196804074176124	0.0196909059807593	0.228371634701773	0.00184735398268693	-0.00125643538703766	-0.0127125271400003	0.27197265625	-0.4580078125	0.550048828125	0	0	0	-0.231333653690575	0.206409939857012	-0.743919135896801	-0.591999997166343	-0.192041488050437	0.785301121595441	0.588576431135596	-0.976299383776138	-0.213861880166548	-0.0332055635392772	0.0997976958937725	-0.581003652856478	0.807759354796788	-2.35400311896143	-36.0560523845439	103.741706477004
24709	1656653427578	5.91554178754089	-0.375173778200743	8.11470241970843	0.0407183266609468	0.0109337993378668	0.236243312301516	0.00630333936799468	-0.00467230250673696	-0.0115791523382833	0.265869140625	-0.451171875	0.5498046875	0	0	0	-0.231367589105822	0.206388070286012	-0.743894093867118	-0.592025827362788	-0.191948916893531	0.785306012299389	0.588600102233963	-0.9763120532685	-0.213818768358044	-0.0331105563301766	0.0998518299584195	-0.581012909791409	0.807746006309951	-2.34731417524179	-36.0577300178153	103.735251100709
24710	1656653427579	5.89680787231616	-0.359811681142464	8.16924897670782	0.0342312776113725	-0.0393616507190758	0.268766660095915	0.000716181198706931	-0.00409829562634879	-0.0105424547194669	0.265625	-0.44921875	0.556640625	0	0	0	-0.23134837675397	0.206444810546814	-0.743871822311893	-0.59204153633168	-0.191929495662654	0.785284689412187	0.588634882817426	-0.976327376649333	-0.213734718912627	-0.033201258054063	0.0997392716020711	-0.581072651659107	0.807716937543186	-2.35382170397047	-36.0601950745263	103.734272802543
24711	1656653427579	5.88586230338797	-0.344917024776924	8.13949857141087	0.0195645865084232	-0.0340802461525581	0.237796974890065	0.00497707046093008	-0.00716684093691876	-0.013131974159232	0.2666015625	-0.455322265625	0.556884765625	0	0	0	-0.231389025437536	0.206434043275471	-0.743837845677356	-0.59207209360185	-0.191819509769979	0.785278116999681	0.588679500775287	-0.976344405362247	-0.213671243509726	-0.0331089385943978	0.0997841560040736	-0.581104877503574	0.807688209368016	-2.34736739117013	-36.0633574633804	103.726810669493
24712	1656653427580	5.89761737995773	-0.430102636942886	8.1547833802474	0.102338934079928	-0.0142387803726406	0.259884056895265	-0.0042657068371684	-0.00505410524202992	-0.0100078306137948	0.264404296875	-0.453369140625	0.551025390625	0	0	0	-0.231344774630334	0.206390848489092	-0.743850878013992	-0.592088071311191	-0.191822622124468	0.785355574753936	0.588575146301819	-0.976345352071826	-0.213669066941894	-0.033095064887735	0.0997689086290723	-0.581000990562921	0.807764825822386	-2.34616256280249	-36.0559613260033	103.725722312255
24713	1656653427581	5.90225203697871	-0.35737841166738	8.12609305081276	0.028433297071862	-0.00973568649739934	0.237028213688308	0.0145188832980667	-0.00789187741528685	-0.0104425434262877	0.271728515625	-0.455322265625	0.550048828125	0	0	0	-0.231413316640223	0.206348993652578	-0.74383437387402	-0.592096608623614	-0.191738965875974	0.785339810283922	0.588623437647555	-0.976347430309984	-0.213683397749967	-0.0329408690401613	0.0999092803092079	-0.581017028932236	0.80773593940028	-2.33532692141813	-36.059383895228	103.720227612758
24714	1656653427581	5.91803897823583	-0.370314477244835	8.11310465350477	0.0364670637157017	0.0126880725814222	0.236257577300353	-0.00201749792417779	-0.00319112585422829	-0.0148140448095897	0.267578125	-0.448486328125	0.54638671875	0	0	0	-0.23137573746204	0.206394266103355	-0.74380939355959	-0.592126896100887	-0.191702014055654	0.785349843943045	0.588622086253686	-0.976368346053446	-0.213574291667174	-0.0330283932961233	0.0997757016104852	-0.581043582321929	0.80773335006711	-2.34153251153168	-36.0592881153991	103.717514723055
24715	1656653427582	5.88262740664792	-0.379688683569195	8.08135215333594	0.0500716357747395	0.00526828254266314	0.190071568244109	0.00813026487489591	-0.00544369991586707	-0.012626705590748	0.2685546875	-0.448974609375	0.552734375	0	0	0	-0.231418164508459	0.206366818850968	-0.74378270900113	-0.592153401580881	-0.191599964263455	0.785352861476243	0.588651286132394	-0.976380983212005	-0.213534170147047	-0.0329140365432604	0.0998480311082893	-0.581054249748412	0.807716738425736	-2.33348215685811	-36.0613576781889	103.710437365173
24716	1656653427582	5.90612813636072	-0.334485556429098	8.15376414630791	0.00982269047346308	-0.027919598058239	0.260903052340698	0.00315958571904893	-0.00258301635356581	-0.0116279117828935	0.260498046875	-0.455810546875	0.5498046875	0	0	0	-0.231438620981294	0.206342749169055	-0.743750587023223	-0.592194139523725	-0.191484531664064	0.785378115170616	0.588655154011621	-0.976400840439316	-0.213457541958223	-0.0328218916357902	0.0998752868471087	-0.581048271654089	0.807717669167267	-2.32695394010146	-36.0616318210448	103.702064748894
24717	1656653427583	5.89854596467096	-0.391764813584506	8.06831382532774	0.0593549569107895	0.0280942476895601	0.189297429736422	0.00315949251174326	-0.00258341082884085	-0.0116283422884478	0.26611328125	-0.455810546875	0.54931640625	0	0	0	-0.23145487092388	0.206326286465572	-0.743724980376566	-0.592225683167163	-0.191394765845594	0.785395621179808	0.588660990586682	-0.976416517188179	-0.213396407421028	-0.03275298859503	0.0998940867570126	-0.58104706481608	0.807716212477873	-2.32207849872803	-36.062045500546	103.695589553342
24718	1656653427584	5.92182277062982	-0.346601384453452	8.14087767162703	0.0160183459238399	-0.0043972349826203	0.260134022693046	0.0075346281192263	-9.88466315482723E-05	-0.0116630028160307	0.2724609375	-0.44921875	0.54541015625	0	0	0	-0.231354907834949	0.206331441026621	-0.743776374291219	-0.59219840265807	-0.191551917019826	0.785454778535808	0.58853092863612	-0.976397944624473	-0.213456776666217	-0.0329128884842018	0.0997743294597092	-0.580944915952049	0.807804486129121	-2.33314766835529	-36.0528276026465	103.705417426833
24719	1656653427585	5.89516994891238	-0.389293084234374	8.11020443050981	0.0605885682138373	0.00168901669299101	0.221071644682105	0.00385860529071935	-0.00619449801935383	-0.0105011197164051	0.2744140625	-0.4501953125	0.551025390625	0	0	0	-0.231384271320568	0.20632483188512	-0.743751216576042	-0.592220829230689	-0.191471616821531	0.785449282681839	0.588564392642243	-0.976410566206148	-0.213409106345785	-0.0328475193839993	0.099804940522691	-0.580969859513621	0.807782765466053	-2.32858139510718	-36.0551991984375	103.699980786028
24720	1656653427585	5.91974341007423	-0.363864355902536	8.11215298306675	0.0327073848925042	0.012965438711096	0.236270163603567	0.00297234088675295	0.00157721245246322	-0.0148905695017953	0.268310546875	-0.454345703125	0.55126953125	0	0	0	-0.23144809355126	0.206346833132907	-0.743657844268799	-0.592305474485075	-0.191212009772994	0.785428062330456	0.588677098435464	-0.976462386886261	-0.21319041870206	-0.0327269364595317	0.0997956628063485	-0.581078827937712	0.807705528895015	-2.32026416432039	-36.0631871894033	103.682460004384
24721	1656653427586	5.91086686238028	-0.401207421123531	8.09734340835782	0.0703282965507122	0.0228290672723481	0.220299099051525	0.00681515380307666	-0.00412421390998975	-0.0137187065623234	0.2705078125	-0.44970703125	0.555419921875	0	0	0	-0.231482643565753	0.206319837761903	-0.74362791821628	-0.592338948173285	-0.191100712409553	0.785440634886677	0.588696464050341	-0.976478480747407	-0.213133390045736	-0.0326180116629893	0.0998513613016677	-0.581082754103428	0.807695820547425	-2.31257781239518	-36.0645598034809	103.674584376263
24722	1656653427586	5.89840965981113	-0.366244098806518	8.1383445358171	0.0435914034246242	-0.0177714331655918	0.244936952338062	0.00611507804950802	-0.000515089101659167	-0.014847680492439	0.258544921875	-0.454833984375	0.554443359375	0	0	0	-0.231490564794462	0.206276798830201	-0.743605690482878	-0.592378745193468	-0.190999081308305	0.785490146363546	0.588663385055634	-0.976494677024333	-0.213074609014753	-0.0325170222553168	0.0998874200413949	-0.581037383443599	0.807724001351011	-2.30534517496292	-36.0622152141851	103.66675559888
24723	1656653427588	5.88063203865348	-0.370178062219679	8.12256301600989	0.0502460670880243	-0.0214047446664036	0.221848599487796	0.00489323717269088	-0.00127525554099111	-0.014306337927097	0.265380859375	-0.454833984375	0.564208984375	0	0	0	-0.231509490503425	0.20624764444335	-0.743575371589858	-0.592419557183436	-0.190884848146851	0.785520610574322	0.588659787237838	-0.976513758904768	-0.213001954856301	-0.0324198380173893	0.0999192344728135	-0.581022837408598	0.807730529936828	-2.29844398928174	-36.0619602104943	103.658378145468
24724	1656653427588	5.92309969807186	-0.339149879130926	8.14026253222093	0.0130314857577159	-0.00166918008952789	0.260139151210081	0.00803680013636648	-0.00336634666140341	-0.0142627600598389	0.2705078125	-0.45947265625	0.553955078125	0	0	0	-0.231414828476699	0.206122864472168	-0.743661236192026	-0.592392190772496	-0.191037338945726	0.785678443146848	0.588399625342234	-0.976477992454658	-0.213169714107103	-0.0323944939645212	0.0999773243303559	-0.580747842838733	0.807921083805777	-2.29610801549042	-36.043522821784	103.666237233524
24725	1656653427589	5.88508382215258	-0.367533498581005	8.08012554968802	0.0432679858212413	0.00953089156969293	0.19010015866629	0.00864310595076273	-0.00489600977344676	-0.0147659823370405	0.25830078125	-0.444580078125	0.54931640625	0	0	0	-0.23145762613805	0.206088904621771	-0.743630358046091	-0.592426047103416	-0.190917492031919	0.785690289772396	0.588422705028971	-0.97649368432098	-0.213117484210439	-0.0322648788166185	0.100052964561175	-0.58075098491624	0.807909461388674	-2.28696358719255	-36.0451582793644	103.657786730865
24726	1656653427589	5.87148306788766	-0.312847536974457	8.19158179121608	0.00337565788165691	-0.0763258945070888	0.270385684902678	0.00691767843450523	-0.00239039760487187	-0.0116284258039656	0.2705078125	-0.456298828125	0.554443359375	0	0	0	-0.231407829838744	0.20604760327284	-0.74366338236889	-0.592418412271685	-0.190981682181637	0.785757703061453	0.588311846855614	-0.976481817928822	-0.213169619974029	-0.0322795968771557	0.100046270922487	-0.580640633438376	0.807989602949683	-2.28777901023363	-36.0373030306636	103.661078462414
24727	1656653427591	5.90629003934076	-0.412396884228537	8.1100850819924	0.0865439417347033	0.0194386549674252	0.228226213737845	-1.61898058444686E-06	-0.00813448883021191	-0.0126019926442572	0.267578125	-0.45068359375	0.55078125	0	0	0	-0.231434164401277	0.206057701860056	-0.743626737378664	-0.592450611028125	-0.190881002080567	0.785746645776822	0.588359287931441	-0.97650181397054	-0.213084993993106	-0.0322334088672377	0.100043242435275	-0.580686657316519	0.80795690210407	-2.28460132353683	-36.0406645402803	103.654331335563
24728	1656653427592	5.86999188288669	-0.329931812274298	8.16245931872714	0.0184688351580317	-0.0573333810491191	0.2465259904085	0.0130079614746265	-0.0062278326196867	-0.0152671635567567	0.261962890625	-0.4560546875	0.55810546875	0	0	0	-0.2314646969548	0.206035862542257	-0.743611382408612	-0.592465551203143	-0.190817329402357	0.785748198148971	0.588377868300125	-0.976508312089628	-0.213067587968048	-0.0321515066108088	0.100101264825271	-0.580690943672385	0.807946634820182	-2.27883140836303	-36.0419811196834	103.649921086591
24729	1656653427593	5.90120974918553	-0.356925342941363	8.13672850530143	0.0374249299896756	-0.0123003650706203	0.24496996753196	-0.00202745373027889	-0.00702460049295189	-0.0152829968033263	0.270263671875	-0.447265625	0.55078125	0	0	0	-0.231483489132618	0.20604726876808	-0.743566028555555	-0.592511163160934	-0.190691831577332	0.785749263531454	0.588417131148864	-0.97653542633418	-0.212950089125783	-0.0321063958681622	0.10007590361323	-0.580732601462238	0.807919834584408	-2.27571282509738	-36.0447633036271	103.641261454381
24730	1656653427593	5.89919568124908	-0.375369961590528	8.1079332443707	0.0530895143569788	0.00776333889788011	0.221111263923504	0.00761857941585293	-0.00600089385196775	-0.0105024982311629	0.265625	-0.455078125	0.5458984375	0	0	0	-0.231470176331701	0.205987753672442	-0.743590173014618	-0.59250675726277	-0.190714600133857	0.785804360961244	0.588336168861029	-0.976524447620169	-0.213009575869877	-0.0320456516216923	0.100139625003825	-0.580636225947043	0.807981205611905	-2.27123941848076	-36.039026385442	103.64190851643
24731	1656653427594	5.90878990821964	-0.335619549852911	8.12226864077465	0.0148100165964482	-0.00173105048983983	0.23706209035346	0.003757047048135	-0.00793862173399222	-0.0126004064143047	0.262939453125	-0.447265625	0.555908203125	0	0	0	-0.23150636697601	0.205982990340525	-0.743558079829015	-0.592534548917557	-0.190615220777272	0.785794955345801	0.588380935925972	-0.976540450356159	-0.212947632058885	-0.0319695920947327	0.100172782861522	-0.580671675005423	0.807951619479888	-2.26593720189612	-36.0421984895545	103.635222406443
24732	1656653427595	5.90289500566881	-0.353861609320665	8.13563983102692	0.0344440893296205	-0.00935013181264347	0.24498379301391	0.00193591176859735	-0.00335194960719602	-0.0110931421294114	0.266357421875	-0.4541015625	0.5439453125	0	0	0	-0.231445974847783	0.205963725489991	-0.743585582101049	-0.592530325469074	-0.190681148252545	0.785855063494267	0.588279286463082	-0.976532964411515	-0.212973514363594	-0.0320257958102232	0.100120273265453	-0.580580831030479	0.808023409018086	-2.26971517748815	-36.0349959975363	103.638757934056
24733	1656653427596	5.94301175561783	-0.342476072462796	8.12468011921404	0.015434500927897	0.0259961215877461	0.259362647191807	0.00680606302392348	-0.00794886908398867	-0.0141899346477624	0.26416015625	-0.455322265625	0.555908203125	0	0	0	-0.23149223770253	0.205945659511667	-0.743552358358868	-0.592560224441993	-0.190567448585461	0.78584946157605	0.58832361101715	-0.976548747837966	-0.212917531475119	-0.0319165769881646	0.1001827861248	-0.580608946306525	0.80799545842356	-2.262060899669	-36.0381365848511	103.631022426434
24734	1656653427597	5.87947359912953	-0.376205238773516	8.13306112267661	0.0596293909492664	-0.0212620787160906	0.229842978498384	0.00143094986909541	-8.56861850183408E-05	-0.00849721696959192	0.271240234375	-0.458984375	0.55419921875	0	0	0	-0.231395453017231	0.205981451908897	-0.743594127544987	-0.59253317145377	-0.190721170099775	0.785882030582049	0.588230285928911	-0.976534716092473	-0.21295216439288	-0.0321142327727283	0.100026914087988	-0.580552159317855	0.808055571584907	-2.275885758606	-36.0315242424465	103.641062995298
24735	1656653427598	5.92202691985661	-0.345489213978569	8.15061823631863	0.0239568655070246	-0.00451767927412229	0.268073954717487	0.00751586256573658	-0.00774059778953329	-0.012599634068823	0.264892578125	-0.452880859375	0.55029296875	0	0	0	-0.231440534149572	0.205962444661089	-0.743566937859154	-0.592556292232687	-0.190624639376023	0.785874419035038	0.588271743643278	-0.976546651863494	-0.212913023849357	-0.0320106390052161	0.10009437345306	-0.580576818157308	0.808029501083577	-2.26862502875041	-36.0344615684369	103.634543669051
24736	1656653427598	5.8751330718647	-0.341095904644694	8.08944295514047	0.021361505758738	-0.00687131934776834	0.190917926710894	0.000618190048853747	-0.00203431000590261	-0.0121835545447358	0.269287109375	-0.45849609375	0.55419921875	0	0	0	-0.231378829942601	0.206004727585532	-0.743577413533669	-0.592552545644167	-0.190690635410022	0.785887112882993	0.588233395321412	-0.976547644208531	-0.212887065726057	-0.0321526956462026	0.0999588923392511	-0.58056915440883	0.808051778533608	-2.27861937588927	-36.0317445426252	103.638875715437
24737	1656653427599	5.90487409950414	-0.348893310719593	8.13441812845095	0.0282846603869457	-0.00790181875120779	0.245004243030486	0.00325241757932524	-0.00467403734954486	-0.010006400819682	0.2646484375	-0.458251953125	0.544921875	0	0	0	-0.231396639526482	0.205995961070772	-0.743557226177717	-0.592573970603907	-0.190623369157144	0.785891769479105	0.588248976026462	-0.976558862070324	-0.212843506770499	-0.032100319897977	0.0999775977061608	-0.580578821772409	0.808042518476761	-2.27493752103787	-36.0328484434542	103.6341664293
24738	1656653427600	5.9179438241214	-0.38176536770014	8.09311316472941	0.0509405816384799	0.0329307852219513	0.22038819755692	0.00010699304568789	-0.00258577237109435	-0.0100496121202684	0.265380859375	-0.452392578125	0.55517578125	0	0	0	-0.231296372433152	0.20609683861565	-0.743589673529626	-0.592537322564582	-0.190803018934523	0.785870366196351	0.588219326016992	-0.976548170763314	-0.212847228961264	-0.0323994954025176	0.0997390502476254	-0.580606428364279	0.808052162423799	-2.29609001267941	-36.0307477385871	103.646893237807
24739	1656653427600	5.89910855478147	-0.366632450739753	8.14773897710846	0.0455503357935339	-0.0167506902562733	0.252956981571929	0.0019350378372785	-0.0033550189996058	-0.0110959226169346	0.26904296875	-0.445068359375	0.55029296875	0	0	0	-0.231305509873252	0.206088836224368	-0.74356662725804	-0.592565459265104	-0.190727875176423	0.785884833266605	0.588224367458717	-0.976562766634855	-0.212787136139245	-0.0323542503565903	0.0997398639119044	-0.58060887311096	0.808050305371921	-2.29289227167045	-36.0311049210687	103.641477815902
24740	1656653427601	5.89941110336873	-0.365838233390236	8.1475556179864	0.0455770804875294	-0.0156506573579407	0.25295863101282	0.00264484434435926	-0.00314562758297431	-0.00950466842983273	0.26611328125	-0.453369140625	0.55859375	0	0	0	-0.231306903299262	0.20603163667175	-0.743558364488824	-0.592595173600976	-0.190656153421869	0.785945116452983	0.588167072425926	-0.976571275893868	-0.212763849830378	-0.0322503845617419	0.0997936584227709	-0.580535802624665	0.808096162352932	-2.28540973309012	-36.0270457050262	103.635532717605
24741	1656653427601	5.88445115496842	-0.350851204278903	8.16001120390116	0.0355321192984129	-0.0378333652873219	0.253739552702916	0.00254246185198783	-0.00488491194737004	-0.0115995264622776	0.265869140625	-0.44873046875	0.552490234375	0	0	0	-0.231324113460069	0.206024761541889	-0.743532860613489	-0.592622845789329	-0.19057463436094	0.785952128960294	0.588184120595733	-0.976586110218292	-0.212703920560329	-0.0321964517761053	0.0998041986436446	-0.580548269449705	0.808085904327042	-2.28162078416602	-36.0282535052248	103.629803004847
24742	1656653427602	5.90033205665104	-0.364051720694303	8.14696873524333	0.0445574484338058	-0.0136217047390332	0.252966146488434	0.00446763773464426	-0.00773375486737434	-0.0110141484313119	0.257568359375	-0.45751953125	0.55126953125	0	0	0	-0.231312271259467	0.205958009352364	-0.743551294127174	-0.592627542854872	-0.190574457229168	0.786016722995546	0.58809785531249	-0.976579182705042	-0.212747787666818	-0.0321166428822591	0.099872299257401	-0.580444734676969	0.808151863096796	-2.27578547213052	-36.0221421170205	103.628712502732
24743	1656653427603	5.88914394221167	-0.349357041108091	8.11731655833266	0.0298540564785801	-0.00831206208843343	0.221949374707489	0.00142892856323622	-8.82740861458835E-05	-0.00849990662837876	0.26318359375	-0.450927734375	0.557373046875	0	0	0	-0.231304875414542	0.20594396363989	-0.743539814822664	-0.59264971291922	-0.190528744772459	0.78604562989312	0.58807403032387	-0.976589001301527	-0.212706803234116	-0.0320895371548089	0.0998635066093627	-0.580420609199787	0.80817027689951	-2.27381502246359	-36.0204543401655	103.625082906422
24744	1656653427603	5.89579105103612	-0.329576242935789	8.10343049223661	0.00563226599180192	0.00331212852108629	0.214002800046543	0.000811479775221654	-0.00619679596038891	-0.00892213595296389	0.261474609375	-0.45849609375	0.548828125	0	0	0	-0.231172607940281	0.205906408931739	-0.743637537243461	-0.592591756018767	-0.190788472073368	0.78614710498441	0.587854138582472	-0.976546791161883	-0.21287512291886	-0.0322575063157493	0.0997803768049617	-0.580221433046825	0.808323552197849	-2.28527150829434	-36.0048787798128	103.641267593346
24745	1656653427603	5.91673500145248	-0.376178324060635	8.13359619980388	0.0504237420511797	0.0120909072446657	0.252200196487781	0.00213396504360319	-0.00369725074017201	-0.00737116075338576	0.266845703125	-0.44873046875	0.547119140625	0	0	0	-0.231178241733434	0.205901305637297	-0.743626933852891	-0.592604637287325	-0.190752728829191	0.786153735210259	0.587856871235826	-0.976553342441654	-0.212848792404829	-0.0322329169924136	0.0997845970591184	-0.580222109357067	0.808322545771789	-2.28353417147668	-36.0050723225749	103.638696702982
24746	1656653427604	5.90811722578582	-0.342036378172612	8.1323542069024	0.0166396230552575	-0.00096614790677026	0.245033307821584	0.0037621682823956	-0.00412630912351672	-0.0121450205354305	0.265625	-0.456787109375	0.554443359375	0	0	0	-0.231106516455877	0.205940495626556	-0.743656874012275	-0.592581423980713	-0.190874068009239	0.786166117627578	0.587800923490244	-0.976542879793379	-0.212871536428157	-0.0323992731950752	0.0996548748755305	-0.580196987645658	0.808356580625436	-2.29521053070645	-36.001109865203	103.646841138799
24747	1656653427604	5.9174377659078	-0.374441824615679	8.13316506532474	0.0471196761405712	0.0128666058303224	0.252215245346839	0.00193390648773113	-0.00335804602078684	-0.0110988686152965	0.273193359375	-0.460205078125	0.559326171875	0	0	0	-0.23111329509602	0.205931326401917	-0.743635729002068	-0.592608501616177	-0.19080361728418	0.786182775407855	0.587801516911342	-0.976556645040819	-0.212814905237154	-0.0323563770456456	0.099654897811854	-0.580195191087365	0.808357867272413	-2.29217130552913	-36.0011518927651	103.641714157434
24748	1656653427606	5.88831298285719	-0.364979266067084	8.0878067532922	0.0377934647618814	0.0145860953461111	0.198127616530952	0.00447213440493166	-0.00391658175222439	-0.0105541432764999	0.2646484375	-0.455078125	0.553955078125	0	0	0	-0.231071333233628	0.205944167066511	-0.743667888628923	-0.59258004558972	-0.190909857053039	0.78618991618318	0.587757468835465	-0.976541089206171	-0.212871779240334	-0.0324516054314677	0.0996038531986253	-0.58016465015971	0.808386078017829	-2.29883005060446	-35.998032359049	103.648906504458
24749	1656653427608	5.90273282492258	-0.358619375073647	8.14547044938149	0.0349414623466955	-0.00877284180808952	0.253009514096169	0.000815693661877529	-0.00237964283170228	-0.00846094627372965	0.264892578125	-0.449951171875	0.55322265625	0	0	0	-0.231067965637641	0.205939558915957	-0.743654733917628	-0.592599468487346	-0.190866930409194	0.786206730269323	0.587748919314525	-0.976550869961417	-0.212829536044032	-0.0324343485348826	0.0995902266980659	-0.580157363020157	0.808392986659165	-2.29758929002778	-35.9974268867682	103.645671340363
24750	1656653427609	5.92464435161426	-0.35267552132753	8.11894889373541	0.0217487650811858	0.0240366105857337	0.244254069371097	0.00691214864359471	-0.00239586972637928	-0.0116423578335754	0.26416015625	-0.448974609375	0.552978515625	0	0	0	-0.231019656406891	0.205882734761923	-0.743690383761317	-0.592593309936535	-0.190926174744207	0.786285974872561	0.587623656362004	-0.976537809451803	-0.212890937090826	-0.0324246143487275	0.0996047313565885	-0.580027425750969	0.808484435761187	-2.29664094867745	-35.9885563675427	103.648424262372
24751	1656653427609	5.89425845676423	-0.323290664272689	8.14415843495707	0.00203971833162087	-0.0205242698780892	0.245825983949199	0.00518223065634438	-0.00370679911355913	-0.00896335222802888	0.260498046875	-0.45556640625	0.560546875	0	0	0	-0.231034145006215	0.205864943262869	-0.743679146521893	-0.592607944601733	-0.190878095672312	0.786296678620041	0.587624953336397	-0.976544003234001	-0.212870898260569	-0.0323695909991129	0.0996361497661525	-0.580020270218921	0.808485697953246	-2.29274422255016	-35.9886482079148	103.644937011511
24752	1656653427610	5.87048639825196	-0.346892436845951	8.14184081288531	0.0289531745535043	-0.0304542719028404	0.230755816770047	0.00193002072363536	-0.00717956542787489	-0.0115630009129516	0.26806640625	-0.4521484375	0.54345703125	0	0	0	-0.230960757973159	0.205785707436578	-0.743734702150831	-0.592594350047236	-0.190978129137117	0.786409118918103	0.587441956174174	-0.976522810796482	-0.212968357813842	-0.0323678631394416	0.0996521659846152	-0.579832024169525	0.808618741782582	-2.29224516076573	-35.9756910073206	103.649941485031
24753	1656653427611	5.91056721317276	-0.335775553160737	8.13083470082072	0.00973909190190004	0.00497215596582537	0.245041174325063	0.000713294444898641	-0.00412145092403786	-0.010557116026243	0.270751953125	-0.452392578125	0.554931640625	0	0	0	-0.230964443108767	0.205783106151408	-0.743714440355904	-0.592619245762606	-0.190915711142434	0.786421820386044	0.587445241413767	-0.976536142439853	-0.212911485548877	-0.032339787105992	0.0996411247812323	-0.579835683398384	0.808617478484271	-2.29026254920145	-35.9759236015113	103.645434899898
24754	1656653427611	5.88679759240339	-0.359552067879456	8.12851523242632	0.0369272374266742	-0.00835953232593358	0.229971144463429	0.00335059765660789	-0.00675816121407578	-0.00837998998238559	0.2666015625	-0.455322265625	0.5517578125	0	0	0	-0.230983083209281	0.205840748164914	-0.743689211904855	-0.592623622345902	-0.190888115017512	0.786364127994774	0.587531433838292	-0.976547050639723	-0.21285365726506	-0.0323910246171236	0.0995870746227635	-0.57993515050556	0.808552803332085	-2.29407054059441	-35.9820262498232	103.644499785764
24755	1656653427611	5.90529928938262	-0.353272949168015	8.14384369614731	0.0293950336623986	-0.00422142161762539	0.253030177330823	0.00568812356548328	-0.00697743415768863	-0.0115637122370063	0.26806640625	-0.4599609375	0.556884765625	0	0	0	-0.231013171944426	0.205827443176327	-0.743667589923566	-0.592643648173964	-0.19081284133446	0.786362045999334	0.587558671277696	-0.976557448084833	-0.212817139829101	-0.03231741921937	0.0996293640043445	-0.579951375208906	0.808535956047342	-2.28891068486272	-35.9839548296577	103.63935507267
24756	1656653427612	5.905916611426	-0.352279826206357	8.14343904482455	0.0268241089562676	-0.00366179629327365	0.253037576047086	0.00192966487595099	-0.00718163176620127	-0.0115647843979716	0.2685546875	-0.45166015625	0.553955078125	0	0	0	-0.230959322192048	0.205868191098617	-0.743702301951502	-0.592606923228551	-0.19094965206836	0.786351910160861	0.587527789777927	-0.97654062166902	-0.212870644870747	-0.032473108606905	0.0995321285076111	-0.579945481867629	0.808552158772746	-2.29987967551525	-35.9817682312972	103.648938027707
24757	1656653427613	5.92176852191111	-0.365413179197328	8.13042318818128	0.035937464963953	0.0190743673779614	0.252251533786874	0.00700947475734691	-0.00447658109707575	-0.010013760221448	0.26318359375	-0.44921875	0.551025390625	0	0	0	-0.230981775428946	0.205844716908463	-0.74368978333854	-0.592622036460375	-0.190893082642499	0.78636115144535	0.587533803705614	-0.976546664142093	-0.212854148844864	-0.0323994455582063	0.0995813423900016	-0.579939006117946	0.808550743881133	-2.29467214858197	-35.9821940492726	103.644891310974
24758	1656653427614	5.90059855545924	-0.369373102773455	8.15651717783536	0.0468534577558423	-0.0110719435583107	0.261038578077841	0.00243863152763802	-0.00663351875093976	-0.0137018981629021	0.276123046875	-0.456787109375	0.55615234375	0	0	0	-0.230971142800292	0.205814261615593	-0.743680341600695	-0.592648606195804	-0.190839921535397	0.786407925389839	0.587488467318647	-0.976556546229646	-0.212816238579599	-0.032350589065068	0.0995863261918486	-0.579889492473247	0.808585641818311	-2.29111682428197	-35.978984049257	103.640452351417
24759	1656653427615	5.92917267742896	-0.344086846338425	8.11601117951002	0.0133580326666701	0.0293648024855678	0.244254568467621	0.00639836850730072	-0.00676753338526541	-0.00997406831417884	0.26123046875	-0.44970703125	0.556884765625	0	0	0	-0.231000061423557	0.205799583281403	-0.743664909307173	-0.592661797156412	-0.190781931627289	0.786404130506405	0.587512381220196	-0.976562996022192	-0.212797051425065	-0.0322820337797834	0.0996341776938076	-0.579901679965891	0.808571006287027	-2.2863081332374	-35.9806772341748	103.636525600402
24760	1656653427616	5.88639535585551	-0.353076344875021	8.16847919398031	0.0361501800758803	-0.0322268704836104	0.261835951667194	0.00436831708421803	-0.00566216471009643	-0.0126553106307445	0.266845703125	-0.45263671875	0.55859375	0	0	0	-0.231003678887158	0.20575981520715	-0.743661696164897	-0.592678226733248	-0.190739639793864	0.786441642184914	0.587475900142979	-0.976566739304888	-0.212790836004506	-0.0322096848156543	0.0996784505032425	-0.579853087902445	0.808600397573037	-2.28110675721205	-35.9780942653775	103.632989511213
24761	1656653427617	5.93021880280126	-0.341874062789599	8.11534034571924	0.0122630941055583	0.0306403275325522	0.244252157968845	0.00436818890801808	-0.005662716462419	-0.0126559128122063	0.266845703125	-0.44580078125	0.556396484375	0	0	0	-0.231025162678539	0.205746012158312	-0.743637663084604	-0.592704798978695	-0.190656790953959	0.786450211364424	0.587491321729939	-0.976580235081763	-0.212739199497153	-0.0321415221319605	0.099704726622097	-0.579860412549574	0.808591905380613	-2.276308404929	-35.9791861492984	103.627145846243
24762	1656653427618	5.90007154535855	-0.312679969272761	8.14036259760352	-0.00651236070378395	-0.0123058834808688	0.245837494614557	0.00335081795937705	-0.00676131014248707	-0.00838309392611486	0.258056640625	-0.45361328125	0.55029296875	0	0	0	-0.231033756823914	0.205653691991757	-0.743637577996546	-0.592733595107802	-0.190580576876819	0.786532059995175	0.58740647112289	-0.976583840257429	-0.21274688840148	-0.0319806882905953	0.0998150623170234	-0.579746565384596	0.808659924355976	-2.26473950331312	-35.9731787177153	103.62053674113
24763	1656653427619	5.90072437126321	-0.383829984754253	8.12639953580903	0.0618864598142606	0.0113649979717399	0.237202378790402	0.00325037483046614	-0.00468314850948182	-0.0100166440929066	0.26220703125	-0.4521484375	0.550537109375	0	0	0	-0.23104564232469	0.205643266441555	-0.743621663566734	-0.59275254500024	-0.19052466311702	0.786541306023515	0.58741222890145	-0.976593228362461	-0.212710534725972	-0.0319357907867829	0.0998299507198727	-0.579747360783484	0.808657516260037	-2.26157008000819	-35.9735863545614	103.616535348033
24764	1656653427620	5.89475622377394	-0.330066005911524	8.15343794721247	0.0111859397554489	-0.0188367807273623	0.253849518900484	0.0063981817065388	-0.0067691837911363	-0.00997677016133002	0.262939453125	-0.446533203125	0.549560546875	0	0	0	-0.230945256263481	0.205624829806805	-0.743704499685776	-0.592694132857283	-0.190755906971896	0.786602429058906	0.587255312921013	-0.976554745114376	-0.212864188486951	-0.032088425551712	0.0997647921359295	-0.57960801914606	0.808765435952635	-2.27206488242046	-35.9624778341821	103.631425887519
24765	1656653427621	5.87741621222941	-0.33454798702428	8.13735663561164	0.0177521431141141	-0.0223358380001145	0.230803196861105	0.000100936526573098	-0.00641878055450553	-0.0105200833650139	0.268310546875	-0.45068359375	0.555908203125	0	0	0	-0.23095365360874	0.20563064537105	-0.743682557878316	-0.59271637456428	-0.1906954184163	0.786603361379918	0.587273708981465	-0.976567956749387	-0.212806674015322	-0.0320678241367293	0.0997511064868967	-0.579627873174117	0.808752895138119	-2.2706428703351	-35.9637800617972	103.627249023983
24766	1656653427622	5.92668108020809	-0.356773359772765	8.12722674500944	0.0295764941807569	0.0276573124524455	0.252252310589318	0.00274071572416033	-0.00905344006692566	-0.00834350549115029	0.273681640625	-0.455078125	0.552734375	0	0	0	-0.230958664828283	0.205594814648732	-0.743677387024566	-0.59273333916577	-0.190650567564266	0.786636953972513	0.587243274744181	-0.976572569520071	-0.212795921661899	-0.0319986278616655	0.0997916707365394	-0.57958623031341	0.808777734660581	-2.26567885199053	-35.9616256825753	103.623603291433
24767	1656653427624	5.90549742162584	-0.361294202537081	8.15333299111178	0.0407718252631642	-0.00324850467477825	0.26107058901893	-0.00101571319139475	-0.00161835847097428	-0.0074173696735604	0.2685546875	-0.454833984375	0.54931640625	0	0	0	-0.230942639716739	0.205593674473023	-0.743669262353015	-0.592750172002226	-0.190625461503992	0.786659474561308	0.587221256860918	-0.976580858128764	-0.212756949216024	-0.0320048136501084	0.0997585132351013	-0.579569971309088	0.808793476354691	-2.26607232340696	-35.9600671169811	103.621500657931
24768	1656653427626	5.87892668400239	-0.33269777007102	8.13634131473799	0.0153971776432366	-0.0216752606098941	0.230808530575178	0.00588983737497559	-0.00731867335804002	-0.00784176479091354	0.2607421875	-0.455810546875	0.54541015625	0	0	0	-0.230968668016125	0.205664656377489	-0.743656798732121	-0.592731042895072	-0.190646770366754	0.786572756253997	0.587330493051159	-0.976581123220008	-0.212743919811299	-0.0320832410094835	0.0997151880060155	-0.579692438886618	0.808711047023973	-2.27185078880475	-35.96779985048	103.624412516587
24769	1656653427627	5.91022063332896	-0.36008794685344	8.11055799820253	0.0340856193506019	0.0235375491190152	0.229215165570555	0.00335060997379082	-0.00676343504694255	-0.00838562151082684	0.263916015625	-0.450439453125	0.548828125	0	0	0	-0.230985682509241	0.205662090571102	-0.743644104232573	-0.592741229557889	-0.190606898515884	0.786567044678893	0.587351082797391	-0.976587038106267	-0.212721878568251	-0.0320493273130992	0.0997334810431463	-0.579708277156283	0.808697437955327	-2.26948998497627	-35.9692574652695	103.621764507296
24770	1656653427628	5.91084073666773	-0.359367874375705	8.11013802747151	0.0308633665802458	0.0242838838083211	0.22922380891181	0.00142054320187921	-0.00773792253047255	-0.00943320720514677	0.261474609375	-0.453125	0.55517578125	0	0	0	-0.230900404550767	0.205721076107587	-0.743694095208238	-0.592691264298563	-0.190804136804926	0.786559827684971	0.58729670427333	-0.976564146476415	-0.212791808138614	-0.0322817937217056	0.0995803655090645	-0.579692404522681	0.808727684046858	-2.28584868804447	-35.9654078918281	103.635454668827
24771	1656653427629	5.91381986419126	-0.339201124912731	8.13825710592572	0.0136418874080473	0.00605084219483195	0.253062920826075	0.00203044720651409	-0.00162641888979637	-0.0090120362539479	0.26416015625	-0.452880859375	0.54736328125	0	0	0	-0.230894147083114	0.205707927257964	-0.743684496615027	-0.59271030951085	-0.190764763684628	0.7865854235093	0.58727521355753	-0.976572449159152	-0.212757475325569	-0.0322569099013679	0.0995743766219157	-0.579670275428872	0.808744283011987	-2.28404172118905	-35.9638865692737	103.63231889325
24772	1656653427629	5.89622456894965	-0.343853571419157	8.12235950956307	0.0183156759484557	0.00363111216612958	0.230025156594062	0.00203017709932311	-0.0054474599274505	-0.00947502887376685	0.27099609375	-0.465576171875	0.552734375	0	0	0	-0.230813106883137	0.205706813519684	-0.743739222501789	-0.592673591005171	-0.190926648431977	0.786629534072042	0.587163513038858	-0.976548849014076	-0.212845442793226	-0.0323907852859222	0.0994955295870892	-0.57957811691588	0.808820033125063	-2.2932964746427	-35.9559797886701	103.64271873029
24773	1656653427631	5.91188195478447	-0.35727882208444	8.1094713669452	0.0273604547646974	0.0264274040756002	0.229228551645255	0.00274136438936575	-0.00141387267652854	-0.00742029681859247	0.26904296875	-0.44921875	0.5546875	0	0	0	-0.230805780002345	0.205692228534785	-0.743735777691989	-0.592685829102396	-0.190904399797429	0.7866534015742	0.587138770589818	-0.976553222563767	-0.212828430203198	-0.0323707089444034	0.0994952945535832	-0.579551969273664	0.808838798075806	-2.29182345346529	-35.9542284883378	103.640789932148
24774	1656653427631	5.91215732096564	-0.356691047931118	8.10929649030448	0.0253301261553344	0.0260997306354026	0.229234735271154	0.000202080751102719	-0.00467988126954529	-0.00842636776900922	0.2685546875	-0.455810546875	0.548583984375	0	0	0	-0.230776706800588	0.205757141932089	-0.743753945513696	-0.592651819093659	-0.191011865846503	0.786606346301979	0.58716686134632	-0.976542168765134	-0.212855639737829	-0.0325249020796006	0.0993974835160596	-0.579605842438851	0.808812220284427	-2.30280408200553	-35.9562167888863	103.648967543237
24775	1656653427633	5.89709583971854	-0.341799354735232	8.12181367238437	0.0151808652147842	0.00401737919256174	0.230030237439042	0.00507669469437896	-0.0016338709566903	-0.0106076326439351	0.2724609375	-0.45458984375	0.552001953125	0	0	0	-0.230780128345923	0.205731379667004	-0.743743163381291	-0.592672961003402	-0.190958587312198	0.786635497325784	0.58714513732019	-0.976550354143124	-0.212826721431542	-0.0324683302256232	0.0994194334859576	-0.579576898255716	0.808830263561901	-2.29875179779741	-35.9546791294688	103.644816051354
24776	1656653427633	5.87312857974765	-0.365618353803403	8.11972240852854	0.041889668259955	-0.00958106302623525	0.215042267494191	-0.000407363985875817	-0.00315087722905409	-0.0079227757753559	0.269287109375	-0.45556640625	0.54638671875	0	0	0	-0.230766855097728	0.205814305738862	-0.743735531733942	-0.592658914535136	-0.191004139220677	0.786572745738341	0.58721438543535	-0.976553226016259	-0.212791765150529	-0.0326107565284762	0.099303653295363	-0.579674891940102	0.808774260283069	-2.3089843657166	-35.9595807201421	103.648997300815
24777	1656653427634	5.9486221196158	-0.343855798399709	8.14030887624874	0.00828683448438963	0.0335737272062228	0.275314155883674	0.00335004468873349	0.00087687516188454	-0.00746251394713796	0.268798828125	-0.457763671875	0.548828125	0	0	0	-0.230752508626985	0.20579182521086	-0.743734978332159	-0.592673001278107	-0.190983986636708	0.786609323682593	0.587171941380004	-0.976557243371921	-0.212776876464768	-0.0325875936474534	0.0993029066351246	-0.579630721009084	0.808806008877472	-2.30725563160758	-35.9565763656701	103.647000180332
24778	1656653427635	5.91285330968152	-0.353897820289191	8.10891141468633	0.0197044304292786	0.0247379666827895	0.229250796907312	0.00202980409541922	-0.00162805799928979	-0.00901380534036055	0.270263671875	-0.44921875	0.55029296875	0	0	0	-0.230710405505179	0.205896324919545	-0.743749540585126	-0.592634822682295	-0.191113351471921	0.78653890498098	0.587224180224632	-0.976548603437837	-0.212781340657899	-0.0328165536191101	0.0991388521861087	-0.5797246346492	0.808758824352521	-2.32358407871011	-35.9602740494578	103.657074924821
24779	1656653427636	5.90031308278603	-0.319627185471662	8.14983366446653	-0.00717242476080048	-0.0159568414797102	0.253858155684757	0.00142091998576125	-0.0039196695696076	-0.00897271448223212	0.263916015625	-0.449951171875	0.5546875	0	0	0	-0.230709349671666	0.205894488775318	-0.743736839654966	-0.592651810767562	-0.191074054336013	0.786550402299452	0.587221568406822	-0.976557536724787	-0.21274258137176	-0.0328020050804206	0.0991266020078074	-0.579723260456099	0.808761310932055	-2.3225479612065	-35.960089169964	103.654179741727
24780	1656653427637	5.89173917075357	-0.3576288919718	8.13502644254899	0.0306601408766973	-0.00531201880165007	0.238092498216968	0.00202959272610273	-0.00162849709932413	-0.00901434222238886	0.26513671875	-0.44384765625	0.554931640625	0	0	0	-0.23069971329468	0.205852844579573	-0.743723675924703	-0.592686546610684	-0.191000599504908	0.786609649782027	0.587166100740294	-0.976570418683634	-0.2126945276904	-0.0327300357871552	0.0991412544848834	-0.57966050129395	0.808804497328501	-2.31733412649786	-35.956162951536	103.648137430842
24781	1656653427638	5.9098173795816	-0.351551450325091	8.15062833832073	0.0229606288084998	-0.00112112440871034	0.261127392244775	0.00202953949858314	-0.00162872742760292	-0.00901459358734021	0.263671875	-0.453125	0.552490234375	0	0	0	-0.230692035322824	0.205841580901136	-0.743714216072137	-0.592705317356728	-0.190963183231345	0.786634714415191	0.587144691474838	-0.976578767423795	-0.212659300698361	-0.0327098279345075	0.0991310933419627	-0.579639411965244	0.808820856821467	-2.31585814817599	-35.954647572174	103.645145245604
24782	1656653427639	5.91376864741282	-0.351101266017622	8.10836546839401	0.0181869859792014	0.028140742671429	0.229244700657853	0.001927993507514	-0.00337242539906598	-0.0111115205629986	0.268310546875	-0.455810546875	0.543701171875	0	0	0	-0.230664824945136	0.205762032708312	-0.743715087289845	-0.592742434254738	-0.190900290333595	0.786738855954279	0.587025597126992	-0.976587108974351	-0.212636785059023	-0.0326069965633501	0.0991700445480814	-0.579506315903041	0.808911448857547	-2.30832730476658	-35.9462184292702	103.639080999029
24783	1656653427640	5.92565832823559	-0.363974094165737	8.13765736045339	0.0317833363091928	0.0235365881468003	0.260336356704949	0.0050759003598815	-0.00163527114356906	-0.010610441112064	0.273681640625	-0.451904296875	0.552978515625	0	0	0	-0.230667713868124	0.205736956120929	-0.743704360594901	-0.592763472809415	-0.19084774216355	0.786767812406275	0.587003874495322	-0.97659530571268	-0.212607540378033	-0.032552152530358	0.0991904641134008	-0.579477733080269	0.808929421329896	-2.30439780958044	-35.9446810631245	103.634983703648
24784	1656653427642	5.89249156601539	-0.35420416062076	8.13463131981536	0.0278879094498297	-0.00406551648492356	0.238101154151742	0.00842818007139374	-0.000231922545376506	-0.0063786586255008	0.26806640625	-0.449951171875	0.548583984375	0	0	0	-0.230684319022835	0.205791767336304	-0.743692638826073	-0.592752690765284	-0.190857985094973	0.786705758116017	0.58708370755165	-0.97659749294994	-0.212587992174232	-0.0326141433617487	0.0991492122479005	-0.579569146634319	0.808868986907143	-2.30895376831866	-35.9503311995428	103.636723588683
24785	1656653427643	5.89251291492026	-0.353281314932319	8.13465598348129	0.0273066499087679	-0.00372594629569038	0.238102881782847	0.00192613487153897	0.000447356316831667	-0.0106498291580487	0.271240234375	-0.453125	0.5556640625	0	0	0	-0.23067022593029	0.205772902862963	-0.743680642511088	-0.592779774681049	-0.190806771196708	0.786746323417297	0.587045993645177	-0.976609051392222	-0.21253930235287	-0.0325853601198317	0.099133933666887	-0.579531938330168	0.808897518633237	-2.30683694739891	-35.9476619702047	103.632524247882
24786	1656653427644	5.8927219477139	-0.352461692738046	8.13454011862749	0.0268911023038701	-0.00375910146087337	0.238103989833871	0.00324955878880646	-0.00468983788053553	-0.0100240861868382	0.270263671875	-0.44384765625	0.55078125	0	0	0	-0.230693002794643	0.205777071807222	-0.743652182946716	-0.592805166963498	-0.190725544965942	0.786739051746002	0.587082133057417	-0.976624374151989	-0.212475661479651	-0.0325411292216697	0.0991392874176586	-0.579565145377624	0.808873070360073	-2.30377861092674	-35.9502197617571	103.627058579129
24787	1656653427645	5.91713993851484	-0.327058472924597	8.13634065316132	-0.00210905874766716	0.00924321329709086	0.253069518874668	0.00395868459026366	-0.000654524842342357	-0.0079692887163041	0.268310546875	-0.45458984375	0.548095703125	0	0	0	-0.230686415306709	0.205757050645718	-0.743648847934134	-0.592818863455568	-0.190699145848379	0.786767416809628	0.587052695777307	-0.976628842559795	-0.212459662481649	-0.0325114702605016	0.0991460521302508	-0.579532504407551	0.808895627805032	-2.30161702000724	-35.9481363119237	103.624769800487
24788	1656653427645	5.91103869427441	-0.345391623538811	8.15000603705451	0.0190106928856514	0.000162344494193431	0.2611356817821	0.00385745370198109	-0.00239882762226088	-0.0100663440284562	0.264404296875	-0.44873046875	0.54541015625	0	0	0	-0.230714139868784	0.205758625896389	-0.743605526169019	-0.592861868384815	-0.190571581359747	0.78676787438314	0.58709350551397	-0.976653571960213	-0.212356385768993	-0.0324432704961923	0.0991477319730683	-0.579569734597803	0.808868747067675	-2.29687030848618	-35.9510246722561	103.615987544123
24789	1656653427647	5.88702298933057	-0.369022954501838	8.14799602947624	0.0468562414053789	-0.0121701294098296	0.246175059469488	0.0037537232450189	-0.000321903489533602	-0.0117011764749941	0.266357421875	-0.460205078125	0.55517578125	0	0	0	-0.23070978097343	0.205734150605409	-0.743591128203029	-0.592890116544043	-0.190508613335166	0.786805899672964	0.587062981702074	-0.976665422972678	-0.212309537958125	-0.0323930804587602	0.0991520035839529	-0.579535276175511	0.808892912475726	-2.29325238678243	-35.9488643012059	103.611022635549
