// Start Time : 29/03/2022 10:16:16																																
// Update Rate : 100Hz																																
// Filter Profile : 46.1 human																																
// Firmware Version : 4.4.0																																
PacketCounter	Time_Of_Arrival	Acc_X	Acc_Y	Acc_Z	FreeAcc_X	FreeAcc_Y	FreeAcc_Z	Gyr_X	Gyr_Y	Gyr_Z	Mag_X	Mag_Y	Mag_Z	VelInc_X	VelInc_Y	VelInc_Z	OriInc_q0	OriInc_q1	OriInc_q2	OriInc_q3	Mat[1][1]	Mat[2][1]	Mat[3][1]	Mat[1][2]	Mat[2][2]	Mat[3][2]	Mat[1][3]	Mat[2][3]	Mat[3][3]	Euler_X	Euler_Y	Euler_Z
6620	1648549015341	9.64540240739694	0.0314131407394359	0.89754481483382	-1.22298005056365E-14	-1.3010426069826E-16	-0.125563916750556	0.0260449081953137	-0.000843356137989399	-0.0213592528986707	0.328857421875	-0.2890625	-0.0302734375	0	0	0	0.420510421290994	-0.526157757593227	0.459645216039524	0.578839593568129	0.0237685789928928	0.089612059453601	0.995693091998304	-0.974631340697811	0.2237945219153	0.00312437038286306	-0.222550678233623	-0.970507955022104	0.0926579994202756	1.9312464992022	-84.6804312853521	75.1449988842259
6621	1648549015341	9.64044987188724	0.0808647943831823	0.869867580645221	4.33680868994202E-16	-4.77048955893622E-16	-0.13273478870847	0.0277386752230557	-0.00395369603980806	-0.0258467912383942	0.332275390625	-0.30029296875	-0.037353515625	0	0	0	0.419490446699208	-0.528285861649042	0.454271162162187	0.581875867120853	0.0291035192190903	0.0854371086061762	0.995918413145415	-0.971880596958305	0.23533095271183	0.00821267019370509	-0.233668762193478	-0.968152799494356	0.0898836270196577	5.22062152139218	-84.8215477056794	71.1889698902817
6622	1648549015341	9.68398339476077	0.13665801425798	0.86582814229328	-0.0747978394782415	0.0392964729607142	-0.0894816741923012	0.0190483255174882	-0.0132810581248746	-0.0163850675839297	0.3330078125	-0.29248046875	-0.038330078125	0	0	0	0.420067557093092	-0.527229973144423	0.456938107169935	0.580326950185785	0.0264722432681805	0.087402582625119	0.995821273566105	-0.973291410005256	0.229501627387603	0.00573011661591749	-0.228041775879641	-0.969375980503391	0.0911436057919504	3.59739956808274	-84.7602453761346	73.1496396959145
6623	1648549015342	9.68652032690736	0.115746814599389	0.890403062711378	-0.0585562705288701	0.0091869125476122	-0.0848213410174718	0.0083798292869776	-0.0138874349574011	-0.0179003064312535	0.334716796875	-0.294677734375	-0.030029296875	0	0	0	0.420170785614431	-0.527213523556198	0.456879085867539	0.58031363278184	0.0266148029526047	0.087226883365356	0.995832879092757	-0.973305764881996	0.229436023625992	0.00591600457870017	-0.22796390133369	-0.96940733537614	0.0910048229912249	3.71942724252931	-84.767531657117	73.0319220842093
6624	1648549015343	9.71114167559277	0.116633747487699	0.839896039632452	-0.0461862866304394	0.0584766706484383	-0.0648800040570823	0.0072384009263303	-0.0213409143387171	-0.0100207190420528	0.33056640625	-0.296142578125	-0.0419921875	0	0	0	0.420268914441205	-0.527236394806432	0.45682161322041	0.580267039595246	0.0266715953724377	0.0869949156546762	0.99585165092524	-0.97331918485145	0.229376106498227	0.00603043678543674	-0.227899956999553	-0.969442358481385	0.090791647091856	3.80003910474653	-84.7793386164881	72.9550900410572
6625	1648549015344	9.74051557093195	0.0745242753106554	0.889493417681433	-0.0155262992485081	0.00101783991109559	-0.0313708114893529	0.00120794422482657	-0.0229902998371721	-0.00385555741612763	0.3310546875	-0.293212890625	-0.036376953125	0	0	0	0.420335092513472	-0.527292232848984	0.45676529765882	0.580212697235655	0.0266567280635648	0.0867631917641152	0.995872264602168	-0.973320909668967	0.229367745712682	0.00606992815917984	-0.227894330008713	-0.96946510292098	0.0905626223576475	3.83449458435293	-84.7923347966798	72.9211863680217
6626	1648549015345	9.79445450042588	0.030108204023988	0.866062894736364	0.0345045521110343	0.0161280780160273	0.0199551834912945	0.00402014512977519	-0.0183096680228251	-0.00553247519817157	0.32958984375	-0.2978515625	-0.031494140625	0	0	0	0.420404028506097	-0.527324360888519	0.456720564481777	0.580168766143789	0.0266706887859248	0.0865714414419019	0.995888578047944	-0.973328584029648	0.229333557590583	0.00613081346052902	-0.227859917209072	-0.969490332540515	0.0903789424587194	3.88068744081227	-84.8026428080524	72.8771268565077
6627	1648549015345	9.74612536806936	0.0240167484791883	0.840198053203034	0.0452093397726516	0.0338821170622748	-0.0305466368146963	0.000811087608952541	-0.0154236843155581	-0.00562472692770378	0.328369140625	-0.289794921875	-0.033447265625	0	0	0	0.420456431774534	-0.527355425318829	0.456673964112809	0.580139237483309	0.0266902917765789	0.0864090098247766	0.995902159524711	-0.973328931450764	0.229330558961838	0.00618756229577067	-0.227856137783897	-0.969505532602755	0.0902252887324458	3.92314607397304	-84.8112401424451	72.8349598620841
6628	1648549015346	9.74863877281129	0.00353048579679759	0.889054112679955	0.0543764477696251	-0.0195375547608578	-0.0237625541714781	0.00530735208540881	-0.0137088913083396	-0.00720777870941971	0.32861328125	-0.298095703125	-0.0361328125	0	0	0	0.420522812470144	-0.527369211830947	0.456637616707871	0.580107201827698	0.0267276028403228	0.086255971816717	0.995914425325973	-0.97333910849397	0.229285302399111	0.00626338406235449	-0.227808285895343	-0.969529864124722	0.090084557210011	3.9772508031542	-84.8190168558216	72.7836838020777
6629	1648549015347	9.70274793887473	-0.0250653688063561	0.889579825059266	0.0813228758842706	-0.0318929529329445	-0.0696043079842852	0.0051471539983015	-0.0106628832833958	-0.00730471901939209	0.330810546875	-0.28857421875	-0.02880859375	0	0	0	0.420581347751146	-0.52737302770788	0.456607580322539	0.580084939609752	0.0267744144764393	0.086135843791544	0.995923564910361	-0.973348878835475	0.229241695031652	0.00634076720429022	-0.22776103880859	-0.969550855640556	0.0899780391401059	4.03097913792915	-84.82481907506	72.7326964900923
6630	1648549015348	9.67608029035397	-0.00402370408777221	0.862726022468041	0.0668102401809716	-0.00454793428002662	-0.098452565058512	0.00972574005172023	-0.0105193270478878	-0.0103671617075459	0.326904296875	-0.29541015625	-0.031982421875	0	0	0	0.420658824329276	-0.527362445772453	0.456582954803965	0.580057764093618	0.0268417123427528	0.0860096429055874	0.995932660276669	-0.973368308641795	0.229156317792783	0.00644342668651476	-0.227670064370176	-0.969582241660245	0.0898700086056148	4.1009288212744	-84.8305996703761	72.6680087206127
6631	1648549015349	9.67882265904396	-0.0286154977535451	0.838765977425904	0.0971690419590311	0.0118918309674455	-0.0980400824792564	0.0175114260096621	-0.0132126126077471	-0.0118110992727695	0.332275390625	-0.294921875	-0.034912109375	0	0	0	0.420770916174045	-0.527335942778702	0.456567079997717	0.580013052454952	0.026926609832113	0.0858544758908434	0.995943756771665	-0.973404986988836	0.228996675128827	0.00657678380411991	-0.227503162589474	-0.969633710093379	0.0897372791115048	4.19167426210456	-84.8376608327329	72.5869674152547
6632	1648549015349	9.69800186953441	0.0253125223616694	0.858711756138115	0.041473064862252	0.00503750375377814	-0.0767990513843362	0.0128598247349658	-0.0119793395203741	-0.0133785854791673	0.331787109375	-0.29052734375	-0.040283203125	0	0	0	0.420866109753245	-0.527319768730584	0.456541338034192	0.579978952922468	0.0270077363437463	0.0857066950745435	0.995954288407347	-0.97343077372103	0.228883448654238	0.00670042573419632	-0.227383180887381	-0.969673516886762	0.0896111583341865	4.27617558699828	-84.844371472375	72.5094137599432
6633	1648549015350	9.71978021162466	0.0536217498615382	0.856196804473516	0.0163490727908298	0.0146326347507046	-0.0551469970169407	0.0171138574254347	-0.00569489466530398	-0.0151097819629025	0.323974609375	-0.298828125	-0.0380859375	0	0	0	0.420968573401493	-0.527265417838825	0.456530656562699	0.579962411694062	0.027141877539361	0.0856168996816484	0.995958365079857	-0.973465582687857	0.228730439653486	0.00686624337714797	-0.227218128250871	-0.969717552932206	0.0895532787191227	4.38441320775182	-84.8469714219548	72.4105820133497
6634	1648549015350	9.66861570231155	0.0757199041420203	0.878700399357197	-0.0106210910922518	-0.00735436603445178	-0.103938191872624	0.0139799404994169	-0.00423521164014799	-0.0120983073325356	0.3232421875	-0.29443359375	-0.03564453125	0	0	0	0.421045382089829	-0.527228691266286	0.456528403831486	0.579941815893236	0.0272234472014288	0.0855454115238779	0.995962281660145	-0.973494234575613	0.228605205431811	0.00697390116935148	-0.227085576755793	-0.969753392681196	0.0895013866529381	4.45545466664378	-84.849470503492	72.347167748535
6635	1648549015351	9.69041789000554	0.102173282406908	0.852181256188314	-0.0286869156728224	0.0255154061001918	-0.0844101739381671	0.0140585343951677	-0.00570914623183188	-0.0105221953433631	0.3232421875	-0.2919921875	-0.037841796875	0	0	0	0.421126915834282	-0.527191001813974	0.456522931890944	0.579921185182935	0.02731292052815	0.08546599815176	0.995966649809193	-0.973523280749778	0.228477866835205	0.00709127665682374	-0.226950272549764	-0.969790403915382	0.089443536732567	4.53305120039739	-84.8522591481298	72.2773443829116
6636	1648549015352	9.66351558451495	0.126214008479635	0.874726530883619	-0.0574335724744526	0.00627097862308566	-0.109014244532419	0.00770974063938732	-0.00126669364866104	-0.00454814528027127	0.33154296875	-0.293701171875	-0.0322265625	0	0	0	0.421160485136534	-0.527174893199231	0.456530799490665	0.57990525679317	0.0273325221935876	0.0854387534820736	0.995968449617741	-0.973539688568428	0.228406949751947	0.00712320764117463	-0.226877517644708	-0.969809509495778	0.0894209554798774	4.55452224148979	-84.8534085918081	72.2601213688501
6637	1648549015351	9.61484298625387	0.1244681773099	0.92344875909246	-0.0679010398595215	-0.0457984898909748	-0.153145575207473	0.00473519495294094	-0.00280359969513501	8.89063109869656E-05	0.334228515625	-0.29052734375	-0.0341796875	0	0	0	0.421180379978149	-0.527172400711177	0.456537634782685	0.579887692124008	0.0273252959108931	0.0854117667127163	0.995970962583947	-0.973550454894822	0.228360951096989	0.00712655514010252	-0.226832184615562	-0.969822718913664	0.0893926948997536	4.55808806409801	-84.8550139204516	72.2592651606078
6638	1648549015352	9.63923674403792	0.125248148065228	0.898481280477149	-0.0627311287837521	-0.0197621352627862	-0.13108031988256	-0.00265129319967527	-0.00762857410576834	0.00483381010621219	0.327880859375	-0.29736328125	-0.033203125	0	0	0	0.421175812111576	-0.527212622485981	0.456530028776485	0.579860430456288	0.0272543670335942	0.0853489891430955	0.995978287679933	-0.973545806867121	0.228382536234994	0.00706958798788881	-0.226860665186905	-0.969823162847292	0.0893155719672196	4.52569234443333	-84.8596961782741	72.2902340635613
6639	1648549015353	9.61496502151581	0.12372516494781	0.922277266266506	-0.0679647084603711	-0.0457968710337463	-0.153146015295768	-0.00883017919497544	-0.00642853289398039	0.00479744067855817	0.33251953125	-0.291015625	-0.04296875	0	0	0	0.421152237883986	-0.527261518579635	0.456507122588395	0.579851127942744	0.0271930761023228	0.0852976028937106	0.995984365114574	-0.973527076893398	0.22846407910275	0.00701392294852621	-0.226948379962247	-0.969808477742033	0.0892521671008162	4.49338070552633	-84.8635841523131	72.31759636106
6640	1648549015354	9.59343368601703	0.0947986562668265	0.898538274421758	-0.0356816522103462	-0.0320351589770315	-0.176919200506264	-0.00834575217173658	-0.0155662427123867	0.00509179736132774	0.33251953125	-0.29833984375	-0.038330078125	0	0	0	0.421150017998938	-0.527331504267726	0.45646717120547	0.579820548581979	0.0271184124368273	0.0851667462085201	0.995997598916363	-0.97350943626356	0.22854076790234	0.00696382886168184	-0.22703296943993	-0.969801909024138	0.089108293892463	4.46859279333407	-84.8720605069014	72.3377182816008
6641	1648549015355	9.64726767617204	0.0524516323173737	0.923941020412284	0.000209569017018026	-0.0634592579679848	-0.121342552808763	-0.0155648278567439	-0.023584280011112	0.00535338430130932	0.326904296875	-0.294921875	-0.03271484375	0	0	0	0.421144601406746	-0.527446670388568	0.456391984368966	0.579778915799569	0.027012732999541	0.0849502642258881	0.996018958084558	-0.973475535282324	0.228687162619421	0.00689665570200426	-0.227190876715349	-0.969786385891775	0.0888744692039324	4.43725805085614	-84.8857707788869	72.3602247815377
6642	1648549015356	9.6206984732227	0.0720055670160452	0.895705466142633	-0.0140641735394529	-0.0359026774344825	-0.150191575640655	-0.019973607572297	-0.0269699503273715	0.00240693889352237	0.336669921875	-0.2919921875	-0.029052734375	0	0	0	0.421139066254781	-0.527566302954136	0.45629207502829	0.579752727572483	0.0269426765073645	0.0847155897075332	0.996040843059723	-0.973430710561902	0.228878858280857	0.00686439851718373	-0.227391169392241	-0.969761690876968	0.0886313657227106	4.42865227370677	-84.8998566882416	72.3574202770632
6643	1648549015357	9.69894148501722	0.0309906465762404	0.895705008421014	0.0270619715239321	-0.0412901290198891	-0.0725499981860267	-0.0228582222900479	-0.0302746826135909	-0.000543086448248561	0.328369140625	-0.306640625	-0.037841796875	0	0	0	0.421143299634521	-0.527705059195641	0.456166450314515	0.579722227691614	0.0268790802135598	0.0844207618220479	0.996067593098108	-0.973378561275978	0.229100981560806	0.00684957635046995	-0.227621816826021	-0.969734951015616	0.0883313833445452	4.43407554550907	-84.9171267924744	72.338827001653
6644	1648549015358	9.69667630050599	0.0536630890856224	0.86678696234706	0.0109415143790188	-0.0108685165946245	-0.0772114104205475	-0.0227748588888211	-0.03189491918788	-0.00354948060474639	0.322998046875	-0.29345703125	-0.04248046875	0	0	0	0.421153032093485	-0.527830974458039	0.456034869508249	0.579704048419308	0.0268533203905415	0.084135289496882	0.996092441616379	-0.973325750800329	0.229324642702117	0.00686957629855128	-0.227850569481356	-0.969706894536087	0.0880491719222821	4.46116645506274	-84.9332218535193	72.298563412248
6645	1648549015360	9.67787777348203	0.00130053483382261	0.842331968565288	0.0664246327810687	-0.00402485563615949	-0.0984496898661149	-0.0225314304934038	-0.0365123152484329	-0.00493232212174444	0.332763671875	-0.29443359375	-0.03564453125	0	0	0	0.421183984289818	-0.527977777233204	0.455884221830676	0.57966636474051	0.0268180860674471	0.0837699315591632	0.996124183436108	-0.973273066885415	0.229547255327187	0.00689890188470643	-0.228079651734079	-0.969685854356105	0.0876870362512788	4.49855995252085	-84.953856371348	72.2480646533197
6646	1648549015361	9.70247515453692	0.00438377167104707	0.838499000923392	0.0645976147021542	-0.000957594156128068	-0.0742609562361167	-0.0223674411136398	-0.039703137395443	-0.00941845656932488	0.329345703125	-0.294677734375	-0.033203125	0	0	0	0.421225002070424	-0.528117200101561	0.455722209278645	0.579636945473501	0.0268189818541579	0.0833945213290053	0.996155658531644	-0.973219196153832	0.229773531201924	0.00696567273766846	-0.228309304343902	-0.969664621491011	0.0873234411753182	4.56074975284444	-84.9744009388511	72.1726426479345
6647	1648549015362	9.68113820429519	-0.0244722893113505	0.787513592013392	0.103839407514577	0.0359942243404776	-0.100162778864293	-0.0222845877295002	-0.0414185836792764	-0.0154802542325455	0.33251953125	-0.2939453125	-0.035888671875	0	0	0	0.421295656693377	-0.528255407407535	0.455531245190531	0.579609764282107	0.026875018399727	0.0829572977648681	0.996190654510253	-0.973164132827207	0.230002508612921	0.00710046550827587	-0.228537314162667	-0.969647839568219	0.0869123883919918	4.67051035118466	-84.9973424728027	72.0496421693162
6648	1648549015362	9.70316690923104	0.00490540333769594	0.806050226052856	0.0714034516147957	0.0225703495553102	-0.0763852075006088	-0.0190736143372081	-0.0441110915463678	-0.00928638699748706	0.323974609375	-0.296142578125	-0.04052734375	0	0	0	0.421352054681091	-0.528408570302988	0.455373531308847	0.579553082840292	0.0268386596273268	0.0825341942113019	0.996226777965389	-0.973118341444348	0.230194785998668	0.007145211237574	-0.228736485707922	-0.969638317768496	0.0864936576927513	4.72246148438576	-85.0211337099934	71.9863914068412
6649	1648549015364	9.77893359951459	-0.0124936091015291	0.778325367360001	0.0962876940822901	0.0472989623747813	-0.00340713257513236	-0.0189916613314964	-0.045538505455244	-0.00618495604383399	0.3271484375	-0.298828125	-0.03271484375	0	0	0	0.42141704123433	-0.528570713362368	0.455209475336012	0.579486852221181	0.026794669079819	0.0820783997108649	0.996265618201194	-0.973073224144019	0.230384021843231	0.00719047517915999	-0.228933497249457	-0.969632063609822	0.0860413566658	4.77710725105553	-85.0468414094853	71.9206177376644
6650	1648549015365	9.75496858183067	-0.0163362737176934	0.74993445123761	0.104632068841015	0.0679280861202436	-0.0297165870070284	-0.0131352471255255	-0.040502714305381	-0.00176814402090865	0.3271484375	-0.30078125	-0.038330078125	0	0	0	0.421459804504826	-0.528727467524599	0.455099135371674	0.579399409091632	0.0266640841379566	0.0816935900264236	0.996300749756658	-0.97304309042342	0.230512820341417	0.00714029673654115	-0.229076779260414	-0.969633950007342	0.0856377965435564	4.76617562628955	-85.0702095747697	71.9237633646061
6651	1648549015366	9.75527151106828	-0.016175548108504	0.745987051773003	0.104631397107543	0.0679283062507435	-0.0297165813511171	-0.0100869480306683	-0.04038830760214	-0.00330778469877948	0.32763671875	-0.296142578125	-0.041748046875	0	0	0	0.421531204192157	-0.528860454081511	0.454977791928669	0.579321389949241	0.0266036579208216	0.081294365515126	0.996335019720137	-0.973019101749487	0.230613305488044	0.00716456296635759	-0.229185673670613	-0.969643609511954	0.0852361280020162	4.80472937484023	-85.0931116011109	71.8792670613338
6652	1648549015367	9.75815478189201	-0.0403646639566891	0.74371133463135	0.127078643863293	0.0609694848554275	-0.0271647266975261	-0.00719670664573689	-0.0370378924437084	0.00116708510689864	0.321533203125	-0.298828125	-0.033935546875	0	0	0	0.421575145436232	-0.529014895349805	0.454898851592913	0.579210386705818	0.0264205506349672	0.0809252165962729	0.996369943255512	-0.973003342376381	0.230682863139738	0.00706486928701999	-0.229273745179284	-0.969657942767705	0.0848352744969089	4.76046453277432	-85.116560621941	71.9191201509345
6653	1648549015367	9.75576362734223	-0.0180908824528961	0.714471883467497	0.110836470071636	0.0910783845624114	-0.0318315481903166	-0.00286101818156543	-0.0320362309747115	0.00711546940004203	0.324951171875	-0.29345703125	-0.033935546875	0	0	0	0.421620860340716	-0.529129232411665	0.454844378644296	0.579115443369179	0.0262776932462532	0.0806309636034822	0.996397576545643	-0.972998652406799	0.230704882682477	0.00699138906218338	-0.229310063565057	-0.969677216817451	0.0845162110659926	4.72888097278147	-85.1351945913338	71.9491709139935
6654	1648549015369	9.7612315702074	-0.0655882319006157	0.738788868901494	0.149215862652382	0.0538210531840543	-0.0246032927842386	0.000103367817171983	-0.0304461365919049	0.00400014842185689	0.326171875	-0.294921875	-0.041748046875	0	0	0	0.421662538747698	-0.529266834923555	0.454809114582017	0.5789870379896	0.0260505734862478	0.0803131696273788	0.996429205917531	-0.973001158782679	0.230698745419936	0.00684352754299139	-0.229325342316547	-0.969705049819827	0.0841546417336967	4.64911155526463	-85.1566110181804	72.0288856705206
6655	1648549015370	9.75371037542107	0.00794917812245248	0.756077555073434	0.0722560246519894	0.0510515138537905	-0.030113320303526	0.00275423331237153	-0.0224797093422338	0.00986057983574215	0.329833984375	-0.291259765625	-0.044921875	0	0	0	0.421695470996084	-0.529346472895773	0.454797650305073	0.578899247409409	0.0259028178195783	0.0801180145545514	0.996448768262996	-0.973010055386146	0.23066405403675	0.00674731745062734	-0.229304330849755	-0.96972944573173	0.0839304827483915	4.59622281267074	-85.1699042069021	72.0835501625848
6656	1648549015373	9.75647180344133	-0.0169115338811985	0.755382396131398	0.0941332995293266	0.0436329383264168	-0.0275524475544007	0.00579468083690886	-0.0225076996739319	0.00373692807051255	0.336181640625	-0.293212890625	-0.043212890625	0	0	0	0.421736996320087	-0.529462622487842	0.454790249384712	0.578768577574664	0.0256703209057772	0.0798486593188749	0.996476405254823	-0.97302456360599	0.230607469999006	0.00658736669931748	-0.229268910330137	-0.969765119183835	0.0836144746464155	4.50460695066124	-85.1887468031954	72.1780671777689
6657	1648549015373	9.72722553671551	0.0300881268579053	0.775230571964543	0.0423085038167408	0.0312663812423782	-0.0547143849712555	0.00226144588221753	-0.0134838453194429	0.00499707823030822	0.328369140625	-0.28564453125	-0.036376953125	0	0	0	0.421760929045075	-0.529507143757323	0.45478224460946	0.578716695308661	0.0255905893958861	0.0797293055966983	0.996488012754513	-0.973031005145069	0.230581657438032	0.00653928738515502	-0.229250484755751	-0.969781076883952	0.0834798068819933	4.47904752929933	-85.1966826581602	72.2050100879996
6658	1648549015377	9.70306703736233	0.0270362030487059	0.774009574388623	0.0426998181116317	0.0278571415607869	-0.0788940530410933	0.00242365515837148	-0.0165298640598503	0.00509092230458245	0.3291015625	-0.296875	-0.043212890625	0	0	0	0.421777361457461	-0.529618458833142	0.454781670095264	0.578603299308389	0.0253558412171405	0.0795141972725795	0.996511201014955	-0.973038501855816	0.23055497981469	0.00636201138291509	-0.229244749606964	-0.969805080268579	0.0832162908503809	4.37184472702979	-85.2125753832778	72.3133262693616
6659	1648549015378	9.70570123301472	0.000813526297871447	0.749538287507648	0.0730598979142994	0.0442945410444337	-0.078461930917312	0.00242370245463289	-0.0165298691193961	0.00509084129356084	0.333251953125	-0.29443359375	-0.041259765625	0	0	0	0.421808522433886	-0.529671555507938	0.454767801256133	0.578542877087434	0.0252685804529264	0.0793653918827766	0.996525279866591	-0.973045296699022	0.230527634685608	0.00631349492527705	-0.229225542673164	-0.969823769670321	0.0830512273758866	4.34722295780266	-85.2222504519643	72.3394164958521
6660	1648549015380	9.70316187688179	0.0231822535418303	0.721907208132119	0.0551367730503392	0.0736642308228473	-0.0831153750944438	-0.000468459674178566	-0.0198323329022993	0.00214548437009977	0.332275390625	-0.297607421875	-0.044189453125	0	0	0	0.421828431683381	-0.529802569175006	0.454746365209877	0.578425237388124	0.0250299620479365	0.0791019747819819	0.996552245788182	-0.973045122209656	0.230533035103889	0.00614083624466244	-0.229252461587381	-0.969844006689416	0.0827400238382047	4.24462164806122	-85.2408363765134	72.4412478317484
6661	1648549015381	9.67644805580117	0.0443887930298778	0.718662639077606	0.0336831393048974	0.077738754013888	-0.109857101301271	-0.00342781662484471	-0.0213741854794368	0.00678984609537407	0.328125	-0.288330078125	-0.040771484375	0	0	0	0.421849188540724	-0.529886599352647	0.454711597532698	0.578360455964343	0.0249151097914985	0.0789099498515359	0.996570347300433	-0.973038877673607	0.23056125039359	0.00607061385958024	-0.229291473543535	-0.969852942270823	0.0825269079080405	4.20705492987965	-85.2533533456118	72.4769549606399
6662	1648549015383	9.6523222568968	0.0413498086552532	0.716916969095443	0.033916433726762	0.0740347714245298	-0.134031829880056	-0.00504214928334435	-0.0200742697799535	0.00216896376463634	0.32861328125	-0.291259765625	-0.04150390625	0	0	0	0.421864504465473	-0.530031444960429	0.454670647074042	0.578248743980074	0.0246825400848642	0.0786225554316449	0.996598849082397	-0.973028366949044	0.230609885122745	0.005905759574377	-0.229361220190849	-0.969864719773368	0.0821940144505222	4.10972253626558	-85.2731289984569	72.5709899069578
6663	1648549015384	9.67935142977717	0.0193607038463844	0.715917940052463	0.0553706246973535	0.0699485762936061	-0.107286897602107	-0.00623950337154328	-0.0261995278706683	0.00389163445777841	0.331787109375	-0.292236328125	-0.043212890625	0	0	0	0.421895804105752	-0.530129723022828	0.454609736974009	0.578183702895648	0.0245849276323245	0.0783768706419464	0.996620613614674	-0.973014893742249	0.230667835052767	0.00586228861697768	-0.229428851474858	-0.969870824399025	0.0819328144914008	4.09253578462209	-85.2882858459551	72.5846211542523
6664	1648549015385	9.7280713671053	0.0239341244465213	0.713137623078288	0.0500942174094599	0.0743364950119087	-0.0588945137746286	-0.00960542251068539	-0.0201738242568223	0.00677559468811197	0.3330078125	-0.29052734375	-0.041748046875	0	0	0	0.421892000648915	-0.530297506746944	0.454564571430427	0.578068114089251	0.0243112094764948	0.0780820169559526	0.996650472192675	-0.972995121198351	0.230756380377457	0.00565570855882169	-0.229541846333077	-0.969873544099016	0.0815833882528627	3.96564324865216	-85.3091588964991	72.7057731871755
6665	1648549015386	9.70676428024519	-0.000276588377477013	0.761521554486605	0.0611242857836819	0.0181906260173029	-0.0763060814572327	-0.00793307798051319	-0.0233286608205114	0.000751202177635506	0.33056640625	-0.29736328125	-0.044189453125	0	0	0	0.421920245610141	-0.53038470487025	0.454496003421329	0.57802141314835	0.0242508954274729	0.077856754442312	0.996669564027454	-0.972976934229184	0.230833378436635	0.00564241592828435	-0.229625302458036	-0.969873330485605	0.0813507423679522	3.96763066285186	-85.3225540170342	72.6991837280233
6666	1648549015386	9.75523741571384	0.00172879783644137	0.710191098626431	0.0698198839264662	0.0690387933229622	-0.0321255185241913	-0.00665128524212953	-0.0186790439944832	0.000602576749301931	0.333984375	-0.296875	-0.03955078125	0	0	0	0.421936260908876	-0.530535079032876	0.454443807519775	0.577912750726912	0.0240267114450186	0.0775537666528752	0.996698615638192	-0.972961716765383	0.230901235074333	0.00548792766954315	-0.229713331885845	-0.969881453023564	0.0810046432916327	3.87576974881807	-85.3430108233165	72.7866450734065
6667	1648549015387	9.68254038476752	-0.00593943395257603	0.709217611941831	0.0753903764040832	0.0607827292521996	-0.104688872318148	-0.00513442463795417	-0.0186929536164489	-0.00246089293758952	0.32666015625	-0.2919921875	-0.043701171875	0	0	0	0.42197061388985	-0.530595757423391	0.454383023696858	0.577879754787985	0.0240084199607969	0.0773658656529294	0.996713659283728	-0.972949135602124	0.230953737579047	0.00550914052727414	-0.22976852548177	-0.969883959002334	0.0808178864354412	3.89966817156993	-85.3536391818195	72.7596729664613
6668	1648549015388	9.70423954872247	0.0196383731917675	0.681196111809745	0.0555198158449392	0.0924066855467316	-0.085146190037582	-0.00353293662532813	-0.0201826254669213	-0.00395073004520728	0.326171875	-0.2880859375	-0.04248046875	0	0	0	0.422011138091975	-0.530736166375254	0.454323663509689	0.577767885748897	0.0238182609528687	0.0770340978261868	0.996743918073889	-0.972940392220558	0.230993216202902	0.00539696710638665	-0.229825332874531	-0.969900964965158	0.08045144205523	3.83785327022049	-85.3750908717996	72.8188542406095
6669	1648549015388	9.6828258294294	-0.00529245564336564	0.705314997680607	0.0736199093550239	0.0595384594082058	-0.104667573933398	-0.000402994856583172	-0.0215445144507036	-0.00392256849318604	0.32763671875	-0.289794921875	-0.046142578125	0	0	0	0.422069528890349	-0.530791244351111	0.454265133229778	0.577720656056377	0.0238076873038631	0.0768150807012995	0.996761073378217	-0.972938322470881	0.231001003028022	0.00543665959916245	-0.229835190283801	-0.969916480928591	0.0802359354049575	3.87634593880433	-85.3872971834404	72.7799579933306
6670	1648549015389	9.73139508897555	-0.00141608695484947	0.678200199065563	0.075381275020537	0.086860481639388	-0.0583662477989559	0.00121110889011525	-0.0228926592575566	-0.000830935729339902	0.330810546875	-0.29296875	-0.041015625	0	0	0	0.422134694021378	-0.530932316404657	0.45421389052622	0.57758368844151	0.0236012341004423	0.0764431665999217	0.996794574638683	-0.972942970326087	0.230984083513026	0.00532256110347734	-0.229836807848502	-0.969949893264505	0.0798263510013267	3.81464962010062	-85.4112273512596	72.8423335772649
6671	1648549015390	9.70714378004404	-0.00525505765771362	0.651690585314221	0.0843153526778848	0.107381772325344	-0.084649118113342	0.00449429929484945	-0.0273948592290807	-0.00376527909363389	0.324951171875	-0.301025390625	-0.051025390625	0	0	0	0.422220136838949	-0.530993554347121	0.454156264838169	0.577510249604068	0.0235758647001077	0.0761674533778021	0.99681628079079	-0.972952138085968	0.230944486311883	0.00536481463658678	-0.229800599645838	-0.969981011818315	0.0795520025790206	3.85806162328818	-85.426798902037	72.8013047581359
6672	1648549015392	9.72916950093454	0.0233131628127047	0.67146815149863	0.0499694178072297	0.0920700928061576	-0.060909186037307	0.00771479805555798	-0.0301852796234303	-0.000637332260636473	0.3251953125	-0.2958984375	-0.04296875	0	0	0	0.422308687704922	-0.531164330625889	0.454110765985067	0.577324205603884	0.0232957321744159	0.0757076516124351	0.99685789375908	-0.972968897301564	0.230877569010807	0.00520317320878982	-0.229758207135759	-0.97003293738666	0.0790396523193978	3.76634171175439	-85.4568001108204	72.8965311929494
6673	1648549015392	9.75362712591689	0.0260796175737079	0.668501671553942	0.0481061894745328	0.0947932134834735	-0.0367211022293965	0.00586118787473499	-0.024221068911688	-0.00234082657382125	0.330078125	-0.2900390625	-0.047119140625	0	0	0	0.42238699947759	-0.531216500413184	0.454067499324247	0.577252941455055	0.0232634714923886	0.0754657118431034	0.996876992025665	-0.972981486573147	0.230823857459487	0.00523197987684204	-0.229708157626219	-0.970064571646412	0.0787965047221754	3.79878508396132	-85.470635550679	72.8672774176447
6674	1648549015394	9.75637408716501	0.00205510740905647	0.667707392942826	0.069555599037232	0.0862068334572326	-0.0341188209289491	0.00883409978372134	-0.0224894318303266	-0.000880303625851296	0.328369140625	-0.291748046875	-0.040283203125	0	0	0	0.422474442819757	-0.531354836181914	0.454032963496203	0.57708877245107	0.0230322122498938	0.075066974401616	0.996912466846043	-0.973002327823766	0.230738826445984	0.00510529331817866	-0.229643173746598	-0.970115737077035	0.0783547664604547	3.72790181412385	-85.4964472916618	72.9428253904171
6675	1648549015395	9.75375160241164	0.02485152194429	0.639813962552137	0.0533289367252664	0.116304108349167	-0.0387792946283572	0.0102015709371488	-0.0193153567337495	0.00054352884144591	0.32958984375	-0.301513671875	-0.043212890625	0	0	0	0.422546463302558	-0.531389192362407	0.454019774963148	0.57701478016888	0.0229831403656827	0.074878993545496	0.996927736390429	-0.973025489025247	0.230641060585824	0.00510870619886872	-0.229549935670023	-0.970153512335785	0.0781600251818584	3.7396550595631	-85.5076030861784	72.9368078762508
6676	1648549015396	9.75162674521687	0.0522777791187581	0.685240304368473	0.0139126436934216	0.0748661762396376	-0.0371713832796949	0.0101096985157527	-0.0178872202634299	-0.00255776133698007	0.3271484375	-0.291748046875	-0.04443359375	0	0	0	0.422625799733762	-0.531512681996632	0.453995977520402	0.576861642572498	0.0227638425440847	0.0745237860325258	0.996959383720323	-0.973047675222378	0.230550171589387	0.00498398680076445	-0.229477731418441	-0.970202465310969	0.0777634045522917	3.6671666714798	-85.5308128291747	73.0143200749113
6677	1648549015399	9.8001089906828	0.0563164414301862	0.658597519243963	0.0172242580843627	0.103585368936628	0.00912670995289311	0.0114663073527765	-0.0148080151276343	-0.00418901139417776	0.328857421875	-0.29150390625	-0.046630859375	0	0	0	0.422703759488957	-0.531521170659262	0.453982085038446	0.576807631120684	0.0227710232103067	0.0743686679132268	0.996970802849696	-0.973072656255793	0.230443596356094	0.00503532975733101	-0.22937106650415	-0.9702396869492	0.0776135537098198	3.71197268223616	-85.5392170587553	72.9758787862176
6678	1648549015397	9.75162801681716	0.0519478502759216	0.658183034577267	0.0193471443513555	0.0961050074500984	-0.0392262637784366	0.00951325623189259	-0.00746405329774844	-0.0105212552340772	0.324951171875	-0.298583984375	-0.03857421875	0	0	0	0.422798213245678	-0.531593802516755	0.453941785578746	0.576703177819941	0.0226897688627133	0.0740655208239228	0.996995222162091	-0.973093160330163	0.230357052363683	0.00503286647664902	-0.229292118721104	-0.970283426144854	0.0772994000040783	3.72519801551923	-85.557242379909	72.9676984036389
6679	1648549015398	9.74926786849415	0.0786941113173646	0.680163747512369	-0.0110075329500964	0.0796464539509037	-0.0397361916706131	0.00510828521181747	-0.0107047919343085	-0.00886826198581711	0.330078125	-0.299072265625	-0.04638671875	0	0	0	0.422860986778319	-0.53159510857815	0.453905973050732	0.576684137137064	0.0227520163293054	0.0739390844604734	0.99700318833096	-0.97310241318001	0.230315906979469	0.00512605652201381	-0.229246677655737	-0.970302836634714	0.0771904527933029	3.79931442784917	-85.5631384840326	72.8961888184526
6680	1648549015400	9.7007899396096	0.0743557293860671	0.679740878964375	-0.00912240377830145	0.0723987068432937	-0.0881011529731364	0.0067199000257656	-0.0120992297657064	-0.00730501022100585	0.322265625	-0.2958984375	-0.037109375	0	0	0	0.422933773486977	-0.531699336575398	0.453865985462685	0.576566133213991	0.0226029654505337	0.073620298914444	0.997030168821681	-0.973114726027867	0.230265380968104	0.00505809404067825	-0.229209153265205	-0.970339067499275	0.0768456774586949	3.7658591655076	-85.5831662596115	72.9324229953491
6681	1648549015401	9.70627083976771	0.0285219062081965	0.705749041230901	0.0303970612587628	0.0354205108337742	-0.080862771343293	0.000755809634844826	-0.0157077636143621	-0.0148041699013385	0.334228515625	-0.293212890625	-0.048095703125	0	0	0	0.423011007890742	-0.531712493442042	0.453791063372897	0.576556313228639	0.0227109902410845	0.0734317294307271	0.997041620011462	-0.973112680466797	0.230270716012308	0.00520657871379698	-0.22920715965474	-0.970352089944671	0.0766870230418106	3.88407150363485	-85.5916939942336	72.8141898211571
6682	1648549015402	9.69854961318258	0.102816794284615	0.699812415112741	-0.0409400956269233	0.0540940337126938	-0.0886156512491034	0.00523565761925335	-0.0140372438486131	-0.0179388320943708	0.323486328125	-0.281005859375	-0.0400390625	0	0	0	0.423126019819865	-0.531789772734256	0.453704385921549	0.576468853592453	0.0227039356215956	0.073064714608214	0.997068743260218	-0.97312107428004	0.230233403093898	0.00528723858587798	-0.229172219301014	-0.970388647696902	0.0763280179332944	3.96254645718935	-85.6119587419148	72.7380289199178
6683	1648549015403	9.72289540162579	0.107343987742833	0.698160724956248	-0.0428323233220233	0.056789655439099	-0.0644266987313209	0.00666632509826078	-0.0125287386084216	-0.0210516208298538	0.323974609375	-0.2958984375	-0.052490234375	0	0	0	0.423229669892086	-0.531767147781813	0.453633893064935	0.576469112898326	0.0228799832054934	0.0728925870012081	0.997077317527978	-0.97313112466182	0.230185875171575	0.00550246180528319	-0.229112026273042	-0.970412867614485	0.0762006941260626	4.1301668271883	-85.6183843422687	72.57364233796
6684	1648549015404	9.6501408068472	0.101790802012032	0.698015276781051	-0.0380668942536503	0.0467042915314203	-0.13698721623363	0.00817853402061225	-0.0125431749992557	-0.0241176611932328	0.326171875	-0.291259765625	-0.0458984375	0	0	0	0.423388660449678	-0.531801252025918	0.453532634795745	0.576400572277234	0.0229911550377921	0.0725157010439081	0.997102241443744	-0.973150179926768	0.230100382755714	0.00570448631979159	-0.229019942578211	-0.970461378395753	0.0758589410925869	4.30046856863158	-85.6371160838754	72.408744405409
6685	1648549015405	9.59361591511813	0.169953236825483	0.668292929175398	-0.0970970583395375	0.0850605327990528	-0.19518757924145	0.00860142736039791	-0.0200621891632425	-0.020828313556247	0.326171875	-0.300048828125	-0.044677734375	0	0	0	0.423514382113518	-0.531796596819625	0.453451724061912	0.576376163368464	0.0231478271126901	0.0722705157509701	0.997116417803383	-0.97316454419951	0.23003420417657	0.00591902203167749	-0.228943110865823	-0.970495356744143	0.0756558955081409	4.47348581964079	-85.6478063243476	72.2400389634655
6686	1648549015406	9.59092174810616	0.194246976137213	0.639987455372867	-0.114486454779026	0.11335882120773	-0.199824229214562	0.00921545560002958	-0.0304349423352774	-0.0113353990295341	0.333740234375	-0.302001953125	-0.039306640625	0	0	0	0.423665516543852	-0.531918774587299	0.453352528785916	0.576230363636448	0.0230678037699233	0.0717597002458228	0.997155164380079	-0.973182269825425	0.229958029470093	0.00596442618085918	-0.228875831241893	-0.97055131245229	0.0751398946663562	4.53848666787544	-85.6771593117973	72.1795292720845
6687	1648549015407	9.63439757255137	0.248522174223534	0.633143211221334	-0.164868431778886	0.132427936134122	-0.156625506891853	0.00180461628589813	-0.0335531341698995	-0.000491607790636765	0.332275390625	-0.29541015625	-0.044921875	0	0	0	0.42374802762906	-0.532011671361826	0.45328354514626	0.576138193765104	0.0229952184688706	0.0714301330975928	0.997180503225584	-0.973185718758445	0.22994327356024	0.00597057359131326	-0.228868470375842	-0.970579119407615	0.0748023812305572	4.5635574047057	-85.6964631599384	72.1552820631738
6688	1648549015408	9.71272208610903	0.207358147391653	0.631325237073794	-0.124781514851367	0.124911923436138	-0.0788615808792627	0.00235385050409063	-0.0423062308490375	0.0120089618488121	0.330810546875	-0.290283203125	-0.049072265625	0	0	0	0.423848836103966	-0.532230165808448	0.453189756521009	0.57593598543697	0.0227001903758822	0.0708463053890725	0.99722891171968	-0.973186850658399	0.229942417435484	0.00581707568396861	-0.228893108377002	-0.970622112707434	0.0741664294736507	4.48468342233281	-85.7335844746814	72.2337828495882
6689	1648549015408	9.78844236003038	0.189397497343035	0.627810525730342	-0.107188884290522	0.126147299525654	-0.00370080258533179	-0.0086096910476657	-0.0365455574238973	0.0195430259003064	0.3291015625	-0.2978515625	-0.049560546875	0	0	0	0.423854774497099	-0.53239762856339	0.453144478024666	0.575812449736756	0.0224256942716626	0.070533910357081	0.997257266569752	-0.973171017547186	0.230014424343532	0.00561562107773528	-0.228987464378749	-0.970627803065445	0.073799790472183	4.35140186249326	-85.7554784486182	72.3623527225369
6690	1648549015409	9.82059521012248	0.115372925793014	0.604136900848266	-0.0325365612210839	0.129106769146649	0.0262482428299453	-0.00872878086987326	-0.033211448386289	0.0286124390301463	0.32373046875	-0.29345703125	-0.04345703125	0	0	0	0.42388454753194	-0.532649314155693	0.45306530777581	0.575620035599113	0.0220330700389616	0.0700233101331009	0.997302000330222	-0.973150564229437	0.230107434507308	0.00534302577145179	-0.22911246837435	-0.970642727589544	0.0732131969862253	4.17398895507382	-85.7902503594482	72.533642494563
6691	1648549015410	9.82081531515613	0.112431165862731	0.601105831345506	-0.0325447467797277	0.129074542649177	0.0262486385817198	-0.012015343330181	-0.0287571691151419	0.030024287739825	0.32861328125	-0.29345703125	-0.048828125	0	0	0	0.423835091726371	-0.532824548069941	0.453057211769223	0.575500633239668	0.0216743276759201	0.069809942123402	0.997324819454788	-0.973128906944544	0.230205955770393	0.00503471913391007	-0.229238639824778	-0.970634735576967	0.0729236319907239	3.94948952790729	-85.8080987382766	72.7516734553376
6692	1648549015411	9.84995938434719	0.0607288231250756	0.552649596935045	0.026097733677741	0.162424605450834	0.0515787433636561	-0.0110867286898205	-0.0181587128636907	0.0251017488692997	0.327392578125	-0.2880859375	-0.047119140625	0	0	0	0.423838158430723	-0.533011159931725	0.453005527531498	0.57536624064347	0.021370190828292	0.0694672378360473	0.99735531171764	-0.973109111629991	0.230294414967926	0.00481033234497935	-0.229351197526088	-0.970638339085166	0.0725206376925797	3.79490042120789	-85.832067886339	72.9005440164313
6693	1648549015412	9.83124401084488	0.0089164007082288	0.57899924153841	0.0675008635195606	0.122729647554751	0.0345995256460654	-0.0115187039291733	-0.0106869930045553	0.0202864331302632	0.324462890625	-0.29443359375	-0.03857421875	0	0	0	0.423775071433212	-0.533112802058154	0.453008884574765	0.575315895495515	0.0211473815560609	0.069406592644804	0.997364283073522	-0.973086255741419	0.230395278656207	0.0045993977947642	-0.229468793391319	-0.970618741046332	0.07241085822696	3.63443468600838	-85.8391462699304	73.0546310279853
6694	1648549015413	9.78273757898695	0.0020922096996893	0.579162390709399	0.0713411325032161	0.115251599137992	-0.0137580653035965	-0.0104423029082943	-0.00322959654797964	0.0124039391574976	0.329833984375	-0.29443359375	-0.040283203125	0	0	0	0.423789577137442	-0.533213196114104	0.452959808008349	0.57525080975909	0.0210221996376425	0.0691906028796497	0.997381936669973	-0.97307138250085	0.230459613277414	0.00452230095282635	-0.229543354685511	-0.970618888710278	0.0721721635988998	3.58546054645453	-85.8531101427885	73.0996306615773
6695	1648549015414	9.78273113354889	0.00134822583949914	0.579273361097899	0.0713321589157854	0.115216831817981	-0.0137575911160432	-0.0125122703133262	0.00549469868871212	0.00144742039208621	0.329833984375	-0.2861328125	-0.033203125	0	0	0	0.423737235161833	-0.533230541355705	0.452940602717333	0.575288410897496	0.0210200003511219	0.0692436885405901	0.997378298933024	-0.973042229732245	0.23058313189493	0.00449871573081345	-0.229667104181117	-0.970585766886584	0.0722238906058151	3.56426166777919	-85.8502288810866	73.1135157920155
6696	1648549015415	9.68588198680345	-0.00764689069477247	0.60557329496889	0.0722093233432474	0.0793465860122444	-0.108483258423343	-0.0091382753659382	-0.000436232137247463	0.00160649595434153	0.326416015625	-0.292236328125	-0.049072265625	0	0	0	0.423784357442022	-0.533277629737309	0.452875620006729	0.5752612109405	0.0210372848505559	0.0690541198281413	0.997391077351747	-0.973032990453862	0.230620982381946	0.00455653087347285	-0.22970466284891	-0.970590279685485	0.0720435760184197	3.61895852417156	-85.8603588350468	73.0566827701889
6697	1648549015416	9.73416360148226	-0.0037934740980894	0.580440105737934	0.0754803502014514	0.107959482500984	-0.0621225805232832	-0.0154477618669806	0.00200270099616367	-0.00759701149022485	0.32958984375	-0.295654296875	-0.045654296875	0	0	0	0.423755800043653	-0.533291879922303	0.452815374307071	0.575316460332439	0.0211160152001663	0.0690532221943865	0.997389475784981	-0.972995331127423	0.230778517441022	0.00462184940903204	-0.229856910938745	-0.970552898296789	0.0720615854765991	3.66978111978581	-85.8590878542831	72.9967170626196
6698	1648549015417	9.68822020828906	-0.0324482425018923	0.582663890351701	0.101994359014348	0.0932890969332954	-0.107891891078706	-0.0105573787475844	-0.00389480788607803	-0.00897909922617967	0.326904296875	-0.290771484375	-0.048095703125	0	0	0	0.423811346085299	-0.533387898677244	0.452690780722827	0.575284581335706	0.021136813186463	0.0687403658773062	0.997410646237233	-0.972963739173354	0.230909999955848	0.00470469703538723	-0.229988689683048	-0.970543834156626	0.0717625849480813	3.75089732050371	-85.8759200029914	72.9079838139436
6699	1648549015418	9.7367895268602	-0.0262497950431333	0.581510980508827	0.0981954502339858	0.0986035170869667	-0.0595058695471664	-0.00913901559299732	-0.00243278499963756	-0.0136203302149624	0.333251953125	-0.286376953125	-0.052734375	0	0	0	0.423827034537837	-0.533388087828386	0.452620400601529	0.575328224161611	0.0212638414441797	0.0686819995505655	0.997411967035073	-0.972939165639013	0.231010835508349	0.0048346502867363	-0.230080918401977	-0.970523970242606	0.0717355851152833	3.85564286955018	-85.876972412901	72.7975555350961
6700	1648549015419	9.7394154432909	-0.0492731175714126	0.582677914591276	0.121193206648142	0.088875409531761	-0.0568907353916881	-0.00600044995290696	-0.00374695530323006	-0.0120734704561145	0.325927734375	-0.293701171875	-0.052734375	0	0	0	0.423918737037035	-0.53347046793118	0.45247812278033	0.575296195571814	0.0213456165009547	0.068321631206115	0.997434969993298	-0.972914139253883	0.231112905588228	0.00499024152154065	-0.230179152609594	-0.970525105074517	0.0714043284684263	3.99773580047925	-85.8953443353207	72.6497139240875
6701	1648549015421	9.78302322952575	0.00703287914845345	0.603133190459113	0.0637498065837243	0.084577715294841	-0.0116596062131507	-0.000147668376009436	0.0011459204901507	-0.0122644151631128	0.329345703125	-0.290283203125	-0.041748046875	0	0	0	0.423948788696027	-0.533443120784684	0.452442488532188	0.575327433746618	0.0214684629165952	0.0683000219005238	0.997433813397353	-0.972910281480105	0.231126438267945	0.0051140711645466	-0.230184033526005	-0.970523403397343	0.071411722901336	4.0961806313703	-85.8944186297819	72.550718354458
6702	1648549015422	9.78586438778104	-0.0144659079100048	0.629465238745539	0.0792733988936723	0.0520495410608378	-0.00704694715508936	0.00401705565834139	0.00900418809259211	-0.0125340966478628	0.328857421875	-0.285400390625	-0.047607421875	0	0	0	0.424023803083057	-0.533460637896502	0.452381811454619	0.575303623227835	0.0215408889601879	0.0681137734724503	0.997444987939761	-0.972913807376405	0.231109022168036	0.00522908107434461	-0.230162363385399	-0.970540639919771	0.0712471244680749	4.19761582488094	-85.9033711439833	72.4505115665774
6703	1648549015423	9.75369195747624	0.0566066318194867	0.626451391228518	0.0113085300894693	0.0698880144375288	-0.0389910240996283	0.0100655140568465	0.0110404103369728	-0.00652358234327678	0.33251953125	-0.2998046875	-0.041015625	0	0	0	0.424045568480035	-0.533394079816876	0.452410654972536	0.575326612226544	0.0216307097672575	0.0682009873214179	0.997437084593985	-0.972934570520747	0.23101991023953	0.005303070669743	-0.230066151096969	-0.970555730703448	0.0713522229375038	4.25054669411674	-85.8970373388846	72.4029904702979
6704	1648549015424	9.78051016124043	0.0355993803092927	0.628511706132641	0.0321984524287964	0.0635053946714586	-0.0121973986645116	0.0116798441039165	0.00964580599026231	-0.00496330575521158	0.323486328125	-0.296630859375	-0.05126953125	0	0	0	0.424120009978618	-0.533397399278933	0.452395193286365	0.575280818965486	0.0216516070677265	0.0680595339701578	0.997446293164273	-0.972957575189158	0.230921612454259	0.00536337426982475	-0.229966877600706	-0.970589052450773	0.0712188631564143	4.30672061334637	-85.9044181022428	72.3527036922514
6705	1648549015426	9.75356560254291	0.0575088763788334	0.628333624648323	0.0108214939795905	0.0676527643608354	-0.0389747449007931	0.0163669251499533	0.00855577597868578	0.00115301671780081	0.331298828125	-0.291259765625	-0.046875	0	0	0	0.424145155620641	-0.533339904642996	0.452457527981474	0.575266562953067	0.0216614629765871	0.0681403003012853	0.997440564894252	-0.972994447715291	0.23076614467287	0.00536574207687029	-0.229809890424519	-0.970620361391451	0.0712988661578843	4.30379834035448	-85.8998252760414	72.3647980288997
6706	1648549015426	9.75374632666722	0.0587962145252496	0.653824855180091	0.00275601565966682	0.0420186869041887	-0.0369654965547799	0.0145390401179914	0.0147090016114729	0.00556241508567369	0.328369140625	-0.293212890625	-0.038818359375	0	0	0	0.424172966632343	-0.533370176176445	0.45248790431095	0.575194094194395	0.0215419032355861	0.0680543206241576	0.997449024185884	-0.973019160392069	0.230663981661205	0.00527646416759631	-0.229716477238576	-0.970650677127762	0.0711870990876512	4.23907293455267	-85.9066095983558	72.4353462272989
6707	1648549015427	9.77269917914431	0.109244317789635	0.651945665086855	-0.0457222255799865	0.058315585933034	-0.0179374807994996	0.0129485904616038	0.0162459848156426	0.00858328531440225	0.327392578125	-0.292236328125	-0.039306640625	0	0	0	0.424150988027476	-0.533314473202145	0.452578516546745	0.575190662640468	0.0214967180669314	0.0682261521826392	0.997438260380412	-0.973049595134811	0.230537251431326	0.00520202945679549	-0.229591760567166	-0.970668721995739	0.0713432240568675	4.17037211276188	-85.8979790054257	72.5113860333625
6708	1648549015428	9.77545133869414	0.0857760503148967	0.679441712102488	-0.0297924203797736	0.0267497205975302	-0.013358608592176	0.00981813960398039	0.0176067942223701	0.0085620797240222	0.322021484375	-0.292724609375	-0.041748046875	0	0	0	0.424167576100998	-0.533288391465472	0.45265124934611	0.575145377603072	0.0214206759871513	0.068273258713923	0.997436673069943	-0.97308783619676	0.23037742770002	0.00512872812992976	-0.229436740053031	-0.970703354764423	0.0713707178255484	4.11023222321378	-85.8967078075293	72.580795766868
6709	1648549015429	9.75106034610107	0.0824210790981833	0.681629998616496	-0.0278769543794051	0.02405776075344	-0.0375538935085231	0.00973656549916159	0.0191297889200158	0.00851527775152024	0.32861328125	-0.29736328125	-0.0458984375	0	0	0	0.424130046915293	-0.53323111021298	0.452739550651938	0.575156661858441	0.0213829647530281	0.0684736657058699	0.997423744415166	-0.973111008871169	0.230281205158225	0.00505281749241066	-0.229341956981505	-0.970712070418245	0.0715565728093295	4.03911709214423	-85.8863684968801	72.6574532823917
6710	1648549015429	9.72925293543141	0.0548949577039748	0.685581193935765	-0.00350531032098818	0.0129666566936468	-0.0591640587026703	0.00186239986828477	0.0232461855987362	0.00691001887460457	0.325439453125	-0.29736328125	-0.040283203125	0	0	0	0.424095621219255	-0.533233409656471	0.452791951002754	0.575138665015584	0.0212831598665082	0.0685524082128064	0.997420470230244	-0.973120224705296	0.230244706339548	0.00493998705758592	-0.229312135255879	-0.970715170650403	0.0716100697775772	3.94627046214143	-85.8837541782615	72.7522325527345
6711	1648549015429	9.72934329314366	0.0557454093661995	0.711977606471651	-0.0105711372570798	-0.0103634795300396	-0.0571801420855031	-0.000941816838170758	0.0185153163060519	0.00707488162478017	0.317626953125	-0.299560546875	-0.052734375	0	0	0	0.424032453122464	-0.533199163814994	0.452846516042397	0.575174028720178	0.0212573692305087	0.0687436111773677	0.997407860494238	-0.973118608918641	0.230253023214416	0.0048701413604163	-0.229321384152562	-0.970699676121774	0.0717902608118737	3.88091183959176	-85.8737012053521	72.8169878941555
6712	1648549015430	9.70731704961025	0.0269854097311254	0.691271436774457	0.0201726992052584	0.0019506901535811	-0.0807719434276528	-0.00706797151769212	0.0180005890804664	0.00101435292218799	0.314208984375	-0.297607421875	-0.045166015625	0	0	0	0.423974066175478	-0.533247504041241	0.452859137688381	0.57516231800819	0.0211314016918447	0.0687687975954994	0.99740880101381	-0.973101247860658	0.230329185245534	0.00473580364449488	-0.229406680971956	-0.970679823062887	0.0717861812888362	3.77438860692625	-85.8744501802387	72.9187583172461
6713	1648549015431	9.75638023081499	0.0368208889339745	0.765650607231822	-0.00487472689515051	-0.0626758758118822	-0.0264429680502705	-0.00436577238823607	0.0241110178619771	-0.00377870955540436	0.325927734375	-0.297607421875	-0.0458984375	0	0	0	0.423916883496778	-0.533182537536705	0.452885510349991	0.575243923972541	0.0212221923618958	0.0689891168731434	0.997391658429335	-0.973089435463	0.230378380802814	0.00476993175776647	-0.22944840191567	-0.970652514245823	0.0720217151045975	3.78911304167421	-85.8608200663303	72.9012376424508
6714	1648549015431	9.7128392237046	-0.0162557068633014	0.771873403133952	0.0440499460204196	-0.0828441854886399	-0.0696645040147334	-0.0075978345144205	0.0268520590629537	-0.00843055813609929	0.32421875	-0.291015625	-0.046630859375	0	0	0	0.423861703363791	-0.533172931781041	0.452902851380869	0.575279834905269	0.0212112640541774	0.0691085810366668	0.997383620431137	-0.973074929245381	0.230440527265248	0.00472709930211523	-0.229510924252685	-0.970629263633038	0.0721357624751102	3.7492657759017	-85.8544444389616	72.9373554500012
6715	1648549015432	9.66128040465338	0.00247961757583089	0.749272269862136	0.0316259414875343	-0.058024860522763	-0.122620987459156	-0.00755577622602548	0.0250429342065749	-0.0175478296299988	0.330810546875	-0.29638671875	-0.039306640625	0	0	0	0.423829490557594	-0.533083899552811	0.452883450294967	0.575401337694122	0.0214362729729893	0.0693061310946594	0.997365101852736	-0.973052841382354	0.230530286765234	0.00489436018977035	-0.229583653770811	-0.970593863094461	0.0723802379425172	3.86845836161514	-85.8397928839344	72.8132472743454
6716	1648549015433	9.65606809145323	0.0542576232203809	0.773153698473423	-0.0224163336199039	-0.0687704963482781	-0.12583396317536	-0.00460120938847092	0.0266328088462863	-0.0206722575445901	0.330078125	-0.297119140625	-0.045654296875	0	0	0	0.42383899864406	-0.533010681978011	0.452847619036349	0.575490356182313	0.0216572936608899	0.0693974477187859	0.997353977222432	-0.973040302583377	0.230579074323021	0.00508527607788378	-0.229616051659581	-0.970575749096616	0.0725202322514714	4.01113859336208	-85.8310159970369	72.6680982476821
6717	1648549015434	9.65868317821776	0.0332806975890979	0.801296492448577	-0.00623091096897876	-0.0989542222854473	-0.121272959190039	-0.00425542072948813	0.0206835683413619	-0.0159039445032167	0.33642578125	-0.295654296875	-0.04931640625	0	0	0	0.423821762427781	-0.532930130693742	0.452832544027034	0.575589503519101	0.0218563257375106	0.069556543904645	0.997338552461148	-0.973026092870603	0.230635601525227	0.00523850189137964	-0.229657404884374	-0.970550929374208	0.0727211789827214	4.12020960575675	-85.8188769086929	72.5560370152133
6718	1648549015437	9.65329128516464	0.083080108557719	0.800170922829283	-0.0532756856247631	-0.0868634116375132	-0.126469083684764	-0.00560391940426182	0.0176513356128838	-0.0127451162988901	0.327392578125	-0.2919921875	-0.038818359375	0	0	0	0.423807272056782	-0.532940361681083	0.45275115369106	0.575654722793481	0.0219819274453016	0.0695286780388822	0.997337735070701	-0.972984681450941	0.230807577966406	0.00535458822813467	-0.229820809605224	-0.970512042626699	0.0727239340860502	4.211030448186	-85.8182346143517	72.4553235270191
6719	1648549015436	9.65839701642439	0.0353624587240533	0.804649367273138	-0.00673146768365397	-0.100626621009068	-0.121290514288152	-0.00532266921602022	0.0133674750800635	-0.00344142618589118	0.325439453125	-0.294189453125	-0.047119140625	0	0	0	0.423770392212911	-0.53290990434477	0.452753194338608	0.575708462288988	0.0220431577348701	0.069644812261558	0.997328280618839	-0.97297056897487	0.230866399399805	0.00538307875543947	-0.229874685656758	-0.970489724702546	0.0728513770699275	4.22597633521808	-85.8108125784795	72.4369909118437
6720	1648549015436	9.70702207282522	0.0423039586643916	0.829552558953154	-0.0179770560903562	-0.119363543983372	-0.0709393847871453	-0.00371048012468678	0.0119734412337547	-0.001878389134899	0.3232421875	-0.297607421875	-0.047607421875	0	0	0	0.423756780663268	-0.53290136059828	0.452758239542216	0.575722422041246	0.02205223279827	0.0696850105803453	0.997325272079791	-0.972967270493156	0.230880334737072	0.00538159649145681	-0.229887776051077	-0.970483523987973	0.0728926614288097	4.22243273931803	-85.8084535342004	72.4397172906139
6721	1648549015438	9.68511185396433	0.0136719391804007	0.807904704870414	0.014267380181892	-0.105611709553916	-0.0945120655072244	-0.000299573283243977	0.00632918151935322	0.00745035572834136	0.324462890625	-0.291748046875	-0.0458984375	0	0	0	0.423721237108339	-0.532902867674406	0.452790182610433	0.575722066086913	0.0219911683120104	0.0697580741735371	0.997321512654707	-0.97296712357186	0.230882727509979	0.00530495860999591	-0.229894247349893	-0.970477705681667	0.0729496936955468	4.15927223221127	-85.8055075694656	72.5025909027427
6722	1648549015439	9.6878634040482	-0.00960485979495954	0.834301175098216	0.0295387842911495	-0.136554550222357	-0.0899650927861089	0.00281988917741815	0.00487417328469295	0.00442089202697436	0.33056640625	-0.298583984375	-0.04638671875	0	0	0	0.423702400790854	-0.532943501832941	0.452813021503659	0.575680351388542	0.0218631828215378	0.0697322362400626	0.997326133451777	-0.972970001090072	0.230873286241587	0.00518677923146615	-0.229894276169934	-0.970481808654325	0.0728949988362159	4.06997118276957	-85.8091288145222	72.5922008724243
6723	1648549015440	9.64433422905882	-0.0651689227010045	0.813999053244422	0.0869842248716458	-0.132284710081818	-0.135138155245446	0.00595059763076254	0.00351398899989139	0.0044461773659166	0.327880859375	-0.297119140625	-0.048095703125	0	0	0	0.423698997834312	-0.532933115612037	0.452846968050167	0.575665768520257	0.0218238356236363	0.0697705417742598	0.997324316207721	-0.97298344976441	0.230817565523943	0.00514372726222334	-0.229841090067073	-0.970492309575983	0.0729229070364936	4.03476158539122	-85.8077042967865	72.6306088233214
6724	1648549015440	9.69006212875542	-0.0374645165412793	0.787749897341635	0.0659991688134522	-0.0977028329444708	-0.0913008449618644	0.013643331911012	0.00230281336709735	0.00138501950715529	0.330078125	-0.292236328125	-0.04052734375	0	0	0	0.423706919087422	-0.532964244619406	0.452863772417156	0.575617897833984	0.0217270351787382	0.0697117092249751	0.997330543771359	-0.972994261510748	0.230773700699096	0.00506617536202314	-0.229804488662638	-0.970506968889239	0.0728431213494234	3.97846487379292	-85.8125880274159	72.6893200913462
6725	1648549015442	9.66333353035961	-0.0141784133846677	0.811191794635481	0.0375077023029299	-0.11681329951491	-0.116131484293614	0.0166810533703413	0.00237028657726823	-0.0016909147863893	0.330078125	-0.29833984375	-0.042236328125	0	0	0	0.423753189593378	-0.532920288388343	0.452906098572763	0.575591232046774	0.0217440641993687	0.069724214550821	0.997329298465339	-0.973030902565155	0.230618600370075	0.00509154363513342	-0.229647683039334	-0.970542938292078	0.0728584010670473	3.99748631093133	-85.8116109887008	72.6794852259134
6726	1648549015443	9.69003185628246	-0.0367888532277992	0.788154047527531	0.0657209066743152	-0.0978016906209051	-0.0912999538551187	0.0228439904628829	0.00102953276864226	-0.00626854702405899	0.322021484375	-0.284912109375	-0.04150390625	0	0	0	0.423830894032646	-0.532858193400143	0.452957174862402	0.575551315462396	0.0217838869340131	0.0697166666775661	0.997328957093604	-0.973083724683179	0.230394342008318	0.00514897341856052	-0.229419979571869	-0.97059674095781	0.0728590379796473	4.04239186183308	-85.811343195948	72.6479006456205
6727	1648549015444	9.66853613504907	-0.0610636565938096	0.814617081030546	0.0838066216029796	-0.1306235861358	-0.110943470334643	0.0241880684830544	0.00401311858487982	-0.0109553786808042	0.326904296875	-0.291259765625	-0.04052734375	0	0	0	0.423919760322706	-0.532772610340566	0.452996496559145	0.575534148929479	0.02189503955208	0.0697242316662554	0.997325994227345	-0.973135580794557	0.230172421826159	0.00527234504954088	-0.229189329233832	-0.970648848837328	0.0728907649576774	4.13712135574626	-85.8090196609172	72.5664915645479
6728	1648549015445	9.68491583077796	0.0158528592873939	0.810211627046719	0.0121585204744998	-0.107290582568503	-0.0945275883614549	0.0256031342813432	0.00537703053394218	-0.0186500101592087	0.331298828125	-0.2890625	-0.04345703125	0	0	0	0.42405546609424	-0.532632066637984	0.453051009167011	0.575521351782278	0.0220957293634071	0.0697499798944298	0.997319767701727	-0.973212136994064	0.2298434895367	0.00548695954434369	-0.228844740274596	-0.97072494076454	0.0729600865290951	4.30083014671424	-85.804140889111	72.4225928012982
6729	1648549015445	9.68751244556663	-0.00658610563111068	0.812032056038248	0.0354025915313821	-0.114202981167411	-0.091934255673797	0.0258660404187139	0.000953062179885453	-0.0139260194161005	0.3271484375	-0.298583984375	-0.04736328125	0	0	0	0.424164119140576	-0.532544884777581	0.453079742525299	0.575499342001484	0.0222293852208832	0.0697213234860177	0.997318801328873	-0.973267051304027	0.229607093893816	0.00564174437569809	-0.228598121774143	-0.970782941488464	0.0729614914618639	4.42159538035823	-85.8033841986717	72.3160570197029
6730	1648549015445	9.68240807368065	0.0451460223628899	0.83359455377451	-0.0186878615997644	-0.124115251162885	-0.0951676165771289	0.0302640866396572	0.004147124015754	-0.0171080182111736	0.334228515625	-0.288818359375	-0.05078125	0	0	0	0.424273221208892	-0.532460325207872	0.453104591929442	0.575477596972299	0.0223644617039621	0.0696857687975826	0.99731826639232	-0.973320398165095	0.229376925074969	0.00579903085811778	-0.228357687342541	-0.970839904345841	0.0729564716891156	4.5446672674934	-85.8029653905614	72.2068509218
6731	1648549015446	9.63120336603024	0.0660410070082328	0.832979876696946	-0.0381689231412239	-0.122558466917264	-0.146156576553748	0.03042902635761	0.00110124633536093	-0.0170126085640649	0.329833984375	-0.29833984375	-0.059814453125	0	0	0	0.42440289436239	-0.532355987150277	0.453136631002766	0.575453282070355	0.0225285931774342	0.0696510795182412	0.997316995549253	-0.97338476662914	0.229098753800578	0.00598807993913369	-0.228067004592468	-0.970908073984847	0.0729585724041612	4.69203828913242	-85.8019705998338	72.0762352815876
6732	1648549015449	9.70136559663977	0.0998601801097976	0.830435061935659	-0.0678342343979294	-0.109517623613354	-0.0761842379186124	0.0289980477678998	-0.000405753265285007	-0.0138995748390552	0.325439453125	-0.295654296875	-0.045654296875	0	0	0	0.424492664904389	-0.532373905114327	0.453064082773625	0.575427614471347	0.0226219241076301	0.0694335332910778	0.997330052191543	-0.973388804121226	0.229077828685728	0.0061306130265637	-0.228040532715388	-0.970928593079506	0.0727680051913828	4.81572516885607	-85.8122023179157	71.9540331835068
6733	1648549015449	9.68202744457142	0.0470905691667539	0.785009761450691	-0.00522015995787095	-0.079380432978812	-0.099099732151874	0.0306159840672604	-0.00174820508741553	-0.0108075676779738	0.329345703125	-0.300537109375	-0.044189453125	0	0	0	0.424612886958457	-0.532291568260737	0.453107082302389	0.575381225410376	0.0227193166518837	0.0693828975088649	0.997331362278429	-0.97345433552021	0.228795736392441	0.00625840758881918	-0.227750937007466	-0.97099872530396	0.0727391651746598	4.91756300869782	-85.8132303333635	71.8690502741285
6734	1648549015449	9.60395386772304	0.0887375358501385	0.782613437600915	-0.0471744825289126	-0.0733401683298861	-0.176885177119049	0.0353709538568831	-0.00439921139000267	-0.00616092373507608	0.335693359375	-0.299560546875	-0.046630859375	0	0	0	0.424694223230571	-0.532253872283097	0.453188395320376	0.575292021968995	0.0226521875731835	0.0693410468520201	0.997335799828531	-0.973521626254953	0.22851019020305	0.0062238402356673	-0.227469825717748	-0.971068953367799	0.0726812643884628	4.89441077645591	-85.8167143197093	71.9089290671039
6735	1648549015450	9.62826138883159	0.0919234142539511	0.781744890743868	-0.0491574399166891	-0.0708091024237117	-0.152689331774514	0.0324266878861347	-0.00588778252280203	1.82543048906201E-05	0.324462890625	-0.29638671875	-0.04638671875	0	0	0	0.424799922180466	-0.532202698022574	0.453258742519927	0.575205899363191	0.0226336010934945	0.0692748758623614	0.997340820219345	-0.973593534679255	0.228203076889449	0.00624379123160773	-0.227163706019022	-0.971145893917306	0.0726106286659269	4.91477669877838	-85.820659398273	71.906664610599
6736	1648549015451	9.65279526084913	0.0964522512409686	0.804642116898007	-0.0590306140231252	-0.09161426345148	-0.126546216039525	0.0314762053151361	-0.0166800290876867	-0.00115512237178013	0.3232421875	-0.288330078125	-0.044921875	0	0	0	0.424887184912196	-0.532228648738873	0.453287707254105	0.575094600923448	0.022525839827822	0.0690923616290453	0.997355920474017	-0.973640890798172	0.228002269099413	0.00619524424554624	-0.226971368912016	-0.971206059932721	0.0724070911179664	4.89039036314759	-85.8325478144694	71.9427348142433
6737	1648549015452	9.70131339857264	0.100164096099397	0.777652815118237	-0.0558683127131059	-0.0631914740319102	-0.0801058155010477	0.0333542618067448	-0.0224885554511222	0.0051397756198027	0.330322265625	-0.292724609375	-0.0380859375	0	0	0	0.425019355687289	-0.532234407045121	0.453339850617194	0.574950487512508	0.0224190315994171	0.0688760867285584	0.99737328603643	-0.973715785756254	0.227683054267084	0.00616403834298557	-0.226660441169662	-0.97129630467565	0.0721701664969796	4.881772596039	-85.8462616961204	71.9700324329135
6738	1648549015453	9.77710650967688	0.0853426026610956	0.800592784706274	-0.0452158611409824	-0.0850064486965436	-0.00295887076408619	0.0314876013404788	-0.0165802339128137	0.00189793365318987	0.3310546875	-0.29541015625	-0.046875	0	0	0	0.42514795255776	-0.532184754080375	0.453417288645241	0.574840298098484	0.0223842997640183	0.0687705415762215	0.997381349201693	-0.973799575895127	0.227323961587086	0.00618081506160961	-0.226303621514432	-0.971387888075442	0.0720572119207121	4.90263075568949	-85.8526447045152	71.9703165099534
6739	1648549015454	9.72811534701172	0.0751469253865268	0.726818495262902	-0.0201609804362842	-0.0204841824187636	-0.0572112484731306	0.0297269213396901	-0.0119925367022474	0.004814232156619	0.322021484375	-0.28857421875	-0.038330078125	0	0	0	0.425246846747581	-0.532167611402253	0.453481124775797	0.574732652785396	0.0223050056929973	0.068655622280997	0.997391042796277	-0.973866017040998	0.227039977606636	0.00615056266383773	-0.226025369314462	-0.971462430615609	0.0719255054113197	4.88764111288066	-85.8603314082023	72.0019311044479
6740	1648549015454	9.75532063987654	0.0549914349167813	0.751065578708184	-0.00593567896492609	-0.0476338444795754	-0.0284602619085703	0.0283620516049695	-0.0151712749111169	0.00339805328719002	0.3271484375	-0.292724609375	-0.0458984375	0	0	0	0.425347154126481	-0.532141976011434	0.453551650016806	0.574626501834177	0.0222316362673595	0.0685554459251419	0.99739957147719	-0.973935746275963	0.226741398487074	0.00612375195526604	-0.225731957141118	-0.971539237008023	0.0718094316863016	4.87426641081442	-85.8671061753274	72.0327980143552
6741	1648549015456	9.73339689079144	0.0248486388352158	0.703053936710506	0.0333893426946685	-0.0106436763338101	-0.0539636184814043	0.0296325518608567	-0.0105718190260692	0.00170847085790075	0.32666015625	-0.289306640625	-0.043701171875	0	0	0	0.42545080764273	-0.532114303836375	0.453609313760167	0.574529867281859	0.0221859162455226	0.0684472770140177	0.997408018510837	-0.974001118315756	0.22646040149236	0.00612438368950119	-0.225454222936728	-0.971612400510248	0.0716919558577585	4.8827161244847	-85.8738270310622	72.0408591088391
6742	1648549015456	9.71201912102178	-8.55485766323984E-05	0.728642760689463	0.0515595376934949	-0.0434486572956994	-0.0736068366427052	0.0262345125956344	-0.00479871019706032	-0.00305161893042912	0.3251953125	-0.291748046875	-0.046630859375	0	0	0	0.425539555387619	-0.532068104016819	0.453649507042922	0.574475190280806	0.0222113148953216	0.068388724920051	0.997411469652536	-0.974052822597055	0.226236423120442	0.00617896790563954	-0.225228231537104	-0.971668700307609	0.0716392389769086	4.92962768968173	-85.8765760677015	72.0072211805595
6743	1648549015457	9.68739550685353	-0.00557979135331648	0.679704546922203	0.0676048619691572	0.000402753157404498	-0.101709528693327	0.0309797175942429	-0.00754654329074522	-0.00145869270214289	0.33544921875	-0.293212890625	-0.041259765625	0	0	0	0.425648691872621	-0.532022084309014	0.4537077516739	0.574390954825747	0.0222035557570148	0.0683022489246753	0.997417567974205	-0.974120265858583	0.225944934356282	0.00621242966468111	-0.22493712400435	-0.9717426045155	0.0715513858292386	4.96224612884986	-85.8814382164832	71.9917984278688
6744	1648549015458	9.71456444507514	-0.0250748278434563	0.704515320987699	0.0821365696173536	-0.0271105005244533	-0.0729619314000054	0.0356298306065012	-0.00887485866578303	-0.00297089658859003	0.326904296875	-0.288330078125	-0.044677734375	0	0	0	0.425773807246663	-0.531960788405546	0.453757832780179	0.574315430623509	0.0222430975791703	0.0682103098931459	0.997422978597528	-0.974190190634609	0.225640988506632	0.0062941859722847	-0.224630178474281	-0.971819683856029	0.071468769323263	5.03299891528315	-85.8857568705256	71.9390685474818
6745	1648549015458	9.71479831501825	-0.0226208197165268	0.728462740152101	0.0750018521650055	-0.0504899656300124	-0.0710087918853812	0.0381636032841161	0.000270016055218656	-0.00788315905231272	0.3349609375	-0.290771484375	-0.03125	0	0	0	0.425903059002779	-0.531862276524132	0.453833039256411	0.574251404545022	0.0223161825797112	0.0681849793642413	0.99742307802866	-0.974272061523481	0.225284313622728	0.00639751282317264	-0.224267559245324	-0.971904206506296	0.0714582062852851	5.11593912772286	-85.8858362768632	71.8773060475875
6746	1648549015459	9.76070209072318	0.0077469020475791	0.725953137480957	0.0489938188404017	-0.037510956765094	-0.0252175276540481	0.0413911525513714	-0.00250656320724734	-0.00475037045847196	0.3271484375	-0.299560546875	-0.039794921875	0	0	0	0.426068922748365	-0.531689036617041	0.453953115499626	0.574193878700805	0.0224666745388535	0.068241850137012	0.997415810194045	-0.974386550411166	0.224783683992463	0.00656854539491425	-0.223754550597287	-0.972016123992115	0.071544082818582	5.24568595858281	-85.8800361631951	71.7773510741184
6747	1648549015460	9.71197706839682	0.00136198905252491	0.702134040509834	0.0599003161904475	-0.0195572605367496	-0.0755665299615114	0.0444595339489575	-0.00218420553502532	-0.000193284411242714	0.322509765625	-0.29931640625	-0.04052734375	0	0	0	0.426201717319216	-0.531598756378542	0.454061913935849	0.574092881582635	0.0224610810594033	0.0682108193901274	0.997418058767621	-0.974484030963303	0.22435974893413	0.00660124652819677	-0.223330188812787	-0.972116241596827	0.071509716741878	5.27417369945443	-85.8818297717665	71.7738480210092
6748	1648549015460	9.66102642004429	0.0221562442369244	0.72518684278999	0.0317115178326605	-0.040188680708212	-0.12459169952843	0.0523501837590924	-0.00618252970215372	0.00448336739443964	0.336181640625	-0.2958984375	-0.04443359375	0	0	0	0.426298924224364	-0.531521242712434	0.454282509001963	0.573917936438183	0.0222251411206237	0.0682678923113187	0.99741943934412	-0.974615628194148	0.223793258440063	0.00639959033883702	-0.222778859818193	-0.972242805247819	0.0715087915011611	5.11399067349016	-85.8829313958897	71.9669395990812
6749	1648549015461	9.68779496039996	-0.00148872375906763	0.701312121081466	0.0600974457653502	-0.0212315875543228	-0.0997501388189103	0.055673884911525	-0.0103729482081324	0.0107241180077156	0.32861328125	-0.29052734375	-0.039306640625	0	0	0	0.426452952997731	-0.531452359672414	0.454435796499281	0.573745915138575	0.0220929925173731	0.068182507548588	0.997428215635598	-0.974740220188242	0.223251971479158	0.00632932682415016	-0.222246266175621	-0.972373232300774	0.0713925365562749	5.06632890975757	-85.8899412865576	72.0462611252995
6750	1648549015462	9.75517617108082	0.0522866069730829	0.671549849809243	0.0152848194131507	0.023848796963236	-0.0343248859279548	0.0585711271917266	-0.00705574489988362	0.0136473140648508	0.322998046875	-0.291259765625	-0.044677734375	0	0	0	0.426599436931958	-0.531354931948067	0.454603845213304	0.573594107903036	0.0219945604234879	0.0681647445287015	0.997431605131457	-0.974867603648959	0.222696528653229	0.00627785644455942	-0.221696627551063	-0.972501837391138	0.0713497134076032	5.0283417994033	-85.8926517768469	72.116786451293
6751	1648549015463	9.70162596877733	0.0960863968560201	0.692584868599985	-0.0345451675471977	0.00897301675930827	-0.0859623854019045	0.0662144343061819	-0.0064832018965908	0.0181657082399827	0.33154296875	-0.293701171875	-0.0322265625	0	0	0	0.426755248598467	-0.531266432161158	0.454814443516592	0.573393196524956	0.0217996000548924	0.068133538529484	0.997438017304784	-0.975016491845307	0.222047559524707	0.00614181885050963	-0.221060213668398	-0.9726524056602	0.071271871704828	4.92526820150231	-85.897784312763	72.2577177707608
6752	1648549015463	9.72573925297451	0.0954578723709759	0.667276924806557	-0.0293481634539708	0.0357054079469033	-0.063726480084302	0.0569157976964693	-0.00381927935429225	0.0211861243508099	0.323974609375	-0.2958984375	-0.033447265625	0	0	0	0.426870985812521	-0.531153070293402	0.455065471491179	0.573212869748971	0.0215836651488078	0.0682311002072711	0.997436044247074	-0.975166439141237	0.221393156255917	0.00595704084622639	-0.220419058548358	-0.972794730314443	0.0713151547786788	4.77490055610257	-85.8962043233222	72.4461819407833
6753	1648549015464	9.67723329042103	0.0883504619098855	0.66781096654603	-0.025522650439372	0.0303842175886119	-0.112117972827416	0.0567717594479969	-0.000608326976398085	0.0256579876713147	0.3203125	-0.28857421875	-0.045166015625	0	0	0	0.426966435079058	-0.531084673982364	0.455285203522664	0.573030641266463	0.0213289050287454	0.0682740843167001	0.99743858318244	-0.975295404218196	0.220830093538415	0.00573971242155974	-0.219872582013179	-0.972919687948873	0.071297464753853	4.60259862720721	-85.8982375696153	72.6511333426451
6754	1648549015465	9.69871015227135	0.111038331872386	0.641058167434381	-0.0443720266512343	0.0638285341732746	-0.0924908529939667	0.0554321624995847	-0.00356842153264349	0.0303598930302736	0.32666015625	-0.2900390625	-0.04736328125	0	0	0	0.427038623585557	-0.53102023293212	0.455570836714195	0.572809513641663	0.0209454499044902	0.0683783200803386	0.997439568831761	-0.975442917549996	0.220186453403363	0.00538890890639027	-0.21925419660716	-0.973058236222601	0.0713110523657404	4.32157407941656	-85.8990271747185	72.9692769271757
6755	1648549015465	9.75013517888621	0.0912123721255228	0.666021143407072	-0.0320748203687939	0.0388637313816431	-0.0395353567699281	0.0538262709141632	-0.00212704943314614	0.0303164952501353	0.32763671875	-0.299560546875	-0.047607421875	0	0	0	0.427116452075692	-0.530972717649187	0.455793170481436	0.572618629823541	0.0206411177094338	0.0684169549053971	0.997443263820644	-0.975565688150634	0.219648244217507	0.00512219829241523	-0.218736216395196	-0.973177151958285	0.0712790189570187	4.11027994864913	-85.9019885875869	73.2116503095771
6756	1648549015466	9.70423002763753	0.0591580213676707	0.668426593132998	-0.00568956741639803	0.0257492776211815	-0.0853198770898267	0.050702595711967	-0.000709947805376791	0.0318125390234204	0.325439453125	-0.291259765625	-0.037841796875	0	0	0	0.427142056424614	-0.531012857227515	0.455954274238678	0.5724340214347	0.0202620905251019	0.0683716299374323	0.997454143260357	-0.975643325233715	0.219310726873665	0.00478612630890191	-0.218425157924751	-0.973256454023216	0.0711500181848455	3.84838039249257	-85.9107205353352	73.4926882866019
6757	1648549015467	9.77707677128209	0.0642007821049008	0.667095740923823	-0.0115413451852286	0.0335314404727849	-0.0127327436338565	0.0491717235540766	-0.00084764622202687	0.0302974283954062	0.327880859375	-0.29345703125	-0.0419921875	0	0	0	0.427203502419016	-0.530972984767572	0.456166231671194	0.572256259075289	0.0199601170598361	0.068420924940087	0.997456851576699	-0.975755000070429	0.218819073207657	0.00451586515507474	-0.217953604155825	-0.973363647477594	0.071129713935883	3.63270431336876	-85.9128971524218	73.7366975762714
6758	1648549015467	9.75283263212154	0.058968908162832	0.667300593185752	-0.0094431791633185	0.0311561717577205	-0.0369290141507665	0.041629712353741	-0.00277293686883647	0.0304169423684321	0.3291015625	-0.29443359375	-0.033935546875	0	0	0	0.427252336967814	-0.530934151460559	0.456368992743121	0.572094144202707	0.0196725385509708	0.0684863427129598	0.997458075353929	-0.975857770663148	0.218365566036343	0.0042533523224576	-0.217519200677347	-0.973460887982373	0.0711287347367959	3.42209497607516	-85.9138810562103	73.9734142199045
6759	1648549015468	9.75330015884085	0.0599919576804521	0.71578114472109	-0.0236567626017233	-0.0154904944125498	-0.0330142844531487	0.0476483952865061	-0.000929279833107674	0.0303081499978477	0.330322265625	-0.301025390625	-0.042236328125	0	0	0	0.42730959898424	-0.530897755336324	0.456576684811939	0.571919409428392	0.0193706085299843	0.0685347220040385	0.997460661582705	-0.975965549741629	0.217888475004136	0.00398223277718129	-0.217062261212533	-0.973564381199416	0.0711081599895616	3.20535715422136	-85.9159611349127	74.21762082096
6760	1648549015469	9.77736769410127	0.0581146081703081	0.691102902710482	-0.0186983604196585	0.011097953325836	-0.0107770270120735	0.0367260651636085	0.00302069713996784	0.0287004488060804	0.333251953125	-0.300048828125	-0.04052734375	0	0	0	0.427321913804638	-0.530843921141391	0.456801801893108	0.571780401165328	0.0190736903488841	0.0686981544515762	0.997455140801541	-0.976063115706367	0.217456191539102	0.00368767120112273	-0.21664945994406	-0.973649510006684	0.0712014267391472	2.96481949956811	-85.9115221037059	74.4829586644761
6761	1648549015469	9.75565391240262	0.0288140604639716	0.693623140955959	0.00647422294720043	0.00153299816010811	-0.0323662136512581	0.0382513201969043	0.0031004249101342	0.0286869280045692	0.3291015625	-0.30078125	-0.04150390625	0	0	0	0.427347325765292	-0.530813612129991	0.456988852176592	0.571640062736234	0.0187961963276628	0.0687827170088403	0.997454580842904	-0.976149827503107	0.217070904295148	0.00342589756727435	-0.216282725314036	-0.973729510875257	0.0712223446775293	2.75388705856057	-85.9110721329126	74.7159860901616
6762	1648549015470	9.72923220934788	0.0517668801954483	0.741239951945699	-0.029624048607089	-0.0406858847753478	-0.0552521224004696	0.0366397014598195	0.00448501744975863	0.0271150110342673	0.330810546875	-0.300537109375	-0.03271484375	0	0	0	0.42734124339577	-0.530799249547654	0.457176081352874	0.571508223047958	0.018484374636955	0.0688949571575477	0.997452661920625	-0.976224602338492	0.216738984663575	0.0031206275099574	-0.215971881696053	-0.973795511082929	0.0712632367452092	2.50738863995526	-85.909530502804	74.9813587315953
6763	1648549015471	9.70704320171108	0.0188863709855131	0.695373685592879	0.00971346588278044	-0.00368848254259366	-0.0807563870645254	0.0319052027157032	0.00729228012696888	0.0270378737802045	0.32861328125	-0.292724609375	-0.0419921875	0	0	0	0.427343161609871	-0.530767993277891	0.457350611798096	0.571396165042213	0.0182315103993365	0.0690166266648827	0.99744890459229	-0.976296915979685	0.216416480226376	0.00287035450480777	-0.215666278952263	-0.973858620298772	0.0713263190740812	2.30448603706047	-85.9065136064879	75.2026919340734
6764	1648549015471	9.73127758209639	0.0190705059191805	0.69565408447694	0.00801803632710322	-0.000410510444643709	-0.0565612486297695	0.0288489365488793	0.00707492286326113	0.0255364394959244	0.328857421875	-0.2958984375	-0.030517578125	0	0	0	0.427345199092811	-0.530699898889716	0.457546286819371	0.571301228380069	0.0180180254725009	0.0692094035021706	0.997439426343748	-0.976377619300413	0.216054952460262	0.00264613806328579	-0.215318590203746	-0.973925210672907	0.0714673962615401	2.12045387812128	-85.8989130179802	75.4074999767007
6765	1648549015472	9.70971602707371	-0.00790195589382644	0.722869350610034	0.0261089371416421	-0.0332510707350888	-0.0761890075099618	0.0289154212382812	0.00543374439534771	0.0225406733826459	0.32666015625	-0.296142578125	-0.0439453125	0	0	0	0.42735481063941	-0.530670707705254	0.457696296895098	0.571200985306812	0.0178053995842374	0.069303791908997	0.997436690809337	-0.97644251112204	0.215763931263736	0.00243894225088215	-0.21504183364948	-0.973983013400466	0.0715129316139172	1.95331043432272	-85.8967220119538	75.591305663537
6766	1648549015473	9.72889865238245	0.0410251930272082	0.719019163601073	-0.0223311064566433	-0.0162580634599937	-0.0572080162419635	0.0245794876584309	0.000629205217900791	0.0227541362605347	0.319091796875	-0.29638671875	-0.031494140625	0	0	0	0.427364749981663	-0.530628898129477	0.457864492722951	0.571097582945824	0.0175861575469035	0.069426437457288	0.997432051241951	-0.976514782985885	0.215438953553332	0.00222168896916514	-0.214731473409852	-0.974046214033931	0.0715846858860155	1.77765052347688	-85.8930086526074	75.7855992667933
6767	1648549015474	9.67780227594259	0.0586171019911739	0.718068437239882	-0.0417870299741979	-0.0147121586370507	-0.108206313415097	0.0214099756995039	0.00163700489269134	0.0135605333526742	0.322998046875	-0.300048828125	-0.0341796875	0	0	0	0.42738544885184	-0.530608167379807	0.457961102723466	0.571023886726169	0.0174532022042995	0.0694650381329695	0.997431699020038	-0.976561877253254	0.215226613004038	0.00209879737250446	-0.214528053243431	-0.97409040316184	0.0715933016391075	1.67917665718288	-85.892726882481	75.8962831756745
6768	1648549015474	9.75086588538321	0.0667766079098069	0.741231330348886	-0.0560081987187173	-0.028337494906269	-0.0336624399322005	0.0138712715223776	-0.000218462008659524	0.0152102576661127	0.32373046875	-0.304931640625	-0.04296875	0	0	0	0.427365364073431	-0.530554609885564	0.458189080831075	0.570905787084643	0.0171491442727035	0.0696842676217463	0.997421680983893	-0.97664692368007	0.214843223595118	0.00178206102980177	-0.214165107608521	-0.974159377166427	0.0717413030391226	1.4229401856914	-85.8847207282121	76.1743773485082
6769	1648549015475	9.77514299052022	0.0678988878054675	0.741009251733183	-0.0580066460272369	-0.0257513742320088	-0.00946863649582319	0.0121089322392282	0.00427129832317501	0.0150464449107124	0.32666015625	-0.29736328125	-0.04296875	0	0	0	0.427349106214103	-0.530550430899792	0.458272197600499	0.570855125751238	0.0170056663569081	0.0697535610859914	0.99741929399204	-0.976674570872125	0.214718668648832	0.00163583172238269	-0.214050437802656	-0.974181879347741	0.0717779633801048	1.30555434355378	-85.8828153990645	76.2987741514827
6770	1648549015475	9.72652335309123	0.0616554454010041	0.742661312283962	-0.0558767367030245	-0.031390999783217	-0.0578682493399132	0.00399646477157425	0.0128963346072788	0.011703466263591	0.321533203125	-0.2998046875	-0.044677734375	0	0	0	0.427244245705388	-0.530610877643391	0.458344309068207	0.570819538368242	0.0167451817425976	0.0698628854684009	0.997416049661543	-0.976664662195698	0.214765697712846	0.00135377401300496	-0.214116175256731	-0.974163678403144	0.0718289020762899	1.07973744373744	-85.8802271409622	76.5212586685696
6771	1648549015475	9.65631659722483	0.0308154588710559	0.771337170016263	-0.0339152718173218	-0.0694719888679334	-0.12587240348026	-0.0021100556916003	0.0125236126222177	0.0102277438550349	0.326171875	-0.29638671875	-0.039306640625	0	0	0	0.427180854819302	-0.530606213706519	0.458393662029625	0.570831686106292	0.0166645931742036	0.0700016221064488	0.997407672036266	-0.976660885880785	0.214783535773841	0.0012436844644485	-0.214139686478005	-0.974149786050869	0.0719471265037643	0.990321338716732	-85.8735511447452	76.6094075062217
6772	1648549015476	9.68303497008615	0.00815570102107433	0.773873717106333	-0.0137804313232384	-0.0739890100255554	-0.0990655414813321	-0.00348384097369382	0.00934006550233827	0.00883163121110254	0.326904296875	-0.30615234375	-0.046875	0	0	0	0.427087425388235	-0.530663987521603	0.458428137740272	0.570820204574879	0.0164787497513157	0.0700802543818536	0.997405237981237	-0.976639919089278	0.214879947206471	0.00103765593223015	-0.214249665689174	-0.974122870193652	0.0719841268458409	0.825865237322329	-85.871613505513	76.7677864348976
6773	1648549015477	9.65867505699763	0.00491972371355861	0.775239735538681	-0.0119225201299691	-0.0766730003533847	-0.123259943618063	-0.00662551801434457	0.0105868135869773	0.00574438297982379	0.328125	-0.294677734375	-0.041748046875	0	0	0	0.427027192214393	-0.530666207701327	0.458448582159415	0.570846783847825	0.016436547039828	0.0701899960150795	0.997398217554458	-0.97662559872611	0.214945349251028	0.000967857541132655	-0.214318174297641	-0.974100539623481	0.0720823062267672	0.769270892914834	-85.8660299452356	76.8204033502421
6774	1648549015478	9.65629515487519	0.0306530063388248	0.798563873216382	-0.0434047197081372	-0.093837802132937	-0.123931485289603	-0.00648721947544317	0.00736162249272828	0.00128208036729573	0.326416015625	-0.299072265625	-0.04296875	0	0	0	0.426942323656085	-0.530747470147615	0.458409210825043	0.57086633342124	0.0163362367253366	0.0701836544216103	0.997400311821528	-0.976577887139256	0.215162495403808	0.000854939900275797	-0.214543137201544	-0.9740530556513	0.0720547504060987	0.679790704124683	-85.8676947916886	76.8969110367218
6775	1648549015479	9.68052119831095	0.032873455522133	0.798872462092888	-0.0454549635107893	-0.0912749070128268	-0.099738724571619	-0.0110558378350474	0.00718752979633664	0.00284610462437544	0.32470703125	-0.299560546875	-0.0390625	0	0	0	0.426884697902495	-0.530764115871358	0.458402060730875	0.570899692343304	0.0163140080419665	0.0702530323591269	0.997395791341609	-0.976553349404045	0.215274010828765	0.000809956442334614	-0.214656490489686	-0.97402341435206	0.072117815999983	0.643462839825058	-85.8641020535404	76.9266051793314
6776	1648549015480	9.68047746147596	0.0327866174478066	0.799405819069114	-0.0464518371627424	-0.0912476459777873	-0.0997431847894958	-0.0139735571826283	0.00374703571988524	-0.00311840916790661	0.326416015625	-0.298828125	-0.037841796875	0	0	0	0.42680814119704	-0.530817371370933	0.458373841682668	0.570930074632483	0.0162526790238504	0.0702844721030738	0.997394577589902	-0.976513174462781	0.215456463738001	0.000729612320374606	-0.2148438282222	-0.973980803309135	0.072135457717561	0.579496997808587	-85.8631379315182	76.9797009707152
6777	1648549015481	9.68047759039418	0.0329507526877672	0.799397508990967	-0.046562831428069	-0.0913140706835276	-0.0997443405000595	-0.0166299383411475	-0.00402266811119667	-0.00280024748379612	0.324951171875	-0.298828125	-0.033203125	0	0	0	0.426775037876284	-0.530867124600326	0.458311969512275	0.570958231104569	0.0162604692407242	0.0702323083964036	0.997398125122253	-0.976475657230716	0.215626411294952	0.000735926561070188	-0.21501369253123	-0.973946956260644	0.0720863261285578	0.584910113569914	-85.8659564812853	76.9643281545461
6778	1648549015482	9.7070946957048	0.00976380484229239	0.77628028052007	-0.0185928257961863	-0.0709674043632262	-0.0748738637049051	-0.0183374566713454	-0.00129334056632908	-0.00901203168709354	0.325927734375	-0.301513671875	-0.034423828125	0	0	0	0.426736568660041	-0.530846751201143	0.45832003925439	0.57099944774518	0.0162889367140923	0.0703375364257984	0.997390245345459	-0.976464420793425	0.215677285172217	0.000737282377966386	-0.215062561747243	-0.97392809777226	0.072195255414891	0.585103548377271	-85.8596985179972	76.9611547227713
6779	1648549015483	9.70711003597255	0.0106419038876323	0.776076919287427	-0.018708818073367	-0.0710226673450645	-0.0748744887681063	-0.0182711471105555	-0.00293490127782119	-0.0120071793972482	0.322998046875	-0.307861328125	-0.040283203125	0	0	0	0.426720555127513	-0.530877150632771	0.458230577885097	0.571054950297068	0.0163883768542396	0.070277294912485	0.997392862879952	-0.976422064602599	0.215868610645514	0.000833483757261444	-0.215247236593833	-0.973890057839056	0.0721580375353942	0.661783212752319	-85.8617762644003	76.8734458330533
6780	1648549015484	9.68303811846437	0.0110630160325234	0.800676548651324	-0.0260433327563427	-0.0956849209073997	-0.0971020175923272	-0.0184288415460063	0.000110586192850128	-0.012123898007333	0.332275390625	-0.294189453125	-0.04150390625	0	0	0	0.426636674731387	-0.530907744663606	0.458259638190566	0.571065861732076	0.0162701413233094	0.070383440815808	0.997387313815574	-0.976402299905493	0.215958503559191	0.000688098639747448	-0.215345841010646	-0.973862462568201	0.0722362288606955	0.545764309325589	-85.8573727633048	76.9838918479567
6781	1648549015485	9.65333817849998	0.0541594824964202	0.748258288639021	-0.0566229656817876	-0.0380786261081885	-0.130481753698092	-0.0164235852342777	-0.00888855071257581	-0.0102606762090367	0.326171875	-0.295166015625	-0.048828125	0	0	0	0.426634346326165	-0.530954865751406	0.458168438749191	0.571096967951924	0.0163372245380715	0.070270048204764	0.997394212645979	-0.976364376518955	0.21612963253795	0.000765639446833055	-0.215512643153817	-0.973832686997264	0.0721401301395048	0.608070180313829	-85.8628480886782	76.9117016907446
6782	1648549015486	9.6236648739406	0.0968033521903449	0.695358283244714	-0.0864145886115389	0.0184243545363817	-0.163852581507646	-0.0193625190716533	-0.010273036916372	-0.0025441404567607	0.3251953125	-0.300048828125	-0.034912109375	0	0	0	0.426606539955858	-0.531074564161626	0.457983753033461	0.57115457568404	0.0164213785158502	0.070039267716908	0.997409063175846	-0.976278796819134	0.216515484048553	0.00086951055434753	-0.215893606225433	-0.973763598695751	0.0719333347348601	0.692542045837615	-85.8746589749729	76.8047946898405
6783	1648549015488	9.67252535303964	0.103333803335739	0.71772085850304	-0.0975484718972582	0.000345637219000314	-0.113510501546687	-0.0221363774483896	-0.0146449817551202	0.00681487090354857	0.3173828125	-0.29541015625	-0.028564453125	0	0	0	0.426555940276375	-0.53118805027144	0.45791288600312	0.571143654342808	0.0163100881622386	0.0699052416707503	0.997420291657982	-0.976230914659185	0.216731637294463	0.000773730801831241	-0.216118445043065	-0.973725143242494	0.0717785701275269	0.61759091078458	-85.8836116424128	76.8668598511452
6784	1648549015488	9.72375168003666	0.082687009405642	0.717081200302934	-0.079010830318065	0.00114514845973364	-0.0625004597734868	-0.0248174235740663	-0.0204232995463595	0.0192846717233532	0.33349609375	-0.30859375	-0.03759765625	0	0	0	0.426470285941871	-0.531246190256324	0.458030629517656	0.571059123883386	0.0159708555236029	0.0700037106799289	0.997418875029386	-0.976246569336505	0.216662075264638	0.000425441800602611	-0.216073060867267	-0.973733549608445	0.0718011610936013	0.339489417244368	-85.8824810682121	77.1483297821461
6785	1648549015489	9.77454438068138	0.0573730636252876	0.667748049399726	-0.0456342736929976	0.046087055912504	-0.015407651623125	-0.0296807033506426	-0.0143327942021508	0.0251995180055817	0.334716796875	-0.302734375	-0.04150390625	0	0	0	0.426348288789536	-0.531414553643354	0.457994286218008	0.571022716372936	0.0156796119353841	0.0699149116315842	0.997429724291944	-0.97618565396638	0.216936740875783	0.000139457607608917	-0.216369403474213	-0.973678774334606	0.071651417644539	0.111516596739802	-85.8911474987488	77.3595934234523
6786	1648549015490	9.82300618076065	0.0576081126281894	0.641139141612153	-0.0428708729787905	0.0753128020500388	0.0310069442261902	-0.0280561715883543	-0.0156028923826963	0.0298238267984668	0.3212890625	-0.294921875	-0.03857421875	0	0	0	0.426200276192941	-0.531579037079777	0.458003263811976	0.570972908506152	0.0153134753498285	0.0698966464445114	0.997436692872545	-0.976133176131626	0.217172669821278	-0.000232245305112955	-0.216632222736816	-0.973627490521148	0.0715541038207949	-0.185965980382631	-85.8967236640255	77.6424645944126
6787	1648549015491	9.78475713428458	-0.0456858497008935	0.672590425632297	0.0469595220804217	0.0192956853559716	-0.00486606036207604	-0.0285844596023292	-0.00476906996031855	0.0340044671304923	0.33154296875	-0.291259765625	-0.03759765625	0	0	0	0.426035959010258	-0.531736198428254	0.458015658079817	0.57093925584513	0.0149565444695614	0.0699207555033154	0.99744041913659	-0.976075720454717	0.217430037167844	-0.000605702894787952	-0.216915858609593	-0.97356831649712	0.0714999538225559	-0.485362402592537	-85.8997084771135	77.925986386247
6788	1648549015492	9.78700888696805	-0.0750831319094363	0.650106159299382	0.0785346178028075	0.0362548236421954	-0.00420452824573658	-0.0245711812123849	0.00600766229918013	0.0305141856529021	0.32373046875	-0.300048828125	-0.04931640625	0	0	0	0.425899182601041	-0.531780049210705	0.458054266931626	0.570969486108457	0.0147925356143812	0.0701006422347121	0.99743023858733	-0.976039395364235	0.217592349610991	-0.000817366372690531	-0.217090487094935	-0.973519116067604	0.0716397310424504	-0.65368212379362	-85.8915587728376	78.0843388476138
6789	1648549015493	9.74333382467819	-0.131358648756232	0.655396180306602	0.128887535871341	0.0172380099098907	-0.0473177619423701	-0.0233790672411584	0.0120034520340718	0.025694230875592	0.329833984375	-0.295166015625	-0.04296875	0	0	0	0.425733635821054	-0.531859171210854	0.458092419106541	0.570988641644129	0.0145543151120415	0.0702704588574946	0.997421793687895	-0.975991813674972	0.217804413775408	-0.00110316788860093	-0.217320389174737	-0.973459449567319	0.0717533866589794	-0.880820928765847	-85.8848107118405	78.2984342630702
6790	1648549015494	9.67103402408861	-0.135629907226753	0.730663590738926	0.113122355163687	-0.0617828610001185	-0.11399932602084	-0.0110444642540772	0.00940198025208818	0.0211248361103537	0.3193359375	-0.301025390625	-0.03369140625	0	0	0	0.425598370153742	-0.531986581135818	0.458060884390583	0.570996086681179	0.0143410073654826	0.0702767011473545	0.997424443646529	-0.975927188647615	0.218092507027592	-0.00133447996664193	-0.217624580335275	-0.973394495389338	0.0717126096278056	-1.06607814884261	-85.8869270228715	78.4663002170348
6791	1648549015495	9.67050057196988	-0.141335231898441	0.682871062858139	0.127150494527823	-0.0152624451876359	-0.117922317266254	-0.00952626843147363	0.00942152051862025	0.0195852893071194	0.329345703125	-0.302490234375	-0.04541015625	0	0	0	0.42549446894973	-0.532029035736262	0.458112232481668	0.570992770950205	0.0141565751684118	0.0704067220089083	0.997417908840353	-0.975908370114659	0.2181752786877	-0.00154948691323115	-0.217721024523703	-0.973366550311601	0.0717991240534612	-1.23630034623074	-85.881710155759	78.6312128095582
6792	1648549015496	9.65108899347372	-0.193809327715869	0.687544489507252	0.17417325315462	-0.0308943248253625	-0.136814929814296	-0.00475287704652798	0.00479668720530817	0.0120827029857486	0.329345703125	-0.310546875	-0.040771484375	0	0	0	0.425395831942302	-0.532067466738244	0.458213832570659	0.570948929980408	0.0138885889593115	0.0705548294917809	0.997411210650906	-0.975911960141976	0.21815693961405	-0.00184275610941914	-0.217722192595441	-0.97335993637175	0.0718851940097276	-1.46843909862639	-85.8763696942251	78.8638133112472
6793	1648549015496	9.6757807328494	-0.189029884990186	0.735882877391813	0.157893256461146	-0.0748582539661675	-0.108695684678	0.0048749072524945	-0.00376614595555902	0.0153986478917069	0.330078125	-0.29833984375	-0.035400390625	0	0	0	0.425374021962895	-0.532105843173666	0.458264082485539	0.570889081874265	0.013714804728259	0.0705479173707636	0.99741410431471	-0.975923927853722	0.218101944285597	-0.00200722231122774	-0.217679560762673	-0.973372761717469	0.071840626199106	-1.60042389863049	-85.8786759626856	78.9986862483514
6794	1648549015497	9.69920286781908	-0.195114305354719	0.637692542417016	0.183413112447822	0.0220366768585457	-0.0923410943737579	0.0125566366109141	-0.0050781005965545	0.0108119054446048	0.32275390625	-0.294921875	-0.03857421875	0	0	0	0.425365132770068	-0.532092707731841	0.458393923564343	0.570803700970296	0.0135047224357701	0.0706385256049651	0.99741055798116	-0.975973266686323	0.217879029325578	-0.0022161438965948	-0.217471389349402	-0.9734161120921	0.0718837084042002	-1.7658449914427	-85.8758496902293	79.1767552541391
6795	1648549015498	9.67022184497721	-0.148151456014251	0.658309442105421	0.131579817180644	0.00980004831864711	-0.119849731020439	0.0187269557785834	-0.00635247906404354	0.0092910685862572	0.3212890625	-0.30224609375	-0.04150390625	0	0	0	0.425404839255471	-0.532093498789019	0.458458734217449	0.570721315796267	0.0133841951323907	0.0705940454192999	0.997415331781097	-0.976014642704194	0.217692623515524	-0.00231060466833055	-0.217293075240936	-0.973461043092258	0.0718144625689754	-1.84283549930982	-85.8796546504611	79.2644958146425
6796	1648549015499	9.69476963206458	-0.144635713672136	0.681527999962338	0.121221114225378	-0.0104272653753363	-0.0936773953895482	0.0234563023278934	-0.00916909079820168	0.00936599641431884	0.32470703125	-0.301513671875	-0.03955078125	0	0	0	0.425433086197801	-0.532108023753354	0.458577774512932	0.570591066306056	0.0131349515601352	0.0705680452151792	0.99742048507238	-0.976073480159188	0.217426227781963	-0.00252919007561464	-0.217043853581357	-0.973522463257533	0.0717354804510299	-2.0192506640581	-85.8837660254319	79.4560976521976
6797	1648549015500	9.76499963909466	-0.115981432369747	0.653240821713539	0.098933559307836	0.0276071126321343	-0.0257142349126465	0.028136493599179	-0.0102322079111682	0.0154910402568794	0.33349609375	-0.2939453125	-0.044677734375	0	0	0	0.42549175195236	-0.532111689792993	0.458677403103935	0.570463809972191	0.0129443789349518	0.0704994475969408	0.997427827435406	-0.976135988094345	0.217143617804683	-0.00267992421002289	-0.216774020124798	-0.973590507931964	0.0716278372123154	-2.14269709302867	-85.8896309670016	79.595825948065
6798	1648549015501	9.78418889796406	-0.0681171952823461	0.624033978716997	0.0579421946315485	0.0668545772393616	-0.00878080395375136	0.0325436510101805	-0.00707362746556982	0.0122849648664616	0.3212890625	-0.3056640625	-0.039306640625	0	0	0	0.425569960337609	-0.532095136430432	0.458741496120522	0.570369366623446	0.0128620110483708	0.0704167809592406	0.997434732516936	-0.976191605385376	0.216892897190703	-0.00272410046564431	-0.216528331280032	-0.973652375392554	0.0715299492906515	-2.18096154962998	-85.8951542491898	79.648721792402
6799	1648549015502	9.75299678595311	0.00453908205711107	0.667491171213333	-0.0242559360056949	0.0381938752106634	-0.0369795086688551	0.0259342080015039	0.00351484182971181	0.0180430249315515	0.324951171875	-0.2919921875	-0.037841796875	0	0	0	0.425584184793861	-0.532070069250046	0.458871344965574	0.570277679583448	0.0126770603554734	0.0704869583186187	0.997432143480314	-0.976249385018594	0.216630380845661	-0.00290109384207665	-0.21627859439057	-0.973705739328702	0.0715590861231925	-2.32157040620296	-85.8930824445482	79.8043661818798
6800	1648549015504	9.80379904114174	-0.0183698471623573	0.644134609821761	0.00117758779768027	0.0605827496630787	0.0120798392891004	0.0278502608076736	-0.00396536480489246	0.0198432685751595	0.32421875	-0.297119140625	-0.04638671875	0	0	0	0.425595992793867	-0.532056874963947	0.459054321123291	0.57013389916706	0.0123692241232656	0.0705623122168526	0.997430680493236	-0.976327407909187	0.216274362351674	-0.00319260938822241	-0.215943962314109	-0.973779420753996	0.0715670654428026	-2.5542733211503	-85.8919121910083	80.0573524718948
6801	1648549015505	9.77461486829394	0.0255832199241171	0.640927106552372	-0.0435816497469218	0.0716282445136951	-0.0174075074935267	0.0213194058607652	0.00510300680482498	0.0256560897193378	0.3232421875	-0.290283203125	-0.052001953125	0	0	0	0.425572945695177	-0.532054011406008	0.45919738680714	0.5700385572824	0.0121125777925394	0.0706648459607999	0.997426571234473	-0.97637601757276	0.216050855683648	-0.00344964739079051	-0.215738632998304	-0.973821599320789	0.0716123936782112	-2.75786856441663	-85.8886269450731	80.2735208722381
6802	1648549015506	9.77435247152387	0.0210886182742385	0.617219911149895	-0.0366647184572737	0.0923651587369678	-0.0193480423827541	0.0135629361762037	0.00794685895491026	0.0301850063019893	0.322265625	-0.294189453125	-0.040283203125	0	0	0	0.425491076391125	-0.532204687300262	0.459171316380689	0.569980014509612	0.0118397460577117	0.0705402566265439	0.997438666088472	-0.976333637665707	0.216238092249494	-0.00370343391302025	-0.215945475469475	-0.973789073493516	0.0714310294543041	-2.96791624957347	-85.8983039799133	80.4720673516642
6803	1648549015507	9.75264805913177	-0.00668768172060915	0.644953069381334	-0.0186688615277509	0.0595344601125097	-0.0389337614343379	0.00557117653513387	0.0153020870709322	0.0330132509210987	0.3349609375	-0.31201171875	-0.042724609375	0	0	0	0.425380213835448	-0.532225612791132	0.459313772042044	0.56992844250741	0.0115335118032265	0.0707554754886623	0.997427010258825	-0.976348455399839	0.216165064979636	-0.00404454208755478	-0.215895047983582	-0.973789673066378	0.0715751415328245	-3.23420961500155	-85.8889778086254	80.7419137918066
6804	1648549015508	9.74990101675035	0.0125267277505689	0.620312802135078	-0.0356573503802924	0.0895874947546658	-0.043541219093381	-0.000611856235122295	0.0164655369732965	0.0314795936200955	0.324462890625	-0.30224609375	-0.041015625	0	0	0	0.425228749396266	-0.532282338535536	0.459439053920575	0.569887513903047	0.0111825356314152	0.0709736541751578	0.997415505849932	-0.9763406667399	0.216192532838909	-0.004437478403717	-0.215948728560134	-0.973767697737875	0.0717120455400577	-3.54089773092763	-85.8797934584198	81.0461445978083
6805	1648549015509	9.70604210761219	-0.0436713611808349	0.626380273208439	0.0146783399870738	0.0705337513355653	-0.086623333136675	-0.0143513830872732	0.015673671799169	0.028540079682726	0.3134765625	-0.300048828125	-0.04443359375	0	0	0	0.425072018710303	-0.532338617876434	0.459516541114322	0.569889395645582	0.0109202887194758	0.0711827059332015	0.997403513965291	-0.976311709685954	0.216316654703756	-0.00474872907899193	-0.216093018916329	-0.973724872473638	0.0718587496539126	-3.78084920879265	-85.8702416447796	81.2781335075715
6806	1648549015511	9.70833395389777	-0.0706329286553483	0.629786956663459	0.0352889199765039	0.0632872477218263	-0.0839609595026403	-0.0220657141900242	0.0167056538657056	0.0254914497513652	0.319580078125	-0.30517578125	-0.04296875	0	0	0	0.424832670083158	-0.532497999841994	0.459595322170234	0.569855439943789	0.0104360400070295	0.0713606948492226	0.997395979688914	-0.976250883196483	0.216578684538507	-0.00528076335930777	-0.216391548187675	-0.973653595810238	0.0719261651885819	-4.19907770672739	-85.864251683973	81.6798431996654
6807	1648549015512	9.73231544847464	-0.0725527310795486	0.606332167491842	0.0402011365117951	0.0891460338073568	-0.0617231561287603	-0.0294102079582955	0.0100655512970306	0.0212038914493556	0.321533203125	-0.30029296875	-0.04296875	0	0	0	0.424664885472442	-0.532590067015515	0.459600133282805	0.569890579891891	0.0102310760056755	0.0714989733240487	0.997388200199588	-0.976188172575663	0.216854905066212	-0.00553189588763037	-0.216684048344943	-0.973581967254083	0.0720151111261751	-4.392592979956	-85.858075846262	81.8565970854952
6808	1648549015513	9.73223985533855	-0.0744679419514272	0.607312363682838	0.0375857802639969	0.0887286689539432	-0.0617089175909378	-0.0432440773249983	0.0106276954928354	0.0136237346469453	0.325927734375	-0.300048828125	-0.041259765625	0	0	0	0.424411074854987	-0.53279096248158	0.459571283690277	0.569915138459804	0.0098560510104457	0.0715884934333261	0.997385555272597	-0.976078033672649	0.217338949495412	-0.00595426015276712	-0.217196985338691	-0.973467446112184	0.0720180596767717	-4.7263120831294	-85.8559782332252	82.1610003995164
6809	1648549015514	9.86381670973365	-0.155127211315697	0.687031471883816	0.0992374651470015	0.00451908916686021	0.0757446675282765	-0.0467078116963353	0.0177459818950565	0.00420242609344503	0.327392578125	-0.30859375	-0.04296875	0	0	0	0.424221093715261	-0.532865552889183	0.459498069376141	0.570045866953469	0.00983165356740898	0.0717643353422612	0.997373159234303	-0.975975565941608	0.217795975773254	-0.00605042328552913	-0.217658065031113	-0.973352347872989	0.0721815323822652	-4.79146404171197	-85.8461613945055	82.1990890148254
6810	1648549015516	9.78837838254404	-0.13814238539498	0.688603471693159	0.0805644210606715	0.00328187362151677	0.000523496572368387	-0.0519329939892374	0.0292459983848992	-0.00842926601947115	0.325439453125	-0.297607421875	-0.04736328125	0	0	0	0.423988173221137	-0.53293943732758	0.459407101825723	0.57022337719674	0.00984134186610477	0.0720093012824167	0.997355407324336	-0.975849375162503	0.218358287521386	-0.00613638865132349	-0.218222695852716	-0.973208260753856	0.0724191702191299	-4.84334904373244	-85.8321432565884	82.2177340605806
6811	1648549015515	9.7155065508826	-0.142696923368345	0.716753695379954	0.0792210982910645	-0.027955669245295	-0.0700949104721307	-0.056457308015633	0.0272709435496205	-0.0144450670327079	0.322998046875	-0.306884765625	-0.0380859375	0	0	0	0.423797909813404	-0.532969992258644	0.459274994514514	0.570442633753215	0.0100189335310283	0.0722369375507463	0.99733717760053	-0.975723212400664	0.218923622102966	-0.00605478883584759	-0.218778046781275	-0.97306437224811	0.0726766379792219	-4.76239083245733	-85.8177966183213	82.1037118655696
6812	1648549015515	9.73740016015594	-0.113212519374046	0.741734810078067	0.0453601649895638	-0.0421168736289831	-0.0466176693112299	-0.0597376950953446	0.0316342754171523	-0.0161177736010611	0.322998046875	-0.300537109375	-0.03662109375	0	0	0	0.423556107416395	-0.533049799843074	0.459140042020804	0.570656250794351	0.0100966654007877	0.0724692733770639	0.997319538444919	-0.975575266499547	0.219581291366812	-0.00607913447968095	-0.219433262615592	-0.972898895516839	0.0729162695150612	-4.76581004830608	-85.803961363844	82.0684143687111
6813	1648549015517	9.69115899960967	-0.139531699593201	0.771707023279861	0.0652930368350495	-0.0775948084462918	-0.0903790698664082	-0.0659700688625269	0.0345512880891033	-0.011605319433554	0.323486328125	-0.296630859375	-0.043212890625	0	0	0	0.423314087570243	-0.533087766806547	0.459006037411015	0.570908113242419	0.010261781002892	0.0727734183692588	0.997295706112035	-0.975427664771548	0.220237281769621	-0.00603411278099392	-0.220080818448528	-0.972727900955648	0.073245232291561	-4.70952466233598	-85.7853405020218	81.9736401935801
6814	1648549015519	9.66920880989543	-0.163549475636884	0.801173519829645	0.082937386058566	-0.110095687555688	-0.109944138825059	-0.0672847600284123	0.0297397121491546	-0.0160106432739049	0.3232421875	-0.297607421875	-0.039794921875	0	0	0	0.423084450299887	-0.533125311347124	0.458873002141467	0.57115017133951	0.0104259406134187	0.0730567290078404	0.997273289579642	-0.975284846176857	0.22087023164024	-0.00598411171119229	-0.220705162105717	-0.972563136830644	0.073553900630949	-4.65115876889592	-85.7679004832696	81.8781484791145
6815	1648549015520	9.62520924393001	-0.216104238953711	0.808143956381591	0.133244846076567	-0.129164819405026	-0.152976586858406	-0.0734381721034699	0.0311851324089744	-0.0099173640435106	0.322265625	-0.30517578125	-0.038818359375	0	0	0	0.422824146612605	-0.533193389439727	0.458716845057119	0.571404765958371	0.0105673310372361	0.0733319032433805	0.997251604902922	-0.975120062720721	0.22159719420433	-0.00596211374476041	-0.221425370710509	-0.972377043891654	0.0738491009981949	-4.61569138652075	-85.7510978395769	81.7999675829611
6816	1648549015520	9.60298791279943	-0.243957156337315	0.788111372374402	0.164166053887333	-0.114635908813705	-0.176405956563903	-0.0667441598173738	0.0191900557497892	-0.0125811184331322	0.32421875	-0.300048828125	-0.046875	0	0	0	0.42258600971852	-0.533274728808235	0.458618099740912	0.571584260275524	0.0105750044090779	0.0735688951171547	0.997234068287375	-0.974986654040347	0.222181005960428	-0.00605186199627361	-0.222011697270566	-0.972225909067257	0.0740782560093647	-4.67043678855291	-85.7375577270647	81.8201701507228
6817	1648549015520	9.60770724040361	-0.29173253715094	0.792996058917994	0.210465042067459	-0.128430275153313	-0.171048548954909	-0.0619420874281863	0.0148454605259116	-0.0124519642855712	0.329833984375	-0.2978515625	-0.037841796875	0	0	0	0.422402422664302	-0.533357676265809	0.458451253831801	0.571776381425217	0.0107040740567725	0.0736800487490418	0.997224484865332	-0.974846347154161	0.222797282374756	-0.0059975333772731	-0.222620803697173	-0.97207644832223	0.074211564991331	-4.62041380847793	-85.730176427025	81.7340253902217
6818	1648549015521	9.60764978760647	-0.290788359581979	0.794038243894456	0.210479396789482	-0.128706976471233	-0.171052552048909	-0.0556290880151991	0.0104146850040091	-0.0169138616680624	0.329833984375	-0.303955078125	-0.039306640625	0	0	0	0.422260057505896	-0.533435713721187	0.458254509284713	0.571966421988312	0.0108982880939891	0.0737151937679592	0.997219783961576	-0.974709574374388	0.223398497110689	-0.00586149397203389	-0.22320948218998	-0.971935790932939	0.0742855663237695	-4.51156933284398	-85.7265603703228	81.5901302856073
6819	1648549015522	9.6779509050248	-0.25953073848218	0.767784073479131	0.188042487119072	-0.0907131401757711	-0.103104820163411	-0.0463460978575819	0.00760573421501474	-0.0229756136756619	0.327880859375	-0.29931640625	-0.04638671875	0	0	0	0.422165745416772	-0.53348131304489	0.458083563584399	0.572130422895356	0.0111142748114354	0.0737320135348784	0.997216156645844	-0.974602158284936	0.223871064341038	-0.00569030905611306	-0.223667400310727	-0.971825774885037	0.0743475440572015	-4.3766920896672	-85.7237722314486	81.4278405584053
6820	1648549015523	9.68010110957933	-0.285034034810436	0.721298492331131	0.225099397948175	-0.0511923484235157	-0.10431043669946	-0.0401838107817354	0.00622475970082051	-0.0275434450997818	0.3291015625	-0.2939453125	-0.040771484375	0	0	0	0.422091296122661	-0.533523848902552	0.457900698653746	0.572292050060203	0.0113585056492364	0.0737143133218457	0.997214713269366	-0.974497404904361	0.224331775819805	-0.0054828999806163	-0.224111115708438	-0.971720872663041	0.0743824807793982	-4.21577635826899	-85.7226632836089	81.2402908154558
6821	1648549015524	9.70457278321643	-0.278151424332607	0.745930403260603	0.215747850243301	-0.071895940046084	-0.0781716452979975	-0.0311325190358924	0.00793738885830161	-0.0352884383045026	0.337158203125	-0.296142578125	-0.04150390625	0	0	0	0.422072566883725	-0.533507681114793	0.457735625863957	0.572452966880801	0.0116953020128953	0.0737063213051155	0.997211410940777	-0.974422146986335	0.224665690198229	-0.00517755833344941	-0.224420808690661	-0.971644330939784	0.0744486049513991	-3.97825271372777	-85.720127179419	80.9837970790921
6822	1648549015524	9.72631615619265	-0.250083710403393	0.720340336482473	0.200194524824577	-0.0392307886379326	-0.0586604837660509	-0.0219742485813468	0.00849733141510618	-0.0322927900208179	0.313232421875	-0.302734375	-0.046142578125	0	0	0	0.422137074208256	-0.533394250656418	0.457536499691103	0.572670250140502	0.0123018496341833	0.0737041067098155	0.997204276540011	-0.974366060196238	0.224921284058613	-0.00460398904054915	-0.224631799247655	-0.971585364562236	0.0745817278911425	-3.53243132743888	-85.7146532558222	80.5241909254696
6823	1648549015525	9.75061979841882	-0.24465316671887	0.720894715306594	0.197973337046175	-0.0366582822848986	-0.0344670376160998	-0.0190008456642215	0.0101725421404976	-0.0323638769264063	0.32373046875	-0.302001953125	-0.044677734375	0	0	0	0.422140742407391	-0.533349315998837	0.457416165054164	0.572805510335272	0.0126179181414283	0.0737240472824606	0.997198853285577	-0.974317952155353	0.225135291093758	-0.00431611074094745	-0.224822855265152	-0.971534284292851	0.0746714014466192	-3.30809481506924	-85.7104968868341	80.287891642419
6824	1648549015526	9.67513666971698	-0.226424434231758	0.69713685030969	0.183802941741844	-0.0148400267342739	-0.111577493692765	-0.0117561878320042	0.0182217761962733	-0.0311420851657446	0.330078125	-0.296630859375	-0.044921875	0	0	0	0.42204069568659	-0.533407175356411	0.457382752867186	0.572852034859186	0.0125556053158601	0.0737862106356507	0.99719504205305	-0.974264352122204	0.225365337128028	-0.00440874189235158	-0.225058501192591	-0.971476227162148	0.0747168729253499	-3.3768778347348	-85.7075783709986	80.3429366336557
6825	1648549015527	9.72380108721386	-0.217272309253051	0.722322743918788	0.172430826070511	-0.0329184763101286	-0.0612542137968006	-0.000676956384927783	0.0114028665163214	-0.023315482388724	0.316650390625	-0.295654296875	-0.03271484375	0	0	0	0.422069213293178	-0.533336963862488	0.457340156719738	0.572930399978555	0.0127833280590186	0.0738379323161644	0.997188320366324	-0.974258383346614	0.225395120483287	-0.00420025489320924	-0.22507151975001	-0.971465387655988	0.0748185243360429	-3.21316863972014	-85.7024359467773	80.1779224133915
6826	1648549015527	9.7212985149665	-0.190833079576367	0.721804806767994	0.148778727324661	-0.025058478184538	-0.063928429116233	0.00390152435773842	0.01168518199749	-0.0218162974745989	0.33056640625	-0.302001953125	-0.0478515625	0	0	0	0.422103979041808	-0.533213360432596	0.457379569746201	0.572988370136805	0.0129748828699181	0.0740033861717924	0.997173581303487	-0.974289310639202	0.225264320111708	-0.00404045279632204	-0.224926636014282	-0.971483136714024	0.0750234862665034	-3.0827341374324	-85.6911812748258	80.0555080238443
6827	1648549015528	9.74566264277734	-0.184815885495446	0.746987615949921	0.139418235850511	-0.0457595988255136	-0.0377931912414589	0.014667989553348	0.010909019054998	-0.0157209639847111	0.327392578125	-0.294921875	-0.03955078125	0	0	0	0.422157331094678	-0.533125126520358	0.457398946593264	0.573015698677657	0.0131276062560488	0.0740681928104326	0.997166770790014	-0.974318915015821	0.225138782916782	-0.00389618648740164	-0.224789496632695	-0.971507298603849	0.0751215745513409	-2.96898992445391	-85.6859907016008	79.949453362828
6828	1648549015529	9.74548520624662	-0.185044381247746	0.723749553662297	0.146445358710419	-0.022972377079169	-0.039736807766328	0.0207785840770584	0.0113738714988322	-0.0111764471453924	0.322265625	-0.301025390625	-0.039306640625	0	0	0	0.422211034208988	-0.533052280888462	0.457410660670453	0.573034550386628	0.0132615066892565	0.0741031149559316	0.997162404422749	-0.974345334161442	0.225026660194392	-0.00376457163372473	-0.224667092023195	-0.971530612258608	0.0751862168635699	-2.86640420869705	-85.6826661897776	79.8537443710579
6829	1648549015530	9.76982199443989	-0.179769962989484	0.749008303907946	0.137086163885973	-0.0436790750046241	-0.013603129784558	0.0314596749137735	0.0120184333354029	-0.00818556974357824	0.324462890625	-0.29931640625	-0.043701171875	0	0	0	0.422289984638609	-0.532938432139363	0.457498348741227	0.573012266292626	0.0133437768957761	0.0741952066317768	0.997154458913475	-0.974413455917602	0.224732859545948	-0.00368222310809885	-0.224366576264987	-0.97159158762989	0.075295592845521	-2.7997375307894	-85.676623098331	79.8045239529367
6830	1648549015531	9.76702333581383	-0.157919785876127	0.700107652442114	0.126009503671395	0.0101474824805734	-0.0201467037382805	0.0373299297153483	0.0169488157098435	-0.00685067313153167	0.325439453125	-0.29833984375	-0.039306640625	0	0	0	0.422322190081882	-0.532836231261345	0.457673194443452	0.572943946217757	0.0132415954862652	0.0743850439225019	0.997141677691604	-0.974499300487571	0.224358429704738	-0.00379583583150184	-0.223999494415085	-0.971663604474857	0.0754590368392991	-2.87973736466062	-85.6669197731409	79.9062705107491
6831	1648549015532	9.76454724891115	-0.131042112289403	0.724445662210742	0.095380955304131	-0.00631368810641048	-0.0208928968003956	0.0435071497460207	0.015734624898596	-0.00683404741333747	0.320556640625	-0.292236328125	-0.038330078125	0	0	0	0.422423232886792	-0.532687205406537	0.45780503228488	0.57290270197328	0.0133177872216289	0.074516577095425	0.997130842107244	-0.974594382796465	0.223946329464222	-0.00371894354350061	-0.223580915028758	-0.971748589532027	0.0756059070272902	-2.81602558643656	-85.6587105036013	79.8669415796207
6832	1648549015533	9.71585769045806	-0.134819608122026	0.726754517435758	0.0989778314500108	-0.0108128271005975	-0.0692626490766752	0.0494448583918374	0.0189830883755081	-0.0100287120946785	0.32177734375	-0.292236328125	-0.03955078125	0	0	0	0.422538656776018	-0.532474927266683	0.458003581494803	0.572856225156184	0.013406342340548	0.0747579245379064	0.99711158989545	-0.974722886674595	0.223387605735703	-0.00364304768210283	-0.223014717401772	-0.971858647295199	0.0758630707245178	-2.74930909199599	-85.6441627104686	79.8332112742948
6833	1648549015534	9.73752278768715	-0.106930483941665	0.726844770951909	0.0734328827501959	-0.00135846796119393	-0.047765818091392	0.0492962199080512	0.0221363065371899	-0.00708174662790007	0.325439453125	-0.292236328125	-0.036865234375	0	0	0	0.422642241672686	-0.532293434253147	0.458163837616735	0.572820332482344	0.0134991955025937	0.0749517430292048	0.997095786741508	-0.974830504150815	0.222918866908386	-0.00355906635916303	-0.222538221206718	-0.971951343943289	0.076074470809755	-2.67857138770477	-85.6322573142942	79.7901903762016
6834	1648549015537	9.73249208889163	-0.0556164841106985	0.749980293437443	0.0204260003424868	-0.0103042300709073	-0.0512099137051774	0.0508186006226796	0.0221596074978102	-0.00861790238600114	0.330810546875	-0.297607421875	-0.0419921875	0	0	0	0.422778733823897	-0.532046010074282	0.458345734064242	0.572803957262353	0.0136924624582979	0.0752090235821097	0.997073778234918	-0.974959977483154	0.222354660582748	-0.0033833745255048	-0.22195846182986	-0.972060701648285	0.0763703707806004	-2.53666970422116	-85.6157308387241	79.6818104216814
6835	1648549015538	9.72975061299105	-0.0318379985936278	0.726158566905584	0.00400927357278461	0.0197959122353368	-0.0558457439485735	0.0507384924778023	0.0236280813178012	-0.0101994533907985	0.3232421875	-0.2998046875	-0.04150390625	0	0	0	0.422891488144795	-0.531849797097734	0.458503963543714	0.572776307118656	0.0138198174836091	0.0754109097473344	0.997056772373469	-0.975069918404007	0.221873809338771	-0.00326603017548388	-0.221467078520317	-0.972154929741439	0.0765971651635602	-2.4415585332533	-85.6030033737467	79.6151968853772
6836	1648549015539	9.72965806513709	-0.0286433727841251	0.75289536402517	-0.00382994290045171	-0.00375069416479277	-0.0539021659729997	0.0506585254606971	0.0250961491544963	-0.0117814229498193	0.327880859375	-0.30419921875	-0.036376953125	0	0	0	0.422985867640998	-0.531676938551446	0.45865047624239	0.572749796535261	0.0139187473103819	0.0756002715814726	0.997041056030351	-0.975167596213045	0.221445392837242	-0.00317762289008788	-0.221030377480974	-0.972237901404778	0.0768051775771078	-2.3691190340993	-85.5912736104165	79.5681091495091
6837	1648549015540	9.70027096017838	0.0206163999000792	0.7765220767926	-0.0556938950183913	-0.0159702061279725	-0.081535802659749	0.0490562535728562	0.0265413945238736	-0.0118288643139329	0.33203125	-0.292724609375	-0.044189453125	0	0	0	0.423091380699249	-0.531472862785456	0.458805521220227	0.572737089246428	0.0140681796409357	0.0758267028675633	0.997021763781426	-0.975273052147889	0.220982354551679	-0.00304511591549383	-0.220555117999408	-0.972325619383255	0.0770605594012694	-2.26291585888727	-85.5769174435652	79.4893851996239
6838	1648549015541	9.70255722263857	-0.00201529985028487	0.780840271730779	-0.0321776789102932	-0.0228946988507358	-0.0788406452039929	0.0460048117640701	0.0263303788666273	-0.0133407372337736	0.32568359375	-0.299560546875	-0.0283203125	0	0	0	0.42319864734054	-0.53126311294264	0.458930724263043	0.572752127925364	0.01428419030779	0.0760474362254737	0.997001880314568	-0.975366759342472	0.220570990433072	-0.00285007879514915	-0.220126433390031	-0.972401781992869	0.0773248194312674	-2.11088235767269	-85.5621698284093	79.3619345417285
6839	1648549015542	9.67306024171073	0.0453590662203279	0.780233247406396	-0.0769338715869945	-0.0118354415815728	-0.108417367427787	0.0412804154955092	0.0293104542704834	-0.0088485545736965	0.32373046875	-0.303466796875	-0.036865234375	0	0	0	0.423267732431223	-0.531075025957241	0.459079230660744	0.572756495784191	0.0144111535609101	0.0763073789055516	0.996980191667622	-0.975455066856649	0.22018137331694	-0.00275234226751447	-0.219726491795448	-0.972469715090825	0.0776074869740929	-2.03113818625431	-85.5461388790641	79.3052745251731
6840	1648549015543	9.67289445557106	0.0483078220709495	0.807236005968197	-0.0855347157101346	-0.0326683639188191	-0.106479723162034	0.0353376315624849	0.0259532518418327	-0.00870748549413613	0.32666015625	-0.302001953125	-0.0400390625	0	0	0	0.423300240234756	-0.530825598747939	0.459387290420166	0.572716690634652	0.0143750022286196	0.0768003304325929	0.996942861229455	-0.975594744323636	0.219560448035232	-0.00284684152475101	-0.219107859646856	-0.972571292453162	0.0780821806621795	-2.0880537100438	-85.5186804815914	79.3984062994598
6841	1648549015544	9.69447829874794	0.0762074819722709	0.807548442270365	-0.111077221489882	-0.0231964605421357	-0.0849962280295209	0.0339679850703067	0.0227731003240811	-0.0101153485579125	0.32666015625	-0.30126953125	-0.03173828125	0	0	0	0.423366449016873	-0.530669652205968	0.459500033702782	0.572721825235937	0.0144988785094794	0.0769959434855444	0.996925978801204	-0.975666848507383	0.219241137747972	-0.00274303529816972	-0.218778388433683	-0.972627856996573	0.0783011401488815	-2.00635776538339	-85.5063175994515	79.3356814751007
6842	1648549015545	9.67004494643638	0.0767540255968433	0.83428870127897	-0.117430880578535	-0.0478550507088634	-0.107244689825576	0.0263436715288831	0.0223830740964163	-0.0100796368093026	0.325439453125	-0.302490234375	-0.0439453125	0	0	0	0.423384982071556	-0.530502432938388	0.459691307966149	0.572709548534936	0.0145021400536453	0.0773256767843817	0.996900410093055	-0.975752729018528	0.218858116673279	-0.00278147067599699	-0.218394825366263	-0.97268795843069	0.078624651205438	-2.02608336577011	-85.4876581803669	79.3777852826475
