// Start Time : 29/03/2022 10:16:16																																
// Update Rate : 100Hz																																
// Filter Profile : 46.1 human																																
// Firmware Version : 4.4.0																																
PacketCounter	Time_Of_Arrival	Acc_X	Acc_Y	Acc_Z	FreeAcc_X	FreeAcc_Y	FreeAcc_Z	Gyr_X	Gyr_Y	Gyr_Z	Mag_X	Mag_Y	Mag_Z	VelInc_X	VelInc_Y	VelInc_Z	OriInc_q0	OriInc_q1	OriInc_q2	OriInc_q3	Mat[1][1]	Mat[2][1]	Mat[3][1]	Mat[1][2]	Mat[2][2]	Mat[3][2]	Mat[1][3]	Mat[2][3]	Mat[3][3]	Euler_X	Euler_Y	Euler_Z
6620	1648549015352	9.77026383188774	-0.0775039623436563	0.906574432707189	-5.20417042793042E-16	0	-0.000147465588783646	0.00651261622174565	0.0151362533353349	-0.00281145212330685	0.544677734375	0.4150390625	0.231689453125	0	0	0	-0.567855046424474	-0.362468984988563	-0.61975524977575	0.402567151599601	-0.0309606694064846	-0.0873265265860215	0.995698505926529	0.910645895778471	-0.413111846748689	-0.00791546446601987	0.412026078606351	0.906483689776219	0.0923137623432385	-4.90085229907949	-84.6837781773811	-109.52140757993
6621	1648549015353	9.79133430574328	-0.127640704750508	0.932257609182143	0	-1.38777878078145E-15	0.0237562951098678	-0.00588872599101245	0.00929742356985887	-3.7392574943476E-05	0.546142578125	0.4052734375	0.2236328125	0	0	0	-0.56566454693578	-0.364223318973308	-0.616774664547782	0.408600058037169	-0.026139225823921	-0.0919718900391933	0.995418460907745	0.916084764881123	-0.40077473297618	-0.0129737026545743	0.40013178382381	0.911548564175541	0.0947299885120129	-7.79840199205829	-84.5133244488957	-105.865619352307
6622	1648549015356	9.7665204960983	-0.174623433071212	0.8821202165262	-0.0796940089403472	-0.00210617631875715	-0.00518021450225703	0.00298608376522145	-0.001608742000541	0.00157015587963266	0.54638671875	0.41259765625	0.22216796875	0	0	0	-0.5668317873119	-0.363298289769379	-0.618281918577957	0.40551639510999	-0.0285163563795909	-0.0895888717321763	0.995570515574155	0.913304947401511	-0.407141611895284	-0.0104776388195439	0.406276864306541	0.908960693278354	0.093432155086883	-6.3985122776483	-84.6052085754536	-107.656399713908
6623	1648549015357	9.79203115280033	-0.151299142760285	0.883353244986725	-0.0586627331030546	-0.0126551595896349	0.0200882892942609	0.0213823677660144	-0.000490338302943955	-0.00112765035962464	0.550537109375	0.410888671875	0.232421875	0	0	0	-0.566787897027608	-0.363368579484383	-0.618243970851477	0.405572617088879	-0.0285246641013991	-0.0895798244915836	0.995571091676511	0.913391476539033	-0.406948255422359	-0.0104464345374076	0.406081708679113	0.909048168389748	0.0934295104530481	-6.37979279951158	-84.6055596717479	-107.662896774512
6624	1648549015358	9.76879709932307	-0.125597655833385	0.882822119019228	-0.0348564228632333	-0.0214010355549819	-0.00336152074032014	0.0274252837996945	-0.000656006658535036	0.00203819126224884	0.54638671875	0.407958984375	0.220947265625	0	0	0	-0.566739116891586	-0.363449595778059	-0.618186409888255	0.405655922356844	-0.0285000920835271	-0.0895797506916494	0.99557180204004	0.913504162475094	-0.406695327971168	-0.0104429568179675	0.405829878017758	0.90916135997547	0.0934223294274213	-6.37817259691108	-84.605992622719	-107.648639747195
6625	1648549015359	9.7731440265983	-0.0520610326968282	0.85935228652686	0.02274928493294	-0.0727836569396033	-0.00199289834741201	0.0242686081958346	-0.00516134680019245	0.00194431231084233	0.54541015625	0.415283203125	0.224609375	0	0	0	-0.566709375652223	-0.363529564649654	-0.618123733725299	0.405721319354797	-0.0284613891377423	-0.0895407283156236	0.995576419618834	0.913603178770542	-0.406472933293273	-0.0104396475191527	0.405609641242305	0.909264654802259	0.0933734783470026	-6.3794764328678	-84.608807780653	-107.633363411426
6626	1648549015361	9.798425378537	-0.0528698223276328	0.836053395240248	0.011779153977444	-0.0960547426634775	0.0210075221144308	0.0184863051437135	0.00871326696858295	0.00194010519824249	0.54248046875	0.40673828125	0.22607421875	0	0	0	-0.56664914141024	-0.36356409725557	-0.618110275391502	0.405795003888936	-0.0284783307156328	-0.089625556097657	0.995568302214287	0.913678690327488	-0.406303124011042	-0.0104413725302546	0.40543832517548	0.909332189638668	0.0934597954515612	-6.37467750631219	-84.6038598908106	-107.62754442223
6627	1648549015361	9.79869747109784	-0.0048984654040679	0.887143550732809	0.0757953518619818	-0.0705651569419513	0.0255439332703187	0.0172508028108431	0.0224697222364559	0.00354586175232515	0.543212890625	0.418701171875	0.22705078125	0	0	0	-0.566551136101773	-0.36356177125018	-0.618135378002843	0.405895680105744	-0.0285370141065719	-0.0898442902138457	0.995546906148501	0.913749628393695	-0.406143070713855	-0.0104605316071957	0.405274296540338	0.909382103203649	0.0936852973344445	-6.37103265595738	-84.590839737108	-107.621277449559
6628	1648549015363	9.72760171348524	0.0469992180921145	0.887952959643822	0.124688425637564	-0.0871254701473853	-0.0457141641873395	0.00530329006533351	0.0349518077002742	0.00493772879302606	0.5419921875	0.410400390625	0.225341796875	0	0	0	-0.56644224775995	-0.363496721143864	-0.618213903959096	0.405986308416884	-0.0286365946613731	-0.0901729618044831	0.995514330587766	0.913772560916891	-0.406090502191381	-0.0104981400894896	0.40521556283241	0.909373048308206	0.0940266273406315	-6.37072987351601	-84.5710763064343	-107.618498583611
6629	1648549015348	9.74844231545559	-0.00407477970143139	0.915940955727639	0.0881140362618942	-0.0462914511115506	-0.0218148825327908	-0.0192182112890639	0.0354844514448511	0.0105786607829163	0.545166015625	0.4130859375	0.231201171875	0	0	0	-0.566390788728029	-0.363335316418311	-0.618327844795557	0.406029061321636	-0.0286837516126259	-0.0905385959449103	0.995479786353168	0.913697701700571	-0.406255698410954	-0.0106215542988325	0.405380996471863	0.909262926855017	0.0943778445744949	-6.42121277331154	-84.5501965559493	-107.578848366203
6630	1648549015364	9.72055830061893	-0.0529820182939194	0.941645554098918	0.0541304123740517	-0.00351292792190316	-0.0466331903826607	-0.029989154026795	0.0266249455254156	0.00419831714810407	0.539306640625	0.412109375	0.22998046875	0	0	0	-0.566375568691499	-0.36318510235304	-0.61845055285056	0.405997795926321	-0.0287690097847019	-0.0907807849225161	0.995455269293834	0.91357746046445	-0.406524742263563	-0.0106704104358802	0.405645865019396	0.90911851978518	0.0946305932363855	-6.43341615928355	-84.5354258415401	-107.583740650956
6631	1648549015349	9.74342910998865	-0.10313644723845	0.919228338558358	-0.00165359662349911	-0.00748707039861865	-0.0254523191740414	-0.022689023520332	0.011198723556015	0.00269681227326603	0.543701171875	0.41064453125	0.22802734375	0	0	0	-0.566391890497071	-0.363084568942229	-0.618517988343982	0.40596221532318	-0.0287898122181004	-0.0908935547037128	0.995444377364085	0.913486176357725	-0.406728551051864	-0.0107187388527712	0.405849913534288	0.909016087576328	0.0947396443503796	-6.45493274917107	-84.5288765698653	-107.575184983538
6632	1648549015365	9.71892820440313	-0.102307247110347	0.919649650526862	-0.000470063293908987	-0.00642766574044315	-0.0498114575075821	-0.0224865742047687	0.0173237016265217	-0.000305249767226161	0.545166015625	0.4140625	0.22314453125	0	0	0	-0.566380962060395	-0.36299005721988	-0.61861079558776	0.405920568285629	-0.0288821961164269	-0.0910323757321097	0.995429015709338	0.913395007038324	-0.406933421204361	-0.0107122277969601	0.406048494474432	0.908910500145907	0.0949016483500986	-6.44012498609874	-84.5196529343389	-107.602873837576
6633	1648549015366	9.74214960264722	-0.10397222967684	0.946869542209438	0.00776154200357818	0.0150883459550125	-0.0240938591234663	-0.0147537464168272	0.0217205568042159	-0.000119274133995047	0.538818359375	0.4072265625	0.224365234375	0	0	0	-0.566343502073255	-0.362900673734062	-0.618699320220762	0.40591783629342	-0.0289714956765381	-0.0912293018258586	0.995408392031448	0.913335055695029	-0.407067622364464	-0.0107250576269863	0.406176966945227	0.90883065821467	0.0951162773255299	-6.43334605897265	-84.5072940911396	-107.618176141597
6634	1648549015367	9.74191501247672	-0.104096500998335	0.949266602136923	0.00756998499531203	0.0152478052729561	-0.0240939562017957	-0.0130861870320679	0.0277873940076804	-3.84410668108094E-05	0.54150390625	0.40625	0.225830078125	0	0	0	-0.566281278438146	-0.362812908508897	-0.618804409807682	0.405922910799995	-0.0291042083562379	-0.0914654591614543	0.9953828483736	0.913282089818574	-0.407186767813949	-0.0107126343093958	0.406286560782626	0.908753545191221	0.0953846142195486	-6.40802941332067	-84.4920252505642	-107.651012877966
6635	1648549015368	9.74161246384525	-0.104391575140135	0.952334332536061	0.00756998198237612	0.015247809136177	-0.0240939562054798	-0.0190701883829412	0.0355375033602664	0.00295799432201781	0.53759765625	0.412109375	0.22607421875	0	0	0	-0.56621538414385	-0.362673394991245	-0.618933609240782	0.405942526321813	-0.0292216081645949	-0.0918004345939173	0.995348571016527	0.913205457248806	-0.407357347777977	-0.0107603002881808	0.406450354246708	0.908643313638339	0.095736294648714	-6.41285728901608	-84.4716018604894	-107.657139803995
6636	1648549015351	9.76760085420099	-0.105512971954978	0.908115412891165	-0.0132151407831071	-0.0303243901595147	-0.00245099517666247	-0.0236670886579995	0.0386626963781722	0.0074713682927074	0.546875	0.411376953125	0.234619140625	0	0	0	-0.566153491618444	-0.362508629034039	-0.61907435039584	0.405961410094697	-0.0293311148843394	-0.0921695403414349	0.995311238524358	0.91311164461918	-0.407565654779574	-0.0108333515106512	0.406653181667742	0.908512527639188	0.0961154356082122	-6.43077459217863	-84.4494433656363	-107.652632173403
6637	1648549015370	9.74073882033956	-0.130194351545004	0.934773283130453	-0.0246400164894325	0.00262694526257864	-0.0263637828469818	-0.0191894616740982	0.0370051729190751	0.0106018390634556	0.54736328125	0.416015625	0.229736328125	0	0	0	-0.566097100868552	-0.362344097642155	-0.61919235126019	0.406006969685239	-0.02938482591046	-0.0925489339907451	0.995274447990799	0.913036706758966	-0.407730190941805	-0.0109573493738843	0.406817531722705	0.908400124511075	0.0964816545842265	-6.47927749007423	-84.4276924825483	-107.614946636801
6638	1648549015352	9.69070350959779	-0.12944601330677	0.960096315187491	-0.0124398916016122	0.026957854244717	-0.0737247011281727	-0.0149355917888096	0.023165080953638	0.0105741041314177	0.538330078125	0.40869140625	0.231689453125	0	0	0	-0.566073166552737	-0.362228884411707	-0.619265120479726	0.406032161243464	-0.0293981082898395	-0.0927870072705542	0.99525188897623	0.912979213733755	-0.407856238667625	-0.0110563949817725	0.406945581766253	0.908319249967583	0.0967028108136162	-6.5225184881819	-84.4143971561783	-107.579988688006
6639	1648549015371	9.71374076766228	-0.155985873074994	0.962361590238504	-0.0362176129626884	0.0357300168088277	-0.0502776901080377	-0.00902244437513747	0.0123637643658049	0.00755176903759506	0.54638671875	0.4130859375	0.221435546875	0	0	0	-0.566066876490601	-0.36215447195052	-0.619301122139391	0.406052397977535	-0.0293794828737361	-0.0929301099414891	0.995239087180731	0.912944712918024	-0.407931177085867	-0.0111402834958131	0.407024320085545	0.908270966962834	0.0968248595728303	-6.56336449716839	-84.4068663325439	-107.54414174969
6640	1648549015354	9.76451451590315	-0.134136035627651	0.94150959944828	-0.0262541285176223	0.00196098183275969	-0.00200525997048473	-0.00743814568623284	0.0108378928220258	0.00299150257104154	0.54638671875	0.40380859375	0.2275390625	0	0	0	-0.566052529248874	-0.362104946086042	-0.619340413516677	0.406056639320144	-0.0294050795899659	-0.0930337326443983	0.995228650052117	0.912915414986523	-0.40799602736811	-0.0111663213202052	0.407088180096516	0.908231229501657	0.0969290843019552	-6.57155870519719	-84.4007340264645	-107.540130997535
6641	1648549015356	9.76541157488087	-0.134093928466987	0.918314861344912	-0.0358586411068477	-0.0204433656648989	-0.00336309061408002	-0.00279082562434196	0.0137800812268918	0.00311218325284665	0.539306640625	0.40966796875	0.229736328125	0	0	0	-0.566021155972311	-0.362059518646613	-0.619378146551813	0.406083325837435	-0.0294327669371527	-0.093171580855304	0.995214935956724	0.912904969955842	-0.40801847486838	-0.0111999998216094	0.407109602024253	0.908207014224733	0.0970659118983033	-6.58199528227864	-84.3926865106231	-107.531250893562
6642	1648549015357	9.76641072122086	-0.109876116431567	0.920315658524056	-0.0134531446500486	-0.0300133757251006	-0.00245036222755601	0.00195615159719205	0.0182722290186635	0.000195030153265727	0.549560546875	0.4091796875	0.235595703125	0	0	0	-0.565962892859079	-0.362030653440428	-0.619424236933083	0.406119963281722	-0.0295051586612708	-0.0933292648685304	0.995198017447519	0.912912928567759	-0.4080007627871	-0.0111965360260479	0.407086514719182	0.908198781040937	0.097239619752159	-6.56832593997785	-84.3827744591422	-107.543854064424
6643	1648549015358	9.79182898420521	-0.062598871072486	0.948894752999298	0.0395836156627246	-0.0278145940925942	0.025091530347396	0.000714344251453844	0.0290009482511315	-0.00126673416421985	0.542724609375	0.39794921875	0.2265625	0	0	0	-0.565869326648338	-0.361977552219017	-0.619507576182172	0.406170555187074	-0.0296347705151625	-0.0935874848490446	0.995169916675612	0.912915459793	-0.407995463577106	-0.0111832451210634	0.407071423275386	0.9081745891513	0.0975283136961709	-6.54134549795042	-84.3663494679194	-107.570554151404
6644	1648549015359	9.81473372884921	-0.08811685027129	0.952691056897634	0.0157764245989157	-0.0188753494761586	0.0485385624106875	-0.00523909810650166	0.0367633416259847	0.000201122111300921	0.535400390625	0.40966796875	0.223876953125	0	0	0	-0.565769045914637	-0.361891787640416	-0.619618519564787	0.40621744292387	-0.0297855514984684	-0.0939053583764432	0.995135470471295	0.912894044047084	-0.408043446205634	-0.0111808028330253	0.407108444109543	0.90812021763466	0.0978794414465324	-6.51667047779151	-84.3462804378776	-107.598346409487
6645	1648549015361	9.76553986449939	-0.110015007575912	0.929494927480273	-0.0134817127091602	-0.0298478728247495	-0.00244989650315119	-0.00984375082544906	0.0383742219014638	0.00317117551194913	0.548583984375	0.409912109375	0.231201171875	0	0	0	-0.565675892521806	-0.36177434581288	-0.61973842976638	0.406268859257048	-0.0299127972352713	-0.0942667978794956	0.995097480340046	0.912854901716269	-0.40812987341928	-0.0112220691204254	0.407186877212593	0.90804392913576	0.0982602146626422	-6.51538715197963	-84.324228669142	-107.605305445616
6646	1648549015375	9.74086666531074	-0.109074902004739	0.931675079718318	-0.0121640624257253	-0.0287163536769545	-0.0268084549478367	-0.00392900055913505	0.0275727732014937	0.000151682291177722	0.544189453125	0.406494140625	0.232666015625	0	0	0	-0.565601772750829	-0.361715025061375	-0.619820109534639	0.40630026719464	-0.0300294550773664	-0.094492833422421	0.995072528140316	0.912839471043719	-0.408164667044825	-0.0112118098811156	0.407212882817304	0.908004795696581	0.0985137506119358	-6.49287229094419	-84.3097912507029	-107.630054296192
6647	1648549015362	9.73960902549406	-0.109561202842026	0.958144629824263	-0.00255984274024207	-0.00631161264469313	-0.0254516856265976	0.00337644382666366	0.0151722338869865	0.00172893604503141	0.54541015625	0.4091796875	0.22900390625	0	0	0	-0.565551011947352	-0.361689796999611	-0.619853393818192	0.406342606434246	-0.0300754781630997	-0.0946376258940697	0.995057377932748	0.912853748710718	-0.408132353885209	-0.0112256481731816	0.407177478598768	0.908004240891667	0.0986650872634131	-6.49093156117539	-84.3010430814188	-107.630059025878
6648	1648549015363	9.74056513010662	-0.109313980644904	0.934794098288824	-0.0121782204021977	-0.0284404501497873	-0.0268076668159853	0.000110583805156898	0.00609074042538006	0.00158112556311462	0.535888671875	0.40576171875	0.2275390625	0	0	0	-0.56554006762492	-0.361682277555531	-0.619862534500913	0.406350587959645	-0.0300872631513043	-0.0946713712822224	0.995053811638149	0.912854650112184	-0.40813025953419	-0.0112284914889779	0.407174587081055	0.908001664487516	0.0987007240260891	-6.49023740535113	-84.2989857449419	-107.630642154078
6649	1648549015364	9.74158743128945	-0.109164327792045	0.910778869778906	-0.0217829390157466	-0.0508448119457959	-0.028163818097644	-0.00460584069441855	0.00161074797978381	0.00296797924644689	0.54052734375	0.40087890625	0.232666015625	0	0	0	-0.565549794138135	-0.36165634862432	-0.619869390633039	0.406349670119545	-0.0300667518881009	-0.0946980977754109	0.995051888450355	0.912836791828344	-0.408169262186923	-0.0112625436877615	0.407216136609829	0.907981345449069	0.0987162317000763	-6.50873752936282	-84.2978765967168	-107.614701475258
6650	1648549015365	9.71823391844029	-0.107905202253804	0.885866690083894	-0.0299733553612973	-0.0720089016010554	-0.0538764679745931	0.00472485148580023	0.00902036004852382	0.00323252368403216	0.541015625	0.404541015625	0.22998046875	0	0	0	-0.565527200457977	-0.361653205433965	-0.619872628450691	0.406378972191147	-0.0300702330060599	-0.0947569536669855	0.995046180244271	0.912855852889881	-0.408126179920411	-0.0112788788565599	0.407173148588717	0.907994571016438	0.0987718890830029	-6.51445527880569	-84.294585803824	-107.606348778725
6651	1648549015366	9.74255176125899	-0.0853743603960241	0.913145568643422	0.000659332179437682	-0.0601483728435895	-0.0272481868316508	0.000401270745989506	0.0198102578364711	0.00323135203063569	0.541015625	0.406494140625	0.22802734375	0	0	0	-0.565470808881546	-0.361605042509842	-0.61992138029393	0.406425933952023	-0.0301214490281523	-0.0949500601582026	0.995026222963193	0.912858443692948	-0.408119506885362	-0.0113106090966829	0.407163554467899	0.907977397392469	0.0989691150686108	-6.51971779751874	-84.2830952286634	-107.600831021153
6652	1648549015367	9.74239956172867	-0.0615597090409186	0.940429410281674	0.0327518980607528	-0.0468233874969227	-0.0249766780307894	-0.00233022766671126	0.0305882034757835	0.000210787538785507	0.537353515625	0.404296875	0.23583984375	0	0	0	-0.565395849922198	-0.361551646645797	-0.619998501329094	0.406460081740073	-0.0302354696852189	-0.0951696819657518	0.995001782916721	0.912848884150033	-0.408141217519133	-0.0112987286028284	0.407176535521087	0.907944644896669	0.099215879396938	-6.49686851817456	-84.2690549411221	-107.625086237738
6653	1648549015368	9.73983624528436	-0.0863861379052412	0.967798855019614	0.0199526495708186	-0.0147597487740153	-0.0245368699204445	-0.00363941201769831	0.0397794473141431	0.00026098848039237	0.540283203125	0.408203125	0.2373046875	0	0	0	-0.565280375131862	-0.361458772586412	-0.620117015567503	0.406522496566623	-0.0303951145520442	-0.0955319335391904	0.994962203646768	0.912834135788588	-0.408174031011129	-0.0113049081034857	0.407197713095826	0.9078918493314	0.0996113064222125	-6.47480633839264	-84.2463899191005	-107.649356437829
6654	1648549015370	9.71514201284164	-0.061083072619121	0.995511137011067	0.0532845722448378	-0.000580939360170927	-0.0466279242308012	-0.00807708941957593	0.0414519772858462	-0.00440250485513982	0.5419921875	0.4072265625	0.22802734375	0	0	0	-0.565171301274949	-0.361378460474995	-0.620250488304528	0.406541929298686	-0.0306101198745667	-0.0958341908087677	0.994926544239972	0.912797129846331	-0.408258536053649	-0.0112413292644239	0.407264558125998	0.907821995553842	0.0999740170398061	-6.41553386012276	-84.22604553467	-107.713850538969
6655	1648549015371	9.73907060536968	-0.0862788796721207	0.975482813591989	0.0198994437690843	-0.0142103236787122	-0.0245359485386967	-0.0129676164049912	0.035396972792489	0.00307035244742245	0.542724609375	0.411376953125	0.22705078125	0	0	0	-0.56509332892588	-0.361257509450854	-0.620367864464793	0.406578718341511	-0.0307265507904823	-0.0961683252386001	0.994890713745647	0.912745159698823	-0.408373515314281	-0.0112847435162529	0.407372253010549	0.907734942155837	0.100325082937666	-6.41775562551321	-84.2056752439945	-107.719097753298
6656	1648549015373	9.7353484176864	-0.13597154223268	1.00203237727315	-0.0154606486856872	0.0282262984145597	-0.0250150359712258	-0.0208076897683176	0.0279386697893716	0.00435657672624774	0.549560546875	0.40625	0.230224609375	0	0	0	-0.565065146223882	-0.361152249370804	-0.620465150474071	0.40656294757956	-0.0308159003568063	-0.0963671836946721	0.994868708017272	0.912665378093862	-0.408551244859657	-0.0113043333467021	0.407544215900542	0.907633872346324	0.100540866594783	-6.41512084790008	-84.1931998855741	-107.733022197023
6657	1648549015374	9.73507927127846	-0.136498998194686	1.00457225528947	-0.0154634438503215	0.0282262924425389	-0.0250150403696505	-0.0132194279508989	0.0247167710962285	0.00297281309408544	0.541259765625	0.41552734375	0.2294921875	0	0	0	-0.565020615103754	-0.361052645996293	-0.620552888083148	0.406579394975341	-0.030889800178521	-0.0966036593227673	0.994843481785141	0.91261241182542	-0.408668364801123	-0.0113469552288353	0.407657216331466	0.907556004121083	0.100785382653701	-6.42361444079344	-84.1789315575106	-107.732097029952
6658	1648549015377	9.73487992874588	-0.136974164968418	1.00643745033382	-0.0155555136827541	0.0288305015271571	-0.0250169473678596	-0.0089312156103186	0.0139137574440602	0.00450110397831397	0.54150390625	0.40625	0.229736328125	0	0	0	-0.565011351142678	-0.36100830023931	-0.620588303457622	0.406577591426089	-0.0309136704601707	-0.0966870203901369	0.994834642072117	0.912582170357874	-0.408735338616969	-0.0113668513927142	0.407723101287617	0.907516965711247	0.100870360476498	-6.42940790377835	-84.1739399252543	-107.730599693041
6659	1648549015379	9.71038884840999	-0.136259395065494	1.00653171739448	-0.0141830706839952	0.0297109016126305	-0.0493764323839372	-0.0104934284784933	0.0109116754267216	0.00291204933355031	0.550537109375	0.409912109375	0.229248046875	0	0	0	-0.565004005783565	-0.36094550896786	-0.620632153007301	0.406576614745585	-0.030931859581091	-0.0967977226710875	0.994823311421956	0.912540356416802	-0.408827591795906	-0.0114060552802753	0.407815298846858	0.907463608676432	0.100977626008915	-6.44460064023011	-84.1675479299283	-107.721359528421
6660	1648549015381	9.71252465641048	-0.135703119212465	0.958812637403463	-0.0333516950284732	-0.0146306159111688	-0.052075407432655	-0.0180487691769737	0.0111209292624885	-0.000311912668814167	0.544677734375	0.406005859375	0.228515625	0	0	0	-0.565015142031998	-0.360884387299583	-0.620685044657294	0.406534652418141	-0.0309749313156449	-0.096849671087375	0.994816915236295	0.912470244476192	-0.408984070773332	-0.0114053846596065	0.407968879420417	0.907387552848253	0.101040696555933	-6.44023617795315	-84.1639427103881	-107.735567859073
6661	1648549015382	9.73677799180021	-0.137100082860601	0.960974107608178	-0.0347274650264618	-0.015503451641883	-0.0277158814055536	-0.0196090960509096	0.0111447050202479	0.00117946014568301	0.541748046875	0.411376953125	0.230224609375	0	0	0	-0.565022545359195	-0.36079778332446	-0.62074938430951	0.406502994654819	-0.0310096771449606	-0.0969552035160177	0.994805553077853	0.912390731091786	-0.40916054976964	-0.0114367097542125	0.408144035532998	0.907296717189792	0.101148965567943	-6.4509211342397	-84.1575438799856	-107.736100719851
6662	1648549015384	9.73664255298056	-0.137228515663258	0.962327172270468	-0.034641529746145	-0.0150450873722327	-0.0277148612900771	-0.0117686821412417	0.0170905387410354	-0.00163989365683763	0.543701171875	0.407958984375	0.228271484375	0	0	0	-0.565001198533858	-0.3607464249651	-0.6208094999589	0.406486441706219	-0.0310848367286403	-0.0970569642872487	0.994793284360574	0.912345614175593	-0.409261579167832	-0.011421038114465	0.408239161791361	0.907240268892644	0.101271325060406	-6.43443753090175	-84.1506423352761	-107.758919068639
6663	1648549015385	9.73535368172879	-0.113935217210434	1.01329088314438	0.00696921014154295	0.0201134993713922	-0.0241022986965387	-0.00882406760861169	0.0184900389752971	0.00454791979639715	0.545166015625	0.41064453125	0.22802734375	0	0	0	-0.564969960020403	-0.360668964208119	-0.62086819910498	0.406508944393265	-0.031118844805637	-0.0972426918725037	0.994774083083869	0.912311213029547	-0.409336752770633	-0.011474903561691	0.408313443421251	0.907186464685504	0.101453685063175	-6.45300650375081	-84.1398572629817	-107.745304122607
6664	1648549015385	9.73627402442059	-0.137689181569221	0.965983129205116	-0.0344985495717334	-0.0145483545127958	-0.0277136049914954	-0.00555947044034735	0.0215213246749174	-0.00145568868741584	0.547607421875	0.4091796875	0.2314453125	0	0	0	-0.564923925375603	-0.36062906861322	-0.620925605593493	0.406520633827775	-0.0312038656209686	-0.0973821634004682	0.994757776054932	0.91229411958258	-0.40937529828685	-0.0114588187697679	0.408345145857465	0.907154110062892	0.101615266818764	-6.4338763435434	-84.130713354858	-107.766856910189
6665	1648549015386	9.75809087795184	-0.115691847589668	1.04334878878845	0.0153414783513771	0.042145613946936	0.00160254803640214	-0.00835710747149999	0.0322754275588142	-0.00142050330090675	0.545654296875	0.408203125	0.2265625	0	0	0	-0.564838208752397	-0.360542070587401	-0.621034361642136	0.406550777799869	-0.0313485260074107	-0.0976681308711748	0.994725191261031	0.912259880193047	-0.409451760813742	-0.0114527968939824	0.408410554353498	0.907088855503505	0.101934426539866	-6.41055723119842	-84.1124843396488	-107.79506446223
6666	1648549015387	9.7124887082309	-0.112225913249289	0.971147163221917	-0.0104724814396931	-0.0228837151844949	-0.0511544840231419	-0.00842898151562556	0.0337611615238086	0.00317222873958616	0.548828125	0.40283203125	0.23486328125	0	0	0	-0.564770474470484	-0.360451661362992	-0.621119809103721	0.406594507742053	-0.0314304348807659	-0.0979428944394279	0.99469559021443	0.912232717686032	-0.409511012189315	-0.0114978119153428	0.408464926947668	0.907032480302944	0.102217821974088	-6.41784958635593	-84.0959731486173	-107.79173274424
6667	1648549015387	9.75971235470127	-0.091386435640668	1.02587787710314	0.0283931852536633	0.0105363526449458	0.00117243530275601	-0.011479084627965	0.032322492236235	0.00156029665944043	0.53955078125	0.410888671875	0.234130859375	0	0	0	-0.564696414577258	-0.360346546270341	-0.62122803678907	0.406625198754117	-0.0315478142035308	-0.0982411424936518	0.994662462014387	0.91218675323029	-0.409612628658425	-0.011524828619937	0.40855851802424	0.90695433863292	0.102536651909254	-6.41296809063166	-84.0775489365757	-107.803190215159
6668	1648549015388	9.70609279030776	-0.139018394035353	1.07376977885046	0.00570864436042675	0.0766076458048867	-0.0466931297419322	-0.0149267270239696	0.017124566645012	0.00286190459388179	0.53662109375	0.412353515625	0.23486328125	0	0	0	-0.564689237457847	-0.360258326264763	-0.621290127374057	0.406618471154122	-0.0315749680311199	-0.0983880843793991	0.994647076226531	0.912124082564557	-0.409750714546392	-0.0115762659993951	0.408696316841247	0.906876031649792	0.102680006912374	-6.43243272725593	-84.0690115414772	-107.792614008767
6669	1648549015389	9.68279789901256	-0.161809186813229	1.02441427240262	-0.0345243374886254	0.0423374933846893	-0.0746589404277174	-0.0228410879681068	0.00510222411964876	0.00255928403298483	0.54296875	0.414306640625	0.234130859375	0	0	0	-0.564724628096821	-0.360170271275232	-0.621339974135456	0.406571158165191	-0.0315719755382454	-0.098443780802291	0.994641660288751	0.912031870792037	-0.409954538075483	-0.0116251181024371	0.408902282972583	0.906777866256487	0.102726940220867	-6.4564226094858	-84.0660092128887	-107.781602582276
6670	1648549015390	9.73153857881474	-0.164549455243708	1.02642706649858	-0.0374809451492901	0.0406178817514681	-0.0259403319786013	-0.0185905749796129	-0.0102524201737043	0.000985621575295503	0.543701171875	0.41162109375	0.23388671875	0	0	0	-0.564787914678904	-0.3601387189718	-0.621346335540052	0.406501470896424	-0.031542331183399	-0.0983524064998388	0.994651640263669	0.911960390832696	-0.41011331451279	-0.0116324894845638	0.409063964308508	0.906715982761429	0.102629429060013	-6.46656828645491	-84.0715427947022	-107.781423177405
6671	1648549015391	9.73277934481299	-0.188219686704163	0.976574825359784	-0.0790964462712722	0.00547471757556539	-0.0295471404628618	-0.0107117410124184	-0.0012678528756758	-0.000266651995692598	0.536865234375	0.40185546875	0.225341796875	0	0	0	-0.564813044275533	-0.360109488178708	-0.621362352545247	0.406467967224121	-0.0315400332737915	-0.0983387121158883	0.994653067154812	0.911916857278769	-0.410209896288719	-0.0116398624395124	0.40916118060234	0.90667377743386	0.102614763079747	-6.47154916008892	-84.0723343814808	-107.78252941909
6672	1648549015392	9.7339363629316	-0.163734973363109	0.977084296964587	-0.0563994492783184	-0.00413457826625787	-0.0286277759600235	-0.00141584292630057	0.00159076666240394	-0.00307167159790378	0.53955078125	0.404541015625	0.233154296875	0	0	0	-0.564814566082672	-0.360108021776184	-0.62136483649799	0.406463354507037	-0.03154409476746	-0.0983355595065696	0.994653250043366	0.911912583756188	-0.410219508190661	-0.0116359222636525	0.409170391979204	0.906669770553944	0.102613437186573	-6.46945995360586	-84.0724358489466	-107.785209298543
6673	1648549015393	9.73504371218799	-0.139013964014084	0.978116735731989	-0.0340007137810759	-0.0137779860806687	-0.0277107473908167	-0.00577395194292455	0.00934432701648947	-0.00462600835592078	0.54345703125	0.4140625	0.229248046875	0	0	0	-0.56478885412783	-0.360085021354156	-0.621410697237425	0.40644934863799	-0.0316249544894516	-0.098399933059243	0.99464431603839	0.911887959456081	-0.41027540877626	-0.0115947553876284	0.409219026503615	0.906637492125386	0.102704655298698	-6.44108698374231	-84.0674812402301	-107.816991412126
6674	1648549015394	9.78479055922903	-0.116680214494443	0.982199954912548	-0.0140292568456178	-0.0250865447342548	0.0219265564161564	-0.00868036173878947	0.0170328392569035	-0.00309275483859884	0.546142578125	0.409423828125	0.23291015625	0	0	0	-0.564757616201979	-0.360032270584619	-0.621467494446898	0.406452644751437	-0.0316901650328423	-0.0985322797076705	0.994629138571659	0.911856147272291	-0.410346023424492	-0.0115977472571205	0.409284864271726	0.906591159738123	0.102851198159085	-6.43363242886153	-84.0590735793712	-107.828941713372
6675	1648549015395	9.73350366903271	-0.115290397721701	1.03075975253288	0.00791338289363383	0.0214867754169595	-0.0241059345853056	-0.0192499421311854	0.0264026219946657	0.00132797231690282	0.54443359375	0.399658203125	0.232177734375	0	0	0	-0.564716935286897	-0.359916084954537	-0.62157365513096	0.406449733716621	-0.0317867939237267	-0.0987754763145218	0.994601932941461	0.91177831013846	-0.410518051505374	-0.0116293830140167	0.40945074538106	0.906486808876484	0.103110389582347	-6.43495407897995	-84.0440324335601	-107.838619796897
6676	1648549015397	9.72970300855702	-0.164962412060578	1.05695499904143	-0.026594207671626	0.0632158850118587	-0.0245934338521323	-0.029818301248936	0.0327492441787701	0.00266460094941654	0.540283203125	0.407470703125	0.234375	0	0	0	-0.564704132357146	-0.359733325334209	-0.621695017753933	0.406443701443008	-0.0318255209121408	-0.099082257643559	0.994570179745465	0.911653839094781	-0.410790904402598	-0.0117520433901365	0.409724802620514	0.906329707711466	0.103402355085511	-6.48404510845021	-84.0265248064834	-107.807175421352
6677	1648549015397	9.7525654655532	-0.191002388533133	1.06066204837728	-0.0503696230801336	0.0720154068208155	-0.00114849330269706	-0.0252420241544203	0.0311277376663529	0.00123213512432822	0.540771484375	0.41064453125	0.230712890625	0	0	0	-0.564660959594406	-0.359588944845761	-0.6218252748784	0.406432182506551	-0.0319417634657725	-0.0993679299008334	0.994537952143567	0.911551284525424	-0.411017343535347	-0.0117897834244965	0.409943873508004	0.906195761312295	0.103707582909273	-6.48570855912114	-84.0088077323899	-107.819971601904
6678	1648549015398	9.72670598510396	-0.190745876004119	1.08655351935911	-0.0391205656730859	0.0951753026863185	-0.0241633361781872	-0.0223737255065199	0.0249362173371977	0.00276540732508256	0.538330078125	0.400146484375	0.23583984375	0	0	0	-0.564638220501263	-0.359454494479226	-0.621922428722638	0.40643405246065	-0.0319900818991612	-0.0996174138159612	0.99451144062032	0.911464398271686	-0.411207654798195	-0.0118707758214205	0.410133253154775	0.906082024708574	0.103952292695703	-6.51464056391439	-83.9942721037547	-107.803352254884
6679	1648549015398	9.7484736526448	-0.216997015180101	1.11359230961581	-0.0532968192221367	0.126382135982513	0.000625069128918909	-0.0224036958674313	0.0173669259487649	-0.00342109388900936	0.54443359375	0.40283203125	0.22802734375	0	0	0	-0.56462356128607	-0.359360194557816	-0.622018206160435	0.406391234911579	-0.0320927964553538	-0.0997590282066695	0.994493935982988	0.911371959549427	-0.41141282950882	-0.0118589654938038	0.410330603005323	0.905973299831075	0.104120969216007	-6.49776163058104	-83.9846939149637	-107.833148257271
6680	1648549015403	9.74955839446985	-0.216316343922801	1.09033659307716	-0.0620410142183501	0.103466183998384	-0.000706870851850283	-0.0149930922228074	0.00651709132956439	-0.00487989387321115	0.5380859375	0.4033203125	0.236572265625	0	0	0	-0.564644205135427	-0.359276189507409	-0.622060643820232	0.406371869929473	-0.0320776498740108	-0.0998494571805271	0.994485349454337	0.911302330974511	-0.41156504596612	-0.0119278874629316	0.410486401649291	0.905894198479966	0.104195082520036	-6.53059131208525	-83.9800010882625	-107.810141381553
6681	1648549015402	9.77509457772101	-0.216454094479716	1.06752432913518	-0.0730081357109688	0.080201775698735	0.0223099438590317	-0.0119375889124578	0.00191164177479221	-0.0094340461218928	0.549560546875	0.405517578125	0.2294921875	0	0	0	-0.564645785705168	-0.359262575803053	-0.622105995900711	0.406312279136545	-0.03217093701652	-0.0998264113403018	0.994484649660514	0.911250808895411	-0.411681466900444	-0.011846227169798	0.410593465728498	0.90584383720905	0.104211076625499	-6.48527709319309	-83.9796187880193	-107.862511323508
6682	1648549015403	9.72869995218002	-0.188436161805352	1.04185415266866	-0.0565154091594947	0.0492461582575626	-0.0268326866826545	-0.0102327367068928	0.00950401792616643	-0.00931151923776473	0.534912109375	0.419677734375	0.24072265625	0	0	0	-0.564637902821231	-0.359196835539784	-0.622154528781432	0.406307044428967	-0.0321972486900795	-0.0999392396961486	0.994472465956572	0.911203831372973	-0.411784437971205	-0.0118808390256581	0.410695647490942	0.905784590845801	0.104323344071696	-6.49712393833743	-83.9729666525478	-107.857291859414
6683	1648549015404	9.70428679634092	-0.210492293591178	1.01701015069904	-0.0871468539357203	0.0373879098752902	-0.0534452704315118	-0.00707899367707848	0.0170290314207865	-0.00609984971511198	0.537353515625	0.40380859375	0.224853515625	0	0	0	-0.564588780262248	-0.359158051242655	-0.622226867875457	0.406298816542041	-0.0323215617570471	-0.100066867932005	0.99445559910328	0.911173292221831	-0.411853531808231	-0.0118279279129912	0.410753634417535	0.905739085100872	0.10449000685913	-6.45820488566919	-83.9637696362421	-107.900437635875
6684	1648549015405	9.72611349570383	-0.235926913560036	1.0437432285607	-0.101252375173344	0.0680475784239763	-0.0286461549170731	-0.00242992694815581	0.0184604137573442	-0.00749655152401815	0.5390625	0.40966796875	0.231689453125	0	0	0	-0.564508563738454	-0.359124418598377	-0.62230108886264	0.406326332192117	-0.0324579864664986	-0.100257018420679	0.994432003392859	0.911172257406188	-0.411857127467358	-0.0117823549279067	0.41074517215404	0.905716421851636	0.104719466864651	-6.41955119942758	-83.9509269419016	-107.939244752142
6685	1648549015406	9.75028921306996	-0.236293775826517	1.04680655323971	-0.102622010168503	0.0671900130149235	-0.00428625437086794	0.00374428017444072	0.0198554102392911	-0.00885539704927322	0.53759765625	0.4033203125	0.231201171875	0	0	0	-0.564423259781354	-0.35912186942291	-0.622367838453295	0.406344854008216	-0.0326204868776655	-0.100398464514521	0.994412415529387	0.911185409308331	-0.411830685046473	-0.0116891709613043	0.410703121122148	0.905712777417477	0.10491573343997	-6.35738203642705	-83.9402862414792	-107.999508734604
6686	1648549015406	9.7269255918631	-0.209896376028666	1.04772326720009	-0.0780453367456359	0.0577672317537775	-0.0277277961124014	0.0263650696790139	0.0116476680401609	-0.00532668597886586	0.547607421875	0.398681640625	0.23876953125	0	0	0	-0.564332492482531	-0.359164142948021	-0.622348411193096	0.406463296540164	-0.032632852988315	-0.100547581619741	0.994396943245636	0.911299565620575	-0.411577413972234	-0.0117104230358913	0.410448777078936	0.905811357920815	0.105059912697736	-6.36017686923545	-83.9318943854037	-107.980908378993
6687	1648549015410	9.68285352589722	-0.157243629139378	0.998675099728748	-0.0497187225641793	-0.00457806230930863	-0.0773272281814385	0.0307536418989251	0.00844099110161158	-0.000670452380214605	0.545166015625	0.405029296875	0.230712890625	0	0	0	-0.564242461920236	-0.359245932895528	-0.622317740234365	0.406562952141247	-0.03267402022477	-0.100619056055496	0.994388361738437	0.911426294502716	-0.411297851288432	-0.0116699277876097	0.410164013647468	0.905930396379336	0.105145607728425	-6.33323850126067	-83.9272449291413	-107.990165523427
6688	1648549015408	9.65971119332237	-0.155303815212587	0.973291026096695	-0.0561530651904299	-0.0270768051505894	-0.103024716226123	0.0288691460320884	-0.00527005697006319	0.000666449502682308	0.542236328125	0.407470703125	0.228759765625	0	0	0	-0.564244824403355	-0.359266401791246	-0.622221098400339	0.406689482754932	-0.032462885501107	-0.100673137749826	0.994389803045338	0.911529968920732	-0.411062634320995	-0.0118586012857221	0.40995033458251	0.906031141849268	0.105110861355997	-6.43688830844314	-83.9280255806611	-107.872345463165
6689	1648549015408	9.68747941386891	-0.0594045322638065	1.00023458340298	0.0417215048785642	-0.0441612325969266	-0.0737159316861682	0.0118739470937202	-0.0110020403143456	0.00323702345054469	0.54150390625	0.40185546875	0.227783203125	0	0	0	-0.56426116171879	-0.359317346106539	-0.622161209437107	0.406713431834346	-0.0323870514825811	-0.100584995009169	0.994401195531899	0.911580287568323	-0.410950458304966	-0.0118785578162156	0.4098444317215	0.90609181631772	0.10500077232543	-6.45433269673274	-83.9341995875013	-107.847878872798
6690	1648549015410	9.71321903950734	-0.0606184513423062	0.975483599163473	0.0320465644685436	-0.0677139803943079	-0.0507073185879729	0.00384538877593408	-0.0215593399547266	0.00903659085303583	0.5380859375	0.407470703125	0.2373046875	0	0	0	-0.564362344959438	-0.359328174652067	-0.622031217783838	0.406762302328343	-0.0320791459928604	-0.100455118018444	0.994424304638754	0.911620283044984	-0.410855384611519	-0.0120959694405099	0.409779682187091	0.906149337691984	0.104756812986197	-6.58661071843511	-83.9467425306884	-107.710263368129
6691	1648549015411	9.73655415059447	-0.0629083106038231	0.999050396888476	0.0403120603039521	-0.046163840726101	-0.0250017628845569	-0.00515466562514493	-0.0197702716556452	0.00425109388038299	0.5419921875	0.407958984375	0.233154296875	0	0	0	-0.564442701124858	-0.359341358425701	-0.621974597747094	0.40672573686575	-0.0319572242357738	-0.100290939209574	0.994444801550899	0.911601367112287	-0.410895926191569	-0.0121443533455654	0.409831286382767	0.906149140788444	0.104556450543293	-6.62528376538492	-83.9578893596937	-107.674228909715
6692	1648549015412	9.75991398947574	-0.0889520277289136	0.998236337865947	0.0170487045929132	-0.0379635153394481	-0.00154179511623198	-0.0110401596220415	-0.0104689476676858	0.00420081714085248	0.539794921875	0.4111328125	0.228759765625	0	0	0	-0.564512780336619	-0.359281920760949	-0.621957050036711	0.406707819153476	-0.0318281413520879	-0.100271118828231	0.994450940040285	0.911548062882008	-0.411010502507494	-0.0122676764139369	0.409959874224456	0.906099370685949	0.104483644501887	-6.69657555067737	-83.9612316412423	-107.610522279141
6693	1648549015412	9.75877149114256	-0.113597915119376	0.997650413700618	-0.00534275680842637	-0.0282854916992467	-0.00243745858588085	-0.0195729286923893	0.00964563802079592	-0.00191020187152955	0.540283203125	0.40478515625	0.240234375	0	0	0	-0.564519719932504	-0.359207755376519	-0.622022138580259	0.406664153080562	-0.0318835048131926	-0.10034848944073	0.994441362166614	0.911467935291674	-0.411188110153264	-0.0122695152194215	0.410133691685967	0.90601021999509	0.104574548569379	-6.69180097540024	-83.956017490413	-107.626499280964
6694	1648549015414	9.68320725074023	-0.134818263432655	1.01920297532682	-0.0136829761966287	0.00604276500031711	-0.0750680760724354	-0.0208428831317896	0.017341325789833	-0.00491536188397851	0.544189453125	0.41064453125	0.240234375	0	0	0	-0.564505694069103	-0.35909827155356	-0.622116145468807	0.40663651370461	-0.0319601341714419	-0.100524242980856	0.99442115142271	0.911376319070287	-0.411390354178812	-0.0122955897184981	0.410331274535146	0.905898919892146	0.104763505461612	-6.69390740626905	-83.945029532729	-107.63726050577
6695	1648549015415	9.70500812682611	-0.160295062867186	1.04611382355508	-0.0278305065564329	0.0372414324012304	-0.0502558262576347	-0.0205829373411542	0.0219792905390075	-0.0109676403570368	0.547119140625	0.416748046875	0.245849609375	0	0	0	-0.564459866369598	-0.359021457212346	-0.622236463698033	0.406583860677851	-0.0321492469886186	-0.100676199805962	0.994399682577732	0.911289014853557	-0.411586314994835	-0.0122080594774615	0.410510362019398	0.905793027187559	0.104977305038279	-6.63326642962086	-83.9333793016196	-107.710005744221
6696	1648549015416	9.68061305355719	-0.182208648061276	1.02126865373176	-0.0582036984773573	0.0244846867577669	-0.0768529596064749	-0.0133885345367891	0.00499744240900046	-0.0094414621456292	0.540283203125	0.410400390625	0.22998046875	0	0	0	-0.564461136394172	-0.35893505358709	-0.622321968293745	0.406527515164757	-0.0322380098291369	-0.10077223032685	0.994387081732868	0.911191783284738	-0.411802013440802	-0.0121916282949175	0.410719179971713	0.905684304446673	0.105098505614066	-6.61684636693306	-83.9265517266759	-107.739976142268
6697	1648549015417	9.65501947426869	-0.156892314377868	1.06879521154429	-0.0152403114450335	0.0605307111456961	-0.0976246779219831	-0.003250047623854	-0.016634603183502	-0.00789254589911303	0.544921875	0.4091796875	0.233154296875	0	0	0	-0.564505281856489	-0.358981594261226	-0.622296674201276	0.406463837279314	-0.0322418714806018	-0.100588176144561	0.994405591568822	0.911176200343462	-0.411838727931688	-0.012115861639193	0.410753446304568	0.905688070472125	0.104932003475588	-6.58642937284458	-83.9365836359983	-107.772390802932
6698	1648549015421	9.682214739296	-0.180220863669859	0.993513083636061	-0.0671647320595936	0.00207053721229879	-0.0781964510370301	-0.00381901035744692	-0.0410478849817884	-0.00816710359267767	0.539794921875	0.411865234375	0.231201171875	0	0	0	-0.564636483892492	-0.359078382856945	-0.622174189099994	0.406383605033631	-0.0320760132347868	-0.100185268774368	0.994451628434269	0.911180290926958	-0.411830161049422	-0.0120994163607756	0.410757357574063	0.905736623070203	0.104496712044729	-6.60472570255208	-83.9616065725819	-107.753348882039
6699	1648549015419	9.68386103776681	-0.155135384811938	0.989192138512787	-0.0447639809745005	-0.00756995428942558	-0.0773050517375466	0.000292148937291738	-0.0594818615381177	-0.00673574048088843	0.551025390625	0.416015625	0.22998046875	0	0	0	-0.564808770184659	-0.359220170106895	-0.622018934803277	0.406256528879307	-0.0318933717308597	-0.0996171016935667	0.994514578017744	0.911179911707965	-0.411833004262621	-0.0120310057721337	0.410772420373499	0.905797996051105	0.103903845021732	-6.60485412974783	-83.9959904339606	-107.752966395523
6700	1648549015421	9.71005877277576	-0.179024342114716	0.93536388800495	-0.0870751702979721	-0.0433501293649711	-0.056523532501064	0.00337760884370017	-0.0580281177913584	-0.00664475606329271	0.541259765625	0.406494140625	0.2275390625	0	0	0	-0.564980504503427	-0.359388415602	-0.621820245286864	0.406173089721021	-0.0316409014350642	-0.0990384038394875	0.994580438135249	0.911228197277509	-0.411726775835126	-0.0120097688068104	0.410684825435221	0.905909739778383	0.103273992524274	-6.63315234043188	-84.0321753360716	-107.717700121941
6701	1648549015422	9.71167139303005	-0.154052217698232	0.931022708169629	-0.0646773654875598	-0.0529755902484573	-0.0556332177694152	0.00216952188901081	-0.0427488660129189	-0.00498381768932218	0.544921875	0.4140625	0.239501953125	0	0	0	-0.565099948940924	-0.359497866038368	-0.621704889511759	0.406086643929588	-0.0315113706579381	-0.0986276527075857	0.994625366477575	0.911236555678197	-0.411709843871726	-0.0119559213302092	0.410676238800096	0.905962245670597	0.10284666404165	-6.63086940474899	-84.0569858410307	-107.718594367633
6702	1648549015423	9.71312063294306	-0.12927526165612	0.928312638036936	-0.0416272605085163	-0.0627829167499747	-0.0547411703645775	-0.00506815853705396	-0.0242736199146168	-0.00343263183510776	0.540771484375	0.414306640625	0.231689453125	0	0	0	-0.565194928141514	-0.359525882269859	-0.621634544111167	0.406037346495234	-0.0313767329084371	-0.0984092711722906	0.99465125344481	0.9112180919504	-0.411749626458378	-0.0119930819083117	0.410727512511964	0.905967913592267	0.102591666362377	-6.66767815477798	-84.0713282199568	-107.684320066388
6703	1648549015424	9.73764158810896	-0.129943440764338	0.927836526415957	-0.042986813764671	-0.0636373491226361	-0.030380275442921	-0.00918032988822527	-0.00886089636774368	-0.00794609037352039	0.5458984375	0.40087890625	0.234619140625	0	0	0	-0.565226626604501	-0.359539759757962	-0.621641386796788	0.405970452067449	-0.0314137052508932	-0.0982931785670838	0.994661565644108	0.911178960719827	-0.411838306402676	-0.0119210285173303	0.410811490423461	0.905940207975424	0.102500043460965	-6.63384864929057	-84.0770512147332	-107.723459479003
6704	1648549015425	9.71223522764998	-0.152712454369413	0.925343711531874	-0.0631039126946854	-0.0532333947624752	-0.0556243177176423	-0.0107794998859944	-0.00734545932354835	-0.00338722360419278	0.539794921875	0.405517578125	0.225341796875	0	0	0	-0.565293645710641	-0.359504868096595	-0.621623366598155	0.405935627942656	-0.0313187201719483	-0.0982265082536045	0.994671147084853	0.911129778401794	-0.411945031563303	-0.0119924092578223	0.410927809567921	0.905898914916347	0.102398687868044	-6.67975918742465	-84.0823736006996	-107.684457330812
6705	1648549015426	9.73438347984574	-0.154402289070692	0.974144956466679	-0.0452550345100904	-0.00927631566347772	-0.0285734058148837	-0.00932162635075232	-0.0149637606492364	-0.00801520047032936	0.544189453125	0.412841796875	0.233642578125	0	0	0	-0.565344555029884	-0.359530776502003	-0.621613292289716	0.405857203576171	-0.0313309288067875	-0.0980549313068149	0.994687691361726	0.911089998751109	-0.412035102106395	-0.0119201010011092	0.411015069159037	0.905876539644663	0.102246309691859	-6.64965110873004	-84.0915750127432	-107.719941959297
6706	1648549015427	9.68588053915175	-0.151372627313668	0.969811834290797	-0.0418073096237512	-0.00709149171776169	-0.0772915454561804	-0.00045266554003433	-0.0273860604497086	-0.00794067616644147	0.545654296875	0.408935546875	0.237548828125	0	0	0	-0.565436476450949	-0.359625337398647	-0.621508545903788	0.405805785035408	-0.031206511861062	-0.0977329595110538	0.994723289283345	0.911114093995753	-0.411982563065411	-0.0118943453940812	0.410971119836619	0.90593522746125	0.101902415599289	-6.6576036531442	-84.1114220471496	-107.708483703439
6707	1648549015428	9.73611659739428	-0.152395858447623	0.944136055804672	-0.0541038393264194	-0.03122969685381	-0.0299127273657369	-0.000874756170584046	-0.045695404071921	-0.00814829869461508	0.542236328125	0.410888671875	0.235595703125	0	0	0	-0.565565509872985	-0.359740693094787	-0.621396361975108	0.40569551278994	-0.0310936098884351	-0.0972815744101618	0.994771070500337	0.911109288459018	-0.411995569267579	-0.0118116632014408	0.410990330674344	0.905977894975459	0.101444575547585	-6.64130938181988	-84.1381669341107	-107.725172251292
6708	1648549015428	9.73437267781841	-0.176578463466387	0.962772259996875	-0.0662524204893737	0.000454410245979975	-0.0294502073106742	-0.00583720121794411	-0.060860954630173	-0.00690007219635485	0.540283203125	0.409912109375	0.23095703125	0	0	0	-0.565777693528566	-0.35982243248729	-0.621249265497221	0.40555242411258	-0.0308456656038127	-0.0967392793361212	0.994831672569277	0.911057303066109	-0.41211009675068	-0.0118261864543642	0.411124233588055	0.905983874022973	0.100846837168852	-6.68845847833478	-84.1722640546877	-107.685068183859
6709	1648549015429	9.73609166397734	-0.19949724736882	0.907440968334386	-0.107875599114588	-0.0346731275276159	-0.0330203605205135	-0.00899329933045143	-0.0623460523141809	-0.00393430902633808	0.54541015625	0.40576171875	0.22802734375	0	0	0	-0.565982237628276	-0.359934038000096	-0.621096317206518	0.405402219691426	-0.0306262939171094	-0.0961551068236344	0.994895082685927	0.911020195727136	-0.412193057116421	-0.0117935000025848	0.41122285089498	0.906008321759108	0.10022318995647	-6.71126706615968	-84.2081552441144	-107.66715997466
6710	1648549015429	9.76321112469757	-0.175108043880668	0.879126001237305	-0.0953612250058486	-0.0672943357580176	-0.00910677662145254	0.00664267242616291	-0.0519601854036327	-0.0095754894887794	0.541748046875	0.4072265625	0.23583984375	0	0	0	-0.566144563015666	-0.360089390020134	-0.620910566558985	0.405322135218556	-0.0303886009393428	-0.0956122925158497	0.994954683617708	0.911062893953955	-0.412099195793597	-0.0117752319092111	0.411145881887676	0.906108460586333	0.0996319299254578	-6.74036762452917	-84.2420936355063	-107.631897277806
6711	1648549015430	9.76585685463058	-0.125516157744513	0.875840047876237	-0.0505565428504575	-0.0865645402276897	-0.00734394034950014	0.00383832615647049	-0.0381881295108491	-0.00643504970554511	0.533935546875	0.403076171875	0.2275390625	0	0	0	-0.566243641937078	-0.360199131359419	-0.620807586177852	0.405243956991073	-0.0302909465761035	-0.0952361095785199	0.994993739672703	0.911077981432638	-0.412067842180274	-0.0117049215940349	0.41111965448535	0.906162334724436	0.0992494474675082	-6.72607355457608	-84.2644417600701	-107.643867700968
6712	1648549015431	9.78829207761319	-0.150885204199146	0.897756690428301	-0.0641658097600783	-0.0554984658142549	0.0174803594243755	0.00418771413966871	-0.0229304763541073	-0.00626228107117143	0.530517578125	0.404541015625	0.22705078125	0	0	0	-0.566316306444581	-0.360250933276062	-0.620742151884975	0.405196602900253	-0.030203108106125	-0.0950132665893432	0.995017714130132	0.911077178293794	-0.412069956143642	-0.011693007996019	0.411127896709708	0.906184766157432	0.0990102122573875	-6.73537681828087	-84.2782031884793	-107.634579056732
6713	1648549015433	9.76402784320487	-0.173050551541148	0.870418522541667	-0.0948492950656122	-0.0673351480393387	-0.00910209058347	0.00762297771493671	-0.00470834493651174	-0.00446342077284235	0.539306640625	0.406982421875	0.23193359375	0	0	0	-0.566307193788255	-0.360298765666312	-0.620723421069394	0.405195503749624	-0.0302255320095208	-0.0949491127590829	0.995023157117966	0.911108244398529	-0.412002806400841	-0.0116384924651891	0.41105739769985	0.906222022191082	0.0989619234460069	-6.70750299321925	-84.2813320811233	-107.658042283256
6714	1648549015432	9.73753647343458	-0.148448115765511	0.943062358456662	-0.0421550507745448	-0.00865200887297732	-0.0285589863993536	0.00939123884180515	0.00442621059025217	-0.00585313320095279	0.54150390625	0.41259765625	0.230712890625	0	0	0	-0.566271876882646	-0.360341804018363	-0.620721450119063	0.405209608833113	-0.0302826687222424	-0.0949417326326218	0.995022124065478	0.911147451355651	-0.411917914372215	-0.0115738371920236	0.410966278255481	0.906261385707215	0.0989798914571937	-6.66937753871064	-84.2807381014187	-107.690632100783
6715	1648549015433	9.73645296463957	-0.148448593032838	0.967520888887522	-0.0325768157020782	0.0137852723593006	-0.0272186103051926	0.00457373986968992	-0.00312702962231076	-0.00298639229290119	0.548095703125	0.40771484375	0.2314453125	0	0	0	-0.566266388387299	-0.360372941050681	-0.620710000601639	0.405207127151535	-0.0302991229768097	-0.0948980646734793	0.995025788845728	0.911166399878592	-0.411877054928164	-0.0115361759690195	0.410923052260545	0.906284529794551	0.0989474414825746	-6.65003062789034	-84.2828455376127	-107.707280505861
6716	1648549015434	9.73655626322223	-0.147958734831318	0.966556038707028	-0.0315312848398643	0.0141101688832398	-0.0272156485739536	0.00432829277634315	-0.0168277752924583	-0.00619155934184139	0.54345703125	0.4052734375	0.228515625	0	0	0	-0.566335352553445	-0.360431915004705	-0.620627058895592	0.405185336433605	-0.0301782231747035	-0.0946872960054138	0.995049541892866	0.911188638628225	-0.411827355570455	-0.0115539620342718	0.410882634922506	0.906329159400176	0.098706206188414	-6.67632193185498	-84.296523572281	-107.677839484083
6717	1648549015435	9.73676567123499	-0.147276256138941	0.964548837608917	-0.0315533741780508	0.0141427260201978	-0.0272157667763206	0.0133056638761238	-0.0246692789837901	-0.00607857979736677	0.551513671875	0.408447265625	0.226318359375	0	0	0	-0.566373481701884	-0.360542641183883	-0.620545027085525	0.40515916930567	-0.0301342535048514	-0.0944354334028537	0.995074809089106	0.91124259736009	-0.411710102831379	-0.0114769326483108	0.410766181083769	0.90640870480407	0.0984601662260713	-6.64863413548088	-84.3111094980033	-107.697831732089
6718	1648549015436	9.762548362977	-0.123127657052348	0.963154530953774	-0.00840397615371018	0.00421095005400315	-0.00197443821710408	0.019195814885967	-0.0369860446267625	-0.00913410357805923	0.546142578125	0.408203125	0.23681640625	0	0	0	-0.566499687221689	-0.360698116615807	-0.620338769680813	0.405160195328259	-0.0298466409985906	-0.0940024136985249	0.995124476756527	0.911343894675754	-0.411484169582753	-0.0115361960810015	0.410562399226145	0.906556299631547	0.0979499460950748	-6.71714856800365	-84.3398902163688	-107.615127590042
6719	1648549015436	9.76724143659486	-0.0962887628342236	0.886494793581276	-0.0147976648437614	-0.0726243194389478	-0.00510586587936324	0.0174293222604148	-0.0461202060696919	-0.00774106213600133	0.537841796875	0.404541015625	0.226806640625	0	0	0	-0.566593576807529	-0.360869798942454	-0.620191047527611	0.405102174146582	-0.0297278944443268	-0.0935484631901252	0.995170808116211	0.911414503768601	-0.41133043342589	-0.011440142390038	0.410414247574498	0.906673016898835	0.0974894138633672	-6.69290904601784	-84.3668697846348	-107.629251319353
6720	1648549015437	9.74227658529845	-0.0948091493001961	0.904997883783313	-0.00295203607054376	-0.0495495972717294	-0.0281333713774945	0.0156980481834367	-0.0537284597949432	-0.00633009508968573	0.539794921875	0.406494140625	0.2236328125	0	0	0	-0.566753808520051	-0.360999850159799	-0.620014470738537	0.405032449054928	-0.02947767148117	-0.0930558791589809	0.995224432094589	0.911448038971917	-0.41125564679434	-0.0114571040851297	0.410357818419847	0.906757628219205	0.0969384574252404	-6.74048799712869	-84.3982576757969	-107.576841391583
6721	1648549015439	9.77022380739141	-0.0935208949646859	0.827777431602126	-0.033083834008858	-0.117620731400436	-0.00777514694472536	0.0158645480432069	-0.0506316857144032	-0.0108743937263522	0.540771484375	0.412841796875	0.22900390625	0	0	0	-0.566859150731515	-0.361184197054157	-0.619863228094821	0.404952166911302	-0.0293688914915748	-0.0925487804117379	0.995274932597449	0.911511049210791	-0.411119436624371	-0.0113320781988034	0.410225639592652	0.906871287490105	0.0964333580605807	-6.70220486587647	-84.4279784361141	-107.606012219047
6722	1648549015439	9.79612349503981	-0.0453039671910733	0.850164423236766	0.0203499547164913	-0.114570130632574	0.0196738082305536	0.0192644436491921	-0.032422674668126	-0.00756368594356737	0.546875	0.405029296875	0.225830078125	0	0	0	-0.566918239579747	-0.361376309969816	-0.619708615400468	0.404934691305689	-0.0292632108179327	-0.0921413908055033	0.995315843636105	0.911624676701156	-0.41087011673953	-0.011233699299729	0.409980625544839	0.90702575005943	0.0960217444487993	-6.67276917091929	-84.4521719339822	-107.619342556806
6723	1648549015440	9.79419814491901	-0.0693117289956365	0.871854090701832	0.00753408648075885	-0.0824692770490277	0.0201348604864169	0.00445964233675905	-0.0122373926436668	-0.00766515500443792	0.543212890625	0.405517578125	0.224609375	0	0	0	-0.566933300724947	-0.361439048408839	-0.619680125508512	0.404901208770959	-0.0292832873298658	-0.0919947982888584	0.995328813091909	0.911642129190086	-0.410833650842258	-0.011150767748748	0.409940382700852	0.907057147275415	0.0958968936288591	-6.63249466874	-84.4598636473691	-107.657032334787
6724	1648549015441	9.74222207155082	-0.139631135253871	0.867726066021777	-0.0552056098594938	-0.0510048019898408	-0.0311901805461172	-0.00753084633332315	0.000219146428922493	-0.00473301877797752	0.54296875	0.408203125	0.23095703125	0	0	0	-0.567003500593731	-0.361430314491284	-0.619625060168597	0.404894977608081	-0.0291341748444124	-0.0919016426502379	0.995341794528052	0.911630656799243	-0.410856369748966	-0.0112511786263709	0.409976518156731	0.907056300080039	0.0957503161623725	-6.70183068926304	-84.4675731409931	-107.589382219228
6725	1648549015442	9.741176249607	-0.139706202239009	0.892496264039199	-0.045595790721099	-0.0285491482313493	-0.0298611833621134	-0.00583392154370697	0.007812834624875	-0.00462099772615665	0.54736328125	0.405517578125	0.234375	0	0	0	-0.566983388081357	-0.361411878375482	-0.619665110047536	0.404878306653575	-0.029206788882238	-0.0919488583083384	0.995335305783424	0.911606983485052	-0.410910021940879	-0.0112098853621136	0.410023988498812	0.907027210906233	0.0958225836177818	-6.67246605646959	-84.4637182283886	-107.622016755183
6726	1648549015444	9.71564543007601	-0.162336981522091	0.891807439560467	-0.0654903737846251	-0.018362564134769	-0.0550844993259698	-0.0011283795354652	0.00927816451387927	-0.00908893838217857	0.535888671875	0.416748046875	0.233642578125	0	0	0	-0.566994260337921	-0.361342685121378	-0.619709531049072	0.40485685097336	-0.0292168779275773	-0.0920288415595824	0.995327617604056	0.911545755475239	-0.411044788258414	-0.0112480096315964	0.410159371122058	0.906958033409924	0.0958979453062536	-6.68973958857728	-84.4591542015705	-107.613354201196
6727	1648549015444	9.71466180688225	-0.138162071094404	0.941629498072973	-0.0238618078610411	0.016834708975242	-0.0515626282416157	0.0016871179907932	0.0015501230432648	-0.00605600402140248	0.542724609375	0.411865234375	0.231201171875	0	0	0	-0.566975880276733	-0.361363475650499	-0.619721376167488	0.404845903488341	-0.0292762912262663	-0.0920145714775261	0.995327191132566	0.911552070304732	-0.411032465789001	-0.0111863841598752	0.410141099982913	0.90696506586705	0.0959095793004307	-6.65261757865688	-84.4589011398515	-107.649517828797
6728	1648549015448	9.73907700949758	-0.138448897740925	0.942263781663821	-0.0262524426047865	0.0161130021781017	-0.0272031556120051	1.8350039515549E-05	-0.00905078253706983	-0.010778429732991	0.547119140625	0.41455078125	0.227783203125	0	0	0	-0.566958309030309	-0.361431288090669	-0.619752730974222	0.404761969879343	-0.0294520471217731	-0.0918717286013917	0.995335201027337	0.911537616307522	-0.411070343457027	-0.0109702682976919	0.410160640452907	0.906962379712584	0.095851399621224	-6.5291377114192	-84.4636560155617	-107.774702905256
6729	1648549015445	9.7656152585113	-0.13754787789694	0.89322718242919	-0.0467861273963418	-0.0295491337857813	-0.00549850978191557	0.0028983057539576	-0.0167489255181879	-0.0107972383580534	0.54248046875	0.40625	0.22265625	0	0	0	-0.566984730449573	-0.361506667136869	-0.619721025417168	0.404706184420885	-0.0294824394570273	-0.0916723427593181	0.995352684899519	0.911547383648603	-0.411051667814164	-0.0108578888638944	0.410136749300826	0.906991018676708	0.0956824901052356	-6.47413411707067	-84.4740490512107	-107.828138640562
6730	1648549015445	9.76485957952856	-0.112746752696203	0.940735103592613	-0.00411120749999136	0.00677352036970863	-0.00197313472831517	0.018177876551683	-0.0201025757009255	-0.0150969070867217	0.550537109375	0.41748046875	0.220458984375	0	0	0	-0.567017534309582	-0.36169816215654	-0.619582951591005	0.404700532957199	-0.029417188819282	-0.0913127012995303	0.995387673011553	0.911669501580767	-0.410783836233481	-0.0107405668743467	0.409869917033988	0.907148626450312	0.0953311105561255	-6.42817402170699	-84.4949059663341	-107.856801157826
6731	1648549015447	9.76916902873964	-0.0854462823215101	0.866131609323869	-0.0105012432884152	-0.0700596273994394	-0.0050816685493853	0.0242157003294453	-0.0202699389689021	-0.0119215446937675	0.545166015625	0.40869140625	0.2119140625	0	0	0	-0.56700989980923	-0.36185044895314	-0.619504380387732	0.404695377773394	-0.0294428494543538	-0.0910755448928813	0.995408641583181	0.911766692120261	-0.410571807602522	-0.0105966948656256	0.409651825036928	0.907268447552577	0.0951280522214757	-6.35620229187342	-84.5074434705746	-107.914952607839
6732	1648549015449	9.74398196128544	-0.08351718196254	0.887581844540428	0.00212665307626636	-0.043797076846775	-0.0281057170894794	0.021133725104819	-0.0202154212850137	-0.0104570213534018	0.542236328125	0.407470703125	0.22412109375	0	0	0	-0.567051405676154	-0.362165402172074	-0.619239967113273	0.404760160983996	-0.0292438308018155	-0.0905545367750967	0.995462040576878	0.912020138330874	-0.410010867099499	-0.0105050530341611	0.409101534632869	0.907574219956564	0.0945778495804753	-6.33803927712813	-84.5395013332357	-107.897428774128
6733	1648549015449	9.74628513037171	-0.0573278844314421	0.861297180519815	0.0149625275265745	-0.0757677287052089	-0.0285559404077773	0.0179431754792114	-0.0292723921157927	-0.0136639827614377	0.54296875	0.402587890625	0.22802734375	0	0	0	-0.567081804627599	-0.362323270377391	-0.619148863491266	0.404715652576981	-0.0292469348389899	-0.0902246046119586	0.995491907312731	0.912092340708696	-0.409854176604441	-0.0103496831075793	0.408940312054284	0.907677847389982	0.094280149206676	-6.26460862629348	-84.5575137952982	-107.960463446523
6734	1648549015450	9.7432754279046	-0.153185051069258	0.831565383342888	-0.0828472232936596	-0.0593106273134122	-0.0333213310501801	0.00693762565053911	-0.039755228909733	-0.00940760632196156	0.551513671875	0.40380859375	0.2236328125	0	0	0	-0.567232185471788	-0.362421789894001	-0.619001865418815	0.404641550737137	-0.0290257263638873	-0.0897931415761573	0.995537392032531	0.912102357352843	-0.409831323254147	-0.0103718942890152	0.408933731697981	0.907730950340264	0.0937961879498553	-6.31007746287351	-84.585060135376	-107.91348030814
6735	1648549015450	9.76808587824248	-0.129397628743723	0.853536954125445	-0.0521290374966253	-0.0473251048281255	-0.00678034823860685	0.0206342549345855	-0.0400767200140005	-0.00761091030923515	0.541259765625	0.4091796875	0.223876953125	0	0	0	-0.567301927441708	-0.362592272590966	-0.618862586289906	0.404604085828122	-0.0289281137042257	-0.0893900717254608	0.995576506007666	0.912187252190758	-0.409644755177016	-0.0102757723134079	0.40875124608763	0.907854938650927	0.0933907339564832	-6.27899065887303	-84.6088604625257	-107.932443341842
6736	1648549015452	9.76829971415313	-0.152134273818616	0.825222012883239	-0.08204654947835	-0.0592369566623327	-0.00893430862523026	0.0179064651180305	-0.0307980343693494	-0.0136819242339229	0.54248046875	0.415771484375	0.222900390625	0	0	0	-0.56741102901704	-0.362747735378317	-0.618682822366053	0.4045866655451	-0.0287087084258438	-0.0889675086530018	0.995620707129276	0.912275771871449	-0.409447421082001	-0.0102822869855335	0.408569120366278	0.907985457908538	0.0929176092554538	-6.31467375552723	-84.6358829670001	-107.884244914738
6737	1648549015453	9.77149246725629	-0.125521674700277	0.774831658429971	-0.0787636344067226	-0.113617325352713	-0.0106940962967439	0.0243483386975976	-0.0126528454014096	-0.0103298707087575	0.545654296875	0.413330078125	0.226806640625	0	0	0	-0.567384129830683	-0.362881802982166	-0.618619221118293	0.404601415647162	-0.0287458873451811	-0.0888016731891606	0.995634439339833	0.912375177254864	-0.40922898304145	-0.0101575276527969	0.408344474543117	0.908100160928114	0.0927840925613814	-6.2475694928702	-84.6443058777708	-107.93722606837
6738	1648549015454	9.77060711421941	-0.124682113053683	0.798464319713769	-0.0691261890403649	-0.0899829668767185	-0.00937267991138491	0.0261037846086316	-0.00351862287839573	-0.0117363649737479	0.5478515625	0.41015625	0.221435546875	0	0	0	-0.567320568880692	-0.363083403430741	-0.618532067822829	0.404642923270447	-0.0288229535440705	-0.0885998821497556	0.995650188686793	0.91253861409162	-0.408869093600594	-0.00996705021433847	0.407973669666001	0.908281963479006	0.0926356285560749	-6.14106514056089	-84.6539823274442	-108.020532516106
6739	1648549015454	9.79614791364135	-0.0760749970102061	0.824874819992143	-0.0159769704087303	-0.0876037754897231	0.0180191212405472	0.0232527607772951	0.0057034914381355	-0.0117064957263241	0.539794921875	0.4169921875	0.225830078125	0	0	0	-0.567236343602986	-0.363181610019336	-0.618525182945543	0.404683390691859	-0.0289485675881097	-0.0885941194629831	0.995647057159903	0.912633353587837	-0.408660942883806	-0.00982831014648494	0.40775279564169	0.908376197265151	0.0926840972793563	-6.05307846756107	-84.6520569167193	-108.095060084647
6740	1648549015455	9.77065228903899	-0.098118158823799	0.82433967836862	-0.0367791870757151	-0.0757561091021638	-0.00719312134663319	0.0248806083827345	0.0117595144238075	-0.0100926343380601	0.5419921875	0.411865234375	0.225341796875	0	0	0	-0.567140988467672	-0.363343730432971	-0.618469163136658	0.404757121004691	-0.0290455443918116	-0.0885253509401752	0.995650349566504	0.912793840665322	-0.408306013102092	-0.00967492160819677	0.407386500505888	0.908542493175521	0.0926648655099285	-5.96052229807944	-84.6540812625673	-108.16488349728
6741	1648549015456	9.72087338018289	-0.095300858617415	0.847777679868897	-0.0245558401161415	-0.0515124537697011	-0.0546172720627389	0.0369231690280435	0.00688710634409495	-0.00684730905786503	0.54638671875	0.418701171875	0.22265625	0	0	0	-0.567034132128553	-0.363468749729609	-0.618430678948027	0.4048533763069	-0.0291320733882446	-0.0885491226501965	0.995645707658092	0.912945870885313	-0.407968423325796	-0.00957091440365032	0.407039505617772	0.90869181709034	0.0927255219424276	-5.89306923365085	-84.6512273923076	-108.210862266884
6742	1648549015457	9.71891514384493	-0.0949505940772749	0.89696437119265	-0.00532922846744783	-0.00527430828914308	-0.0520103414689856	0.0460030803198677	0.000608515043930003	-0.00977754057704341	0.5439453125	0.408447265625	0.22021484375	0	0	0	-0.566921783761564	-0.363728957355572	-0.618306576110961	0.404966559873251	-0.0292035529620623	-0.0883752355298185	0.995659063253803	0.913198712768838	-0.407406661930906	-0.00937671646438809	0.406466804907522	0.908960741484122	0.0926018733552693	-5.78197069038411	-84.6594425907793	-108.286112392847
6743	1648549015457	9.69557365853789	-0.0921303016373454	0.871061942642448	-0.0135803619235212	-0.0267177536165779	-0.0776739089885048	0.0426557252431006	-0.0130561012898044	-0.00996069905957778	0.55078125	0.411376953125	0.22607421875	0	0	0	-0.566859053954017	-0.363921675806715	-0.618207202615812	0.405032938737482	-0.0292382629760717	-0.0882039663260114	0.995673231689244	0.913373153770631	-0.407018664831422	-0.00923517460243323	0.406072168400191	0.909151179289345	0.0924636536567784	-5.70372727474025	-84.6681715740887	-108.339567645489
6744	1648549015458	9.67328130511887	-0.0888585901050687	0.819733003822364	-0.0295544963783473	-0.069670249834438	-0.104623635028714	0.0501476941989225	-0.0208394499852302	-0.0114056731157574	0.544189453125	0.41357421875	0.22119140625	0	0	0	-0.566871767313366	-0.364162288532032	-0.617992792980915	0.405126072794363	-0.0290585291304771	-0.0878633462930893	0.995708609113607	0.913596626649221	-0.40651738550666	-0.00920972616286236	0.405582057862449	0.909408405315791	0.0920844540682694	-5.71138214431383	-84.6900295960509	-108.300297182187
6745	1648549015459	9.72135641326458	-0.0658182417749447	0.868687312871282	0.00946087886281709	-0.0360351868416542	-0.0524449716782538	0.0516072285560142	-0.0239239479583922	-0.0114020145774354	0.550537109375	0.417724609375	0.231689453125	0	0	0	-0.566822347579379	-0.364408687559061	-0.617848427904528	0.405193848487347	-0.0290607428652285	-0.0875867890478911	0.995732909774705	0.91380674009008	-0.406048507158992	-0.00904718740240634	0.405108275637589	0.909644526294879	0.0918374694321683	-5.6262272211876	-84.7050959414774	-108.355517997582
6746	1648549015460	9.74709158957577	-0.0169189318255101	0.892449185818017	0.0630414986041973	-0.0329885539754098	-0.0250684955806175	0.0469985256575631	-0.0253498319393469	-0.0115021595836837	0.5439453125	0.402099609375	0.22607421875	0	0	0	-0.566801706283184	-0.364670444515778	-0.61767373015212	0.405253569671017	-0.0290107400467384	-0.0872373077071374	0.995765047140113	0.914020628437499	-0.405570022331127	-0.00890212205318258	0.404629049565971	0.909891537014353	0.0915025853022714	-5.55671600551953	-84.7250869206666	-108.394530061144
6747	1648549015460	9.74817581334538	-0.0391768386988323	0.840670302550444	0.021507794267322	-0.0680763402868184	-0.028511600720444	0.0377518217152239	-0.028213603441706	-0.0101751435498204	0.541748046875	0.40673828125	0.224365234375	0	0	0	-0.56679565652775	-0.364879348740017	-0.617539920485501	0.405277918484462	-0.0289849850603562	-0.0869265270658167	0.995792975237989	0.914174647155881	-0.405225739303925	-0.00876439975177851	0.404282803416708	0.910074655782625	0.0912114892086751	-5.48863006741435	-84.7425210899086	-108.44056997612
6748	1648549015461	9.77279095082114	-0.0388375422579155	0.838853382076188	0.0220165961662471	-0.0692974847547469	-0.00415339235462575	0.0408316947785571	-0.0282686203924958	-0.0116430008817018	0.552978515625	0.4091796875	0.216796875	0	0	0	-0.566865892483463	-0.364988456835548	-0.617403748332935	0.405288906658169	-0.0288079241575055	-0.0866547655965318	0.995821798870232	0.914252794917511	-0.405048657033261	-0.00879843287581805	0.404118708415305	0.910179398269902	0.0908929726314646	-5.52900073634421	-84.7605749587324	-108.389117100479
6749	1648549015462	9.77204983693303	-0.0377004714301075	0.861099502737234	0.0316528487000478	-0.0467621106888936	-0.00286153687838109	0.0380408624172048	-0.0159965073230002	-0.0116067114228777	0.544921875	0.41455078125	0.22119140625	0	0	0	-0.566819405437927	-0.365176409263177	-0.617306773244376	0.405332332097089	-0.0288429243514604	-0.0864506376799207	0.995838527553333	0.914406938393965	-0.404703781348776	-0.00864872123364202	0.403767305179396	0.910352204702519	0.0907239034732949	-5.44555761509552	-84.7710815850323	-108.450482852324
6750	1648549015462	9.72618731431813	-0.0332043322627238	0.784992889532924	0.00751619608940039	-0.110607177058947	-0.055446696519235	0.0321339792400194	-0.00671057506875935	-0.0116525738503638	0.538330078125	0.415771484375	0.22216796875	0	0	0	-0.566822517440544	-0.365382600596603	-0.617127688568648	0.405414855309404	-0.0287020576336378	-0.0861712941386928	0.995866808340382	0.91459963613525	-0.404268700551437	-0.00862109828977503	0.4033406717266	0.910571977287307	0.0904155778072553	-5.44666901186155	-84.7888916748916	-108.421957997911
6751	1648549015463	9.70097218739095	-0.00722331724121476	0.83346165336157	0.0504532081555856	-0.0744135958075258	-0.0763898730349108	0.0370105095328994	0.0114709297324425	-0.00685540386160574	0.549072265625	0.417724609375	0.230712890625	0	0	0	-0.566702675176967	-0.365498577947848	-0.617099662906254	0.405520497023711	-0.0288024088818227	-0.0862350802369713	0.995858389621299	0.914751167822663	-0.403927832023486	-0.00852100251619603	0.402989729657815	0.910717199493526	0.0905177349307392	-5.37776343787688	-84.7835835689983	-108.469254906605
6752	1648549015464	9.6998265448608	-0.0304630149363574	0.834469611658521	0.0272283438804014	-0.0644552321850886	-0.0772363549516104	0.0234667945314714	0.0163710069243615	-0.0116582184070187	0.539794921875	0.412109375	0.2294921875	0	0	0	-0.566561631296464	-0.365602177443831	-0.617141797524901	0.405560066499098	-0.0290579008078736	-0.0863038047709113	0.995845013886551	0.914848469003376	-0.403712160619154	-0.00829277579545518	0.40275044030121	0.91080631566227	0.0906859315820382	-5.22488156944815	-84.7751610635551	-108.608027376391
6753	1648549015465	9.69760547778393	-0.0780271876026734	0.835762947946476	-0.0175544053272891	-0.0450810949576379	-0.0789419923505807	0.0129213096724646	0.0242183312117484	-0.0102802015958727	0.54052734375	0.42041015625	0.21923828125	0	0	0	-0.566444466952482	-0.365627779242962	-0.617201450941077	0.405609864107134	-0.0292426079958212	-0.0864703282532741	0.995825161466296	0.914901658318472	-0.403593930369704	-0.00817893482342896	0.402616226056171	0.910842918235909	0.0909139858095571	-5.14068659583349	-84.7626851848977	-108.684551614454
6754	1648549015465	9.69743220095486	-0.0766737554065209	0.837896021888332	-0.0188302726082626	-0.044449731850292	-0.0789414733088307	0.0205396512123709	0.0195068417769501	-0.0147447977655756	0.54248046875	0.41796875	0.218017578125	0	0	0	-0.566278161905024	-0.365755167538446	-0.617264431977446	0.405631386586334	-0.0295844431310309	-0.0865253269050039	0.995810287418547	0.915001982828745	-0.403372671269943	-0.00786508054732238	0.4023631843796	0.910935703481059	0.0911044015367815	-4.93413459948217	-84.7533572562433	-108.876408312734
6755	1648549015466	9.69437950799098	-0.100013345780431	0.888106738934725	-0.0220662780053345	0.0101425537909969	-0.0772294861140725	0.0296274221869926	0.0162613182352963	-0.0145908526389418	0.54345703125	0.409423828125	0.21875	0	0	0	-0.566143104416434	-0.365861098754173	-0.617280303765058	0.405700219772961	-0.0297786339957875	-0.0866020333302175	0.995797831279229	0.915120986265799	-0.403105976189121	-0.00769106341979897	0.402078118595449	0.911046464118975	0.0912552834802227	-4.81754586406249	-84.7455583699276	-108.975842261451
6756	1648549015467	9.69627770847331	-0.0734991538758772	0.864975146921445	-0.00870515579391926	-0.0201354612973804	-0.0776524890083276	0.0324505974786778	0.00248280468435304	-0.0176760149451074	0.542724609375	0.416259765625	0.22412109375	0	0	0	-0.566057741500587	-0.366103001644535	-0.617178919491298	0.405755353396193	-0.0298824529551698	-0.0863764246387624	0.995814316161405	0.915318177708727	-0.402662370754384	-0.00745980793545314	0.401621304914664	0.911264027845433	0.0910944509482323	-4.68155742485352	-84.7558821590075	-109.08337484748
6757	1648549015467	9.71976207529663	-0.0728588768649588	0.889825447022983	-0.000387029758443756	0.00159075326557623	-0.052007598897525	0.0366795762652316	-0.0128800389718389	-0.0161618721207549	0.544189453125	0.41845703125	0.219482421875	0	0	0	-0.565995545995925	-0.366294993675985	-0.617101926891884	0.405785942766638	-0.0299736211315313	-0.0861799044914374	0.995828602771637	0.91546524425629	-0.402331492521802	-0.00726337965074719	0.4012791654136	0.91142876528395	0.0909540390413696	-4.56581938128972	-84.7648456839981	-109.177823137213
6758	1648549015468	9.74428584844432	-0.0716718709256761	0.889308967838551	-0.00207653252894888	0.00198968201974153	-0.0276423974091493	0.0397536039482429	-0.0174872674363849	-0.0222359444816884	0.546875	0.414306640625	0.22509765625	0	0	0	-0.565914095634942	-0.36660546072264	-0.616983293935443	0.405799565715141	-0.0301358976541775	-0.0858087099456311	0.995855759118781	0.915677500984369	-0.401854297267488	-0.0069164990187216	0.400782412118595	0.911674277944223	0.0906833450600523	-4.36155549639176	-84.7819261089372	-109.351202810877
6759	1648549015469	9.74832667143914	-0.0442064109663817	0.814146848726911	-0.00831934175738024	-0.0747519143982973	-0.0306117089327955	0.0409390998772498	-0.0297497510406456	-0.0177039674522666	0.549072265625	0.412841796875	0.216552734375	0	0	0	-0.565892141258882	-0.366849772359399	-0.616853796835063	0.40580626204072	-0.0301747242999527	-0.0854514606369381	0.995885301572644	0.915841073440113	-0.401485044416792	-0.00669979922902397	0.400405562166018	0.911870499020919	0.0903746579625899	-4.23978706296831	-84.8005708591603	-109.4492075386
6760	1648549015469	9.77098865118226	-0.0680358990636629	0.836669112427036	-0.0208050742014196	-0.0425200790216733	-0.0058213024226994	0.0364319727901211	-0.0220492261337192	-0.0131672735097203	0.550048828125	0.407958984375	0.220947265625	0	0	0	-0.565925059452046	-0.36705908160503	-0.616671191267739	0.405848616550429	-0.0300314550566009	-0.0850944345255537	0.995920202084464	0.916006164844515	-0.401109062110748	-0.00665028266163259	0.400038520237773	0.912069327137697	0.0899929153909393	-4.2263526815315	-84.8226834478735	-109.438912323049
6761	1648549015469	9.77399418499592	-0.0415214176037382	0.786477416583233	-0.0174619879398484	-0.0968310753681915	-0.00750752972317059	0.0305469198109738	-0.0127606082931089	-0.0147551565272386	0.548095703125	0.41162109375	0.217529296875	0	0	0	-0.565877654023764	-0.367228417438935	-0.616602153977073	0.405866423608421	-0.0301098537277406	-0.0849035113454396	0.995934129583733	0.916128932750255	-0.40083147122521	-0.00647381288822035	0.39975139185045	0.912209145665975	0.0898515402037129	-4.12104568193171	-84.8315340990995	-109.526345949141
6762	1648549015470	9.77304143948416	-0.0642577580079855	0.785798683755446	-0.0369657794257081	-0.0863340033976465	-0.00834509209266443	0.0232622764732114	0.00418032147824809	-0.0148041794094861	0.546142578125	0.412353515625	0.228271484375	0	0	0	-0.565904424857331	-0.36729592754312	-0.616502543081913	0.405919324386838	-0.0299633680324532	-0.0847918102836978	0.995948063648384	0.916209372798613	-0.400646407399144	-0.00654533682329317	0.399578004615023	0.912300830399146	0.0896917670742665	-4.17381199914018	-84.8404040741097	-109.462172055014
6763	1648549015471	9.79931782434595	-0.0149934023850124	0.788340813647933	0.00668382203937012	-0.106232192675065	0.0177249135183803	0.0234830490707811	0.017898353718891	-0.0116770000317685	0.5458984375	0.421875	0.21484375	0	0	0	-0.565783464809358	-0.367372031553087	-0.616525953795259	0.405983509120409	-0.0301329225411932	-0.0848926985988963	0.995934353611584	0.91630478214353	-0.400430361509673	-0.00640872858927527	0.399346407521121	0.912386297193151	0.0898537227617509	-4.07965670549783	-84.831676587905	-109.542473474338
6764	1648549015471	9.75141551575203	0.0368889583668955	0.813759945030055	0.0639734962997971	-0.100411094125003	-0.0280312748010427	0.0237300596563246	0.0301050325538379	-0.01161134059726	0.544189453125	0.419189453125	0.227783203125	0	0	0	-0.565633692781266	-0.367466724105301	-0.616545784673964	0.406076381567204	-0.0303209958478296	-0.085026242361999	0.995917253249784	0.916432482881663	-0.400140358017211	-0.00626084700407675	0.399039022565646	0.912501086024371	0.0900534645318937	-3.97701320083506	-84.8208114564667	-109.626615692216
6765	1648549015472	9.77361755022621	0.0366832864361494	0.866866853772791	0.0818966292667377	-0.0562212570399977	-0.00113628238627506	0.0147335923831302	0.0394397649541331	-0.0102113620010612	0.54296875	0.416015625	0.217041015625	0	0	0	-0.565466733069577	-0.36746815243847	-0.616643090158109	0.406159857808886	-0.0305630873925695	-0.0853293083019101	0.995883932410676	0.916493370967889	-0.400002653696246	-0.00614638168969145	0.398880682235864	0.912533169907088	0.090429061470154	-3.88836196312661	-84.7997052843375	-109.706410731834
6766	1648549015473	9.77422364073231	0.0379279421765713	0.846328352293053	0.0719206091167003	-0.077892468058894	-0.00239089076943166	0.00860271480432626	0.0395571790024628	-0.00880265148576028	0.53857421875	0.41650390625	0.226318359375	0	0	0	-0.565300580014612	-0.367491236110017	-0.616741188063623	0.406221309834118	-0.0308390033435939	-0.0855808086411507	0.995853845232874	0.916552844334268	-0.399868877637971	-0.00598032100412216	0.398722760092193	0.912568247249967	0.0907708912349499	-3.76940960461355	-84.7807205135505	-109.816602814204
6767	1648549015474	9.7251526841166	0.0408179529883647	0.848069899941102	0.0745495168390916	-0.076078737349064	-0.0511231050337493	0.00240958434535933	0.0351034891980634	-0.00894467122967195	0.53955078125	0.413330078125	0.2255859375	0	0	0	-0.565174045447525	-0.367460084250948	-0.616846472479429	0.406265694126947	-0.0310529682560576	-0.0858493159100348	0.995824084926784	0.916564925336422	-0.399842544515672	-0.00588873825816488	0.398678380158152	0.91255456524693	0.0911027696695302	-3.69836312397917	-84.76200950098	-109.885807253516
6768	1648549015475	9.74726396947697	0.0403660869432786	0.901456715366557	0.0913016597096968	-0.032503390193208	-0.0242240141726153	0.00100616443878834	0.0397186845657307	-0.0104767334420775	0.541259765625	0.407470703125	0.21875	0	0	0	-0.565008705230957	-0.367385649882848	-0.617043523439659	0.406263753557423	-0.0314298511173422	-0.0862126551603029	0.995780870748657	0.91651701660327	-0.399955093611183	-0.00569924302973335	0.398758978250501	0.912470986489259	0.0915858945467894	-3.56083272489554	-84.7349577706783	-110.029929740205
6769	1648549015478	9.74594709641115	-0.00726236969973924	0.880285010678895	0.0369386461116936	-0.0355593007055017	-0.0271976356270329	-0.00213592160302671	0.0367220305309961	-0.00902686516925815	0.543701171875	0.419921875	0.21875	0	0	0	-0.564885686272711	-0.367336982642246	-0.617162740427478	0.406297741140094	-0.0316526139773301	-0.0864968476366049	0.995749168906172	0.916510461769455	-0.399971373455494	-0.00561015893424938	0.398756423767121	0.912436954405649	0.0919354052549962	-3.4920206007144	-84.7152004748908	-110.099569290474
6770	1648549015475	9.74564764312436	0.0177745782281583	0.908065139123376	0.0696729767317812	-0.0213447599484738	-0.0250811364173469	-0.00384370858991042	0.0275976708966603	-0.00910458411160769	0.5400390625	0.41455078125	0.21435546875	0	0	0	-0.564827879155736	-0.367348631530313	-0.617200136715959	0.406310769090658	-0.0317620516987825	-0.0865726275477833	0.995739098474775	0.916527621379898	-0.39993308366753	-0.00553604876136604	0.398708278468847	0.912446551173083	0.0920488996824792	-3.44176429748967	-84.7089397536902	-110.14724409687
6771	1648549015478	9.72105917746083	-0.0045087468007941	0.884977795759057	0.0390254583322419	-0.0331844745392128	-0.0515617709175284	-0.00692397416982474	0.0246139839267706	-0.0107076199948525	0.542236328125	0.415283203125	0.218017578125	0	0	0	-0.564749123196308	-0.367314840731032	-0.617296827537722	0.406303903918732	-0.031951131018799	-0.0867387533307655	0.995718591720193	0.916501690290133	-0.39999389087827	-0.00543497519710201	0.398752776694971	0.912404118760261	0.0922764712554763	-3.37075955655775	-84.6962136209045	-110.221804872593
6772	1648549015477	9.74522251395172	-0.00465937476623687	0.888287688672727	0.0381285051421477	-0.0318343495725931	-0.0271893724402954	-0.00854189366621439	0.0231052399358145	-0.00769472858839207	0.54345703125	0.4072265625	0.211669921875	0	0	0	-0.564700374853321	-0.367382556945335	-0.617299453869598	0.406306445611097	-0.0320571177907922	-0.0867033587156514	0.995718267777775	0.91654762920206	-0.39989025821437	-0.00531270075667006	0.398638664209874	0.912452907810957	0.0922870869856543	-3.29471603873398	-84.6960128321985	-110.291031129732
6773	1648549015478	9.72061529768455	-0.00311242335872266	0.889846193497356	0.0394718904534954	-0.0308417986594832	-0.0515558828141422	-0.0160788654303223	0.0293545371445914	-0.00629186896978851	0.541748046875	0.420166015625	0.22216796875	0	0	0	-0.564633894385675	-0.367299300156122	-0.617416625110491	0.406296074867651	-0.0322241297160127	-0.0869286341762807	0.99569323489933	0.916487171185418	-0.400029447303926	-0.00526368143659439	0.398764179079059	0.912370458667948	0.0925595788313781	-3.25479281962486	-84.6805195998285	-110.339560698562
6774	1648549015478	9.7436858778778	-0.00362485870239174	0.918395046703901	0.0487859004117885	-0.00728985053747438	-0.0259390352700048	-0.0173888383289011	0.0355095025141157	-0.0108677560274351	0.546875	0.416259765625	0.218017578125	0	0	0	-0.564584143193067	-0.367288174648271	-0.617472229224286	0.406290767991697	-0.0323451141993358	-0.0870163736726819	0.995681648068442	0.916476691227639	-0.400054417216517	-0.00519015433211717	0.398778469859984	0.912351146203264	0.0926882840369844	-3.20497586648784	-84.6733635453862	-110.390752948578
6775	1648549015480	9.74045021894193	-0.0519348654618667	0.94534447268614	0.0135499031991521	0.0345326547409833	-0.0264027185298286	-0.0298050505925408	0.0281091280993337	-0.00810997873878865	0.542236328125	0.417236328125	0.223388671875	0	0	0	-0.564546456667276	-0.367170766238525	-0.617613916968382	0.40623389352836	-0.0325226440264265	-0.0872215022311977	0.995657916743529	0.91636132251827	-0.400319304337208	-0.00513626007345808	0.39902907690806	0.912215360604889	0.0929458533684762	-3.16299224461982	-84.658736863233	-110.449185438663
6776	1648549015481	9.74032356895936	-0.0753738534092706	0.922732768355056	-0.0179478055103665	0.0231309808935327	-0.0285081521839121	-0.0345546713064147	0.0144891694368904	-0.012859675917937	0.54248046875	0.4169921875	0.22509765625	0	0	0	-0.564566792782099	-0.367147824046713	-0.617673130614074	0.406136326253768	-0.0326352419696553	-0.0871600531885698	0.995659613577726	0.916277931184486	-0.400511519589713	-0.00502747453663044	0.399211339776138	0.912136858044945	0.0929336235709971	-3.09653873981162	-84.6597813724121	-110.527351885855
6777	1648549015482	9.74025046459647	-0.0742619288992478	0.923594161342174	-0.0178695806458157	0.0233298155956706	-0.0285084810928797	-0.0270732947074811	0.00367196876261603	-0.0158137913231468	0.5439453125	0.41650390625	0.231689453125	0	0	0	-0.564585032096028	-0.36711062018838	-0.617756004869729	0.406018537169699	-0.0327853780154105	-0.0871104562863126	0.995659021650474	0.916171101413708	-0.400757480038962	-0.00489439753343002	0.399444153697086	0.912033557824718	0.0929470681560624	-3.01429149092417	-84.6594169804726	-110.624610456439
6778	1648549015483	9.7424314566767	-0.0962580618696224	0.849791444910414	-0.0693911610287546	-0.034883462306836	-0.0330989559859915	-0.0119597822587352	-0.0103311786797189	-0.0216796530239059	0.541748046875	0.414306640625	0.229248046875	0	0	0	-0.564591672647911	-0.367125278295031	-0.617832234296237	0.405880035820869	-0.0329952793973685	-0.0869797888870451	0.995663511364485	0.916083288662731	-0.400960853117693	-0.00466931472570303	0.39962822694395	0.911956638548291	0.0929105464268598	-2.87703759822155	-84.6621814793856	-110.773950995593
6779	1648549015484	9.79128856576079	-0.0961447315869866	0.85080240498387	-0.0718703327046882	-0.0363146659452834	0.0156367974249818	-0.00738396979963758	-0.010421014962986	-0.0215842177853086	0.538330078125	0.408935546875	0.22216796875	0	0	0	-0.564602601721476	-0.367193214700593	-0.617851501432953	0.405774034881767	-0.0331426694902218	-0.0867797046795603	0.995676074993664	0.91605268209727	-0.401033151387228	-0.00446039357302452	0.399686185752597	0.911943909648042	0.0927860904143692	-2.75219204852084	-84.6699250131123	-110.902721223223
6780	1648549015485	9.76789037462456	-0.0688421320394331	0.849879082388112	-0.0477497840642549	-0.0455917441151206	-0.00787440625956748	-0.0116679395597952	0.00644542253315341	-0.0200524129961502	0.5478515625	0.418701171875	0.2177734375	0	0	0	-0.564604022141931	-0.36712726408714	-0.617964074027087	0.405660293049358	-0.033324049648526	-0.0868039148444819	0.995667910541811	0.915930034610731	-0.401314597214001	-0.00433194655446961	0.399952096397817	0.911817785761298	0.0928797402900908	-2.67036185574476	-84.6648916166122	-111.001811358685
6781	1648549015486	9.81661403964256	-0.0931457231255284	0.828739414837177	-0.0822072931855596	-0.0598668946952867	0.0387619508201507	-0.00527945752270311	0.0246216253700296	-0.0167623771254785	0.542724609375	0.422607421875	0.215087890625	0	0	0	-0.564511316135828	-0.367116283844192	-0.618068901832522	0.405639545259788	-0.0335670665520565	-0.0869437834215624	0.995647543344248	0.915908969692679	-0.401364386915727	-0.00416991034185082	0.399980013600163	0.911782543943515	0.0931052161820521	-2.56439669033244	-84.6523558005035	-111.110468861758
6782	1648549015487	9.79002898320248	-0.115049432391466	0.854885054163998	-0.0934263367586375	-0.0239241637658351	0.0147960375337828	0.0133509389972395	0.0380167676207023	-0.0193466257819618	0.541748046875	0.416015625	0.2265625	0	0	0	-0.564333759756391	-0.367341504425006	-0.618038596745144	0.405728874569315	-0.0338229758798673	-0.0869057839821469	0.995642200297416	0.916118633209078	-0.400888598934981	-0.00387054661269903	0.399477979605588	0.911995458297024	0.0931752534519793	-2.37872770128173	-84.6490720546865	-111.26555514214
6783	1648549015488	9.76612932311254	-0.0636289206479976	0.882859402380188	-0.0376597217940072	-0.0196654229625712	-0.006619624057004	0.018010206563996	0.0440245536614565	-0.0176869767581345	0.531982421875	0.41943359375	0.23193359375	0	0	0	-0.564132323051272	-0.367367168015992	-0.618156213174189	0.405806582089093	-0.0341514800438862	-0.0872163323194518	0.995603830741704	0.916191107941966	-0.400724763594157	-0.00367662487625092	0.399283771444428	0.912037814577417	0.0935921719053701	-2.24962006837411	-84.6255495432197	-111.383923694691
6784	1648549015489	9.71803189915394	-0.0600837008714982	0.86098168464089	-0.0466123012500591	-0.0413089985035336	-0.0566040141772959	0.0148776969684615	0.050139863193588	-0.00856074203520363	0.55322265625	0.404296875	0.22412109375	0	0	0	-0.563870929695017	-0.367320781614184	-0.618381565173421	0.405868522914616	-0.0346406335039708	-0.0877202036589487	0.995542662260376	0.91620624615931	-0.400692371002906	-0.00342612298900791	0.399206889982012	0.912003722410223	0.0942500360784443	-2.08186646560817	-84.5882609145544	-111.549021142056
6785	1648549015490	9.71838819959838	-0.0104095737997208	0.890672827446	0.00785774267786435	-0.0378713757550268	-0.0536414166184063	0.020987636442651	0.0469871134211069	-0.0114981995546072	0.55029296875	0.4140625	0.220947265625	0	0	0	-0.563664791995194	-0.367331812879434	-0.618490589625662	0.405978733502415	-0.0349265404175796	-0.0880840327189691	0.995500547440544	0.916292072318583	-0.400497214380968	-0.00328929767609382	0.39898493076879	0.91205437582035	0.094698683023447	-1.98933217721082	-84.5627357026886	-111.629012490312
6786	1648549015491	9.69456905858351	0.0162472941539807	0.893851252158535	0.0363942437840967	-0.0461285490691007	-0.07716222021714	0.028384161684551	0.034634403099454	-0.0114022598235976	0.537353515625	0.418701171875	0.22216796875	0	0	0	-0.563663081854927	-0.36726922974123	-0.618427732324936	0.406133454581774	-0.0346790944465601	-0.0882961708637446	0.995490405086441	0.916360594489452	-0.400337859909514	-0.00358591550471121	0.398849120940868	0.912103823111092	0.0947944860781791	-2.16636973904711	-84.5566063917078	-111.442852831308
6787	1648549015492	9.71743798126955	0.0405806721641288	0.946602963458249	0.0767631163967414	-0.0114663396763526	-0.0494768047712277	0.0189463562527609	0.0195488472006049	-0.0116902846210358	0.548583984375	0.42529296875	0.2255859375	0	0	0	-0.563547071126598	-0.367329083958543	-0.618462196003097	0.406187831942117	-0.0348522876135922	-0.0884091782564114	0.995474326764948	0.916438095874224	-0.40016157852068	-0.00345362219487177	0.398655909875329	0.912170229878099	0.0949680854056222	-2.08270824012389	-84.5469038830258	-111.515138293717
6788	1648549015493	9.71857321610741	0.0180738617579817	0.898865622551561	0.0343863030926291	-0.0453584356553717	-0.0527841153665864	0.0081094070754327	0.00755786211001648	-0.015046148859549	0.542236328125	0.415771484375	0.215576171875	0	0	0	-0.56344166373843	-0.367503378290115	-0.618454674251599	0.40618785605354	-0.0350898343165976	-0.0882841266145417	0.995477079854449	0.916550986187647	-0.399905385079962	-0.00315795859675388	0.398375442574069	0.912294687023855	0.0949495170180443	-1.90491781954747	-84.5485640210888	-111.676080097816
6789	1648549015494	9.74177653567626	0.018632155841023	0.925138498329201	0.0427549620351445	-0.023522035543061	-0.0271849814648384	0.014307034616594	0.00898319435228932	-0.0179538954344196	0.544921875	0.421630859375	0.2216796875	0	0	0	-0.563355915412569	-0.367588666123873	-0.618480606166155	0.406190133931492	-0.0352793753327661	-0.088274941506322	0.995471195152419	0.916607939504321	-0.399776295267978	-0.00296630737685627	0.398227637054202	0.912352151553262	0.095017370213876	-1.78811213149064	-84.5450161044813	-111.78428496045
6790	1648549015494	9.69292381042568	0.0224513043642192	0.924052179074707	0.0460158068913863	-0.0195892584376668	-0.0759195826884973	0.0251027986903639	0.0133679300505581	-0.0192173086464553	0.535400390625	0.414306640625	0.22998046875	0	0	0	-0.56325226404985	-0.367826075351042	-0.618392873138732	0.406252532036162	-0.0354115345138519	-0.0880896015753643	0.995482920655934	0.916805080447543	-0.399325717012115	-0.00272326978735565	0.397761822814795	0.912567363994053	0.0949017306691371	-1.64369034792535	-84.5520877476984	-111.899855384928
6791	1648549015495	9.71716022984604	0.0237538435877496	0.926515220471937	0.0448484584352392	-0.0201664739266458	-0.0515512124660233	0.016047930403534	0.0150786433650591	-0.0224644841193532	0.546875	0.415771484375	0.2177734375	0	0	0	-0.563136089074042	-0.367917930900314	-0.618441080093728	0.406257026716988	-0.0356659468509294	-0.0881163393822076	0.995471471700273	0.916867798211875	-0.399183248730208	-0.00248486122482727	0.39759449296656	0.912627111512187	0.0950282826088479	-1.49786591110383	-84.5451827850621	-112.036120498325
6792	1648549015496	9.71483255463667	0.0256897347815324	0.976541830789322	0.0645987032445307	0.0250707210632493	-0.0491089519737908	0.00532164487708065	0.010705612549294	-0.0242530707600585	0.54541015625	0.40576171875	0.2236328125	0	0	0	-0.563082503041441	-0.367968876498489	-0.61849096919474	0.40620920930178	-0.0358643460940177	-0.0880797830735413	0.995467578825632	0.916867127154005	-0.399185968413726	-0.00228774254616121	0.397578193345171	0.912629450782361	0.0950740013940513	-1.37842838850529	-84.5428369436179	-112.155181407103
6793	1648549015497	9.73914712037695	0.0274733738827567	0.978143814638369	0.0634385989979008	0.0244940143410664	-0.0247416326130327	0.0174326429613174	-0.000180815723380754	-0.0286126800410391	0.545166015625	0.419921875	0.221923828125	0	0	0	-0.562999550095389	-0.36811307749218	-0.618506025735372	0.406170610582132	-0.0361138833834559	-0.0879429462186756	0.995470655337135	0.91693293426798	-0.39903639455715	-0.00198742887760928	0.39740380154407	0.912708055201229	0.095048537543253	-1.19785847060302	-84.5446907623088	-112.325567377069
6794	1648549015498	9.74115059701766	0.05506661438617	0.953676597029158	0.078854015505251	-0.00706903656710958	-0.0251300762167386	0.02494868144552	-0.00642406353119706	-0.0284730730586909	0.537841796875	0.418212890625	0.221923828125	0	0	0	-0.563017505229777	-0.368228147211214	-0.618430517464261	0.406156392877327	-0.0360965466594347	-0.0877212308406044	0.995490846255792	0.916996802033567	-0.398890032252551	-0.00189927085236025	0.39725798214696	0.912793365351309	0.0948386408124702	-1.14727139651953	-84.556872859655	-112.366752760615
6795	1648549015499	9.7418463526766	0.106497410018906	0.977844301949347	0.133397981143689	-0.0035840616747565	-0.02221837302152	0.018751441164609	-0.0078521929403299	-0.0255658201919193	0.541259765625	0.416015625	0.219970703125	0	0	0	-0.562961932316923	-0.368382861001515	-0.618414663327561	0.406117267133267	-0.0362852561964046	-0.0875266915277584	0.995501109217346	0.917068800575157	-0.398725666113089	-0.00163039698143314	0.397074546142667	0.912883848829016	0.0947358609646687	-0.985958686285711	-84.5630754016317	-112.517047128739
6796	1648549015500	9.71973649403655	0.110488419076595	0.926982966267975	0.11567514018495	-0.0465383475137304	-0.0490182093810834	0.00955273731852518	-0.0122590436633282	-0.0273186825396253	0.540771484375	0.416748046875	0.221435546875	0	0	0	-0.562940152531717	-0.368573439361829	-0.618375634960085	0.406033962313832	-0.0364696122305933	-0.0871934421753756	0.995523616508096	0.917132594869326	-0.398580082489443	-0.00131197216642509	0.396910280557215	0.912979310545599	0.0945040089291185	-0.795369849274118	-84.5767027110326	-112.697654050615
6797	1648549015501	9.72003491534369	0.0889374126297889	0.901384664953594	0.0838287713394409	-0.0591786690471468	-0.0510812969180812	0.00349818447954556	-0.00757820943106757	-0.0259065389307283	0.548095703125	0.42626953125	0.21875	0	0	0	-0.562914099257243	-0.368681713454071	-0.618389061373341	0.405951326880176	-0.0366624741232632	-0.0869994507021576	0.995533504493286	0.917143989268619	-0.39855462873759	-0.00105397356931713	0.396866181400739	0.913008928482829	0.0944030220439541	-0.639658847947322	-84.5827003159306	-112.851064168353
6798	1648549015502	9.74527455832259	0.114782819299888	0.902344846628272	0.105369440959301	-0.0676079843806437	-0.0258541857725589	-0.00104654830842427	0.000114329429309186	-0.0213940165383391	0.537841796875	0.41455078125	0.224365234375	0	0	0	-0.562880466649127	-0.368863408267295	-0.618337211704714	0.405911885669212	-0.0368022426746508	-0.0867288324144409	0.99555195975004	0.917232861915572	-0.398350654227798	-0.000795800512032707	0.396647793333438	0.91312368598362	0.094210732612591	-0.483967431273884	-84.5939121864188	-112.993303379569
6799	1648549015503	9.71917241900303	0.0687390096085669	0.900879239692203	0.0618736574703947	-0.0474438550709937	-0.0519219487204534	-0.0102400493768629	0.00178918551621169	-0.0185388286098317	0.54052734375	0.42529296875	0.22314453125	0	0	0	-0.562867049192956	-0.368890135309105	-0.618386809123083	0.40583063869922	-0.0369643552515958	-0.0866484235435357	0.995552955466586	0.917192831294839	-0.398443121529227	-0.000623800771885952	0.396725278577243	0.913090975535005	0.0942015060088909	-0.379406132552611	-84.5945177597414	-113.103172401622
6800	1648549015505	9.69557803954939	0.095619542797725	0.900587019570746	0.0847144316104822	-0.0557086462628593	-0.0754314168909218	-0.0116673773264906	0.00943971322813688	-0.0170094333156567	0.540771484375	0.42041015625	0.2138671875	0	0	0	-0.562801808401049	-0.368935460361973	-0.618471614712988	0.405750677562364	-0.0372410242363828	-0.0866154648957846	0.99554551244768	0.917165641995753	-0.398506027490363	-0.000362210394201035	0.396762260373066	0.913066649973997	0.0942815010960161	-0.220117674643219	-84.5899927117875	-113.265680671586
6801	1648549015506	9.71900481511395	0.0718945785089346	0.902439794123944	0.061139075301176	-0.0466807922797255	-0.0519136406677312	-0.0177422205268064	0.0110722723870657	-0.017137904772513	0.540771484375	0.426513671875	0.21337890625	0	0	0	-0.562777217633992	-0.368916371005426	-0.61855855648832	0.405669602893063	-0.0374279532014543	-0.0866253503253195	0.995537642181432	0.917096265581572	-0.398665768985544	-0.000210464961637125	0.396905011275349	0.91299597661774	0.0943650290326586	-0.127788166506089	-84.58521201622	-113.367578336132
6802	1648549015507	9.7200195828315	0.0735138900663058	0.878852766168568	0.051267210242625	-0.0654016999694383	-0.053094066468935	-0.0255077123558912	0.00509418951449248	-0.0158137012420654	0.537841796875	0.424072265625	0.220703125	0	0	0	-0.562763071430179	-0.369129679168293	-0.61849728069724	0.40558860827408	-0.037591212545533	-0.0862457985890229	0.995564444405835	0.917176006608162	-0.398482321590817	0.000110823721641229	0.396705273019733	0.913111987439292	0.0940820107831698	0.0674914208384687	-84.6015099839299	-113.55052751281
6803	1648549015508	9.69343058968124	0.074918379922844	0.926611137978223	0.0716809653528884	-0.0194688368171221	-0.0750644324476468	-0.0303775002723903	-0.004009753720441	-0.00986092857653345	0.552490234375	0.41259765625	0.220947265625	0	0	0	-0.562824205452875	-0.369083397455657	-0.618549336777654	0.405466493622907	-0.0376516726109715	-0.0861439215943635	0.995570980052121	0.917060201269675	-0.39874873654347	0.000179867201528849	0.396967175969021	0.913005295645831	0.0940127189578594	0.109619411717806	-84.6054916422832	-113.609113542889
6804	1648549015509	9.72092317464636	0.0997132630945358	0.87814511385406	0.0753636892811495	-0.0733902772059938	-0.0522384578460002	-0.0214252078072809	-0.0178947277744575	-0.0112554944128229	0.54248046875	0.41796875	0.2197265625	0	0	0	-0.562959279783488	-0.369123309663627	-0.618471693699514	0.405361068260239	-0.0375185072891491	-0.0858059077744437	0.99560519675311	0.917011478012574	-0.398860773203776	0.000181086943167486	0.397092320253098	0.912988187103366	0.0936496631372548	0.110790624219349	-84.626385216002	-113.617283339281
6805	1648549015510	9.74605477043733	0.148274051728928	0.901917340673225	0.128659540517477	-0.0705511029468517	-0.0249658572821865	-0.0216407118913472	-0.0285838948570954	-0.00978804759073384	0.530517578125	0.421630859375	0.216064453125	0	0	0	-0.563079295203996	-0.369153726048652	-0.618437615208322	0.405218644625851	-0.0374791147203178	-0.0854792646699117	0.995634778054319	0.916930544211527	-0.399046753183971	0.000256642326702416	0.39728288794225	0.912937557604474	0.0933344677139356	0.157546139867468	-84.6445138016168	-113.675459173462
6806	1648549015511	9.74761718946264	0.124826513993669	0.850434994003133	0.0862918749448705	-0.103928129846088	-0.028178458133004	-0.0399431360472954	-0.0221876080610122	-0.00558171585056759	0.537353515625	0.416015625	0.21728515625	0	0	0	-0.563192529472904	-0.369229326349234	-0.618408235664389	0.40503719998546	-0.0375180827477027	-0.0850622839185032	0.995669021975428	0.916851076967308	-0.39922914238326	0.000441062145493998	0.397462571987384	0.912896762907228	0.092967758619208	0.271823374239581	-84.6655765386082	-113.800645845747
6807	1648549015512	9.72176185886683	0.0769806687771299	0.846832917231193	0.0427752490760449	-0.083775041530669	-0.0542624174614943	-0.0445014042893178	-0.0190645626170961	-0.00413892168829515	0.541259765625	0.4228515625	0.216796875	0	0	0	-0.563339625457355	-0.369154740473299	-0.61843140529394	0.404865213276987	-0.0374652509354938	-0.0848437391349655	0.995689657926574	0.916681712071107	-0.399617873328541	0.000440534627304534	0.397858006990841	0.912747005059985	0.0927464879513167	0.272145992932043	-84.6783094290803	-113.825267462076
6808	1648549015514	9.74624002497195	0.0759397971019236	0.84674969492489	0.0415079580608466	-0.0823076718558524	-0.0298733994409641	-0.0458961279469287	-0.00532811614115554	0.000487127348474065	0.5439453125	0.421142578125	0.221435546875	0	0	0	-0.563454864341837	-0.369154941508202	-0.618414667852024	0.404730210875183	-0.0374241445089057	-0.0845779028788666	0.995713820207589	0.916586492833356	-0.399836171130013	0.000487248950017838	0.398081190918668	0.912676073204894	0.0924864900191977	0.301850033693576	-84.6932568679346	-113.868496386059
6809	1648549015515	9.76678654625834	0.0254613492004537	0.896314930709879	0.0144879593204729	-0.0187510255741	-0.0048544431650992	-0.0485962298268393	0.011527102441637	-0.0025265591926918	0.54248046875	0.412109375	0.222412109375	0	0	0	-0.563518676553231	-0.369002056682349	-0.618527691642461	0.404608054802843	-0.0374780463287091	-0.0846434710601813	0.995706221156756	0.916401673568413	-0.400259608305712	0.000467589531557344	0.398501403666781	0.912484371792658	0.0925683666797822	0.289415054039235	-84.6885513687079	-113.882583974935
6810	1648549015519	9.76469426201372	0.00049445498319438	0.922418008886102	0.00278803802352939	0.0140208455611537	-0.00453237887915847	-0.0528972224281942	0.029909162158079	-0.000982685178317296	0.541015625	0.423583984375	0.217041015625	0	0	0	-0.563586300646257	-0.368779932270157	-0.618660143476943	0.40451386892389	-0.0374780231441859	-0.0848345808123042	0.995689957607088	0.916191851935163	-0.400739782806089	0.000341941725505057	0.398983568870723	0.912255841513185	0.0927436865573709	0.211245958233678	-84.6784945631283	-113.834770973995
6811	1648549015515	9.76439720111878	0.00019679959047651	0.925557529228607	0.00292923937089857	0.014321897610195	-0.0045328550099093	-0.0466849363490552	0.0343920634860082	-0.00234272798721992	0.5400390625	0.414794921875	0.224365234375	0	0	0	-0.563576189381963	-0.368585969391765	-0.618833214970962	0.404440000467241	-0.0376203295675268	-0.085109259325065	0.995661149578695	0.916014363682936	-0.401145338379182	0.000320972269853892	0.3993775110466	0.912051989457723	0.0930525238584773	0.197633365591475	-84.6607270542185	-113.846575819535
6812	1648549015516	9.78651970077457	-0.0254143714195369	0.954183336998861	-0.011292629192791	0.0470587670868376	0.0201523309356411	-0.02982096683245	0.037166207742427	-0.00347410663914932	0.53955078125	0.420654296875	0.225830078125	0	0	0	-0.563517503496812	-0.368518164356668	-0.618941813060466	0.404417380731014	-0.0377892108307716	-0.0852887817826427	0.9956393921731	0.915954525668633	-0.401281889403715	0.000390056064740241	0.399498789049399	0.911975147105784	0.0932847715838235	0.239572179467758	-84.6473470344411	-113.896869484977
6813	1648549015518	9.76232399056157	0.0238376351366076	0.98179679809358	0.0445092725321799	0.0514873635903357	-0.0013250837620582	-0.0222635352785302	0.0370163793876809	-0.000251735301462908	0.541748046875	0.420166015625	0.21923828125	0	0	0	-0.563453752995642	-0.368388986716125	-0.619072679655875	0.40442358982271	-0.0379228564600765	-0.0855948766802626	0.995608042376114	0.915875505190111	-0.401462228922358	0.000371135352975116	0.399667256540571	0.91186709329528	0.0936188454027858	0.227137793321114	-84.6281264740127	-113.895763296542
6814	1648549015519	9.73849576718357	0.0490542633772404	0.983768349337299	0.0677969418867039	0.0439611519850815	-0.0248389260160806	-0.0164007523248075	0.0186194993393026	-0.00329769719886245	0.536865234375	0.419677734375	0.22216796875	0	0	0	-0.563405480968159	-0.368405531167487	-0.619116284156838	0.404409019820365	-0.038055217405937	-0.0856290283038906	0.995600055212894	0.915875810218883	-0.401461418586267	0.000479210398971697	0.399653976189517	0.911864243677991	0.0937032572404777	0.293015363624009	-84.6232404947788	-113.96129966759
6815	1648549015520	9.69076955656919	0.051131232461521	0.958100664224009	0.06094008054212	0.0233032308944434	-0.0747548734200833	-0.0182686656387852	0.000323455236777947	-0.00194063620226286	0.537353515625	0.41748046875	0.223388671875	0	0	0	-0.563444043309728	-0.368368082070463	-0.619139682973506	0.404353581829047	-0.0380579818416107	-0.0855930937496123	0.995603039529567	0.915812300101738	-0.401606273947498	0.00048136095627177	0.399799225862816	0.911803829246388	0.0936715323410271	0.294429991260601	-84.6250655695783	-113.971771218263
6816	1648549015520	9.71551031971889	0.0260936793445027	0.933754833228017	0.0269175421295209	0.0105437727792694	-0.0524166774577761	-0.0185947997412022	-0.0149569390154612	0.000997617474040041	0.53955078125	0.415283203125	0.218505859375	0	0	0	-0.563506283988809	-0.368408452679361	-0.619118761788151	0.404262091595823	-0.0380656584073874	-0.0853715348545601	0.995621768889466	0.915773447492215	-0.401694746585939	0.000568712124856985	0.399887482322509	0.911785628095681	0.0934717597990448	0.348601572347479	-84.6365337472172	-114.031247518564
6817	1648549015521	9.71871432780097	0.0509530795194642	0.883681711102297	0.0305206660410806	-0.0435984467208425	-0.0538931160394984	-0.0201621963544979	-0.0194985052984839	-0.000596800460793112	0.54443359375	0.423828125	0.224609375	0	0	0	-0.563612316679143	-0.368401753920198	-0.619087127044077	0.404168817852643	-0.0379774463263336	-0.0851598925791431	0.995643262552627	0.915702956561631	-0.401855428768238	0.000556519346111117	0.40005725704556	0.911734614383705	0.0932426083921838	0.341966314316146	-84.6497247386484	-114.034702026863
6818	1648549015522	9.74243577048075	0.0253861363453275	0.882588367402884	0.00709058923398578	-0.0333120275221296	-0.030381847712972	-0.0171900157428633	-0.0180559541631921	0.00406047852227822	0.546875	0.415283203125	0.223876953125	0	0	0	-0.563719444165226	-0.368462188354852	-0.61898983856048	0.404113330368688	-0.0378256089767517	-0.0848654902195039	0.995674179576502	0.915702690280704	-0.401856063942162	0.000535617020431756	0.400072251372446	0.911761784921213	0.0929120080456035	0.330293741400241	-84.6687560633251	-114.023129972291
6819	1648549015523	9.76882232921221	0.0488730168372391	0.858738548741443	0.0189466513779693	-0.0657168411386001	-0.00631022859640318	-0.019889278900236	-0.00119639510200818	0.00106982052156659	0.5419921875	0.41943359375	0.221923828125	0	0	0	-0.563771468350256	-0.368415056261221	-0.619005514320645	0.404059712214509	-0.0377949608786485	-0.0848265854897256	0.995678658667713	0.915634174412648	-0.40201219057034	0.000507228256181158	0.40023193223411	0.911696577281603	0.0928641555884747	0.312949050559325	-84.6715188394654	-114.015630589471
6820	1648549015524	9.76763414338818	0.0483310085332498	0.88405852073044	0.0297425767692462	-0.042328418193318	-0.0051445774305332	-0.0164447365315075	0.0201260635032609	-0.000221239143616581	0.541748046875	0.422119140625	0.22607421875	0	0	0	-0.56379284670209	-0.36834114742826	-0.619027055033738	0.404064265006254	-0.0377393915050183	-0.0849172158902012	0.995673041100485	0.915589632154573	-0.402113737712377	0.000409187043599379	0.400339061071844	0.911643355917455	0.0929248502375734	0.252295688826901	-84.6680540603604	-113.961591235128
6821	1648549015524	9.74078555067607	0.0483320032983117	0.934451707310491	0.0501140145384996	0.00366675657020241	-0.0271923181691971	-0.0192387283755321	0.035438621735022	-0.000169674138713271	0.55078125	0.421630859375	0.222412109375	0	0	0	-0.563728262108586	-0.368225423567677	-0.61914683948243	0.404076323356561	-0.0378655428053545	-0.0852070008477817	0.995643494266187	0.9155233132158	-0.402264724682097	0.000392727387970415	0.400478792979628	0.911549701488056	0.0932409678768766	0.241326203271274	-84.6498671215025	-113.960110722558
6822	1648549015525	9.73818584277083	0.0476321015848901	0.986901700373643	0.0694869953481201	0.0498341670449862	-0.0248789184678984	-0.0129906644159878	0.0399340521763386	-0.00304610109524847	0.529296875	0.41015625	0.22021484375	0	0	0	-0.563624697130318	-0.368203066271815	-0.61921173739246	0.404141716540375	-0.0379933474731116	-0.0854419054836612	0.995618494371769	0.915555272323287	-0.402191949879665	0.000422815593211556	0.400393617417686	0.911559825924396	0.0935074055455803	0.259074495310979	-84.6345269637506	-113.973221176184
6823	1648549015526	9.7137358932612	0.0245851476230598	0.964825999081639	0.038937888565126	0.037958077382004	-0.0512735048629693	-0.0160669672527792	0.0384605786940519	-0.00312795558939457	0.540771484375	0.416259765625	0.21728515625	0	0	0	-0.563539023530581	-0.368099590150599	-0.619339833410048	0.40415916597397	-0.0381582750348493	-0.0857467738599731	0.995585976608234	0.915500708241876	-0.402316120580372	0.000438554196548036	0.400502683205729	0.911476401172168	0.0938529213783208	0.267728711044688	-84.6146389658267	-113.989599818671
6824	1648549015526	9.73697783851028	-0.000633345711471045	0.968698068022299	0.0156670476305338	0.0481460518144398	-0.0277729662988353	-0.0132923820313025	0.0261778261402455	-0.000105483803163042	0.544677734375	0.420654296875	0.222900390625	0	0	0	-0.563531462816392	-0.368035057657744	-0.619403485524062	0.404130930357379	-0.0382209630889926	-0.0858415449237181	0.995575405052605	0.915438882562054	-0.402456774926679	0.000443406309225125	0.400638004031181	0.911405383723799	0.0939649735017564	0.270367995783864	-84.6081891135167	-114.001027671389
6825	1648549015527	9.70961853103339	-0.049098489776142	0.993179345295556	-0.0183776468914739	0.0907320822116503	-0.0527212938495296	-0.0210980810071509	0.0156265084620828	-0.000369761634141114	0.52978515625	0.424072265625	0.231689453125	0	0	0	-0.563531925483768	-0.367954715528165	-0.619470469109433	0.404100772311168	-0.0382686695561486	-0.0859485313173296	0.995564341916079	0.915365448647006	-0.402623786276208	0.000426787858540389	0.400801203034208	0.911321533098502	0.0940821925622882	0.259910772094958	-84.6014475682518	-114.001067035769
6826	1648549015528	9.73933672212883	-0.0242212788277732	0.897783989078398	-0.0373077437104947	-0.00907736495807734	-0.0321041342413491	0.00296351186585864	-0.00311584638764278	0.00157120924974396	0.545654296875	0.414794921875	0.218017578125	0	0	0	-0.563444532196632	-0.368067288505583	-0.619479208964226	0.404106718492682	-0.0384560384135905	-0.0859004182401285	0.995561274485757	0.915442422995774	-0.402448462402449	0.000636623540842485	0.400607417915795	0.911403507375343	0.0941134605397325	0.38756715020098	-84.5995798535222	-114.117185187265
6827	1648549015528	9.78699338258778	-0.0263647475169586	0.923829129001541	-0.0301910678708389	0.012287142927981	0.0177923967769455	0.00896223281845959	-0.00932463780961127	0.00166236831190152	0.54248046875	0.42333984375	0.227783203125	0	0	0	-0.563464696142822	-0.368125047801084	-0.6194170427505	0.404121284433711	-0.0383870473366499	-0.0857882854293265	0.995573605857382	0.915490158236525	-0.402339873298195	0.000629703466091869	0.400504937259001	0.911462010419243	0.0939829707642539	0.383886684742028	-84.6070921655041	-114.106729474416
6828	1648549015530	9.76595741007529	0.0719148758902687	0.923687806783479	0.0618152032489438	-0.0237523818590303	-0.00310481515496441	0.0120795206184145	-0.00328424875241602	0.00330909918081165	0.536865234375	0.418701171875	0.22509765625	0	0	0	-0.563486117140906	-0.368222492612724	-0.619299722499967	0.404182440780152	-0.0382399007089278	-0.0856436216164352	0.995591723584619	0.915596672041595	-0.402097500998141	0.000577786643128353	0.400275460327169	0.911582563330097	0.0937911834470747	0.352957667544271	-84.6181485092906	-114.060775013237
6829	1648549015530	9.79145819264491	0.0712955685567159	0.900627593673481	0.0512412161216289	-0.0465913416416032	0.0201184533307455	0.0122948089103511	0.0074092423703879	0.0018709089332209	0.53955078125	0.41796875	0.22314453125	0	0	0	-0.563448377991794	-0.368256370209999	-0.619277670372007	0.404237972136206	-0.0382351744432476	-0.0856841903608884	0.995588414435149	0.915658008280767	-0.401957815365928	0.000571434640923962	0.400135581155429	0.911640353532274	0.0938263422763441	0.34894665609844	-84.6161274108804	-114.048039546366
6830	1648549015532	9.76892713602321	0.0967211599796965	0.876897548023818	0.064908209299339	-0.0772223736328063	-0.00452418283274447	0.00791407550888029	0.0212109939994348	0.00340193199201735	0.53857421875	0.41943359375	0.2255859375	0	0	0	-0.563355636543279	-0.368278842952488	-0.619307556774808	0.404300965532004	-0.0383423120896111	-0.0858293623368004	0.995571789307271	0.915717210324486	-0.401822846206932	0.000625285296827705	0.39998982214447	0.911686196466207	0.0940022412169864	0.381115169744024	-84.6059848620709	-114.071615433698
6831	1648549015533	9.79110173392835	0.0706136217902677	0.904548486346357	0.050808789775789	-0.0455993231926396	0.0201253477974213	0.000333817569890512	0.030465080166002	0.00787509043857996	0.53515625	0.424560546875	0.225341796875	0	0	0	-0.563281604448745	-0.368212325173745	-0.619360393747049	0.404383753799894	-0.038375227504709	-0.0861041033534847	0.99554679714198	0.915733020560164	-0.401786926505702	0.000548402097432343	0.399950468145395	0.911676120711075	0.0942670353595851	0.33331663689998	-84.5907734833427	-114.021771631092
6832	1648549015534	9.74121931580149	0.0472581684468537	0.905291539218784	0.0288475809010834	-0.0339519356285005	-0.0294796229449048	-0.00554047625764902	0.0397488815489674	0.00475480597342524	0.538330078125	0.427001953125	0.227294921875	0	0	0	-0.563096120745804	-0.368215509177448	-0.61948145406025	0.404453737376251	-0.0386798662468187	-0.0864217290273608	0.99550748500403	0.915784628292409	-0.401669026247151	0.000712696990143591	0.399802929617159	0.91169801914098	0.0946801952044386	0.43128088498534	-84.5669322387965	-114.111908712492
6833	1648549015537	9.71328880535577	0.0223550554705872	0.956682877496159	0.026690832457579	0.0215756501782467	-0.0524342069053425	-0.0176761323187708	0.0460528117866529	0.00604134158360707	0.54052734375	0.424560546875	0.228515625	0	0	0	-0.563006329025288	-0.368067263109636	-0.619615384767167	0.404508514452151	-0.0387934704263666	-0.0868310003722478	0.995467450008604	0.915727794923212	-0.401798703125391	0.000638570141394845	0.399922082732812	0.911601985266107	0.0951007266089024	0.384716557644828	-84.5427593358199	-114.073650339663
6834	1648549015538	9.68918099440056	-0.0254502077170816	0.910559311353206	-0.0383907305845605	-0.00297037948532308	-0.0808576399264265	-0.00992456680183595	0.0489958633927805	0.00319769656263369	0.544921875	0.419677734375	0.222412109375	0	0	0	-0.56276095595371	-0.368085347157614	-0.619763887647222	0.404605990106828	-0.0391881984474796	-0.0872322391099776	0.995416908416921	0.915808486465866	-0.401614339955065	0.000859103926528826	0.399698763094834	0.911644919034992	0.0956265673238498	0.514728347049885	-84.5123942147405	-114.191516221665
6835	1648549015539	9.68723227152661	-0.00207172374080291	0.963801221654607	0.00310443789737144	0.032835782372502	-0.0776836450636562	-0.000968374669483279	0.0351144491908242	0.0017794773106901	0.53759765625	0.42138671875	0.225341796875	0	0	0	-0.562662756791825	-0.368023448024344	-0.619845353253476	0.404674068694511	-0.0392990404913073	-0.0875245064661211	0.995386882666395	0.915816857783762	-0.401595279661006	0.000845194104787506	0.399668698318419	0.91162530248006	0.0959387276473934	0.504747181000745	-84.4944339607008	-114.18037287573
6836	1648549015540	9.71216403035693	0.0214678534518077	0.968054156762268	0.0242321486539692	0.0239477415789696	-0.052433324865623	0.00342392857665254	0.0197973727312767	-0.00128690303663339	0.5419921875	0.416259765625	0.23046875	0	0	0	-0.562584996621937	-0.368090508041849	-0.619839436597871	0.404730246341217	-0.0393830985449455	-0.0875711412859346	0.995379458680396	0.915899930179097	-0.401405611172143	0.000923697702028436	0.399470010697831	0.911704354784707	0.0960149989307778	0.551188333365209	-84.4900022158463	-114.214731883961
6837	1648549015541	9.73559068319257	-0.0034394098801304	0.970019371385821	0.00060435451364246	0.0330975069497128	-0.0289467933157557	0.0093419096425391	0.00445375147396267	-0.00431541289200176	0.548583984375	0.423583984375	0.21875	0	0	0	-0.562549759454552	-0.368140116689696	-0.619827758672706	0.404751988506656	-0.0394271918750677	-0.0875587675300847	0.995378801647623	0.915947303887521	-0.401297364567209	0.000980659264224415	0.399357024530716	0.911753194356907	0.0960212452426458	0.585138043420398	-84.4896101715995	-114.24175434856
6838	1648549015542	9.76077358722093	0.0205223782126002	0.971736433890615	0.0228872395317287	0.0240772188303123	-0.00369708068309471	0.0213652711508366	-0.00188410538909823	-0.00101619193113119	0.537841796875	0.4169921875	0.236572265625	0	0	0	-0.562543060796361	-0.36826799900859	-0.619703351460614	0.404835450330815	-0.0393071258106155	-0.0874225560088587	0.995395522674975	0.916088985431434	-0.40097387812331	0.00095907974669468	0.399043757790691	0.911908573138575	0.0958479713121414	0.573297348483245	-84.4995960917061	-114.209743752257
6839	1648549015543	9.71448827516062	0.0232922259258856	0.920106037013648	0.00660782849111197	-0.019107272270806	-0.0547156834454689	0.0197745348936916	-0.00795085043386058	-0.00262861659423024	0.537353515625	0.41796875	0.222900390625	0	0	0	-0.562528538587856	-0.368370395213744	-0.619633703021755	0.404869076719657	-0.0392853479807661	-0.087303330336364	0.995406846443307	0.916178770650838	-0.400768565292484	0.0010086040467126	0.398839719239132	0.912010244232807	0.0957297904085616	0.603642990014465	-84.5063690061101	-114.227117317591
6840	1648549015544	9.76528837650774	0.0464894008439396	0.898160242851552	0.0164054076080645	-0.0532927031492499	-0.00623025906313579	0.0197786758377593	0.00116176094565826	0.00354728902979728	0.543212890625	0.418212890625	0.223876953125	0	0	0	-0.562463338005749	-0.368391321438736	-0.619641653093281	0.404928449778327	-0.0393358879191039	-0.0874078433127238	0.995395678536447	0.916234292707844	-0.400641569697486	0.00102639977141133	0.39870717172854	0.912056029834655	0.0958456553761057	0.613550263368723	-84.4996892583401	-114.229030916728
6841	1648549015544	9.71528577005645	0.0474651834810002	0.920796976537394	0.0284796596442875	-0.0290401508053026	-0.0538327648030723	0.00615682930794827	0.0120598987398356	0.00634809684976074	0.539794921875	0.417724609375	0.231201171875	0	0	0	-0.562430701495423	-0.368385318974002	-0.61963569144297	0.40498836115348	-0.0393122666911692	-0.0875080596370576	0.995387806428308	0.91627291312171	-0.400553368189282	0.0009736075577223	0.398620740011176	0.912085159801857	0.0959279255595782	0.581495829672547	-84.4949856487426	-114.191602664947
