// Start Time : 24/06/2022 06:16:02																																
// Update Rate : 100Hz																																
// Filter Profile : 46.1 human																																
// Firmware Version : 4.4.0																																
PacketCounter	Time_Of_Arrival	Acc_X	Acc_Y	Acc_Z	FreeAcc_X	FreeAcc_Y	FreeAcc_Z	Gyr_X	Gyr_Y	Gyr_Z	Mag_X	Mag_Y	Mag_Z	VelInc_X	VelInc_Y	VelInc_Z	OriInc_q0	OriInc_q1	OriInc_q2	OriInc_q3	Mat[1][1]	Mat[2][1]	Mat[3][1]	Mat[1][2]	Mat[2][2]	Mat[3][2]	Mat[1][3]	Mat[2][3]	Mat[3][3]	Euler_X	Euler_Y	Euler_Z
46914	1656051402334	5.56874657043979	1.19838595890854	8.33445656625709	3.12250225675825E-15	1.17093834628434E-15	0.282372494173551	0.00142790808635377	-0.00421825478716287	-0.00615698738255577	0.180908203125	-0.294677734375	0.661865234375	0	0	0	-0.278794819741197	0.0973059012358349	-0.815637571672546	-0.497534281980918	-0.349466173478412	0.757358544767921	0.551617102944944	-0.865872069547118	-0.485982399676829	0.118687262933062	0.357965016129435	-0.436152658906681	0.825610020140311	8.18062577451572	-33.4780238692372	114.769906264326
46915	1656051402335	5.50018480570756	1.21208860232217	8.31321849428566	-0.0035894239719828	-0.0392079337032292	0.228689198850777	6.27175266885381E-06	-0.00571661062685004	-0.00550293523565259	0.193115234375	-0.302490234375	0.658935546875	0	0	0	-0.27744595604737	0.0994102115293821	-0.811570570441757	-0.504474539010132	-0.337058361926951	0.763671456438309	0.550633786900614	-0.873995301152872	-0.471246098668396	0.118572037397172	0.350034104363875	-0.441285645711717	0.826282702633288	8.16622734581924	-33.4105042692126	113.815016915162
46916	1656051402335	5.53406061765352	1.21745679168281	8.31977620555289	-0.0168003092888134	-0.0190317784976245	0.253397257572026	0.00107412498251942	-0.00602215015100061	-0.00736923736646936	0.187744140625	-0.305419921875	0.6513671875	0	0	0	-0.277476764959167	0.099410820055851	-0.811544161337055	-0.504499958338307	-0.336972873888882	0.76367960566641	0.55067480617172	-0.874016376670552	-0.471194561784938	0.118621491543387	0.350063787865505	-0.441326573903605	0.826248267527236	8.16992323987737	-33.4133198162116	113.809422723322
46917	1656051402336	5.52651943390066	1.22732945637495	8.35164763664834	-0.0109949476404446	-0.0439412259377338	0.276748751766968	0.00495033373011781	-0.00726427090958839	-0.00507211299886901	0.192138671875	-0.301025390625	0.663818359375	0	0	0	-0.277521423697264	0.0994127020886129	-0.811521044926933	-0.504512207675081	-0.336898583391721	0.763666238667303	0.550738795100169	-0.874022857136198	-0.471169093940514	0.118674892537354	0.350119107893484	-0.441376892049198	0.826197948104969	8.17404257045856	-33.4177121739267	113.80512754065
46918	1656051402336	5.52891024364438	1.20472825279283	8.35845612849427	0.0111731879738471	-0.0346417379874683	0.281007826873349	0.0029145485564453	-0.0042895711089718	-0.00657498258995633	0.1845703125	-0.296630859375	0.66552734375	0	0	0	-0.277549449151102	0.0994025731479681	-0.8114999548916	-0.504532709483156	-0.33682609667501	0.763678283130994	0.550766430052498	-0.874034800816677	-0.471131747026296	0.118735183940155	0.350159031812731	-0.441395918442896	0.826170863454966	8.17840361778726	-33.4196091738415	113.800241252081
46919	1656051402337	5.52263112539657	1.2120258296554	8.2990872535757	-0.0132267357867722	-0.0168987173468596	0.229366703033143	7.17689222626521E-05	-0.00728652530354091	-0.00526641353493698	0.187255859375	-0.30322265625	0.659912109375	0	0	0	-0.277581318645291	0.0994125113091262	-0.811476686781408	-0.504550642596581	-0.336754521189037	0.763672055577353	0.55081883045971	-0.874052279493462	-0.471091603301181	0.118765794787078	0.350184244607072	-0.441449535994074	0.826131528268708	8.18086777048194	-33.4232063109685	113.795918080017
46920	1656051402337	5.52768338694495	1.22879126988507	8.35066232218448	-0.0109943998034925	-0.0439205937529699	0.27674884219957	0.00178160125451767	-0.0024149123993658	-0.00494492709543361	0.194091796875	-0.298583984375	0.657470703125	0	0	0	-0.27759806923411	0.0994045117608287	-0.811461745504257	-0.504567032793731	-0.336702842750448	0.763684689233479	0.550832906709586	-0.87406269138534	-0.471061704918642	0.118807750956566	0.350207948527702	-0.441459585454328	0.826116109998172	8.18386933863731	-33.4241726304015	113.792322050672
46921	1656051402338	5.53603847031347	1.21992324954699	8.31809890527422	-0.0168753981386839	-0.0191350471643893	0.253396936190498	0.0019775867282787	-0.00712283581718651	-0.00423610013552194	0.1884765625	-0.306884765625	0.656982421875	0	0	0	-0.27763335592008	0.0994064669673163	-0.811442229304877	-0.504578618756643	-0.336640274348385	0.763675696478343	0.550883614110061	-0.874069900575521	-0.471037543637428	0.11885050017529	0.350250102918676	-0.441500920828413	0.82607614801126	8.1871648074884	-33.4276537281417	113.788640716683
46922	1656051402339	5.53459242846713	1.24355023231117	8.31050726461386	-0.0390435387872907	-0.0284345634901658	0.249137947351853	0.00239666312938185	-0.00688820469461724	-0.0027877770515386	0.1865234375	-0.302734375	0.6640625	0	0	0	-0.27766873474972	0.0994102514331381	-0.811426824660747	-0.504583178349682	-0.336591779738044	0.763658414897838	0.550937200748413	-0.874070889844202	-0.471026836073066	0.118885656098462	0.350294238233718	-0.441542234734933	0.826035351304979	8.18995270490399	-33.4313326392594	113.786072764971
46923	1656051402340	5.52897264680952	1.22984444414437	8.34965370169	-0.0109392074446621	-0.0438014983642304	0.276749419925796	0.00119835015367336	-0.00344413538678423	-0.00139388831417844	0.190185546875	-0.292236328125	0.6591796875	0	0	0	-0.277686372279975	0.0994080866846277	-0.811418871938386	-0.504586687511597	-0.336565106872122	0.763653779618079	0.550959920240284	-0.874070863485069	-0.471020614175551	0.118910498393342	0.350319931552036	-0.441556888630117	0.826016621903378	8.19182406966351	-33.4328924593255	113.784525412175
46924	1656051402340	5.51857051494858	1.19955696865346	8.33701770794001	0.0148883256468729	-0.032220258868917	0.25697806872183	-0.00296665430532706	-0.00557631148654434	-0.00466602537813061	0.188720703125	-0.29736328125	0.658203125	0	0	0	-0.27770383021077	0.099427712798303	-0.811397882363959	-0.504606964982896	-0.336504787154037	0.763651132280082	0.551000432295444	-0.874096958972822	-0.470971881636897	0.118911702627894	0.350312766734073	-0.441613445079234	0.825989425227932	8.19217197133323	-33.435673907849	113.780809000331
46925	1656051402341	5.55244633113424	1.20479999019294	8.3435796393572	0.00171795968208713	-0.0119139589595155	0.281686295519551	0.00381797077423908	-0.00538968644679077	-0.00344249527282796	0.193603515625	-0.294189453125	0.666259765625	0	0	0	-0.277735410619059	0.0994148072417515	-0.811383693759168	-0.504614941605059	-0.336453604794371	0.763650645869354	0.551032361013571	-0.874094695112964	-0.470960913620016	0.118971768994051	0.350367572409673	-0.441625983050723	0.825959475578696	8.1965470687689	-33.4378661104076	113.777606652231
46926	1656051402342	5.51958968377697	1.20035810690027	8.33622768071666	0.0149285773993019	-0.0320905171500596	0.256978423431125	0.00317629838091839	-0.0105674552197633	-0.00563008825279971	0.18212890625	-0.294677734375	0.663330078125	0	0	0	-0.277789093993379	0.0994207651119467	-0.811356391138119	-0.504628117807778	-0.336367363952234	0.763630488533528	0.551112940738893	-0.874102505591833	-0.470931948364669	0.119029028927974	0.35043088646109	-0.441691721669653	0.825897461445786	8.20104571563105	-33.443398902022	113.772745664431
46927	1656051402344	5.5518101533962	1.2290785149281	8.33535001571074	-0.0204260774172952	-0.0210462263619414	0.277428079416705	0.00204345710152956	-0.00869274679566139	-0.00399980154270753	0.18994140625	-0.306396484375	0.660400390625	0	0	0	-0.277828287978653	0.0994215229558385	-0.811335729465086	-0.504639611272589	-0.336300610267003	0.763620071235544	0.551168110779518	-0.874108517279748	-0.470908447015584	0.119077850788342	0.350479955993266	-0.441734786195962	0.825853606343985	8.20479347806873	-33.4471872090166	113.76883914057
46928	1656051402345	5.54161394983115	1.1992640232147	8.32251280405797	0.00540133036666824	-0.00946556770803808	0.257656221912987	0.00446612768853408	-0.00593038825678411	-0.00675761334162718	0.187255859375	-0.296875	0.66015625	0	0	0	-0.277866973460138	0.0994089813221169	-0.811312659649064	-0.504657872014064	-0.336220754548678	0.763625695163671	0.551209036479372	-0.874115586262599	-0.47087657329347	0.119151980999862	0.35053893658695	-0.441759041117665	0.825815598985204	8.2102043470095	-33.4499975207477	113.763664944997
46929	1656051402345	5.53402626155637	1.20914444964713	8.35443178983226	0.011332783081754	-0.0340093044731089	0.281009799657973	0.00149308670452011	-0.00578924293128474	-0.00592064464132501	0.1884765625	-0.298095703125	0.6611328125	0	0	0	-0.277893868025609	0.0994004806401734	-0.811290834307594	-0.504679823978287	-0.33614654676602	0.763638662809704	0.551236330224602	-0.874129799004514	-0.470835639435495	0.119209459061335	0.350574661933242	-0.441780254537904	0.825789085124536	8.21437099259279	-33.4518717954512	113.758642220756
46930	1656051402346	5.53450487809692	1.20951938082792	8.35406045713102	0.0113327821264454	-0.0340093017734929	0.281009799668142	7.23572049742886E-05	-0.00728812330095411	-0.00526572264905575	0.186279296875	-0.298095703125	0.66015625	0	0	0	-0.277926231234999	0.0994112612392052	-0.811267455306285	-0.504697460951812	-0.336074965800608	0.763631255334779	0.551290235028655	-0.8741472440489	-0.470795748095249	0.119239084603783	0.350599790478879	-0.441835568341057	0.825748822260681	8.21677968660393	-33.4555735834609	113.754348013882
46931	1656051402347	5.52231548332729	1.20284842069379	8.33406318354288	0.0150034078732809	-0.0314596725158836	0.256980302861324	0.00262616323755563	-0.00766442213054688	-0.00755106155481058	0.191650390625	-0.300537109375	0.655029296875	0	0	0	-0.277961418799013	0.0993983298247024	-0.811240219368448	-0.504724408134114	-0.335981442985816	0.763647677582004	0.551324491105538	-0.87416328071931	-0.470746487723457	0.119315979391203	0.350649438344368	-0.441859670958599	0.825714843374599	8.22233980985532	-33.4579261226072	113.748015068742
46932	1656051402348	5.53065562901517	1.19416930440819	8.30146691946561	0.00911117590680363	-0.0067218021334164	0.233626230762047	0.00326733326912966	-0.00248621949268752	-0.00536397618085276	0.188720703125	-0.30078125	0.663818359375	0	0	0	-0.277982414488768	0.0993838957503526	-0.811224850780765	-0.504740388691259	-0.335925834517583	0.763661942394218	0.551338617768024	-0.87416984360215	-0.470719962578559	0.119372531876609	0.350686353085286	-0.441863275876972	0.825697237000956	8.22635665549176	-33.4588962910074	113.744124906414
46933	1656051402348	5.55447316159956	1.23242043291176	8.33308212311723	-0.0203951896753282	-0.0202718990964715	0.277429727298005	0.00327420038973562	-0.00820553985348924	-0.0108659214951528	0.197265625	-0.30029296875	0.66064453125	0	0	0	-0.278020812605135	0.0993642848285316	-0.811189436316706	-0.50478001650925	-0.335803125382603	0.76369375568824	0.551369303195297	-0.874195112536066	-0.470647747666872	0.119472184353332	0.350740881850593	-0.441885217153609	0.825662333317789	8.23347320470135	-33.4610036932547	113.735531043072
46934	1656051402349	5.53161586158145	1.19566809072698	8.30061135561689	0.00909130220531802	-0.00641363050503663	0.233626450231519	0.00501809672895338	-0.00883443076617842	-0.00483694476791223	0.189453125	-0.299072265625	0.6669921875	0	0	0	-0.278071712461676	0.0993595054390075	-0.811167439065381	-0.504788269681119	-0.335729851041947	0.763677480321416	0.551436463401982	-0.874193751628496	-0.470632982942516	0.119540286014064	0.350814412094268	-0.441929068309115	0.825607622815094	8.23864047978246	-33.4656162754749	113.731374043892
46935	1656051402349	5.54275829454381	1.22655649106287	8.31264661219651	-0.0167382462882074	-0.017656965026549	0.253399866415362	-0.00287022868696971	-0.0032161928510603	-0.00990023582471289	0.18408203125	-0.301025390625	0.6591796875	0	0	0	-0.278073925322211	0.0993520193868098	-0.81113824533293	-0.504835433837479	-0.335632153596044	0.763728243930486	0.551425631336936	-0.8742370680088	-0.470540721971774	0.119586696106458	0.350799952097857	-0.441939586809258	0.825608136599321	8.24179004334478	-33.4648723095456	113.723828269258
46936	1656051402349	5.53244118573366	1.19656040478874	8.29993269867709	0.00908917588119283	-0.00607849247159353	0.23362666051975	0.00120661626409583	-0.00916421329750113	-0.00689574841728056	0.187255859375	-0.30126953125	0.653564453125	0	0	0	-0.278117566247757	0.0993606686305091	-0.811108694312162	-0.504857170776986	-0.335539712918963	0.763720186525573	0.551493044151605	-0.874255975886641	-0.47049338928871	0.119634690880696	0.350841259946371	-0.442003899676198	0.825556153747446	8.24556435414929	-33.4695024480696	113.718238167773
46937	1656051402350	5.53981847640143	1.1902038939781	8.35848432341468	0.0334880280826479	-0.0234430235977692	0.285271004302082	0.00155997434191426	-0.00735963735869004	-0.00568414603270972	0.196044921875	-0.304443359375	0.663330078125	0	0	0	-0.278145302150703	0.0993510392483253	-0.811086619482276	-0.504879250503113	-0.335464266605817	0.763733559413207	0.55152042215738	-0.874269658736054	-0.470452626823384	0.119694986229668	0.35087930922778	-0.442024180493568	0.825529123783543	8.24992929501106	-33.4713829320894	113.713124251146
46938	1656051402350	5.52554463673979	1.20687077891646	8.33134089735851	0.0149785996995984	-0.0304656913770419	0.256983396132878	0.00214109705956518	-0.00633132138994988	-0.00923568404969277	0.198486328125	-0.30126953125	0.659912109375	0	0	0	-0.278180952709394	0.09934549878418	-0.811055569549135	-0.504910578740776	-0.335361330050698	0.763749023025619	0.551561608647699	-0.874293125022312	-0.470391558693955	0.119763571457229	0.350919235502054	-0.442062451851413	0.825491658842032	8.25496085328168	-33.4742119417005	113.706223453817
46939	1656051402352	5.53870050987798	1.21458995644977	8.35054341909863	0.0112697549305605	-0.0323244794872754	0.281015406393514	0.00149387247690094	-0.00579044248843909	-0.00592061879264742	0.188232421875	-0.295654296875	0.663330078125	0	0	0	-0.278198681900998	0.0993303659763234	-0.811035846231164	-0.504935469056846	-0.33529133095378	0.763774377102583	0.551569056663627	-0.874308684652011	-0.470347300966705	0.119823789021237	0.350947356920255	-0.442065738725471	0.825477943567113	8.25918956522667	-33.4747235394269	113.701120795737
46940	1656051402352	5.53918011115245	1.21506145001294	8.35015669814548	0.01126997176307	-0.0323250905161765	0.281015404194619	0.0011407961437952	-0.00759546288794559	-0.00713213814108577	0.185791015625	-0.304931640625	0.64990234375	0	0	0	-0.278235926659341	0.0993350202539897	-0.811007822948294	-0.504959041887384	-0.335202270264384	0.763774323658101	0.551623259598625	-0.874328609298475	-0.470297839534628	0.119872536851673	0.35098279298535	-0.442118450926525	0.825434645734314	8.26293068626865	-33.4784467828054	113.695520495286
46941	1656051402354	5.54154860052313	1.19251581527403	8.35700780198438	0.0333191962680722	-0.0225218973899052	0.285273659228419	0.00582033808039515	-0.00286219824845521	-0.00765088733909817	0.1923828125	-0.298095703125	0.6591796875	0	0	0	-0.27824865304626	0.0992907245376	-0.810991630491299	-0.504986746728868	-0.335132145412273	0.763825029487134	0.551595657561177	-0.874335070937431	-0.470259475297985	0.119975870996219	0.351033657702798	-0.442071657337862	0.825438078197482	8.26992121859557	-33.4765507565691	113.689709916572
46942	1656051402355	5.50633300707833	1.21135136363404	8.34272266880359	0.024361504927641	-0.0520052557648152	0.256314514151352	0.00275314692853699	-0.00508420619869696	-0.00157648534928814	0.192138671875	-0.305419921875	0.657958984375	0	0	0	-0.27827698254033	0.0992902107362435	-0.810981951149587	-0.504986781955538	-0.335100542076877	0.763809970991156	0.551635708519918	-0.874330691949058	-0.470259608204284	0.120007258144813	0.351074732522387	-0.442097533476542	0.825406750080403	8.27236441432634	-33.4793019318575	113.688137533276
46943	1656051402355	5.54792780867606	1.20770718468526	8.31708357081537	0.00507519871375097	-0.00649895624799763	0.257658743041524	0.00294147725308183	-0.000360158169230412	-0.0120490058562872	0.18798828125	-0.302001953125	0.66796875	0	0	0	-0.278269645566849	0.0992433677147865	-0.810957777927328	-0.505038850723287	-0.335003527232405	0.763897534781348	0.551573379612202	-0.874363201816765	-0.470173026449459	0.120109602064499	0.351086354121865	-0.442038325888531	0.825433516641456	8.27905669589449	-33.4750204803844	113.679618625277
46944	1656051402355	5.53533194712558	1.20125662868273	8.29732654474041	0.00873486704626543	-0.00422530581203812	0.233627925166456	0.00107484877737173	-0.00602676992874162	-0.00736835360037314	0.19189453125	-0.3017578125	0.656005859375	0	0	0	-0.278300444845133	0.09924399747701	-0.81093131660814	-0.50506424453526	-0.334917942582056	0.763905528293226	0.55161428152256	-0.87438412287747	-0.47012147571362	0.120159076780094	0.351115903081018	-0.442079338938041	0.825398982727569	8.28276136854997	-33.4778300604535	113.674014112206
46945	1656051402357	5.52763181596105	1.21113987635638	8.32933661496878	0.0144063169718637	-0.0283421425521958	0.256990432000325	0.00200812080713724	-0.00319367793286714	-0.00970872216189363	0.1904296875	-0.304931640625	0.65869140625	0	0	0	-0.2782991062084	0.0992107400362681	-0.81091014092395	-0.505105513622413	-0.334836055183687	0.763969845909296	0.551574918474684	-0.874410887022765	-0.470051298339388	0.120238835596146	0.351127351263168	-0.442042816332064	0.825413673090124	8.28803746149527	-33.4751261842466	113.667088700858
46946	1656051402359	5.54857054840926	1.20976740580558	8.31635535724377	0.00485429740542925	-0.0058834423719633	0.257659230362247	0.0039812699492357	-0.00459751522161408	-0.00844332525630734	0.19775390625	-0.297607421875	0.657470703125	0	0	0	-0.278331953748001	0.0991944497516861	-0.810884412601321	-0.505131917484425	-0.334746138922658	0.763989226390384	0.551602650860015	-0.874425166391763	-0.470004414153937	0.120318240747413	0.351177520432488	-0.442059173228242	0.825383569322562	8.29373300853734	-33.4770311330548	113.660897329518
46947	1656051402362	5.54087177482447	1.21985054549572	8.34833589065069	0.0105599065908813	-0.0300472252557536	0.28102320986863	0.00398135827652015	-0.00459767206216585	-0.00844332470350013	0.191162109375	-0.299560546875	0.653564453125	0	0	0	-0.27834312679366	0.0991604853162542	-0.81086321588397	-0.505166454789785	-0.334663913443698	0.764040513100493	0.551581507467106	-0.874443071249705	-0.46994810221393	0.120408041130607	0.35121130417732	-0.44203040117922	0.825384603837148	8.29982663571535	-33.475578781018	113.654310242069
46948	1656051402363	5.53904840470345	1.24375033651196	8.34091126369046	-0.0116077702421735	-0.0393493068362272	0.276767018972098	0.000941423242361975	-0.00288858911816254	-0.00784149385940167	0.19677734375	-0.29833984375	0.66064453125	0	0	0	-0.278361126748877	0.0991530808874942	-0.810839835909386	-0.505195516773511	-0.334585145894082	0.764064573212651	0.551595964550509	-0.874466026478512	-0.469892312764927	0.120459050881659	0.351229196795935	-0.442048122228563	0.825367499331228	8.30346344089056	-33.4765718439084	113.648691124653
46949	1656051402364	5.52841850895778	1.21386015491063	8.32841845905356	0.0140862209250938	-0.0271293397520643	0.256994225384034	0.00087437938433284	-0.00131922400976091	-0.00807818797916904	0.189697265625	-0.302490234375	0.664306640625	0	0	0	-0.278350897812645	0.0991195074845832	-0.810821987611257	-0.50523638559494	-0.334513944715712	0.764133532965071	0.551543619842576	-0.874493548561395	-0.46982303581395	0.120529450936537	0.351228493028731	-0.442002555215331	0.825392201845816	8.30800334440036	-33.4729763188037	113.642311146346
46950	1656051402364	5.54908774192455	1.21241233992694	8.31562506823113	0.00453687973472998	-0.00467245439777567	0.257660013055716	0.00378026570933178	0.000110571458712077	-0.00915346807919586	0.193359375	-0.29541015625	0.656982421875	0	0	0	-0.278364643861544	0.099091187291915	-0.810800830289103	-0.505268320055212	-0.334434099592841	0.764176980718429	0.551531844202665	-0.874510912959754	-0.469769722699326	0.120611238072143	0.351261293261616	-0.441984105794614	0.825388123297829	8.31360260699049	-33.4721674780523	113.636090334097
46951	1656051402365	5.54910020693742	1.21308020175373	8.31551934703774	0.00433677069547099	-0.0039272447474994	0.257660419410929	0.00094179916083622	-0.00288900008270286	-0.00784143135557408	0.184814453125	-0.29638671875	0.656982421875	0	0	0	-0.27835602333082	0.0990582795643553	-0.81078464325565	-0.505305495503473	-0.334368560978884	0.764240934258752	0.551482964226657	-0.874534809368859	-0.46970762692748	0.120679792874904	0.351264192070705	-0.441939520307321	0.825410763050404	8.31803694855093	-33.468810109242	113.630205347777
46952	1656051402366	5.52845657833747	1.21580842756309	8.32810899688971	0.0138910814609568	-0.0263856671643671	0.256996472580933	0.00194137573368544	-0.00162540243277273	-0.00994538687155849	0.1923828125	-0.300537109375	0.653564453125	0	0	0	-0.278372563714107	0.099040604151605	-0.810758170169562	-0.505342323582564	-0.334275703534822	0.764280461375116	0.551484478826504	-0.874561208933021	-0.469640189450921	0.120750918348958	0.351286842702532	-0.441942834326731	0.825399349001042	8.32298420637543	-33.4689141390566	113.623274012968
46953	1656051402366	5.50979405831975	1.19524417203182	8.34793892905664	0.0453574163541443	-0.0388884865901053	0.260591842747901	-0.00103156564415368	-0.00148630499141696	-0.00910674625761932	0.194091796875	-0.29931640625	0.662109375	0	0	0	-0.278353723350972	0.099016210490704	-0.810738682013521	-0.505388745663861	-0.33420284090592	0.764353349403588	0.551427618446818	-0.874599472852352	-0.46955601163274	0.120801134208013	0.351260904765675	-0.44190622217284	0.825429989513422	8.32609216461342	-33.4650087873882	113.616683012849
46954	1656051402367	5.528350055168	1.21687147443821	8.32802444809315	0.0136403209947023	-0.0257308567869208	0.256998509895336	0.000320110778454797	0.0015828960779335	-0.00999956359815595	0.18994140625	-0.306396484375	0.660400390625	0	0	0	-0.278353111623077	0.0989968803309256	-0.810715777334422	-0.505429610643796	-0.334120907868422	0.764407339999657	0.551402427887137	-0.87463169872402	-0.46948105273841	0.120859144075944	0.351258609164696	-0.441892475240621	0.82543832586899	8.32995139640447	-33.4632786758982	113.610041609887
46955	1656051402368	5.53028216367247	1.19427570764713	8.33519844961274	0.0354220320893984	-0.015662736798087	0.261256671358542	0.00194177571463954	-0.00162560718925128	-0.00994539065266307	0.197509765625	-0.300537109375	0.654052734375	0	0	0	-0.278334980043196	0.0989574930209004	-0.810699724380943	-0.50547305600599	-0.334053257072638	0.764487070681904	0.551332876037121	-0.874660398062292	-0.469408808453968	0.120932041276655	0.351251490389257	-0.441831290546547	0.825474106918744	8.33454890368469	-33.4585019682586	113.603591458393
46956	1656051402369	5.50758810954734	1.22040548700181	8.34057435302539	0.0228064497222384	-0.0474225500091929	0.256340782716377	0.00349600726148984	-0.0032646283537131	-0.0101279605032901	0.197509765625	-0.30419921875	0.656005859375	0	0	0	-0.278362050701798	0.0989374076523872	-0.810671331324719	-0.505507616821272	-0.333953236129534	0.764520226076097	0.551347494779077	-0.87468190481705	-0.469346877405406	0.121016833768742	0.351293042151746	-0.441839713686251	0.82545191619223	8.34053162613257	-33.4595059377718	113.59638524909
46957	1656051402370	5.5305167150117	1.19583535693546	8.33481920244761	0.0351361650337219	-0.0151266344589813	0.261258491723767	0.00200957004800422	-0.00319542656854882	-0.00970860612989407	0.18701171875	-0.30126953125	0.65771484375	0	0	0	-0.278359261435281	0.0989121454646294	-0.810645388715079	-0.505555697038187	-0.333859117530874	0.764586565568261	0.551312500669119	-0.874719012602315	-0.469259649343633	0.121086871666264	0.351290106085465	-0.441817570101531	0.825465018105577	8.34516011408539	-33.457102671052	113.588638374258
46958	1656051402371	5.52867512106155	1.2199231580127	8.32736216840897	0.0129702265273946	-0.0244340167962543	0.2570026255837	0.0050505259723158	-0.00490366977248068	-0.0103105580834093	0.196044921875	-0.294189453125	0.654541015625	0	0	0	-0.278397172151906	0.0988899273180388	-0.810614861752015	-0.505588115682733	-0.333751343636411	0.764613128755942	0.551340914457598	-0.87473583323454	-0.469202879110833	0.121185313836209	0.351350626406679	-0.441831892882525	0.825431593625711	8.35218239271463	-33.4590540204177	113.581125239718
46959	1656051402372	5.51029694143197	1.19977678672249	8.34695674609289	0.0443317639150771	-0.0368123152975187	0.260604210001913	0.00505065334298553	-0.00490389558331759	-0.010310557707445	0.192626953125	-0.298583984375	0.66552734375	0	0	0	-0.278400835837895	0.0988456884532343	-0.810592086661633	-0.505631262404243	-0.333660002168507	0.764683955578516	0.551297969372015	-0.874758844715927	-0.469133112707396	0.121289266436597	0.351380088428713	-0.441783397879848	0.825445008957935	8.35911175341338	-33.4561047346047	113.573430388697
46960	1656051402372	5.54205149321045	1.22920211315019	8.34618086448077	0.00895146181264465	-0.0259212841916885	0.281036203383719	0.00576602171218221	-0.00701586334688363	-0.0133888195688385	0.18505859375	-0.302001953125	0.65869140625	0	0	0	-0.278450665406134	0.0988215374082389	-0.810551188671959	-0.505674105745615	-0.333517851426507	0.764715649289914	0.551340020777516	-0.874783340681039	-0.469056005045289	0.12141075322176	0.351454050548244	-0.441810411672314	0.825399061358306	8.36782519087925	-33.4589926452488	113.563612131267
46961	1656051402374	5.52966187230418	1.22322091480809	8.32622315325354	0.011988767920901	-0.0226227672292194	0.257008074002169	0.0061178075746267	-0.0052101750910888	-0.0121779145309038	0.1982421875	-0.2939453125	0.656982421875	0	0	0	-0.278442643774902	0.0987643001040678	-0.810534613673892	-0.50571627143005	-0.333441493877063	0.764800699721204	0.551268228602909	-0.874801471047422	-0.468993331671684	0.121522183574692	0.351481374206799	-0.441729718893183	0.825430614305194	8.37508064499785	-33.4540623238743	113.556470763633
46962	1656051402374	5.52203379003977	1.23358923271072	8.35811480586067	0.0178746927513061	-0.0473390631803032	0.280385613163418	0.00511928293679235	-0.00647407287640652	-0.0100736071254407	0.190673828125	-0.29541015625	0.6591796875	0	0	0	-0.278486807388602	0.0987458266501879	-0.810502664455876	-0.50574676542673	-0.333330614741808	0.764819381823093	0.551309363663987	-0.87481702185013	-0.468938941959143	0.121620092893854	0.351547833953103	-0.441755115309355	0.825388719659349	8.38215194220406	-33.4568872363348	113.54897791796
46963	1656051402376	5.543036774304	1.2323377802273	8.34506407493564	0.00816344450343311	-0.0239574285421543	0.281041723715388	0.00200973967823647	-0.00319733657278237	-0.00970845781756709	0.186279296875	-0.296630859375	0.656982421875	0	0	0	-0.278480032224419	0.0986999613331834	-0.810479453802029	-0.505796643177749	-0.333237254804815	0.764903637369976	0.551248907072233	-0.874847511020431	-0.468856146765899	0.121719949479085	0.351560470575842	-0.441697112485485	0.825414378570229	8.38867917104955	-33.4527354673025	113.540788952261
46964	1656051402376	5.51401082057877	1.18158354040829	8.35234622608347	0.0657237848691652	-0.0255501707512544	0.264870375225421	0.00279373562029259	-0.00687907335858907	-0.012549577614119	0.1865234375	-0.3056640625	0.662353515625	0	0	0	-0.278521461204543	0.0986882546282741	-0.810439439358165	-0.505840230882968	-0.333102912937503	0.764932152477609	0.55129053274886	-0.874879340008781	-0.46877257843738	0.121813012978787	0.351608574722447	-0.441736427987484	0.825372848093822	8.39541793494099	-33.4555940291477	113.531548815867
46965	1656051402378	5.53086079676941	1.22707254562686	8.3248599780665	0.0109406689708753	-0.0206732763957849	0.257013458352208	0.00795605494846807	-0.00347345985089203	-0.0113870926958484	0.191650390625	-0.302978515625	0.651611328125	0	0	0	-0.278499957003538	0.0986272822726564	-0.810432593859544	-0.505874929158016	-0.333056659996799	0.765019674267468	0.551197023953754	-0.87489044975671	-0.468726430481764	0.121910763644258	0.351624746222843	-0.441633820434444	0.825420866281074	8.40157702537222	-33.4491726276321	113.526237262814
46966	1656051402379	5.50453166716458	1.21630146415986	8.37673674429493	0.0485428951580986	-0.0585321520457742	0.284004873249016	0.003213949138629	-0.00664295772390172	-0.0111016084057098	0.188720703125	-0.2958984375	0.666259765625	0	0	0	-0.278540346408348	0.0986151888552065	-0.810397005144219	-0.505912061531498	-0.332936522839336	0.76504262133322	0.551237752066428	-0.874915856792635	-0.468656061048004	0.121998934322307	0.351675298098206	-0.441668749162271	0.825380639899539	8.40797045730868	-33.4519694351281	113.518044034682
46967	1656051402381	5.53357864097194	1.20571374952312	8.33136304930685	0.0324252980135818	-0.0103818985712669	0.261273589142918	0.00207858585855128	-0.00476785693502762	-0.00947128164700145	0.19287109375	-0.30615234375	0.655029296875	0	0	0	-0.278517788971206	0.098582292999517	-0.810383649190303	-0.505952284171695	-0.33288025473607	0.765117072170581	0.55116839702578	-0.874944761282329	-0.468587635296804	0.122054466331871	0.351656651737824	-0.441612379717856	0.825418745467096	8.41136011545981	-33.4472068648389	113.512461167519
46968	1656051402381	5.53981563913191	1.22059719092059	8.29150953243719	0.00437660231921181	0.0050337339051805	0.233630396618881	0.00618739666310751	-0.00678093659246894	-0.0119411334018177	0.188720703125	-0.301513671875	0.660400390625	0	0	0	-0.278566534643097	0.0985572543992504	-0.810347288844952	-0.505988561969393	-0.332752521866164	0.765143413113033	0.55120895907219	-0.874962424400782	-0.468524085522854	0.122171752756846	0.351733585371676	-0.441634168350585	0.825374306764436	8.41977389385583	-33.4499922052166	113.503696415183
46969	1656051402382	5.53239317225769	1.23100224131289	8.3232614476101	0.00932899277513938	-0.0190114164530521	0.257018355146583	0.0044189952439388	-0.010088673796287	-0.0124946500272438	0.196533203125	-0.29833984375	0.661865234375	0	0	0	-0.278570498175251	0.0985439358879497	-0.810320733354148	-0.506031500346076	-0.332661196407784	0.765192766296551	0.551195572199173	-0.874998499546376	-0.468442426714423	0.122226505494897	0.351730229289627	-0.441635283080207	0.825375140492208	8.42348480337025	-33.4490729370247	113.496593908159
46970	1656051402382	5.53503934031387	1.20879038540672	8.32994680908078	0.0314854685037783	-0.0096971576789286	0.261277252754592	0.00512085187879835	-0.0064755025382308	-0.010073749795716	0.187744140625	-0.29638671875	0.656982421875	0	0	0	-0.278614096918909	0.0985253423134644	-0.81028906163005	-0.506061832707001	-0.332551212950584	0.765211636557294	0.551235740897126	-0.875013833646463	-0.468388356798492	0.122323906669666	0.35179607970018	-0.441659935349492	0.825333883840151	8.43051632663662	-33.4518313256202	113.489150808067
46971	1656051402384	5.51474313447727	1.21197460434753	8.34225685409761	0.0405789738148431	-0.0312230678943016	0.26063890161965	0.00576788767993852	-0.00701919670959746	-0.0133889687311265	0.195068359375	-0.2998046875	0.652099609375	0	0	0	-0.278622123934244	0.0984743171758404	-0.810260206703689	-0.506113542936382	-0.332437587421506	0.765293081021325	0.551191210570575	-0.875041574639354	-0.468303781026269	0.122449219389838	0.351834468354152	-0.441608501749443	0.825345041822245	8.43891608112127	-33.4487734288229	113.479765724958
46972	1656051402384	5.51313056766722	1.23642235321243	8.33455146305829	0.0184077437234708	-0.0405178857991125	0.256379936781469	0.00583731018460528	-0.00858902390542744	-0.0131516728550943	0.180419921875	-0.30029296875	0.663330078125	0	0	0	-0.278677684542368	0.0984536711443332	-0.810218159183026	-0.506154282117989	-0.332293181663455	0.765317099222089	0.551244935630492	-0.875064463658883	-0.468229434663653	0.122569902324946	0.35191394667073	-0.441645711122437	0.825291245552616	8.44765600695277	-33.4524627412405	113.470013071272
46973	1656051402385	5.57009952395938	1.21728474624295	8.33517609052682	0.0168655720825663	0.0123952882709001	0.285951807495088	0.0034229637030793	-0.0113537729766982	-0.0103893179216358	0.186279296875	-0.30615234375	0.657958984375	0	0	0	-0.27867695562356	0.0984377951804714	-0.810198730531969	-0.50618886981914	-0.332223964951213	0.76536246931538	0.551223663929225	-0.875091849632137	-0.468165657102459	0.122617993040289	0.351911198769662	-0.441634699806624	0.825298309768784	8.45085132810389	-33.4510019897762	113.464412314321
46974	1656051402385	5.5018222027266	1.23148605803297	8.31372948685726	0.0211448692445233	-0.0373207872621406	0.232354359949108	0.00762019102757234	-0.01100912725993	-0.0180974554265194	0.192626953125	-0.294921875	0.65673828125	0	0	0	-0.278748866139625	0.0984090957632403	-0.810141869896088	-0.506245859378824	-0.332028398975338	0.765399086564968	0.55129064980225	-0.875124782012284	-0.468061559465714	0.122780260866625	0.352013860780831	-0.441681576292284	0.82522943899387	8.46256901718794	-33.4556020676929	113.451091282358
46975	1656051402386	5.54287478058908	1.23116139906732	8.37888226844447	0.0313975006629002	-0.0339645158568763	0.308713122714666	0.00335429346437328	-0.00978523388989905	-0.0106264927485127	0.19580078125	-0.30126953125	0.653076171875	0	0	0	-0.278747166190005	0.0983952421008284	-0.810120806558192	-0.506283193928522	-0.331954689773152	0.765446309020093	0.55126947307567	-0.875155888628835	-0.467991407754907	0.122825945409978	0.35200604332296	-0.441674076978824	0.825236787345922	8.46559789141801	-33.4541477855459	113.445156987216
46976	1656051402387	5.51594413184162	1.24103823287849	8.33200344843369	0.0165696676134548	-0.0387655534955742	0.256390028181599	0.00781410240518112	-0.00999038799073235	-0.0118873125176064	0.18701171875	-0.29736328125	0.663818359375	0	0	0	-0.278812075817961	0.0983718893156886	-0.810081306507647	-0.506315192955342	-0.331817503521349	0.765458404703387	0.551335265537955	-0.875167487352354	-0.467935793550114	0.122955122691143	0.352106537056937	-0.441712037173058	0.825173595541084	8.4750115751849	-33.4586660709137	113.436182818461
46977	1656051402387	5.56496623015405	1.23144590197506	8.36486127128348	0.0211277569104922	-0.0106346718182048	0.309350603129266	0.00590774204893913	-0.0101605819422507	-0.0129144533884995	0.191650390625	-0.297119140625	0.66552734375	0	0	0	-0.278825469576665	0.0983382138899448	-0.810052525230937	-0.506360404821773	-0.331710995888165	0.765518651875285	0.551315707048084	-0.875195446536063	-0.467857472235332	0.123054118322423	0.352137395869034	-0.441690592275422	0.825171906408576	8.4817530112398	-33.45732287059	113.427826166032
46978	1656051402388	5.5172462272332	1.24323683111529	8.33081347413252	0.0158550357893323	-0.0378972820986493	0.25639448419326	0.0022186608953322	-0.00791085626022567	-0.00899582795869572	0.1904296875	-0.294189453125	0.658203125	0	0	0	-0.278866261747063	0.0983362594497151	-0.810020542539111	-0.506389483304405	-0.331606598515834	0.765526437870805	0.551367696498077	-0.875217098138531	-0.467799342552273	0.123121103932802	0.35218190604676	-0.441738664855702	0.825127176273315	8.48675625994773	-33.4608933478357	113.421034789459
46979	1656051402389	5.55934374209027	1.23997540864121	8.30470330601546	-0.00366986740127076	0.00830810742155669	0.257658023180372	0.00723859289985808	-0.011016302006379	-0.00833470848296324	0.19970703125	-0.30712890625	0.66015625	0	0	0	-0.278885449210939	0.0982775842251694	-0.810006687345814	-0.506412469349183	-0.33153863421215	0.765578597008287	0.551336145946885	-0.875211349904296	-0.467775854653054	0.123251137123778	0.352260169510323	-0.441673138878093	0.825128845314555	8.49557180212153	-33.4587265344332	113.415327958252
46980	1656051402390	5.50811834214526	1.21465604803609	8.31723349792923	0.0412662774071804	-0.0250323568345322	0.236631040396301	0.00258493210792965	-0.0118333816827371	-0.0132832197519141	0.1826171875	-0.298583984375	0.660400390625	0	0	0	-0.278945196915794	0.0982775447449345	-0.809958664086832	-0.506456378957942	-0.331383026660837	0.765589366095506	0.551414736983502	-0.875245562380611	-0.467686920823433	0.123345651012684	0.352321579205916	-0.441748646418048	0.825062202633033	8.50266806268106	-33.464124071977	113.405226876696
46981	1656051402391	5.53018298893291	1.27638813705353	8.34118441764735	-0.011531325898482	-0.0473956770746588	0.276171275616338	0.00510675824374446	-0.0104040435469418	-0.00459895521236805	0.193359375	-0.296142578125	0.656982421875	0	0	0	-0.278940333574902	0.0982722202933866	-0.809959973464181	-0.506457996688406	-0.331385175790977	0.76559723929736	0.551402514000656	-0.875245582936494	-0.467685736617949	0.123349995193686	0.352319506721015	-0.441736254958077	0.82506972204746	8.50288678511852	-33.4632845901974	113.405147538049
46982	1656051402391	5.54074259645757	1.24465278902855	8.31567391615685	0.00473537746401575	-0.0133619942218111	0.257030644344914	0.0030739692262219	-0.00350995641028826	-0.0115766606586473	0.19189453125	-0.2998046875	0.658447265625	0	0	0	-0.278966389321287	0.098251727941831	-0.809928249171685	-0.50649835417223	-0.331274341699733	0.765636790829088	0.551414195555703	-0.875272509983128	-0.467612030354533	0.123438334141163	0.352356841567243	-0.441745734101242	0.825048703170977	8.50910074449625	-33.4640868862195	113.397082641003
46983	1656051402392	5.56393057956133	1.22011091168909	8.30977564932772	0.0169088693540815	0.0191279708881185	0.261920005793117	0.00305982428875899	-0.00743558682317101	-0.00610084923342543	0.195556640625	-0.301513671875	0.658935546875	0	0	0	-0.278971404716584	0.0982322013159593	-0.8099122347751	-0.506524986488011	-0.331214786827552	0.765673617172834	0.551398836553223	-0.875289517930896	-0.467565745375882	0.123493050619846	0.352370578776207	-0.441730897398591	0.825050779950154	8.51279620500527	-33.463032022497	113.392324366007
46984	1656051402392	5.54838405043917	1.23923909208798	8.37404371167287	0.028624681787863	-0.030229956410329	0.308733187542222	0.00136197157324885	-0.0026591873809123	-0.00639316811980839	0.19140625	-0.303466796875	0.66357421875	0	0	0	-0.278987163734407	0.0982236676630109	-0.809893975736739	-0.506547156390791	-0.331152281647671	0.765692695869166	0.551409885522695	-0.875305265680743	-0.467524178926461	0.123538795488311	0.352390207342806	-0.441741822348471	0.825036547164516	8.51604808163203	-33.4637908697712	113.387864074432
46985	1656051402394	5.52314153460308	1.22527301003528	8.33475477946725	0.0350916193695816	-0.0251274094693204	0.260676561633332	0.00340994559909801	-0.00562771262194707	-0.00489124287564127	0.190673828125	-0.302734375	0.662109375	0	0	0	-0.278969636483807	0.0982120690774526	-0.809896062830246	-0.506555721337431	-0.331154486200815	0.765718598212922	0.551372591465982	-0.87531133904836	-0.467511381335681	0.12354419474411	0.352373049483699	-0.441710467017073	0.825060662815236	8.51616954155454	-33.4612295269125	113.387296884928
46986	1656051402395	5.52355146416096	1.22577625969091	8.33440911936233	0.0350620154053195	-0.0251003859272395	0.260676732090722	0.00150311787001641	-0.00579851398185054	-0.00591768174632327	0.19287109375	-0.30517578125	0.664794921875	0	0	0	-0.278998050018257	0.0982118216199878	-0.809874727894133	-0.506574230788043	-0.331085273575025	0.765721521193858	0.551410095665935	-0.875325148076728	-0.467473973591172	0.123587900537776	0.352403783700184	-0.441744989779675	0.825029052360188	8.51945969247854	-33.4638053025503	113.382854168001
46987	1656051402396	5.5488216275372	1.1778031594947	8.33580448876044	0.0685774939911619	0.016825384085629	0.269836737213788	0.00284835613570688	-0.00272731038803368	-0.00681408185594898	0.193115234375	-0.294921875	0.662353515625	0	0	0	-0.27895005674036	0.0981888312836895	-0.809888815397364	-0.506582595387907	-0.331121879789204	0.765771596043558	0.551318567996549	-0.875330716274978	-0.467466054922391	0.123578414947073	0.352355556037362	-0.441666559961469	0.825091638511386	8.51817870062713	-33.457519348003	113.383796845251
46988	1656051402396	5.51349308847582	1.19647093453171	8.32157437202878	0.0596218715479388	-0.0126839482081908	0.24092060006976	0.00256939494245059	-0.0061051560448602	-0.00778581361930834	0.185302734375	-0.2939453125	0.6572265625	0	0	0	-0.278982866240114	0.098182622610427	-0.809863026384093	-0.506606959543379	-0.331035897773328	0.765781951944433	0.551355816566381	-0.875347029827746	-0.467419122319104	0.123640371489987	0.352395816883728	-0.441698275032418	0.825057465923579	8.52273442710826	-33.4600774573107	113.378094521156
46989	1656051402397	5.52667217730034	1.20467581918572	8.34067103752808	0.055539362001766	-0.0136356184306805	0.264954813797535	0.00809495481610231	-0.00661498742175126	-0.0109169295265149	0.19189453125	-0.301513671875	0.662353515625	0	0	0	-0.278988793390706	0.0981053456618538	-0.809848880048014	-0.506641279210393	-0.330959734724909	0.765865161086502	0.551285959393819	-0.875346329132017	-0.46737991070525	0.123793469715712	0.352469088099822	-0.441595486959614	0.825081188629932	8.5328907399497	-33.4552799583363	113.37102607292
46990	1656051402397	5.51446195368613	1.19860273098926	8.32062556076987	0.0591940419556887	-0.0113650385616148	0.240924705630066	0.00717090543740822	-0.00944795213227378	-0.00857298554363642	0.188720703125	-0.28662109375	0.6611328125	0	0	0	-0.279047071416431	0.0980871218058411	-0.809818915981137	-0.506660608088784	-0.330855520290034	0.765864840658432	0.551348955323982	-0.875348536992779	-0.467347889493899	0.123898704473454	0.352561432204677	-0.441629931083518	0.825023296939519	8.54062790995358	-33.4596062440704	113.364464838637
46991	1656051402398	5.54067776694815	1.21426381099939	8.35901798180909	0.0514712087192415	-0.0144608459767377	0.288989218393494	0.00548899889665161	-0.0104038156724953	-0.0143618099308953	0.1875	-0.294189453125	0.666259765625	0	0	0	-0.279064243132203	0.0980189987661466	-0.809792103102855	-0.506707187474371	-0.330741948733726	0.765947762597906	0.551301903061362	-0.87536215341091	-0.467280204085389	0.124057693214617	0.35263417832597	-0.441557737834113	0.825030848171866	8.55134833667326	-33.4563748794837	113.355046513602
46992	1656051402398	5.54943817442303	1.20616180565543	8.32600607381851	0.0455763347409401	0.0102770631541852	0.26557064404583	0.00647263715799408	-0.0130655197749675	-0.0109915726500661	0.19091796875	-0.302490234375	0.66064453125	0	0	0	-0.279136594785751	0.0980085406762831	-0.809750806512842	-0.506735353767352	-0.330604085387385	0.76594318219477	0.551390950573657	-0.875374263411964	-0.467227214393564	0.124171772500809	0.352733380446383	-0.441621751931877	0.824954174811842	8.55987917630302	-33.4624904145918	113.346478602226
46993	1656051402399	5.50677000983205	1.23472893085753	8.3435795396086	0.0414588699099607	-0.0426817505241287	0.26009031782001	0.00746751555253397	-0.0118030445341762	-0.0130979548020642	0.1845703125	-0.297119140625	0.663818359375	0	0	0	-0.279137593982713	0.0979556853455464	-0.809744120149612	-0.506755707631554	-0.33056171281677	0.765998680565247	0.551339256168056	-0.875371137862381	-0.467206672982655	0.124271057442995	0.352780845592791	-0.441547218418122	0.824973774668053	8.56642144681298	-33.4589401342832	113.342296403527
46994	1656051402399	5.56392017812305	1.21594535953103	8.34399918338191	0.0407721591600046	0.0093931909114987	0.289604576850969	0.00598135622797683	-0.0117360679127047	-0.0126766224904375	0.1884765625	-0.297607421875	0.6591796875	0	0	0	-0.279203691941582	0.097940989681391	-0.809700498966914	-0.506791833911273	-0.330414670974079	0.766008229757716	0.551414124908442	-0.875390173403543	-0.467139199242158	0.124390565719074	0.352871349805573	-0.441602038576416	0.82490572189284	8.57523402215769	-33.464082034102	113.332764134309
46995	1656051402399	5.52693902374119	1.2584441031222	8.32210072815242	0.00846336112714507	-0.0280712842999151	0.25643559811947	0.00746808538224708	-0.0118040043994221	-0.0130980449049624	0.190185546875	-0.30517578125	0.655517578125	0	0	0	-0.279194379834418	0.0978861096758242	-0.809698339004088	-0.506811017653946	-0.330386181306892	0.766069574996051	0.55134596894039	-0.875386581737434	-0.467121803834208	0.124481134702114	0.352906933504429	-0.441514016366461	0.824937615602814	8.58105790966308	-33.4594011473957	113.329298900928
46996	1656051402401	5.511479566889	1.21531974323192	8.34856878376262	0.0622987161876635	-0.0318033114517151	0.264371584139244	0.00605356240806528	-0.0133067849234498	-0.0124384027712746	0.18896484375	-0.2978515625	0.657470703125	0	0	0	-0.279266183063898	0.0978748202541218	-0.809653651739119	-0.506845028369279	-0.330237032428533	0.76607160122914	0.551432501946538	-0.875404111110874	-0.467057273555137	0.124599941691084	0.353003037753184	-0.441578764219322	0.824861837114289	8.58990302732377	-33.4653441947691	113.319837455643
46997	1656051402402	5.55157835681316	1.2355239126312	8.31500493130524	0.0194229438928401	0.00412583372238298	0.261311553806385	0.00258839384534942	-0.0118425018438391	-0.0132803911844766	0.1787109375	-0.29296875	0.6630859375	0	0	0	-0.279254659222393	0.0979007114716154	-0.809632544638731	-0.50688009297836	-0.330178813289669	0.7660947793703	0.551435164163655	-0.875451698648843	-0.466976044071202	0.124570050961161	0.352939477230135	-0.441624459563986	0.824864571991874	8.58784504398265	-33.4655270410865	113.315535311335
46998	1656051402403	5.50049102550822	1.21016612950784	8.3275874398717	0.0643458119617164	-0.02916230921751	0.240353227378598	0.00647520312089803	-0.013068000357005	-0.0109916140826311	0.196044921875	-0.305908203125	0.662353515625	0	0	0	-0.27932517200889	0.0978895729116591	-0.809592287223876	-0.506907692055457	-0.330044080034427	0.766091072062255	0.551520964733647	-0.875463159227959	-0.466924446500366	0.124682870094204	0.353037054809873	-0.441685443009877	0.824790159594753	8.59627056072677	-33.4714201998619	113.307137434445
46999	1656051402403	5.54550117079913	1.24718186266969	8.34572128593389	0.0236790158761001	-0.0190954968823662	0.284747162405145	0.00944830602096885	-0.0132029138110296	-0.0118351862674373	0.191162109375	-0.3046875	0.656982421875	0	0	0	-0.279315633886365	0.0978391097531874	-0.809600285660642	-0.506909915791325	-0.33005022787818	0.766132839338559	0.551459263739942	-0.875444811176916	-0.466939691750272	0.124754586495149	0.353076804195597	-0.441596871315003	0.824820570538724	8.60082874482688	-33.4671822650235	113.306390195608
47000	1656051402404	5.53360939010323	1.24103680909749	8.3254740674636	0.027312058420238	-0.0167812261443115	0.260718019911723	0.00385194727263613	-0.011125339061273	-0.00893907726358764	0.191162109375	-0.302978515625	0.66064453125	0	0	0	-0.279369799959767	0.0978361195569184	-0.809567157426516	-0.506933552052766	-0.329941777347211	0.766128595180057	0.551530052860581	-0.875458423777882	-0.46689293502642	0.12483403165308	0.35314440643639	-0.441653668466421	0.824761217160969	8.60683393085572	-33.4720444356787	113.299664205419
47001	1656051402404	5.5656980637629	1.27045681673289	8.32423883573835	-0.00998072145585787	-0.00566842002156379	0.281066930147148	0.00682490840634651	-0.0112599061341651	-0.00978300173483317	0.19287109375	-0.302490234375	0.65283203125	0	0	0	-0.279358564426873	0.0978581389155821	-0.809565959390995	-0.506937406910039	-0.329946515913365	0.766123517942732	0.551534270822479	-0.875473554762502	-0.466876500246609	0.124789376266519	0.353102466074849	-0.441679848728161	0.824765154258671	8.60376073804224	-33.4723341561893	113.300101083691
47002	1656051402405	5.54520574479005	1.21046793933122	8.2991285272429	0.0416534922820495	0.0175050241988196	0.241567068255753	0.00603644354428555	-0.00757390778078567	-0.00694404529540627	0.1904296875	-0.296630859375	0.6611328125	0	0	0	-0.279402197957519	0.0978407760903602	-0.809544104650314	-0.506951612026696	-0.329868949680084	0.766125521939338	0.5515778826876	-0.875473233497402	-0.46685449119514	0.124873942360007	0.353175726043796	-0.441699636273457	0.824723188621087	8.60993543727738	-33.4753297952363	113.295153147189
47003	1656051402406	5.51496518251039	1.24594075570478	8.33649695865806	0.0338071160557355	-0.0386547465655789	0.260135164296896	0.00561535409531202	-0.00781411716621625	-0.00839087011584534	0.20263671875	-0.29931640625	0.65673828125	0	0	0	-0.279399875681379	0.0978426612847835	-0.809532013900138	-0.50697183508823	-0.329830535793004	0.76614540650064	0.551573235170516	-0.875494316097855	-0.466812744119967	0.124882202124785	0.353159341004665	-0.441709268665665	0.824725046203882	8.61047730091414	-33.4750105587481	113.292189461649
47004	1656051402406	5.5776304643186	1.24062252035923	8.29754539996242	0.00501058371835143	0.0288018912821844	0.261909937616195	0.00271521661675686	-0.00925002040397289	-0.00730809042559065	0.182861328125	-0.300048828125	0.662841796875	0	0	0	-0.279441726930068	0.0978427577618556	-0.809505360990742	-0.506991308141614	-0.329744269438394	0.766141665439545	0.551630007568534	-0.875507062225838	-0.466773216444821	0.124940579486572	0.353208296569069	-0.441757527255934	0.824678232007793	8.61492365483319	-33.478910317508	113.286848169722
47005	1656051402407	5.52629389365378	1.21489690943616	8.31040613319065	0.0490030329220179	-0.00413277016887469	0.240985117650235	0.00412914586163488	-0.00774748501430601	-0.00796880532095036	0.1943359375	-0.297119140625	0.66455078125	0	0	0	-0.279436904786016	0.0978395711106942	-0.80949785288829	-0.507006568732335	-0.329718711011751	0.76616148374464	0.551617759354211	-0.875521431411695	-0.46674351517428	0.124950847062248	0.353196538413906	-0.44175453802872	0.824684869136973	8.61555270415222	-33.4780689592803	113.284697339383
47006	1656051402408	5.55227374645106	1.23016738736668	8.34899231172939	0.0414696431428937	-0.0084647603158006	0.289042032157921	0.00291897342085661	-0.00430105522413666	-0.00657681571283605	0.193115234375	-0.30419921875	0.662109375	0	0	0	-0.279458668520353	0.0978274534032809	-0.809480139131013	-0.50702519296569	-0.329656612573871	0.766176187743956	0.551634450628728	-0.875531107235228	-0.466710486117466	0.125006409481493	0.353230516872165	-0.441763931848375	0.82466528389892	8.61952791935717	-33.4792155236293	113.280379775524
47007	1656051402409	5.55047744146163	1.25378844622822	8.34142218395063	0.0182383122696994	-0.0171983872083248	0.284761864804068	0.00093440541559912	-0.00682633562801747	-0.00236162490828846	0.1904296875	-0.302978515625	0.662841796875	0	0	0	-0.279434015905926	0.0978340016723562	-0.809495906212436	-0.507012343732151	-0.329710228115837	0.766172537341789	0.551607476833888	-0.875525129259603	-0.46673398284001	0.124960542961595	0.353195290895502	-0.441745438330207	0.824690277742921	8.61615555788549	-33.477362635438	113.283861950693
47008	1656051402409	5.56098857876326	1.22166643311595	8.31603297559959	0.0344298386111937	0.0168888974523286	0.265605976065645	0.00291889727107014	-0.00430122337091102	-0.00657689642706531	0.191162109375	-0.301025390625	0.65966796875	0	0	0	-0.279455590526497	0.0978219274982936	-0.809478274384357	-0.507030932708971	-0.329648412399516	0.766187279906546	0.551623944650599	-0.875534817968449	-0.46670100755358	0.125015807294231	0.353228972095203	-0.441754707567313	0.824670886848011	8.62010850278514	-33.4784938406027	113.279561203696
47009	1656051402411	5.54051718419297	1.22428422535084	8.32862172695482	0.0423014777963187	-0.00496319883347414	0.265027077587405	0.00326757486854347	-0.00249126617219691	-0.00536874996330453	0.18603515625	-0.29736328125	0.658447265625	0	0	0	-0.279395772263442	0.0978175348157218	-0.809505538200832	-0.507021218437721	-0.329734972990487	0.766213357259849	0.551535981367993	-0.875532579982828	-0.466722427873008	0.124951497425758	0.353153718620627	-0.441686842091676	0.82473946464778	8.61503510331491	-33.4724516492572	113.284314877776
47010	1656051402412	5.54059075274087	1.22476127838915	8.32850264491501	0.0421765637057145	-0.00486456212056112	0.265027649238622	0.00212985082819859	-0.000614382524781245	-0.0037382294130141	0.193359375	-0.30322265625	0.657470703125	0	0	0	-0.279398324070679	0.0978035006965241	-0.809500162942044	-0.507031101565579	-0.329712077103382	0.766231250302332	0.551524811112155	-0.875535787033749	-0.466707874593401	0.124983380557989	0.353167144331641	-0.441671179558544	0.824742103516001	8.61717319736631	-33.4716843953621	113.282384491129
47011	1656051402413	5.53838584254337	1.24823216141749	8.32122120101394	0.0184615334001956	-0.0136634166512029	0.260742839735853	-0.00126423114752908	-0.00072112208509746	-0.00434010973978031	0.19482421875	-0.2978515625	0.65966796875	0	0	0	-0.27932496561556	0.0978177403074421	-0.809521108564623	-0.507035332154787	-0.329785471061102	0.766265734438815	0.551433012524596	-0.875557482230687	-0.46669372325566	0.124884202298086	0.353044810734937	-0.441626304581954	0.824818506530024	8.6096520950852	-33.4653792622463	113.286078687945
47012	1656051402413	5.55566855215876	1.20938245138284	8.35508707904353	0.0588940894762641	0.00289067349302014	0.293353513991521	0.00178137089982165	-0.00242449311221302	-0.00494634460216522	0.188232421875	-0.29833984375	0.65869140625	0	0	0	-0.279333846208191	0.0978082073725538	-0.80951027241925	-0.507049579213728	-0.32974665316344	0.766281400486534	0.551434456663624	-0.875565971510949	-0.466668557579498	0.124918721170042	0.353060015096014	-0.44162571555002	0.824812313866212	8.61205987588724	-33.4654784485526	113.28320441297
47013	1656051402414	5.52795784837697	1.21838651075172	8.30878842249398	0.0433095705993057	-0.00140749119311055	0.241012007145889	0.00255127784715586	-0.000373958171281054	-0.00229156577579537	0.18798828125	-0.2958984375	0.664794921875	0	0	0	-0.279292672334409	0.0977899781373813	-0.809526365236011	-0.507050083664294	-0.329791631672673	0.766316773799718	0.551358396936029	-0.875564871085768	-0.466674665663845	0.124903614631846	0.353020730551674	-0.441557876864099	0.82486544671239	8.61048766741008	-33.4602546714097	113.28508160786
47014	1656051402414	5.51798910683376	1.25153697536953	8.33365719556921	0.0268613996532078	-0.0352911814005114	0.260168427423684	0.00589204940547667	-0.00443513442323307	-0.0074216875383955	0.19482421875	-0.295654296875	0.66357421875	0	0	0	-0.279321080638569	0.0977653206614965	-0.80950860289933	-0.507067547589897	-0.32972447218414	0.766335254017883	0.551372878270447	-0.875566914082464	-0.466648888514245	0.124985574417732	0.353078392721788	-0.441553046980504	0.824843351973714	8.616280297009	-33.4612492242548	113.280343148088
47015	1656051402415	5.54109558674658	1.2268615877665	8.32785763100163	0.0390575910961483	-0.00206639572958712	0.265041182112572	-0.00203408338822903	-0.0027723377690548	-0.00699470247541844	0.190673828125	-0.298828125	0.657470703125	0	0	0	-0.279282461155157	0.0977118438489536	-0.809516424813683	-0.507086639953794	-0.329728892942979	0.766411519224069	0.55126422009709	-0.875568336160646	-0.466631070304018	0.125042124661274	0.353070737772867	-0.441439494639505	0.824907404925512	8.61946093235337	-33.4537870483474	113.278552060152
47016	1656051402416	5.528587925804	1.22004629594365	8.30812562242902	0.0426488379426408	0.000259239199074154	0.241014926934094	0.00447897078978772	-0.00593814108782622	-0.0067606662632337	0.192626953125	-0.2978515625	0.65771484375	0	0	0	-0.27931298498012	0.0976967346157904	-0.809497790079804	-0.507102487001219	-0.329662648197349	0.766420752006224	0.551291002355132	-0.875572618279612	-0.466604831445182	0.125110037131315	0.353121973972871	-0.441451200209297	0.824879208933815	8.6243622924817	-33.4556262789766	113.27412251506
47017	1656051402417	5.5316053234114	1.26040542373139	8.3523468108941	0.0216127981167684	-0.0355988922038982	0.284205334501363	-5.31531581582596E-05	-0.00416853699806803	-0.00573176478436855	0.186767578125	-0.299072265625	0.666015625	0	0	0	-0.279283872355216	0.0977106423424638	-0.809494490612593	-0.507121108496932	-0.329657399918238	0.766445473675797	0.551259770490311	-0.875601499930673	-0.466561623379733	0.125069040567301	0.353055253463681	-0.441453947169069	0.824906298030598	8.62129983063642	-33.4534814821829	113.273120618335
47018	1656051402417	5.5420619372762	1.22833175601042	8.32699783882296	0.0377740538664341	-0.00148763576719685	0.265046176947596	0.00299278891581106	-0.00587162034119387	-0.00633819999027972	0.190673828125	-0.30078125	0.662109375	0	0	0	-0.279309891138443	0.0977020724725021	-0.809476396579624	-0.507137311906033	-0.329595463169909	0.766453057172954	0.551286261218294	-0.875609678078134	-0.466532103814603	0.125121891634629	0.353092795612882	-0.441471977888238	0.824880579493618	8.62515306864051	-33.4553006858103	113.269007501118
47019	1656051402418	5.54254207453716	1.22897376027726	8.32658353124902	0.0361154892765614	-7.3165649951093E-05	0.265052366744531	0.00222315798205054	-0.00792287062169946	-0.00899274940196931	0.18505859375	-0.290771484375	0.66748046875	0	0	0	-0.279254862804423	0.097668622147997	-0.809504211171371	-0.507129661865297	-0.329672455312945	0.766498318423271	0.551177285510055	-0.875596069136215	-0.466560692608203	0.125110526440276	0.353054664211002	-0.441363170152712	0.824955123695589	8.62361380568614	-33.4478172172725	113.272636552394
47020	1656051402419	5.54302197107917	1.22954220717588	8.32618014469224	0.0359589814820669	6.49715604047092E-05	0.265052926460719	0.00150662863801639	-0.00580529299395021	-0.00591559154911652	0.1884765625	-0.294677734375	0.65380859375	0	0	0	-0.27927577834778	0.0976660660092698	-0.809487077402337	-0.507145985587127	-0.329615977862208	0.766504710172692	0.551202173817391	-0.87560777658431	-0.46652857770627	0.125148343051138	0.353078360598637	-0.441386016392048	0.82493275835703	8.62641157458775	-33.4495262647984	113.268900417024
47021	1656051402420	5.55372598349587	1.2605961731409	8.3382332858502	0.00962893526990508	-0.009382508358573	0.284784032393029	0.00269933174281629	0.000407199978550074	-0.0072932459965689	0.19677734375	-0.299072265625	0.664306640625	0	0	0	-0.27921758734075	0.0975585863202135	-0.809508377353468	-0.507164715008218	-0.329642981540488	0.766628024801064	0.551014497368913	-0.875588317187882	-0.46653254817167	0.125269630399958	0.35310140685813	-0.441167602035855	0.825039722309624	8.63354331406008	-33.4366395987362	113.267258924615
47022	1656051402420	5.51206948568111	1.20205975804587	8.32643796514661	0.0708134990503201	-0.00859776352918917	0.244764520212525	0.00277155726186526	-0.00508305189207059	-0.00157572639074238	0.18603515625	-0.30126953125	0.659912109375	0	0	0	-0.279236200081019	0.0975537804843285	-0.809504423702045	-0.507161702501627	-0.329628304159929	0.766618189482691	0.551036961238473	-0.875580377346618	-0.466540534857734	0.125295379564505	0.353134795654865	-0.441176246968193	0.825020808955056	8.63548616654501	-33.4381819630674	113.266599884499
47023	1656051402421	5.54364510930148	1.23057830804233	8.3256121886834	0.0339494513135796	0.00295010101839248	0.265059464840528	-0.00599824850298134	-0.00390351150091283	-0.0040405492835907	0.18896484375	-0.300537109375	0.66455078125	0	0	0	-0.279169435865184	0.0975824655554889	-0.809526542723322	-0.507157633405289	-0.329711121914924	0.766631047453731	0.550969521085874	-0.87559921489157	-0.466537594589717	0.125174628881847	0.353010751913975	-0.441157012768058	0.825084176989654	8.62663656397385	-33.4335516194485	113.271474767669
47024	1656051402421	5.52094491481287	1.25585194360588	8.33104998864436	0.0212241711014028	-0.0286732083440509	0.260202895442822	0.00220299418272713	-0.00218424533918661	-0.00349997214299268	0.196533203125	-0.302734375	0.660400390625	0	0	0	-0.279175337439837	0.0975699607797901	-0.809521704020032	-0.50716451417591	-0.329690573052132	0.766643110018971	0.550965033283418	-0.875599616917729	-0.466528516628286	0.125205646941894	0.353028946255238	-0.441145650588388	0.825082467437568	8.6287596674729	-33.4332435021713	113.269851532749
47025	1656051402421	5.54392489099062	1.23088570180352	8.32538044571303	0.0322887106579787	0.00340840766129154	0.265064778043737	-0.00126478361817058	-0.000722531584470357	-0.00433971870518022	0.19482421875	-0.300048828125	0.672607421875	0	0	0	-0.279112530216725	0.0975883387660702	-0.809547561738426	-0.50715427327024	-0.329781477159505	0.766654754397004	0.550894422628297	-0.875607267007583	-0.466542118481226	0.12510142144101	0.352925050522072	-0.441111028249713	0.825145423225794	8.62103685198136	-33.4283957583645	113.275268858518
47026	1656051402421	5.54386497103495	1.23109813889893	8.32538893601549	0.0321144458572906	0.00357564636363538	0.265065276924773	0.000147943273053606	0.000780853647236625	-0.00500124656629886	0.194091796875	-0.2958984375	0.6640625	0	0	0	-0.279101548630289	0.0975748594749144	-0.809542173051666	-0.507171511819632	-0.329758766301526	0.766686866803065	0.55086332635146	-0.875620044350391	-0.466512408794079	0.125122781190982	0.352914570369538	-0.441086636289115	0.825162944701251	8.6223063437605	-33.4262609428785	113.272965497533
47027	1656051402422	5.55435962009627	1.26189944231315	8.33761406646573	0.0060164316862581	-0.00682229262706762	0.284788885425204	0.000221605810168304	-0.000788960674201919	-0.00476250979505415	0.193359375	-0.288818359375	0.66064453125	0	0	0	-0.279075088746264	0.0975157460349039	-0.809560552231475	-0.507168104662734	-0.32979521690815	0.76673815081221	0.550770118101536	-0.875595012727606	-0.466542385776132	0.125186165213492	0.352942613736357	-0.440965770058616	0.825215548233042	8.62606685718066	-33.419862342917	113.273873119515
47028	1656051402423	5.5255101393331	1.21060364675117	8.34529790071496	0.0634604872843245	-0.00820908583271115	0.268816785834424	0.000590635574994677	-0.00471758509700217	-0.00904754350125494	0.188232421875	-0.304443359375	0.66552734375	0	0	0	-0.279089672314805	0.0975080726827594	-0.809537505000767	-0.507198342432269	-0.329717592482348	0.766765169240129	0.550778979671339	-0.875619153452447	-0.466484034391305	0.125234754621999	0.352955248317496	-0.440980522130137	0.825202261137817	8.62950141713181	-33.4204706554805	113.268245244319
47029	1656051402424	5.54422506968443	1.23223879939295	8.32498037891462	0.0311178782405521	0.00613200804177468	0.265067172139338	0.0026985883880749	-0.00351299636406581	-0.00181473340461114	0.184326171875	-0.29345703125	0.65478515625	0	0	0	-0.279058882786207	0.0974586578989796	-0.80956229629774	-0.507185211093318	-0.32977860317268	0.766802639899656	0.550690279860098	-0.875589456664186	-0.466529943297512	0.125271366981188	0.352971919942637	-0.440866786512364	0.825255899877287	8.63143365569579	-33.4143819479434	113.271076443955
47030	1656051402424	5.51103353901679	1.22725677438238	8.31811072743015	0.0442878838637676	-0.0139395776060631	0.240494233246775	-5.25002511740912E-05	-0.00416969822105284	-0.00573153638595755	0.187744140625	-0.3037109375	0.654296875	0	0	0	-0.279067776932106	0.0974561686200553	-0.809548373481857	-0.507203018592113	-0.329732547618442	0.766817004802428	0.550697855622196	-0.875604510102905	-0.466494786257896	0.12529707211923	0.35297760400414	-0.440879003287788	0.825246942152143	8.6332704026135	-33.4149019616864	113.267782723153
47031	1656051402425	5.54477511386352	1.23301873996153	8.32449855181535	0.0288140982527705	0.00705992708546418	0.265073415047958	0.00292017041950189	-0.00430218999089574	-0.0065773036025477	0.1875	-0.300048828125	0.662109375	0	0	0	-0.278992545003662	0.0974635117706115	-0.809573494133979	-0.507202899539642	-0.329816757061919	0.766852860842633	0.550597490530632	-0.875619233618142	-0.466492165143839	0.125203904002199	0.352862387453152	-0.440819407101007	0.825328047411439	8.62611249526427	-33.4080129764381	113.27212030505
47032	1656051402425	5.52444503332141	1.23562984230229	8.33700999184348	0.0382156191556141	-0.0151884050829191	0.26453043178746	0.00299413422582514	-0.00587209400488052	-0.00633852421697293	0.185546875	-0.304931640625	0.663330078125	0	0	0	-0.279015206511784	0.0974523171071511	-0.809557666891629	-0.507217847086059	-0.32976114026514	0.766862837020162	0.550616908175206	-0.875625550550976	-0.466466202975662	0.125256443761462	0.352898690268658	-0.440829525643255	0.825307120851268	8.62989333680848	-33.4093457464934	113.2683429509
47033	1656051402426	5.5271019921075	1.21297215799423	8.34389972740952	0.0575682696960368	-0.0045714026312736	0.268854459663059	0.00108624216864622	-0.00604716754150833	-0.00736208296670492	0.19189453125	-0.295166015625	0.654052734375	0	0	0	-0.278909277842488	0.0974494929345941	-0.809618568625199	-0.507179440038195	-0.329957260671851	0.766884649158697	0.550469019123393	-0.875602919960714	-0.466545223858668	0.125120264749306	0.352771502089099	-0.440707940681136	0.825426422120345	8.61942468369153	-33.3991955917326	113.280116510628
47034	1656051402428	5.53096982337845	1.25075624411805	8.29669281195818	0.00725149264611197	0.00155301002507059	0.236744208058823	0.00604095678355045	-0.00757430297593186	-0.0069457811703845	0.195556640625	-0.302734375	0.6611328125	0	0	0	-0.278945403943397	0.097429490737818	-0.809601011092289	-0.507191441954385	-0.329892605654173	0.766890391147532	0.550499769936633	-0.875600425746972	-0.466528671085602	0.125199414882112	0.352838154351852	-0.440715471728289	0.825393911906849	8.62512989576263	-33.401306032423	113.275884679375
47035	1656051402427	5.54648773375538	1.235633014037	8.32296986096155	0.0248361184940835	0.00835905424879908	0.2650830098464	0.00257263673097413	-0.00611372134912145	-0.00778500040926689	0.1943359375	-0.297607421875	0.657470703125	0	0	0	-0.278956735528377	0.0974626276152751	-0.809576221538728	-0.507218411969394	-0.329825244525195	0.766888218042962	0.550543158254452	-0.875639643785262	-0.466461037555145	0.125177133193718	0.352803801432915	-0.44079083641776	0.825368351843355	8.62388100597737	-33.4042838773313	113.271696652842
47036	1656051402427	5.55969623047763	1.24364306568184	8.34205358149968	0.0208572826258553	0.00638016726012711	0.289107152020323	0.00172924992074193	-0.0065964148629404	-0.0106779258147122	0.19482421875	-0.298583984375	0.6513671875	0	0	0	-0.278979861360512	0.0974528653160731	-0.809548312005053	-0.507252113378276	-0.329731060857085	0.766915410582633	0.550561695468305	-0.875664958002884	-0.46639646502992	0.125240643296831	0.352829007922918	-0.440811853763562	0.825346351993915	8.62841712646005	-33.4055561621503	113.26502093726
47037	1656051402428	5.49543498561657	1.21046869944395	8.33567310051523	0.0691495552310232	-0.0256419677146871	0.244302593647383	0.00299466033499835	-0.00587266670842113	-0.00633858955568207	0.1923828125	-0.29931640625	0.65771484375	0	0	0	-0.279009842604373	0.0975072556395944	-0.809506950268313	-0.507291179003551	-0.32961833487014	0.766900502328788	0.550649954912637	-0.875722438523938	-0.466295989605643	0.125212861733054	0.352791672213395	-0.440944066300417	0.825291685655035	8.62709473541944	-33.4116140244445	113.258316829869
47038	1656051402430	5.56284416690129	1.22155998257636	8.34853849993197	0.0422253799371823	0.0150716075313634	0.293426080907494	9.65054074146335E-05	-0.00731073701318183	-0.00525330405716122	0.18701171875	-0.296630859375	0.6591796875	0	0	0	-0.279029351797634	0.0975141654632864	-0.809490706074346	-0.507305041517081	-0.32956843137349	0.766898803744859	0.550682189521979	-0.875736061266091	-0.466265164770703	0.125232372490113	0.352804478486555	-0.440979615102618	0.825267216738783	8.62867076402418	-33.4138266162281	113.255215808864
47039	1656051402430	5.53540526244027	1.23067562439784	8.30201631289145	0.0263040375795105	0.0108214900217613	0.241065156242239	0.00673652819495196	-0.00395202554128646	-0.00453126229437998	0.187255859375	-0.29248046875	0.667724609375	0	0	0	-0.27899500166441	0.0974873475921926	-0.809511093429225	-0.5072965559914	-0.32962398665108	0.766927414059471	0.550609089089802	-0.875721344874442	-0.466292842677406	0.125232228276599	0.352789106344779	-0.440900585656082	0.825316012211429	8.62815849942587	-33.4088090649922	113.257943831729
47040	1656051402431	5.53574480882731	1.23121107649341	8.30171051212496	0.0260768496535929	0.0110170151223622	0.241065535718913	0.000444072175607176	-0.00549979644610258	-0.00404561463069562	0.1982421875	-0.301025390625	0.6591796875	0	0	0	-0.279006952252595	0.097489850451986	-0.80950088563161	-0.507305791229715	-0.329591909559024	0.766928282472658	0.550627081332526	-0.875729666673337	-0.466273126487285	0.125247444780235	0.352798418450881	-0.440919925904139	0.825301699307136	8.62933849439334	-33.4100440102764	113.255897501893
47041	1656051402431	5.53848008581254	1.20843432224971	8.30857897130561	0.0479591479928538	0.0213198267875266	0.245384272807895	0.00306927684020655	-0.00744297743913147	-0.00609967843393572	0.18896484375	-0.300048828125	0.6591796875	0	0	0	-0.279016790066905	0.0974477737273307	-0.809498759868481	-0.507311856778195	-0.329568621666042	0.766957507807918	0.550600313140314	-0.875715767906182	-0.466277222735694	0.12532934771383	0.35285466902626	-0.440864755650704	0.825307124512696	8.63484053205273	-33.4082067108008	113.253636949127
47042	1656051402432	5.5516224836241	1.21629061339409	8.32772947796662	0.0439706074714614	0.0193449868261364	0.269407938685987	0.00135940763699079	-0.00266766709704376	-0.00639323259031572	0.188720703125	-0.294189453125	0.66455078125	0	0	0	-0.279020826354333	0.0974355630894939	-0.809487082237165	-0.507330615276803	-0.329526050526811	0.766982056320949	0.550591597562013	-0.875728261639071	-0.466243915696588	0.125365955675873	0.352863420873874	-0.440857274361671	0.825307379011957	8.63732206142907	-33.4076085044359	113.250287177317
47043	1656051402433	5.55183226045409	1.21665900919393	8.32753581297807	0.042792682555864	0.0208034105239147	0.269410103278806	0.000369721445555687	-0.00393021796441031	-0.00428450117892122	0.183837890625	-0.299072265625	0.661376953125	0	0	0	-0.278960501797489	0.0973940253568716	-0.809521284976332	-0.507317190160108	-0.329620614009893	0.767029954966724	0.550468254310353	-0.875706299709246	-0.466287344785677	0.125357842763288	0.352829601180631	-0.440727988986936	0.825390884523356	8.63591092111399	-33.399143102959	113.254952337628
47044	1656051402434	5.5370439810759	1.232949469961	8.30058602133537	0.0242049643339692	0.0138365119974665	0.241066731657693	0.00334226954730438	-0.00406185194269735	-0.0051313370755821	0.186279296875	-0.309326171875	0.665283203125	0	0	0	-0.278974003199783	0.0973784919277683	-0.809512259471541	-0.507327149494132	-0.329585337849692	0.767042958719208	0.550471256791659	-0.875707229593797	-0.466273185392064	0.125404005603868	0.35286024586465	-0.440720337701384	0.825381869697122	8.6391360422776	-33.3993491620771	113.252375676649
47045	1656051402435	5.56051699875747	1.27135091307496	8.33207218475282	-0.0092504419088528	0.00157326040528256	0.284788622750806	0.000862731941980204	-0.00133969208584539	-0.00807858805218021	0.1982421875	-0.3037109375	0.658203125	0	0	0	-0.278806474114044	0.097372940960817	-0.809607447644916	-0.507268411276142	-0.329891417826947	0.767080154761537	0.550236029913658	-0.875672980135138	-0.46639453858004	0.125191717952736	0.352659161663741	-0.4405271507566	0.825570920721472	8.62278623476076	-33.3832071133576	113.270664443804
47046	1656051402436	5.53173137096557	1.22002646647542	8.33980239471014	0.0481161465249509	0.000273868736443441	0.268905035373478	-5.19852589084868E-05	-0.00417212408633997	-0.00573076550682482	0.195068359375	-0.299560546875	0.66162109375	0	0	0	-0.278810203027318	0.0973707948853569	-0.809595982344642	-0.507285072087356	-0.329853452650385	0.767095970348835	0.550236741820463	-0.875687854712506	-0.466361567881441	0.125210499209028	0.352657739009978	-0.440534516556584	0.82556759798252	8.62409456456514	-33.3832559622426	113.267842569633
47047	1656051402437	5.52960525618665	1.24354819588636	8.33241040677425	0.0250876738942168	-0.0102702048338605	0.264577877941544	-0.000201597520954614	-0.00103245669030156	-0.00620879393596772	0.185791015625	-0.30322265625	0.655517578125	0	0	0	-0.278809154754412	0.0974404173259204	-0.809577918351227	-0.507301108233143	-0.329822081621112	0.767064989574202	0.550298733638962	-0.87573411114843	-0.466301901313551	0.125109165940931	0.352572206854405	-0.440651606828904	0.825541640592962	8.61748675533511	-33.3875097579893	113.266704759676
47048	1656051402438	5.52408289042606	1.22987273940671	8.37188072276408	0.0527637226849444	-0.0253012578351425	0.292412410222539	-0.000769038673480659	-0.0020533003816451	-0.00265363763400426	0.195556640625	-0.29248046875	0.660400390625	0	0	0	-0.278801271870773	0.0974410232192756	-0.809576503945352	-0.507307581312207	-0.329817737492796	0.76707523379557	0.55028705757323	-0.875741958619264	-0.466288529874279	0.125104071961619	0.352556778333401	-0.440647923636496	0.825550195594439	8.61705319346561	-33.3867085460525	113.266153233269
47049	1656051402438	5.53995870160628	1.21150395942939	8.30714604341751	0.0400473797679839	0.024336198269973	0.245412040106	0.00135955798550781	-0.00266800687718123	-0.00639330272069345	0.18994140625	-0.298095703125	0.6630859375	0	0	0	-0.278765729545179	0.0974412804930678	-0.809579583759373	-0.507322148587085	-0.329827811168255	0.767108728481154	0.550234326144767	-0.875761887059019	-0.466258868817709	0.125075115125497	0.352497847021487	-0.440621000335729	0.825589729774031	8.61468225075045	-33.3830902060173	113.265880411694
47050	1656051402439	5.52775347479554	1.26759651531913	8.3247541325386	0.00133969121555054	-0.0187928504199193	0.260248445936174	0.000370266517537763	-0.00393060620271859	-0.00428444409629722	0.193603515625	-0.301513671875	0.66259765625	0	0	0	-0.278768826565492	0.0974397887224713	-0.809572113245904	-0.507332654540963	-0.329803037943437	0.767118387384858	0.550235709400376	-0.875771089636669	-0.46623813042028	0.125087986228909	0.352498162718448	-0.440626128910051	0.825586857818038	8.61558498046419	-33.3831851207177	113.264056987998
47051	1656051402439	5.53257859241588	1.22155714709437	8.33901629616733	0.0443876754582971	0.000537985648319236	0.268922130049274	0.00143456471706404	-0.00423799821164341	-0.00615430998419167	0.185546875	-0.297607421875	0.65771484375	0	0	0	-0.278732851901182	0.0974319985182719	-0.809590193405516	-0.507325065098689	-0.329858551187289	0.767135797518568	0.550178156940253	-0.875765792772287	-0.466256567974692	0.125056343423233	0.352459376976342	-0.440576305520408	0.825630005871539	8.612994843237	-33.3792361373069	113.267084451403
47052	1656051402440	5.53292496730932	1.22203620982844	8.33871628947213	0.0441063892878102	0.000762015701789506	0.26892335013798	0.00108767960221906	-0.00604980149074653	-0.00736158073301674	0.1943359375	-0.30126953125	0.65869140625	0	0	0	-0.278747521373332	0.0974286503088738	-0.809572481995241	-0.507345911408853	-0.329799891009888	0.767150587890111	0.55019270023304	-0.875782567027501	-0.466215568551423	0.125091722072221	0.35247259067988	-0.440593939064226	0.82561495485443	8.61554961857589	-33.380234013806	113.2629859635
47053	1656051402441	5.52046924679894	1.21500976686347	8.31899016747225	0.0462252588208827	0.0033080565350339	0.24491071698559	-0.00111581806097627	-0.00386536248465745	-0.00386078046077285	0.193359375	-0.293212890625	0.66357421875	0	0	0	-0.27868730992903	0.0974584366369784	-0.809593748862747	-0.507339332414864	-0.329880370138722	0.76715664507805	0.550136004375037	-0.875798363223043	-0.466217309826233	0.124974585393309	0.352358011648633	-0.440581549694244	0.825670472825594	8.60703275409369	-33.3763439371667	113.267894707931
47054	1656051402442	5.53361207951312	1.22260999401876	8.33817622122863	0.0421381563698898	0.00136380648621736	0.268931705448876	0.00193184984863703	-0.00556618664277188	-0.00446908851055329	0.18896484375	-0.302734375	0.662353515625	0	0	0	-0.278700183968765	0.0974546939213933	-0.809584688891091	-0.507347436774425	-0.329849571708394	0.767160151272407	0.550149581789795	-0.875802715770455	-0.466202322062216	0.124999991811572	0.352376025139175	-0.440591304048883	0.825657580176928	8.60888869963599	-33.3772755093741	113.265858393064
47055	1656051402443	5.53415536407372	1.22301142978361	8.33775677414276	0.0413605368462644	0.0023763849386885	0.268934737847102	0.00208234291646039	-0.00870609602277992	-0.00399102102332654	0.196533203125	-0.289306640625	0.653076171875	0	0	0	-0.278689521607741	0.0974308144265618	-0.809598569816134	-0.507335729766686	-0.329885215696305	0.767170668346685	0.550113542910464	-0.875782456596249	-0.466235387404562	0.125018607614853	0.352393009555015	-0.440537999677915	0.825678773892451	8.60993388186012	-33.3748028353396	113.267820048596
47056	1656051402444	5.53456589845788	1.22336857928525	8.33743186778897	0.041065405385006	0.00261126005909971	0.268935886224495	-0.000127011646339464	-0.0026030782958092	-0.00596968162754615	0.18603515625	-0.303955078125	0.655029296875	0	0	0	-0.278685687862916	0.0974253894611976	-0.809589034057547	-0.507354094102408	-0.329852221155796	0.767194498584408	0.550100094110523	-0.875798745293633	-0.466200233371717	0.12503559551685	0.352383413259882	-0.440533703303135	0.825685161737414	8.61102066817099	-33.3738801138254	113.265094553939
47057	1656051402445	5.55550398576731	1.22167724012119	8.32435183696743	0.0306718252370828	0.024897636817026	0.269444983975656	0.000445796638613262	-0.00550101633318336	-0.00404535735686811	0.189208984375	-0.2998046875	0.66357421875	0	0	0	-0.27868081250059	0.0974648130143635	-0.809568985272682	-0.507381191071019	-0.329802663382731	0.767197005441498	0.550126311011622	-0.875843298565742	-0.466129874342859	0.124985825606717	0.352319059352654	-0.440603784694037	0.825675229936173	8.60774642471025	-33.3756788632017	113.261902889005
47058	1656051402445	5.54310678708633	1.21443023723503	8.30461835301835	0.0341716396102489	0.0272961222953642	0.245426121480468	-0.00210441791868235	-0.00512843459221701	-0.00175147643409285	0.191162109375	-0.290283203125	0.66162109375	0	0	0	-0.278680073841376	0.0974799241793184	-0.809565635356233	-0.507384038846334	-0.329797707135493	0.767189938619799	0.550139137354105	-0.875852788493176	-0.466118203011952	0.12496284931785	0.352300106807957	-0.440628436328679	0.825670161651518	8.60623978570089	-33.3765588959239	113.261781966605
47059	1656051402446	5.53787635648349	1.20054846734411	8.34394585100451	0.0619610157846509	0.0136812694243278	0.27328295197281	-0.000693594071089054	-0.00362384440520327	-0.00241437309975896	0.191650390625	-0.299072265625	0.6640625	0	0	0	-0.278651796312544	0.0974153966616959	-0.809584180600796	-0.507382372009487	-0.329832609971637	0.767247533252618	0.550037882438175	-0.87582743432574	-0.466146738134541	0.125034090587005	0.352330462324349	-0.440497946924048	0.825726833810074	8.6104905246665	-33.3696119013505	113.262421347541
47060	1656051402446	5.53350516243262	1.24691029453289	8.32931839474677	0.0174299853029307	-0.00482428343149439	0.264598111108555	-0.00141076556976466	-0.00150465894730057	0.000662916420602524	0.193115234375	-0.297119140625	0.6533203125	0	0	0	-0.278636885974721	0.0974209438710774	-0.809592604591265	-0.507376053889726	-0.329862051427201	0.767245665093732	0.550022832637987	-0.875825938809553	-0.466157399269117	0.125004815967301	0.352306616367908	-0.440489918728601	0.825741290939157	8.60835626986143	-33.3685793975545	113.26432760687
47061	1656051402446	5.53585750578567	1.22331542390802	8.33658212859378	0.0387563490445975	0.00458150518055627	0.268944324416552	-0.00552248170229355	0.00050309688123995	0.00314183399054077	0.186279296875	-0.3037109375	0.655517578125	0	0	0	-0.278586767593755	0.0974651393086801	-0.809609993295527	-0.507367340589852	-0.329935589248889	0.767234342200478	0.549994519150134	-0.875844334652799	-0.466157856644642	0.124874153230637	0.352192005025077	-0.44050915635963	0.825779919082405	8.59909662593366	-33.366636960878	113.269269204871
47062	1656051402447	5.53880306433284	1.25978469598436	8.29009849762834	-0.0115832704620959	0.0106724679642246	0.236734601653115	-0.00589937521483417	0.00835277839721031	0.00194700175009884	0.1953125	-0.3037109375	0.664306640625	0	0	0	-0.278519909438618	0.097465778009079	-0.809633196775587	-0.507366897661182	-0.330010982407944	0.767269847254164	0.549899748122071	-0.875854485911976	-0.466158506549506	0.124800505926069	0.352096110455672	-0.440446623628911	0.825854164326778	8.59333978134604	-33.3601355439742	113.27305820104
47063	1656051402448	5.54847598726935	1.22656491383948	8.26545974572967	0.00202843590637594	0.0443940281503715	0.217561740942722	-0.00673724373066114	0.00394994474480646	0.00453385309706832	0.202392578125	-0.299072265625	0.6611328125	0	0	0	-0.278385096150575	0.097558335757147	-0.809702089551416	-0.507313153329973	-0.330270205399268	0.767227467256308	0.54980324199935	-0.875862613976482	-0.46623147116539	0.124470465304991	0.35183273421302	-0.440443218567873	0.825968218731062	8.56978630089136	-33.3535155963839	113.290541013468
47064	1656051402448	5.5322855783953	1.2439059483745	8.33057766266087	0.013319544964928	-0.00456650526107121	0.264604502453196	-0.0150357402503555	0.00953469909388978	0.00925264659582706	0.19189453125	-0.296630859375	0.65576171875	0	0	0	-0.278285892765977	0.0976039613545777	-0.809741198198246	-0.507296383345877	-0.330414682663272	0.767233951538145	0.549707377690797	-0.875881173630363	-0.466247692344174	0.124278956640415	0.351650831309165	-0.440414751105019	0.826060857230675	8.55585086819522	-33.3469401731677	113.299467115845
47065	1656051402449	5.54167941299047	1.20968425924424	8.30626349417721	0.0301574431367334	0.0282898091308297	0.245436212561035	-0.0132023481679315	0.0112804525221119	0.0100364242392381	0.19384765625	-0.30078125	0.65869140625	0	0	0	-0.278246929477523	0.0976892301658443	-0.80973689873126	-0.507308205511221	-0.330434061714629	0.767208889389816	0.549730707619665	-0.875935802736493	-0.466190397861178	0.124108752416629	0.351496515406837	-0.44051904951237	0.82607092109187	8.54420385061899	-33.3485403492395	113.30136785039
47066	1656051402449	5.55353284714674	1.21533407428195	8.326595325364	0.0260452985431448	0.0263501142723355	0.269454305763492	-0.0156824467155511	0.0140019094382637	0.007090104844732	0.197265625	-0.2958984375	0.657470703125	0	0	0	-0.2781298847549	0.0977235321779131	-0.80977589464313	-0.507303537263261	-0.330573776572819	0.767244682000993	0.549596739604211	-0.875964020970932	-0.466186464677712	0.123924227315455	0.35129476541335	-0.440460870103681	0.826187756929797	8.53049864104887	-33.3393520198044	113.309197275787
47067	1656051402450	5.51352949620496	1.19460103839796	8.36037103886497	0.067499289112168	-0.0100229610993865	0.272808471545057	-0.0110735582747783	0.0106656893614097	0.00629646611340734	0.1845703125	-0.29443359375	0.65966796875	0	0	0	-0.278078852966492	0.0977932410864114	-0.809775361334577	-0.507318930955775	-0.33059930765346	0.767240276634798	0.549587532326209	-0.876017205871538	-0.46612796858341	0.123768218543081	0.351138082235575	-0.440530447090394	0.82621726706131	8.51961742206725	-33.3387205650979	113.310924886182
47068	1656051402451	5.55405093400651	1.18963555289807	8.33536093487468	0.0479854702278308	0.0350677185105103	0.273809748410949	-0.00745861085884764	0.00998702112437363	0.00213314219458454	0.184814453125	-0.3056640625	0.655517578125	0	0	0	-0.27800191504749	0.0977978991183571	-0.809799836175197	-0.507321132507398	-0.33068040748268	0.767281133500363	0.549481692398834	-0.876033146470461	-0.466121678878894	0.123679047393588	0.351021928648558	-0.440465938130884	0.826301012315928	8.5127190811855	-33.3314621665321	113.31492368727
47069	1656051402452	5.48533272558759	1.11824969766111	8.37666668200363	0.144237052967387	-0.000503632103396712	0.261393120425902	-0.00270430966532001	0.00743229823315511	-0.00366149055021745	0.186767578125	-0.300537109375	0.662109375	0	0	0	-0.277825864452158	0.0977777240908244	-0.809878647548809	-0.507295655370261	-0.330927814167738	0.767365477117911	0.54921489995972	-0.876026199996703	-0.466181269428153	0.123503526077979	0.350806041466651	-0.440255889866289	0.826504611426059	8.49875125440846	-33.3131684849283	113.328212491726
47070	1656051402453	5.54538351992248	1.19868835048331	8.36823022989957	0.0507150479526472	0.0121370083688174	0.297341814907401	9.88440964078927E-05	-0.00730973757137474	-0.00525569034309405	0.183837890625	-0.306396484375	0.65380859375	0	0	0	-0.277840492606362	0.0977852899200624	-0.809864669371915	-0.507308500861775	-0.330885491243265	0.767365036397875	0.549241015036924	-0.876039888882059	-0.466152244057255	0.123515984584564	0.3508117796942	-0.440287390546757	0.826485395487007	8.49979078074559	-33.3149589992427	113.325559880741
47071	1656051402453	5.50506997754655	1.20015518535275	8.30235251813059	0.0364683450074611	0.0100123247026328	0.22094583206955	-0.00119041615205814	-0.00229366970772277	-0.00410096803568443	0.19091796875	-0.303955078125	0.655029296875	0	0	0	-0.277690084641624	0.0978322032334631	-0.809937594340992	-0.507265384365364	-0.331140093432774	0.767372544617529	0.549077058607033	-0.876040675803837	-0.466221379670291	0.123249176368388	0.350569497900901	-0.440201093712348	0.826634153804428	8.48019349084718	-33.3037183498936	113.341383634356
47072	1656051402454	5.5410896150243	1.18272158539481	8.31595203445776	0.0447897664524605	0.039903409187546	0.249815519201366	0.00173102965126182	-0.00659406447981809	-0.0106803344705775	0.190673828125	-0.29345703125	0.6572265625	0	0	0	-0.277707190820897	0.097824279836856	-0.809912235823441	-0.507298035383778	-0.33105483892425	0.767400760237889	0.549089033592139	-0.876066784028171	-0.466158227140319	0.123302462229806	0.350584773695859	-0.44021878703175	0.826618252881533	8.48396731606837	-33.3045392909609	113.33525093883
47073	1656051402454	5.53363898024186	1.19272857553146	8.34787768026295	0.0496735437263081	0.0151540739560032	0.273348847138212	0.00215297565317742	-0.00635296026770344	-0.00923390551226734	0.192626953125	-0.29541015625	0.663818359375	0	0	0	-0.277709166706794	0.0978510411287932	-0.809887243420712	-0.507331691717982	-0.330984346611177	0.767414668424348	0.549112091458129	-0.876111192797425	-0.466079456657162	0.123284702770607	0.350540354529183	-0.440277942633188	0.826605584954059	8.48289124463901	-33.3061200369577	113.330435863242
47074	1656051402455	5.54692076873059	1.20056789978814	8.36694185660974	0.0454908660440409	0.0132257953340435	0.297365305539584	-0.000322254157024048	-0.0075516499062591	-0.00670202087251492	0.19384765625	-0.3056640625	0.65869140625	0	0	0	-0.277722937851151	0.0978596135824509	-0.809869614455147	-0.507350641473026	-0.33093059277647	0.767420018044468	0.549137012656442	-0.876131455568855	-0.466037645252806	0.123298766295611	0.350540461755007	-0.440312876386608	0.826586931641638	8.484033502606	-33.3078285570545	113.326906701732
47075	1656051402456	5.53232253970892	1.21677750048536	8.33988491314701	0.0265240605807111	0.00576914691660167	0.268983317827489	2.44387768142294E-05	-0.00574043221718304	-0.005494015093806	0.1845703125	-0.296875	0.664794921875	0	0	0	-0.27772786248435	0.0978922877604865	-0.809857681111553	-0.507360690969955	-0.330904727316728	0.76740507368532	0.549173482900868	-0.876154737019011	-0.466004458511017	0.123258758094512	0.350506687865708	-0.440374042752162	0.826568668793784	8.48150530078578	-33.3103289042917	113.325684037568
47076	1656051402456	5.53273809185395	1.21707706560247	8.33956552567068	0.0261704799316046	0.00599654871448886	0.268984109175937	-0.00272737958764887	-0.00639992429479661	-0.00940954705078367	0.184326171875	-0.299560546875	0.66162109375	0	0	0	-0.277732314538554	0.0979041217412532	-0.80983349764607	-0.507394570819854	-0.330831021927188	0.767427963279213	0.549185903048987	-0.876192516615463	-0.46593106489722	0.123267662388817	0.350481823719395	-0.44041181176356	0.826559088814264	8.4822059768713	-33.3111804280595	113.320422406986
47077	1656051402456	5.55821492820915	1.23180152995525	8.37854975386534	0.0166896273211621	0.00433882373858181	0.317015829764362	-0.00736701868136205	0.00659553362292235	-0.00859905735802998	0.194580078125	-0.298095703125	0.66064453125	0	0	0	-0.277560680699857	0.0978154591346789	-0.809907063211506	-0.507388168411344	-0.331034630171228	0.767575071931812	0.548857524842534	-0.876173973613374	-0.465978765020908	0.123219148317707	0.350335898231896	-0.440104873295518	0.826784408967408	8.47663904695058	-33.2886696556786	113.329246448159
47078	1656051402457	5.52389236826185	1.22557327810103	8.3726369318573	0.02977966986334	-0.0156861888761414	0.292525781986283	-0.0224546654932135	0.011952420432651	-0.00507763328166027	0.18505859375	-0.2978515625	0.658447265625	0	0	0	-0.277437634736413	0.0978656816845407	-0.809910405703847	-0.507440441739634	-0.331065113837899	0.767659341582922	0.548721264104076	-0.876265834576624	-0.46585301287101	0.12304128393647	0.350077245123461	-0.440091019766909	0.82690133436057	8.46340100218976	-33.279330501628	113.328877692601
47079	1656051402458	5.51993779163354	1.18422865943054	8.32918481175872	0.0493049343256731	0.0211596114007497	0.249347777280425	-0.0235993601945959	0.0177483739763261	-0.00892311927085864	0.1884765625	-0.300048828125	0.653076171875	0	0	0	-0.277268718379145	0.0978853283858142	-0.809923125981785	-0.507508670167398	-0.33111401502661	0.767804938110362	0.548487999929169	-0.876367096308988	-0.465706824383441	0.122873374779253	0.349777388577234	-0.439991739395222	0.827081040590375	8.4502083817421	-33.2633451625157	113.328003749643
47080	1656051402458	5.53713174584187	1.20394682866809	8.31012900013881	0.0172108033414949	0.0344592829476583	0.245447453754098	-0.0223026014484355	0.0088101098485817	-0.00460231717643839	0.192626953125	-0.3056640625	0.65771484375	0	0	0	-0.277158431093964	0.0979432888609102	-0.809923477475377	-0.507557166115142	-0.331137854397397	0.767873313441301	0.548377876914966	-0.876456546548792	-0.465585670584548	0.122694357482735	0.349530604378005	-0.44000063392115	0.827180632481282	8.43707311775051	-33.2557995691942	113.327648444386
47081	1656051402459	5.52011971929247	1.15773371641616	8.3382585920109	0.0689249219779941	0.0299150613764362	0.253740971850986	-0.025425354725164	0.0120776024365277	-0.00423117151970144	0.1962890625	-0.302978515625	0.66357421875	0	0	0	-0.276982837854525	0.0981026290039008	-0.809937129643243	-0.507600460738405	-0.331244559584425	0.767903431187123	0.548271248668726	-0.876594409517084	-0.465435292881364	0.122279308731425	0.34908348994061	-0.440107155714927	0.827312763433154	8.40761725541628	-33.2484940571558	113.333544248637
47082	1656051402460	5.51475235259766	1.20294539159834	8.32453336650209	0.0243334825878762	0.0113823274483402	0.24498161050316	-0.0121688405065691	0.00497844463148883	-0.00853701477685839	0.184814453125	-0.30029296875	0.660400390625	0	0	0	-0.276915322669122	0.0981247099966799	-0.809927098984401	-0.507649031999309	-0.331220728762442	0.76797294411779	0.548188275997518	-0.876661887039968	-0.465328003196465	0.122203867584919	0.348936619817408	-0.440099314410105	0.827378890718247	8.4018422131935	-33.2428097021838	113.330159018103
47083	1656051402461	5.53713482641353	1.1771761857456	8.31937238473684	0.0356419900955409	0.0435674437818046	0.249836882234831	-0.0137303322180218	0.00661204705032921	-0.00835126824101412	0.193359375	-0.305419921875	0.658203125	0	0	0	-0.276804405044095	0.0981584586542265	-0.809942093223196	-0.507679075763458	-0.331282554760291	0.768039919123288	0.548057069605518	-0.876722694114602	-0.465253746053175	0.122050274100147	0.348725087333745	-0.440060943980014	0.827488476685622	8.39033723030651	-33.2338216690369	113.332230918557
47084	1656051402461	5.49766012336317	1.22004498501472	8.39022887167282	0.0343337784271633	-0.0371769085252873	0.292071716570962	-0.0148705448515527	0.00848624859144854	-0.00671878407635323	0.189208984375	-0.302001953125	0.666748046875	0	0	0	-0.27671471764976	0.0981851207002941	-0.809940289721955	-0.507725687940051	-0.331287181683632	0.768116445674908	0.547947013073218	-0.876793517482866	-0.465148615757742	0.12194217055096	0.348542581261084	-0.440038510976485	0.827577294218165	8.38212440883602	-33.2262831774121	113.330445926628
47085	1656051402462	5.51272941926583	1.20105452549408	8.32614612320639	0.0212379822293643	0.0119228428261749	0.244987997154094	-0.00736383401249588	0.00659664643376489	-0.00859726123210318	0.188720703125	-0.3056640625	0.65966796875	0	0	0	-0.276615972660797	0.098220181970964	-0.80995983705721	-0.507741530581032	-0.331364283584304	0.768161952411545	0.547836587343292	-0.87683903709482	-0.465102667953643	0.121790029514045	0.348354725231753	-0.440007639853771	0.827672799045024	8.37086243370908	-33.2187200499425	113.334060401182
47086	1656051402462	5.50417464013113	1.20990808426717	8.35895112183256	0.0266221700478198	-0.0124141874966604	0.268533643247011	-0.0114010913468082	0.00702839638261794	-0.00588121367538585	0.180419921875	-0.302490234375	0.661376953125	0	0	0	-0.27654032644127	0.0982379788999702	-0.8099598797485	-0.507779224221709	-0.33137141460111	0.768228073270947	0.547739548529835	-0.876895124286661	-0.465019117900897	0.121705221699622	0.348206729670093	-0.439980508005844	0.827749494706809	8.36435182885019	-33.2120743404221	113.332715259948
47087	1656051402463	5.51872868065045	1.19374088089687	8.3860053099455	0.0416634312504679	-0.00387954061045058	0.296947532096057	-0.00698903753064579	0.00267099299182198	-0.0128862202680954	0.1884765625	-0.30126953125	0.65869140625	0	0	0	-0.276363947988638	0.098248367847961	-0.810019524147306	-0.507778098156584	-0.331568742569232	0.768315733238636	0.547497126028107	-0.876924960526245	-0.465017322495389	0.121496927472522	0.347943648536802	-0.439829312162341	0.827940452934691	8.34833977332202	-33.1954742239624	113.342744059551
47088	1656051402464	5.49293494711248	1.17913766865444	8.34720247623344	0.048965638897429	0.000679492988638068	0.248927372106939	-0.00748145918464898	7.58818015528251E-05	-0.00909544459099924	0.188232421875	-0.297607421875	0.656982421875	0	0	0	-0.276326760051242	0.0982635883816635	-0.810004289106943	-0.507819692909106	-0.33152536234657	0.768366540681666	0.547452092225308	-0.876977976715721	-0.46492685338412	0.121460484759206	0.347851351120815	-0.439836196967953	0.827975577755885	8.34552191783185	-33.1923908371384	113.338638701505
47089	1656051402464	5.50803193703677	1.16331177486459	8.37385023947996	0.0663181848419077	0.00854232982032878	0.277337754703241	-0.00287105363444227	-0.00325446006942936	-0.00989050390234911	0.191162109375	-0.30615234375	0.65576171875	0	0	0	-0.276287782904028	0.098263334761566	-0.809996063824606	-0.507854068259927	-0.331498612739636	0.768421674771647	0.547390901909077	-0.877017510379765	-0.464857124786756	0.121441920366356	0.347777164631283	-0.439813577866948	0.828018756119026	8.34383532460336	-33.1882014156441	113.335461767515
47090	1656051402465	5.52662744703324	1.18495881297538	8.35362706945223	0.0341686198242101	0.0218347383333697	0.273401040773999	-0.000887838690380711	-0.00464721200332729	-0.00862977613786428	0.193603515625	-0.307373046875	0.662353515625	0	0	0	-0.276286048694609	0.0982643344310168	-0.809978850015617	-0.50788227218808	-0.331443233787585	0.768449668165337	0.547385138885786	-0.877045926915543	-0.464799436351804	0.1214575071698	0.347758285102289	-0.43982563756974	0.828020279751098	8.3448760188264	-33.1878068580836	113.331221303244
47091	1656051402466	5.49353075943961	1.17999760931309	8.3466888422068	0.0454182475246569	0.000177516900351071	0.248944031784044	-0.00123272284356145	-0.00645795897738405	-0.00983955938689208	0.188720703125	-0.30029296875	0.66796875	0	0	0	-0.276258288786981	0.0983845257848191	-0.809969696634232	-0.507888701879492	-0.331460848759308	0.768389834097706	0.547458462894728	-0.877107997043437	-0.464739103178523	0.121239958344073	0.347584906551203	-0.439993896357804	0.828003685925171	8.33030360457743	-33.1928270192962	113.333951211648
47092	1656051402466	5.52747495397804	1.1860842343219	8.35290658783127	0.0314845610973743	0.0207038025542606	0.273412161300536	0.00246003513499244	-0.00869939865287281	-0.0137655565121865	0.18408203125	-0.304443359375	0.659912109375	0	0	0	-0.276283735188539	0.0983762568597865	-0.809935357146755	-0.507931222706465	-0.331346341340368	0.768423393139319	0.547480676331692	-0.877142431935675	-0.464655970172345	0.121309453387464	0.347607186603385	-0.440023088325432	0.827978819513052	8.33525829763463	-33.194347929029	113.325842170111
47093	1656051402467	5.49458447537829	1.18161452765093	8.34576646039363	0.0431222759649206	0.00209044642544551	0.248953918250976	0.00330233849244704	-0.00821811363008188	-0.0108720687338633	0.1865234375	-0.297119140625	0.661865234375	0	0	0	-0.276220662544969	0.0983275653791668	-0.809970882922229	-0.507918304738084	-0.331442282590419	0.768477864971201	0.547346128478643	-0.87711828599307	-0.464701371197194	0.121310131415428	0.347576647213004	-0.439879991198456	0.828067670939648	8.33442241883624	-33.1851361102823	113.330396983602
47094	1656051402468	5.54130721061681	1.19528519280398	8.37141667287075	0.0252947868500076	0.0204859945604529	0.297423902410744	0.00154186567730252	-0.00761214672848494	-0.0168960018549792	0.18701171875	-0.29931640625	0.66064453125	0	0	0	-0.276240189345693	0.0983155203865827	-0.809930091869255	-0.507975060929207	-0.331305390528449	0.768531179596946	0.547354148786797	-0.877165971465786	-0.464590791850169	0.121388857110191	0.347586818952153	-0.439903650945705	0.828050832482742	8.33992230051321	-33.1856851935283	113.320345855237
47095	1656051402469	5.51631843448235	1.18177771070639	8.33193029280609	0.0324302627811039	0.0265566884509157	0.249403517641864	0.00635183551888375	-0.00991455170837229	-0.0114817661460961	0.18603515625	-0.29931640625	0.657470703125	0	0	0	-0.276236892747526	0.0982299181378019	-0.809930630188607	-0.50799255560502	-0.331273485070146	0.768608006662128	0.54726557555208	-0.877146916107049	-0.464588893265043	0.12153373119696	0.347665306945304	-0.439771409199861	0.828088124535665	8.34936479172628	-33.1796215177048	113.316258102671
47096	1656051402469	5.50678998219144	1.21549684681981	8.356417387477	0.0156572928825735	-0.00714398198176013	0.268561748171017	0.00699596771711359	-0.0104601102942011	-0.0147985348249787	0.189208984375	-0.30029296875	0.6572265625	0	0	0	-0.276280478334043	0.098205166227267	-0.809894226005604	-0.508031677457785	-0.331145823981884	0.768639503801715	0.547298598988534	-0.877168185002289	-0.464519120051409	0.121646875530998	0.347733257654697	-0.439790063896534	0.828049685235575	8.35741054518243	-33.1818822352701	113.307378831954
47097	1656051402470	5.53851049579822	1.18249922376644	8.31770160463561	0.0211173448028433	0.0499345798723518	0.249848264516356	0.00799213950480526	-0.0131181334704133	-0.0114309837337908	0.19775390625	-0.311279296875	0.65478515625	0	0	0	-0.276294691707611	0.0981884822655801	-0.809881743102548	-0.508047072104305	-0.331098831720879	0.768658183794347	0.54730079491907	-0.877174009541574	-0.464494388953251	0.121699299980344	0.347763311201496	-0.43978353665971	0.828040530569156	8.36105244933511	-33.1820325662947	113.303918335207
47098	1656051402470	5.50857381600109	1.21823870482393	8.35484225464501	0.0139777502404978	-0.00618646570978072	0.268564849841695	0.00905736218036694	-0.0134228515623187	-0.0133011788418784	0.19140625	-0.298828125	0.654052734375	0	0	0	-0.276354451966229	0.0981648779399424	-0.809846236180292	-0.508075729947906	-0.330974539032696	0.768669833094882	0.547359609582203	-0.87718303727658	-0.464445418753878	0.121821065964671	0.347858841523869	-0.439814893663711	0.827983747234963	8.36986548771072	-33.1860590503682	113.295787680037
47099	1656051402471	5.49901931330472	1.18922449652746	8.34176367115359	0.0383797241383099	0.00298256425435546	0.248972901305784	0.0113094743376371	-0.0114335097019582	-0.0110689616207613	0.186279296875	-0.306884765625	0.656494140625	0	0	0	-0.276427211728762	0.0982827120792462	-0.809793186143472	-0.508097924417936	-0.330848991636096	0.768572442052157	0.547572229072442	-0.877244506296984	-0.464354015417068	0.121726843949094	0.34782326101792	-0.440081526178991	0.82785701024442	8.36474570474131	-33.2006166414229	113.290529175945
47100	1656051402471	5.51020016155295	1.15840077846923	8.31578171945087	0.0542626656215149	0.037219840980863	0.229826946012905	0.0129502055805736	-0.0146368186689556	-0.0110180509594987	0.185302734375	-0.301513671875	0.66650390625	0	0	0	-0.276500821513584	0.0982509284256395	-0.809763311342905	-0.508111631798356	-0.330739730667052	0.768567390145443	0.547645320771856	-0.877233239842089	-0.464338649389425	0.121866572936784	0.347955562499635	-0.440106561514627	0.827788101531627	8.37489864607795	-33.2056216291203	113.283793737751
47101	1656051402472	5.53223836904893	1.22123843228598	8.33928871803034	-0.000636934555742381	0.0153063952399002	0.269008220287652	0.0145140266369613	-0.0162703370516646	-0.0112044894804963	0.193359375	-0.2978515625	0.667724609375	0	0	0	-0.276467347352464	0.0982232722746491	-0.80980490850233	-0.508068897687199	-0.330863602101615	0.768562319340821	0.547577609196909	-0.877184429477025	-0.464436367973151	0.121845544797396	0.347960850509666	-0.440012296866083	0.827835989263105	8.37299653115481	-33.2009850381623	113.291722149625
47102	1656051402473	5.53795452673055	1.17666352786209	8.35275652840181	0.0430636269742655	0.0343974877713893	0.277851818951884	0.0142823804249469	-0.0115612171777272	-0.0119171201341956	0.181396484375	-0.294677734375	0.65869140625	0	0	0	-0.276531319580117	0.0981770887917565	-0.809778131723558	-0.508085687566535	-0.330758726762641	0.768575277833979	0.547622777989356	-0.877171437498454	-0.464420386652834	0.121999892205397	0.348093283341194	-0.440006530364783	0.827783377055309	8.38397761238674	-33.2040779712159	113.284775079166
47103	1656051402474	5.53649882933514	1.20171300017764	8.34469235621961	0.0210425048150689	0.027251465871131	0.273423785987115	0.01160935549081	-0.0137951161361186	-0.0155946263638113	0.18505859375	-0.297607421875	0.66064453125	0	0	0	-0.276574803782707	0.0980362760148393	-0.80976041489133	-0.508117444074419	-0.330646081879674	0.768678057049664	0.547546539709615	-0.87713551225923	-0.464411103224844	0.122293173706552	0.348290771728678	-0.439836755867261	0.827790532995399	8.40377316905872	-33.198857618451	113.274908321507
47104	1656051402474	5.52951904188252	1.21255690957278	8.37619207910891	0.0263238970651025	0.00297710777123978	0.296999417200244	0.0102465370115621	-0.0111320062745487	-0.00919863586819581	0.19384765625	-0.300048828125	0.660400390625	0	0	0	-0.276625329082202	0.098008013717869	-0.809739459654035	-0.508128786860608	-0.330567126547462	0.768680860519541	0.54759027522144	-0.877126856709135	-0.46439913042129	0.122400673623566	0.348387502769126	-0.439844497902256	0.827745713114484	8.41150366290363	-33.2018523331655	113.269866020411
47105	1656051402475	5.50475846030274	1.19934534784327	8.33652772442986	0.0335404511012507	0.00810514357596306	0.248987374239922	0.010889486340074	-0.011679627252285	-0.0125155209055669	0.187744140625	-0.305908203125	0.65625	0	0	0	-0.276664215286352	0.0979492707386098	-0.809721402757404	-0.508147716966577	-0.330485619443287	0.768718048126762	0.547587269597613	-0.877114280633833	-0.464383676206861	0.122549336925154	0.348496476380151	-0.439795820531282	0.827725704683524	8.42177419243587	-33.2016465249131	113.263732894709
47106	1656051402476	5.52067158085752	1.18494685312722	8.36248553939191	0.0512630179444434	0.0156801654803466	0.277416907240417	0.00783970032828436	-0.00998492831693075	-0.0119047794744742	0.186767578125	-0.30517578125	0.65576171875	0	0	0	-0.276705218820859	0.0979237713172686	-0.809694092226379	-0.508173822527295	-0.330387175950595	0.768738646708678	0.547617756308085	-0.877122720989113	-0.464340602218	0.122652099274657	0.348568567561744	-0.439805295771134	0.827690313776608	8.42908999435447	-33.2037341061931	113.256982851565
47107	1656051402476	5.48068223516692	1.18761370710681	8.29620240655783	0.0372651088525591	0.0123288642108406	0.200990154491647	0.0123763154798367	-0.0117431868779638	-0.012940019057979	0.19287109375	-0.304931640625	0.66064453125	0	0	0	-0.276656658274025	0.0979802507901224	-0.80972000888773	-0.508148079888735	-0.330493244676082	0.768701558006687	0.547605816205021	-0.877129113048472	-0.464370798720992	0.122491960299559	0.348451910980951	-0.439838238461959	0.827721927775509	8.41792555480087	-33.202916500225	113.264658563004
47108	1656051402477	5.54298780144434	1.18652050993035	8.348022188875	0.0374906857977908	0.0380531972634462	0.277860939659069	0.0145833341232249	-0.0139242784055145	-0.0164433747965576	0.197509765625	-0.301513671875	0.665771484375	0	0	0	-0.276732012211828	0.0979320389762141	-0.809679285217087	-0.508181231697415	-0.330342458335382	0.768725772471214	0.547662804067861	-0.877129493294793	-0.464322302984919	0.122672942995595	0.348593907309574	-0.439847116268047	0.827657418318309	8.4308321218614	-33.2068188482561	113.254517594379
47109	1656051402479	5.51301386870015	1.15977372570357	8.34767482068826	0.0725316995666221	0.0263028864081496	0.257869661806366	0.00986016131086928	-0.0171205744831955	-0.0161395426113691	0.1875	-0.30224609375	0.6650390625	0	0	0	-0.276833332781248	0.0979628632253444	-0.809625716283082	-0.508205453358212	-0.330181046076402	0.768673636557291	0.547833293323511	-0.877151180219153	-0.464260989211333	0.122749912165596	0.348692248052692	-0.44000292539744	0.827533166579839	8.43729423307867	-33.2184944505052	113.245770712387
47110	1656051402479	5.50697700746113	1.23143445467523	8.32497809030487	0.00579094203384906	-0.00167885279890802	0.24457120014968	0.017556391252945	-0.014050783596103	-0.0172933748722741	0.185791015625	-0.304443359375	0.65234375	0	0	0	-0.27691744057435	0.0979021792690049	-0.80958386841524	-0.508237989923959	-0.33002175340761	0.768700914096801	0.547890999145368	-0.877144197736097	-0.464218617784867	0.122959876707024	0.348860571941951	-0.439999976782557	0.827463788800262	8.45221639256624	-33.222446666663	113.235008983033
47111	1656051402480	5.55407722257487	1.1834717837809	8.31266377362085	0.0276541369541192	0.0626594897509874	0.254291667629007	0.0127552363083768	-0.0156778778159409	-0.017226717846741	0.18115234375	-0.297607421875	0.651123046875	0	0	0	-0.276889541788089	0.0979005915943205	-0.809598116860637	-0.508230798938411	-0.330067273317614	0.76871009560756	0.547850694985132	-0.877140695396897	-0.464233858351814	0.122927316892694	0.348826311455034	-0.43996785526991	0.827495311627729	8.44969331032575	-33.2196862547471	113.23762564182
47112	1656051402480	5.52196145899442	1.24306224104659	8.34233889874731	-0.00162865905205152	-0.00288119838803558	0.268575894893372	0.0151650448333665	-0.0168247514621638	-0.014521168569148	0.1884765625	-0.298583984375	0.66064453125	0	0	0	-0.276976548729386	0.0978607637759314	-0.809558664027548	-0.508253904918676	-0.329923919177752	0.768712431292136	0.547933760167527	-0.877132977718853	-0.464202478096219	0.123100766558899	0.348981298857763	-0.439996883291533	0.827414524734299	8.46225749451762	-33.2253754430631	113.228540316737
47113	1656051402480	5.53089464659116	1.23566569199391	8.30901690433821	-0.00931030379268289	0.0231815228729172	0.24498646306742	0.010127181307952	-0.0137421452554426	-0.015169156208954	0.1904296875	-0.297607421875	0.652099609375	0	0	0	-0.276952354070256	0.0978103588633975	-0.809561516145788	-0.508272248750303	-0.329913429450508	0.768777686346899	0.54784851742367	-0.877132922905598	-0.464184909698648	0.123167386767527	0.348991353221378	-0.43990139643239	0.827461054547914	8.4663015705511	-33.2195371171241	113.226117474859
47114	1656051402481	5.53438126649923	1.21427122114142	8.31526306120457	0.012244561704513	0.0329010362673815	0.249429584365648	0.0136803274219106	-0.0167640147852505	-0.0140962623887944	0.1904296875	-0.310546875	0.65771484375	0	0	0	-0.277034421257946	0.0977766840598516	-0.809522906880042	-0.508295497451061	-0.329775233418506	0.768778683139156	0.54793031653176	-0.877128711463324	-0.464150814650476	0.123325766918304	0.34913252347849	-0.439935628939194	0.827383298985069	8.47781532888154	-33.2251395788602	113.217392250814
47115	1656051402481	5.548212359366	1.22344363609539	8.33374760453884	0.00560623561311757	0.0297326303729493	0.273437169244113	0.0104709450359367	-0.0119302417196486	-0.0139619471682143	0.19189453125	-0.301513671875	0.65966796875	0	0	0	-0.277033596851493	0.0978541265611978	-0.809512265328771	-0.508297991745739	-0.329771075605546	0.768729156224296	0.54800230114904	-0.877164678816336	-0.464115443004387	0.123203010522779	0.349046077088679	-0.440059473180072	0.827353912260939	8.46979557029697	-33.2300701380657	113.218467882971
47116	1656051402484	5.54120095349507	1.23412580520388	8.36531495424562	0.0107911106209408	0.00546508674077761	0.297026890590029	0.00643551523020887	-0.0115005064103992	-0.0112400971985321	0.190673828125	-0.301025390625	0.65478515625	0	0	0	-0.277074067353132	0.0978412725328917	-0.809484681195123	-0.508322336219811	-0.329676727400851	0.768739729887118	0.54804423462285	-0.877176847229896	-0.464070975778356	0.123283851837713	0.349104617692295	-0.440087897053765	0.827314093179072	8.47567444615006	-33.232942483665	113.212243031898
47117	1656051402482	5.54992046865052	1.22620260425721	8.33220461940056	0.00358162176564095	0.029609891135255	0.27343845246828	0.0113960041011888	-0.0130134531185309	-0.0108317280863911	0.18896484375	-0.29931640625	0.6669921875	0	0	0	-0.277112087949984	0.0978659432428303	-0.809465572598578	-0.50832729086962	-0.329624512138305	0.768707211400092	0.548121249486899	-0.877186554884953	-0.464051245020687	0.123289050299764	0.349129530298787	-0.440165497439594	0.827262295730383	8.47654964564153	-33.2382180688255	113.209833666127
47118	1656051402483	5.54760760621366	1.19047257429697	8.37835759167658	0.0529056790141824	0.02419296921403	0.305942316940831	0.0061971040830787	-0.00679140503223406	-0.0119566759814656	0.192626953125	-0.30029296875	0.654296875	0	0	0	-0.277133074623356	0.0978414869263776	-0.809442562399164	-0.508357197807326	-0.329540436774577	0.768741681419185	0.548123460343767	-0.877202129809697	-0.464000005747038	0.123371058697253	0.349169763850986	-0.440159314243779	0.827248604771682	8.48224435055951	-33.2383695191437	113.203609781679
47119	1656051402485	5.54319474904845	1.23828248376883	8.36337953939133	0.0078028287480208	0.00583053726994258	0.29702943447665	0.0129867833643582	-0.00655154391350553	-0.0107674680179228	0.189453125	-0.298583984375	0.673095703125	0	0	0	-0.277149590296276	0.0977880700877528	-0.80944036121403	-0.508361976926697	-0.329512410027573	0.76877355734068	0.548095602218788	-0.877181251583417	-0.464011187527385	0.123477405706371	0.349248655700162	-0.440091848803385	0.827251195894238	8.48942342001665	-33.2364611733061	113.200984885127
47120	1656051402486	5.53328387438565	1.20921914158236	8.35066684582297	0.033263032831249	0.0176745126795346	0.277489004694004	0.0100947087585202	-0.00799806141724694	-0.00967717356986646	0.184814453125	-0.30322265625	0.658935546875	0	0	0	-0.277184115334705	0.0977539817771863	-0.809423462575831	-0.50837661579244	-0.329444365443085	0.768792219375892	0.548110329682715	-0.877175623213309	-0.463994751124262	0.123579112189228	0.349326975938227	-0.440076577831887	0.827226250505645	8.49656648253704	-33.237470033376	113.196196997336
47121	1656051402487	5.53930411012247	1.22475562060153	8.31044606973791	0.00361414195491957	0.0348301571348244	0.249429892730706	0.0137877870981145	-0.0102434558265744	-0.0136064137504698	0.1875	-0.294921875	0.663818359375	0	0	0	-0.277149253709016	0.0976458346218439	-0.80946099144751	-0.508356651844306	-0.329523611388366	0.768864818435181	0.547960838482282	-0.877114699208133	-0.464077611013302	0.123700345145892	0.349405200262668	-0.439862321560761	0.827307164299078	8.50396026501751	-33.227230134407	113.199227490433
47122	1656051402488	5.55037603948374	1.25710878396979	8.32188825469407	-0.0229580709442944	0.0235652815398991	0.26896617845772	0.0108160010685866	-0.0101201949540911	-0.0127549416723543	0.19189453125	-0.301513671875	0.662109375	0	0	0	-0.277195018335608	0.0976094363950961	-0.809434134537476	-0.50838145283057	-0.329422440455602	0.7688889035511	0.547987873698189	-0.877116301596168	-0.464041392689021	0.123824792935395	0.349496565360141	-0.439858431620017	0.827270639473108	8.51276065596053	-33.2290819129907	113.192208169306
47123	1656051402489	5.52772204383256	1.22060438026458	8.28973114324613	0.00636339129559595	0.0385210890062327	0.2254252049387	0.00959263434326844	-0.00667388996083317	-0.0113621969551774	0.19091796875	-0.307373046875	0.6611328125	0	0	0	-0.277197970531439	0.097525546807738	-0.809435496904274	-0.508393773766393	-0.329394111857635	0.768956166483131	0.547910515596377	-0.877091701083426	-0.464049077030835	0.123970165755362	0.349584992475509	-0.439732723520092	0.827300105706207	8.5223090302899	-33.2237833699994	113.18861039896
47124	1656051402490	5.5536314465175	1.23679016880024	8.32816615422914	-0.00208462226571537	0.034579202371732	0.273423060361255	0.0111234114643867	-0.00255480199187295	-0.00605867004901854	0.194091796875	-0.295166015625	0.660400390625	0	0	0	-0.277210465971393	0.0974775007464775	-0.809436479642612	-0.508394610345073	-0.329378555456009	0.768982720526671	0.547882599410779	-0.877069854141303	-0.464066114040604	0.124060923565027	0.349654455373111	-0.439668303759383	0.827304988808287	8.52840684622956	-33.2218713658285	113.186914887686
47125	1656051402492	5.53313588008369	1.23975238697533	8.34082155706377	0.0064145776393151	0.0118708704358427	0.27303030001411	0.00581966816401869	-0.00285917877951599	-0.00767217661863538	0.19482421875	-0.2998046875	0.65966796875	0	0	0	-0.277202847847315	0.0974870135863518	-0.809439549296913	-0.508392052810981	-0.32939220356795	0.768977912598372	0.547881142369858	-0.877072623775438	-0.464067605641303	0.124035761045016	0.349634650531549	-0.43967513840357	0.827309726654705	8.52665439763537	-33.2217715729583	113.187903796742
47126	1656051402493	5.52283356377472	1.21020426630495	8.32846921366101	0.0318704895056681	0.0237354210850612	0.253498865230897	0.00871158762920371	-0.0014130013162087	-0.00876351774619533	0.18701171875	-0.298583984375	0.6572265625	0	0	0	-0.277205843208854	0.0974423488913382	-0.809434032358445	-0.508407765866489	-0.329356928195027	0.769021919037971	0.547840580724987	-0.87706827299267	-0.464053064498368	0.12412090009071	0.349678793122474	-0.439613513633088	0.827323818266814	8.53227784486791	-33.2189935477638	113.184496304416
47127	1656051402494	5.50739046888501	1.22712196151158	8.30175340562976	0.0127337994108216	0.0164933508173024	0.225034162160478	0.00656145401632376	0.00311368981438823	-0.0105019821357092	0.18896484375	-0.30126953125	0.662353515625	0	0	0	-0.277172999742038	0.0974134995756207	-0.809434347707479	-0.508430698390449	-0.329346706296401	0.769081757626773	0.547762719740425	-0.877083325197751	-0.464017670069262	0.12414685869385	0.349650665252863	-0.439546188641431	0.827371476628862	8.53355166905677	-33.2136611764347	113.182239462048
47128	1656051402495	5.53283108481306	1.2430791797189	8.34052859575499	0.00426452808036017	0.012548376943619	0.273030618107859	0.00722590197008224	-0.00135146133842431	-0.0083374627444187	0.18798828125	-0.30224609375	0.661865234375	0	0	0	-0.27717166188677	0.0973753825028721	-0.809429298585221	-0.50844676744098	-0.329315509051488	0.76912402748499	0.547722124661245	-0.877082813865713	-0.463999839122474	0.12421709590761	0.349681330813587	-0.439491046142679	0.827387809458691	8.53814239856064	-33.2108811190793	113.179136007561
47129	1656051402497	5.5534085937186	1.24217839368529	8.327512798682	-0.0075707972900069	0.0357701727298559	0.273416280969482	0.00608197558575001	0.000525418480281821	-0.00670576200163759	0.187255859375	-0.301513671875	0.659912109375	0	0	0	-0.277086122717099	0.0973463654231621	-0.809479063242022	-0.508419720220729	-0.329465337376562	0.769163583804681	0.5475764538547	-0.877056891627504	-0.464066146459153	0.124152408592234	0.349605206362904	-0.439351787363261	0.82749393147301	8.53268325514596	-33.2009059275379	113.187501055487
47130	1656051402498	5.5223463065835	1.21428069942178	8.32819896298384	0.0275476883485199	0.0252268921026245	0.253507996147483	0.00383111349068115	-0.00147361054368336	-0.00893116373110263	0.193603515625	-0.299072265625	0.655517578125	0	0	0	-0.277076367109942	0.097321517497903	-0.809470952727987	-0.508442706419029	-0.329429402156899	0.769208218925324	0.54753537322467	-0.877070188965107	-0.464029073042397	0.124197032976341	0.349605710226907	-0.439312798936185	0.827514418042124	8.53549680428906	-33.1980930288187	113.184035909144
47131	1656051402499	5.53272453435257	1.24583509319309	8.34018807127737	2.33101375191761E-05	0.0135058362386309	0.273030282970966	0.00722624232934002	-0.00135178932593943	-0.00833744070480742	0.189208984375	-0.296875	0.65478515625	0	0	0	-0.277049112519887	0.0973248831848305	-0.809477999823769	-0.508445694412209	-0.32945353017126	0.769223662438685	0.547499158540093	-0.877078752488521	-0.464021685893492	0.124164153255843	0.3495614872821	-0.439293560349997	0.827543312730004	8.53297683864144	-33.1956133891138	113.185138246688
47132	1656051402500	5.53277698717856	1.1836386912617	8.30278199745237	0.0418237977992548	0.059353098098915	0.234378804756014	0.00441554891074418	-0.00436858421154184	-0.00700593630782488	0.19775390625	-0.30029296875	0.6650390625	0	0	0	-0.277051411355213	0.0973079775850593	-0.809471095932088	-0.508458668738075	-0.329424595302379	0.769246566587035	0.54748438863946	-0.877083816691284	-0.464001879366821	0.124202393061927	0.349576049677485	-0.439274374096779	0.82754734592878	8.53552511554022	-33.1946021059151	113.182699698958
47133	1656051402501	5.53817744750021	1.20122189542103	8.35410807665018	0.0434357283475436	0.0323499802564818	0.281991035275714	0.0088178352768562	-0.00689545317908107	-0.00304156973749378	0.189697265625	-0.301513671875	0.671875	0	0	0	-0.277106297462513	0.0973049443747703	-0.809454462341135	-0.508455820207483	-0.329369557607506	0.769216039419561	0.547560388652357	-0.877071290861515	-0.464008853394717	0.124264776657894	0.349659327443087	-0.439320462385949	0.82748769541368	8.54035561082918	-33.1998058901461	113.180058277485
47134	1656051402502	5.53394908307171	1.24861277997422	8.33896016921691	-0.00126886063350311	0.0137619167811285	0.273029857011933	0.00919770397011933	-0.010834181077561	-0.00732405911717578	0.19091796875	-0.298583984375	0.673828125	0	0	0	-0.27714733735375	0.0972847627227509	-0.809439971929252	-0.508460382117305	-0.329314786429701	0.769211888948934	0.547599161192175	-0.877060740763741	-0.464007429518204	0.124344530892468	0.34973737067937	-0.439329233322258	0.82745005667941	8.54613896750485	-33.2024607974039	113.176722457887
47135	1656051402503	5.52420090176622	1.21897278973243	8.32628332882136	0.0242140036769176	0.0274380737797809	0.253510782967222	0.00407359783850469	-0.00618517477540649	-0.00821136072924919	0.193603515625	-0.298583984375	0.660888671875	0	0	0	-0.277119403773959	0.0971782885923178	-0.809471777391963	-0.508445334214142	-0.32937635633567	0.769284317996991	0.547460367488773	-0.877004275574898	-0.464079444684275	0.124473971756683	0.349820977802056	-0.439126299719614	0.827522432556468	8.55416665644878	-33.1929574220173	113.178646062046
47136	1656051402504	5.52235681885671	1.24290800483975	8.31848809229048	0.00157821782683374	0.018302588904159	0.249029771649162	0.0047397304901023	-0.0106496637593454	-0.00604581407045842	0.18701171875	-0.301025390625	0.65771484375	0	0	0	-0.277147516296938	0.097176678045544	-0.80945892015962	-0.50845078820717	-0.329334100363891	0.769275502028348	0.547498175628503	-0.877004601877587	-0.464068978431079	0.124510688470785	0.349859941438058	-0.439152803972566	0.827491894908942	8.55696367595058	-33.1955460895863	113.176223938541
47137	1656051402505	5.52310090578207	1.24349226226077	8.31790674423624	0.000231932415702824	0.0184241546432448	0.249029670884306	0.00168640499471915	-0.00895665847135363	-0.00543352663418502	0.189453125	-0.295166015625	0.661865234375	0	0	0	-0.27713531302175	0.0972085997040766	-0.809463234431009	-0.508444469459939	-0.329360479503875	0.76925433814041	0.547512043514237	-0.877014080969991	-0.464069419238348	0.124442259333974	0.349811343900306	-0.439189409457858	0.827493012839818	8.55231907995165	-33.1964956224521	113.17845467146
47138	1656051402506	5.53906070491709	1.22813733660473	8.34407353650316	0.0177378097908812	0.0260744317930165	0.27751003066048	0.000200351236060857	-0.00889525139935442	-0.00500727890311318	0.194580078125	-0.2978515625	0.660888671875	0	0	0	-0.27714407949853	0.0972224801473411	-0.809453310682703	-0.508452835942257	-0.329333745642376	0.769248393224941	0.547536476868902	-0.877026932292936	-0.464047005952552	0.124435269515171	0.349804293875881	-0.439223503227366	0.827477897105824	8.55199971495037	-33.198168597059	113.17693213046
