// Start Time : 24/06/2022 06:16:02																																
// Update Rate : 100Hz																																
// Filter Profile : 46.1 human																																
// Firmware Version : 4.4.0																																
PacketCounter	Time_Of_Arrival	Acc_X	Acc_Y	Acc_Z	FreeAcc_X	FreeAcc_Y	FreeAcc_Z	Gyr_X	Gyr_Y	Gyr_Z	Mag_X	Mag_Y	Mag_Z	VelInc_X	VelInc_Y	VelInc_Z	OriInc_q0	OriInc_q1	OriInc_q2	OriInc_q3	Mat[1][1]	Mat[2][1]	Mat[3][1]	Mat[1][2]	Mat[2][2]	Mat[3][2]	Mat[1][3]	Mat[2][3]	Mat[3][3]	Euler_X	Euler_Y	Euler_Z
46914	1656051402334	9.69146233980334	-0.123535609761126	2.02715107491366	-8.67361737988403E-17	0	0.0892843917032344	-0.0202530110689176	0.00468025091665065	-0.0196699606369915	0.6572265625	0.43359375	0.012939453125	0	0	0	-0.390774902896032	-0.49491899584966	-0.473100602192043	0.61524465297903	0.0624620155053807	-0.195341386550521	0.978744215471808	0.968949076728733	0.246941590944246	-0.0125513891048562	-0.239240847945208	0.949137288995878	0.204700325627521	-3.5087507051296	-78.1655388672408	-72.2678950661613
46915	1656051402335	9.6801582273564	-0.105406983883684	1.99025976904087	4.33680868994202E-16	-1.38777878078145E-15	0.0705159483737194	-0.0210603904933725	0.00288747860657889	-0.0207067025930506	0.66845703125	0.42626953125	0.009033203125	0	0	0	-0.387738043281966	-0.498975663904135	-0.468813840406235	0.617167788909027	0.0624737397499701	-0.191729907451913	0.979457336707492	0.965617297721949	0.259745585670859	-0.0107454671681907	-0.252349492137022	0.946452256224784	0.2013649932466	-3.05458513591686	-78.3664493797383	-71.9521925249509
46916	1656051402335	9.6654784458286	-0.116966526744904	2.00534781380729	-0.00201671591971465	0.000405913837406291	0.0593220692228957	-0.0191553341736863	0.00692668722602947	-0.0170655218727011	0.662841796875	0.42626953125	0.00146484375	0	0	0	-0.389355810741541	-0.496852951164226	-0.471130240738458	0.61609698410471	0.0623468823622429	-0.193618673639231	0.979093803206768	0.967429008118729	0.252876697807039	-0.0115969804957843	-0.245344615816449	0.947926782470246	0.203078395122393	-3.2683790015518	-78.2636058938832	-72.1509938368207
46917	1656051402336	9.6832701977715	-0.132005117879745	2.00908431629293	-0.0175011082350504	-0.00400919454845994	0.0776738228262914	-0.0248398835083188	0.0018321844919145	-0.0183334813676961	0.6630859375	0.42919921875	0.015380859375	0	0	0	-0.38938246376359	-0.496824478343207	-0.471251986823485	0.616009983317896	0.0621740052678358	-0.193682378212645	0.979092196597873	0.967501335953997	0.252605723656628	-0.0114679249710248	-0.245103157866611	0.947986015058136	0.203093469264794	-3.23184541886803	-78.2631533571498	-72.2028436483006
46918	1656051402337	9.68185311018932	-0.142865762893723	1.95617751710621	-0.0165241539038984	-0.0571832930930396	0.0656615637116236	-0.0208189604606754	0.00377151283661565	-0.0227871130371702	0.659423828125	0.4326171875	0.0126953125	0	0	0	-0.389382802041895	-0.496809854849123	-0.47137724221817	0.615925723701802	0.0619669272871721	-0.193768311373215	0.979088321567651	0.96756516482593	0.252369057985589	-0.0112920497182017	-0.244903555992881	0.948031486860557	0.203122003197592	-3.18193748234037	-78.2620619404355	-72.2657716482208
46919	1656051402337	9.66208264375037	-0.0831646893929471	1.98825308112621	0.0305670064713513	-0.00852043824497022	0.0521441388741604	-0.0111727095060613	0.001180565602354	-0.018945633307628	0.65966796875	0.425048828125	0.008056640625	0	0	0	-0.389367363134369	-0.49681676884996	-0.471465636886581	0.615862247544371	0.0617865028492327	-0.193827303049723	0.979088047449326	0.967604244041909	0.252226419521838	-0.0111292500771572	-0.244794720077349	0.948057387444275	0.203132309430547	-3.1359963221066	-78.2619847377762	-72.3192322572628
46920	1656051402338	9.68794535925322	-0.0852411684040621	2.01087900914174	0.0231411641202923	0.00699652083779867	0.0820890928669335	-0.0152401819884355	-0.000330411370470577	-0.0181368556763734	0.667236328125	0.43212890625	0.008544921875	0	0	0	-0.38937043553521	-0.496817625734189	-0.471558360247357	0.615788619228862	0.0616099192813333	-0.193868352457712	0.979091047738401	0.967652733712473	0.252046753623889	-0.0109827558671353	-0.24464751129927	0.948096775599934	0.203125821381929	-3.09489666807551	-78.262829766159	-72.3701307534107
46921	1656051402338	9.68002470935618	-0.0963890723142925	1.99136603542357	0.0150798976421197	-0.0129198694690823	0.0704959990351526	-0.015341789908238	-0.00449836883844303	-0.0200948964394601	0.6630859375	0.42529296875	0.003662109375	0	0	0	-0.389378357548556	-0.496834420910515	-0.471649580098916	0.615700192028408	0.0614044635820576	-0.193876332498593	0.979102374396618	0.96770261564949	0.25186233653061	-0.0108171670264378	-0.24450181904709	0.948144151030969	0.203080105742604	-3.049007988867	-78.2660204488171	-72.4259770005759
46922	1656051402339	9.66092025430449	-0.0908523414675966	1.93422317298227	0.03149051822674	-0.06173258984635	0.0401320697124277	-0.0118473226598803	-0.00892390281967503	-0.0186910100327213	0.6591796875	0.427490234375	0.0126953125	0	0	0	-0.389389537626864	-0.496871338160009	-0.47171910384277	0.615610061947978	0.0611999207697126	-0.193837052225051	0.979122957999906	0.967743054729719	0.251713750113023	-0.0106568300367419	-0.244393023059527	0.948191639484731	0.202989322603639	-3.00523856532921	-78.2718209735878	-72.4775979325938
46923	1656051402340	9.70478827287421	-0.109189892998824	1.95956674871645	0.00858306207942348	-0.0506461663063916	0.088428776763056	-0.00918924274133519	-0.00266172332048929	-0.0176572113409223	0.66455078125	0.437255859375	0.00634765625	0	0	0	-0.389380231738755	-0.496892232544445	-0.471791098356531	0.61554390897775	0.0610225374970695	-0.193856248491884	0.979130228742873	0.967776299121257	0.251592389285222	-0.0105025955323251	-0.244305719901481	0.948219924160216	0.202962288736141	-2.96221606598515	-78.2738705682056	-72.5269148921762
46924	1656051402341	9.72261121892473	-0.124065287346655	1.96325316487694	-0.00694334328460947	-0.0549774239705307	0.106781028433502	-0.00359008138219811	0.0103170181892382	-0.0140286458758901	0.66357421875	0.4345703125	0.0078125	0	0	0	-0.389333687827448	-0.496882616421872	-0.471862008439621	0.615526758160652	0.0609078209781643	-0.19398110177027	0.979112643928003	0.967793667645785	0.251531049028012	-0.0103705467352043	-0.244265540362146	0.948210664109437	0.203053890040868	-2.92372005900295	-78.2689140818839	-72.5683149847362
46925	1656051402342	9.72370349201534	-0.110362723001499	2.01786351591673	-0.00788835003067327	-0.00173216062484341	0.11879273899152	-0.0120897423446591	0.0197483550833107	-0.0169497357549806	0.664794921875	0.43701171875	0.016845703125	0	0	0	-0.389282188989676	-0.496826305191827	-0.471982648066614	0.61551229047751	0.0607920047869287	-0.194210978288789	0.979074270965231	0.967833504819698	0.251383514518867	-0.0102291532670883	-0.24413651734717	0.948202733881449	0.203245999609687	-2.88120410141576	-78.2581053747353	-72.6188136049867
46926	1656051402343	9.67293492452528	-0.0895621277368112	2.02789581344024	0.00598325541650282	0.020633933824122	0.0709147529113547	-0.0140212637257723	0.0231587754095248	-0.0145841268772793	0.656005859375	0.43701171875	0.014892578125	0	0	0	-0.389237609931243	-0.496754217842282	-0.472104903558458	0.61550490664736	0.0607044141839224	-0.194454920232631	0.97903128555522	0.967876618137407	0.251222086102145	-0.0101151133153659	-0.243987348363564	0.948195521742118	0.203458660141832	-2.84616305854161	-78.2460090939446	-72.6628207047617
46927	1656051402344	9.69047890852556	-0.104576564396102	2.03291100508786	-0.0095012287732248	0.0162193268932208	0.0892665497905192	-0.0206056506431364	0.0121000177945528	-0.0188553351204433	0.66455078125	0.42626953125	0.007568359375	0	0	0	-0.389225625117912	-0.496705029915218	-0.47223765445822	0.615450342205033	0.0605514219374433	-0.194617000540904	0.979008553793998	0.96793830361275	0.25099002092674	-0.00997245177804901	-0.24378056875113	0.948223724917098	0.203575052016987	-2.80448417160611	-78.2396172365421	-72.7174519269829
46928	1656051402345	9.70481863901512	-0.0903557923653859	2.01953189546677	0.00754005693519204	0.00289567812251854	0.100440933641353	-0.0144078083079802	0.0135069652824188	-0.0127712612949657	0.66259765625	0.436279296875	0.009765625	0	0	0	-0.38920847487285	-0.496657212650331	-0.472337318181123	0.615423296652814	0.0604581419517356	-0.194768386433879	0.978984212700944	0.967981171514825	0.250828441881227	-0.00987645362578837	-0.243633463761714	0.948235397140066	0.203696752419107	-2.77587288763444	-78.2327766524786	-72.7551112343025
46929	1656051402345	9.66212095640704	-0.0571459498811494	2.04818831529245	0.0295029165506588	0.0450533318431249	0.0641553461303772	-0.0187062925703609	0.01613797675943	-0.0152102826505112	0.662841796875	0.4326171875	0.008056640625	0	0	0	-0.38919014793865	-0.496592970512431	-0.47246197524185	0.615391040181527	0.0603502071764193	-0.194959549462548	0.978952821420482	0.968035916098654	0.250621421396123	-0.00976566845769467	-0.243442637261433	0.948250851415777	0.203852900770264	-2.74268427742352	-78.2239605363359	-72.7999610171813
46930	1656051402347	9.65382764163979	-0.0686068633313404	2.03055596194115	0.0213783250160349	0.0251729222201111	0.052562833604096	-0.0179462780563196	0.0183627203353181	-0.0178138064512946	0.657958984375	0.43212890625	0.011474609375	0	0	0	-0.389157367409724	-0.496531583064101	-0.472597411945906	0.615357308100443	0.0602161464837796	-0.195174695058521	0.978918206037388	0.968090389862554	0.250416459225529	-0.00962257786241022	-0.243259147327317	0.948260742284401	0.204025860821183	-2.70026969804951	-78.2142464814252	-72.8537315888284
46931	1656051402347	9.62100631043846	-0.0640603852226707	2.04348650266193	0.0197957107495965	0.0429992667659619	0.0230364081876999	-0.0169537339699043	0.0164415872533004	-0.0171716146431268	0.662109375	0.430419921875	0.001220703125	0	0	0	-0.389128043815131	-0.496474341531129	-0.472724322372358	0.615324555625271	0.0600898864776536	-0.195373588545231	0.978886288821159	0.968141945842883	0.250222161108409	-0.00948908793262077	-0.243085125506803	0.948271074634883	0.204185187435684	-2.66078944436793	-78.2052965975403	-72.9039858620231
46932	1656051402348	9.65315220293597	-0.0660419187623602	2.03384942759438	0.0212693675465453	0.0251297378731086	0.0525631792147934	-0.0181804657900476	0.0174758809278146	-0.0157265886062483	0.658203125	0.430419921875	0.012939453125	0	0	0	-0.389099668096581	-0.496410560694195	-0.47285506646954	0.61529349877314	0.0599692826907229	-0.1955829277098	0.978851880277104	0.968195665332796	0.250019068802433	-0.00936049496275504	-0.242900882592764	0.948281489655696	0.20435600703681	-2.62259111211799	-78.1956556154376	-72.9535079754719
46933	1656051402348	9.65275819262191	-0.0646995263716698	2.03576176721086	0.0212693655188395	0.0251297474264341	0.0525631791948271	-0.0163773280384799	0.0223802352407041	-0.0193707699211456	0.667724609375	0.429443359375	0.01318359375	0	0	0	-0.389049054646261	-0.496340667216682	-0.472998842979172	0.615271378893991	0.0598360732145265	-0.195843565943825	0.978807918858788	0.968247035396405	0.24982585523843	-0.0092043739852164	-0.242728908019499	0.94827861925322	0.204573550291498	-2.57617051840898	-78.1833492815204	-73.0105189844362
46934	1656051402349	9.63443352473536	-0.0472805982737587	2.03447772307517	0.0365962694906659	0.0294383272422573	0.0342125627333623	-0.0168058541479795	0.0201729884794238	-0.0115578601427387	0.662841796875	0.432861328125	0.0146484375	0	0	0	-0.389017265383802	-0.496263721757382	-0.47312114156252	0.615259515251409	0.059757407748179	-0.196074256531408	0.978766539142442	0.968294880320388	0.249643905279773	-0.00910743114109819	-0.242557368398786	0.948278865356768	0.20477577140164	-2.5465596470312	-78.1717771878128	-73.0503897089356
46935	1656051402349	9.66322894051617	-0.0793060473779816	2.07665558127636	-0.00338019719831849	0.0539377452311987	0.0713330980363231	-0.0177054575757645	0.0142146309649984	-0.0145620129384391	0.654296875	0.43359375	0.01220703125	0	0	0	-0.389001970504336	-0.496206426428845	-0.473237516563185	0.615225895286901	0.0596508705756495	-0.196245394306399	0.978738738812914	0.968346504937341	0.249447439721708	-0.00900117725203853	-0.242377432974286	0.948295165035556	0.204913298628918	-2.51520103276843	-78.1640089171813	-73.0927939485157
46936	1656051402350	9.67420973269734	-0.035850353948529	2.0455894994502	0.0460376540267419	0.0313127740947924	0.0753334400944538	-0.0192160289995212	0.014795397262281	-0.0146793117047059	0.658935546875	0.433837890625	0.00439453125	0	0	0	-0.388978138667757	-0.496145091536669	-0.473368498778791	0.615189661930816	0.0595246250159683	-0.19644362503469	0.978706657380003	0.968402001894999	0.249236544004962	-0.0088717449366329	-0.242186667144306	0.948309573565348	0.205072111565275	-2.47716171451744	-78.1550506156791	-73.1426019803028
46937	1656051402350	9.69183056130705	-0.0510624818839319	2.05028504566187	0.030552011838617	0.0268976338827949	0.0936842554852344	-0.016190840708134	0.0136333932895522	-0.0144400962040378	0.66552734375	0.427734375	0.014892578125	0	0	0	-0.388959843578726	-0.496092915586565	-0.47347959884091	0.61515780793995	0.0594177771725431	-0.196608898560393	0.978679962379297	0.968449789948652	0.249054619129327	-0.00876362018562088	-0.242021759567784	0.948323118824599	0.205204118376068	-2.44543589319381	-78.1476014891233	-73.184497298528
46938	1656051402351	9.66576433964883	-0.0465361027439296	2.02884687438266	0.0376809509972571	0.0111143612622759	0.0637412424948955	-0.0169494441075751	0.0114060539661668	-0.0118366009939254	0.67138671875	0.429931640625	0.010009765625	0	0	0	-0.388939643857886	-0.496043266942358	-0.473592997034274	0.615123324152928	0.0593015009624951	-0.196774414097214	0.978653749770722	0.968497980427867	0.24887125319159	-0.00864645834963129	-0.241857383370324	0.948336928149245	0.205334061513707	-2.41125638435445	-78.1402914597191	-73.2288768835237
46939	1656051402352	9.63633511280403	-0.0718676446523019	2.059172613402	0.00354821064495487	0.0379400194469873	0.0413909285638816	-0.0159061527452741	0.0140856102438092	-0.0128750960008441	0.664306640625	0.4375	0.014892578125	0	0	0	-0.388923279929139	-0.495987322788864	-0.473699420715094	0.615096835283747	0.0592108688938408	-0.196939996350561	0.978625929986672	0.968544061879832	0.248695082286691	-0.00855314233094706	-0.241695000366482	0.948348772279407	0.205470515923792	-2.3836811245071	-78.1325380848349	-73.2663654839367
46940	1656051402353	9.64269689107255	-0.0707295308612413	2.02686174654179	0.0122012124473792	0.00424968377151155	0.0409722281662397	-0.0190725485056257	0.0185237998187102	-0.00906301751022212	0.657958984375	0.427734375	-0.0009765625	0	0	0	-0.388895977793162	-0.495904987522941	-0.473826879461676	0.615082311650874	0.0591326632989649	-0.197174154652735	0.978583507355479	0.968595974713695	0.248496013511821	-0.00845984853053761	-0.241506036983754	0.948352299520443	0.205676323612344	-2.35535395535918	-78.1207244983278	-73.3059765940518
46941	1656051402354	9.63565540282946	-0.0706514164629949	2.06239292094062	0.00319540316951411	0.0375786174842491	0.0413924341221747	-0.0130242670475965	0.0162015124351575	-0.0085864866653862	0.663330078125	0.43115234375	0.01220703125	0	0	0	-0.388876369189927	-0.495840992766385	-0.473917062028354	0.615076822597404	0.0590886564217187	-0.197349111449153	0.978550897446068	0.968632491299235	0.248355575608146	-0.00840267003897649	-0.241370311931093	0.948352696139245	0.205833758756211	-2.33766493761677	-78.1116513623064	-73.3316784692231
46942	1656051402357	9.60953481867551	-0.0664142672712	2.04123858141242	0.0102883025596641	0.021741387935377	0.0114485527273196	-0.0117935393463412	0.0151688965350317	-0.0100289696271752	0.665283203125	0.4267578125	0.011474609375	0	0	0	-0.388832587216027	-0.495788746290637	-0.474020947745943	0.615066564908618	0.0589953202991917	-0.197551230184092	0.978515745215961	0.968666513915207	0.248226720433857	-0.00828734469006231	-0.241256579189369	0.948344350283906	0.206005476340898	-2.30369591874435	-78.1018785076731	-73.3726380347802
46943	1656051402355	9.60919441167888	-0.0657752566468131	2.0428611520207	0.0102883805644012	0.0217429917472742	0.0114485490961673	-0.0101868893267724	0.0187528311192646	-0.00794154359435192	0.65771484375	0.4287109375	0.017578125	0	0	0	-0.388799803276835	-0.495722426272997	-0.474107001094949	0.615074418728873	0.0589636552055324	-0.197748612597817	0.978477783897234	0.968695739857244	0.248114528969296	-0.00823068021319256	-0.241146948865688	0.948332571796405	0.206187978123814	-2.28593828382913	-78.0913335609955	-73.3967448327231
46944	1656051402355	9.64131360445707	-0.0683758761218669	2.033512062022	0.0115486085744322	0.00343862722370081	0.0409733310498339	-0.0132091748463886	0.0199132878920132	-0.00817815188361872	0.662353515625	0.431884765625	0.007568359375	0	0	0	-0.388750445231037	-0.495644262512696	-0.474221725879938	0.615080166380261	0.0589010394833982	-0.198004900654694	0.978429725051574	0.968732611566772	0.247973692072247	-0.00813482188369463	-0.241014096755348	0.948315932248732	0.206419712741832	-2.25680913558209	-78.0779968948181	-73.4336987964383
46945	1656051402357	9.64429106896338	-0.0972818898357048	2.05300255344584	-0.0210031194075717	0.0124353536262126	0.04814614910822	-0.0102370869663896	0.0141517985250104	-0.00626398157553194	0.660888671875	0.428466796875	0.0107421875	0	0	0	-0.388732889816736	-0.495588615386858	-0.474293808642539	0.615080521360433	0.0588746147645836	-0.198154576956541	0.978401013576487	0.968760955434972	0.247864246916169	-0.00809483325342025	-0.240906602153287	0.948313280900281	0.206557329347334	-2.24423198522561	-78.0700362708104	-73.452547645206
46946	1656051402360	9.65072217111682	-0.0963158061382346	2.02053797360685	-0.0123238901008651	-0.0212969840565465	0.0477225287080767	-0.00999639881221497	0.0150402062599022	-0.00834429322387616	0.669677734375	0.43408203125	0.010986328125	0	0	0	-0.388686414163668	-0.495535739283749	-0.474389510855918	0.61507868970318	0.058797846164782	-0.198357738308095	0.978364462222376	0.968789776676666	0.247754926868945	-0.00799154671754571	-0.240809430656604	0.94829937459932	0.206734405074195	-2.21372941131174	-78.0599095079394	-73.4889517984057
46947	1656051402362	9.68294739195817	-0.0988915795460403	2.01076219769822	-0.0107463679962352	-0.0391284838113091	0.0772452792622928	-0.00669158075349038	0.0143314713396217	-0.00654310482393562	0.66259765625	0.4326171875	0.00537109375	0	0	0	-0.388656832108429	-0.495488529459516	-0.474453970570264	0.615085696337997	0.0587690939683151	-0.198509697325478	0.978335368706401	0.968809706148674	0.247678593331104	-0.0079415160796884	-0.240736259973984	0.948287516776042	0.206873968058974	-2.19840149270521	-78.0518550278292	-73.5085332217371
46948	1656051402363	9.65462872676051	-0.053352118690935	2.025143339184	0.0279712989296153	-0.0106644216241424	0.0521497556081343	-0.00376288207444716	0.0210473844081901	-0.00392830834716447	0.668701171875	0.434326171875	0.01220703125	0	0	0	-0.388592281633403	-0.495425473749664	-0.474529864057107	0.615118725721149	0.0587500161557294	-0.198747380143492	0.97828825735966	0.968821441038259	0.24763489354578	-0.00787241278911438	-0.240693687051101	0.948249143624538	0.207099277229733	-2.17692194579538	-78.0388236835442	-73.5322436098435
46949	1656051402364	9.69001790327978	-0.0858162089790355	2.03393436441733	-0.00300651894744996	-0.0194996130509412	0.0888433624285607	-0.00797546967487196	0.0228018220277969	0.000921110965279758	0.662353515625	0.431640625	0.018798828125	0	0	0	-0.388565038914347	-0.495334729757282	-0.474590936332771	0.615161896723583	0.0588138972941278	-0.198961004037046	0.978240995030185	0.968840038212109	0.247561307368551	-0.00789806629074735	-0.240603212452027	0.948223559065342	0.207321432059545	-2.18167092431813	-78.025764618949	-73.5320493272123
46950	1656051402365	9.65700339539335	-0.0828227851930995	2.04743761252216	-0.00488934505583332	-0.00201994095608213	0.0593208661269617	-0.00872335024418929	0.0256108143546056	-0.00179551575971096	0.66357421875	0.437255859375	0.011474609375	0	0	0	-0.388509548412611	-0.495238630304725	-0.474684506216418	0.615202120773493	0.0588266372239497	-0.199243956612981	0.978182637602062	0.968863703077655	0.247469900700609	-0.00785958687739319	-0.240504785007647	0.948188005619368	0.207598059692258	-2.16816181259994	-78.0096592023547	-73.5508017570942
46951	1656051402366	9.67444700841712	-0.0990822533375008	2.05300386179109	-0.0203776956411168	-0.00643904280488022	0.077667030891952	-0.00905605816451165	0.0205581104333771	-0.00168391540597797	0.656982421875	0.440185546875	0.007080078125	0	0	0	-0.388484478541986	-0.495157147993178	-0.474751986849008	0.615231468397174	0.0588598995483623	-0.199442991118249	0.978140074590016	0.968886456856115	0.247380721829761	-0.00786207274129291	-0.240404962398782	0.948169431990291	0.207798417446447	-2.16675772076995	-77.9979261408468	-73.557540872657
46952	1656051402368	9.63817902484876	-0.067016914189726	2.04836239788288	0.0101447635802437	0.00223625170248029	0.0409752226039011	-0.00968671033563651	0.0220544968565158	0.00652915513044426	0.665283203125	0.431640625	0.00537109375	0	0	0	-0.388462560130247	-0.495063564953601	-0.474812921017421	0.61527359448248	0.0589295133806722	-0.199652385504064	0.978093163975321	0.968907024980394	0.247299058823918	-0.00789635665657229	-0.240304992449929	0.94814666611624	0.208017812064973	-2.17390416093665	-77.985007683245	-73.5554773038025
46953	1656051402366	9.63316509314891	-0.109755652228553	2.04900755258683	-0.0304723336994726	-0.00868055109751603	0.0365432474567058	-0.00944388803089118	0.0229433838292644	0.00445009196916786	0.6669921875	0.431640625	0.013671875	0	0	0	-0.388448037647486	-0.494962118494925	-0.474867236938281	0.615322460654116	0.0590272170752366	-0.199858826155376	0.978045110029261	0.968927080712161	0.247218458660839	-0.00795901752542122	-0.240200124702223	0.948124191920634	0.208241246605667	-2.18878952866611	-77.9717885445482	-73.5457811305215
46954	1656051402367	9.60807045905992	-0.09465019662057	2.08137159033334	-0.0241380807482119	0.0289569502380176	0.018622973393331	-0.00878846220424637	0.0159703389754574	0.00519694759425236	0.662109375	0.42724609375	0.011474609375	0	0	0	-0.388442160525602	-0.494884738333809	-0.474908598178564	0.615356487791062	0.0591018382806981	-0.200007980054812	0.978010112742315	0.968944367932939	0.247149022604548	-0.00801077253786386	-0.24011202502765	0.948110841906162	0.20840356738096	-2.20129438248423	-77.9621701578313	-73.537726908869
46955	1656051402368	9.6357658873985	-0.140600316996827	2.06998508016651	-0.063181096613228	0.000206891311162201	0.0437115168975097	-0.00554089333333895	0.0106598210028534	0.0086712571147274	0.668701171875	0.433837890625	0.010009765625	0	0	0	-0.388455299893368	-0.494822199786779	-0.474916253022616	0.615392576489094	0.0592110864262632	-0.200087261104129	0.977987287845844	0.968952485152407	0.247114065199423	-0.00810680563415617	-0.240052345877303	0.948103225774738	0.208506941165853	-2.22655374014019	-77.9559012152255	-73.5151279592842
46956	1656051402370	9.67951502902871	-0.102090445520773	2.02706205288799	-0.0119404229442689	-0.0401995377132244	0.0772396142138998	0.00772355543335868	0.000385526183252062	0.00985719020836974	0.669189453125	0.43115234375	0.008544921875	0	0	0	-0.388450317533058	-0.494815598098971	-0.474869208774502	0.615437331695358	0.0593135168716711	-0.200081925101219	0.977982172620802	0.968927029908641	0.247211170732689	-0.00818827072043832	-0.240129792880292	0.9480790369546	0.208527749372847	-2.24868128386491	-77.9544967405743	-73.4877457685151
46957	1656051402370	9.71886130484409	-0.105673667615205	1.9818970011572	-0.0013631518720315	-0.091358972111083	0.106334730793069	0.00945930002019094	-0.00434495593632879	0.013211859948312	0.66064453125	0.431884765625	0.0087890625	0	0	0	-0.388464234733957	-0.494826030524532	-0.474796500386232	0.615476255487475	0.0594309654726436	-0.200007513804244	0.977990263123736	0.968896374900859	0.247327643107096	-0.00829768998360902	-0.240224426416142	0.948064360355844	0.208485475695793	-2.27916033453702	-77.956718204123	-73.4510166679127
46958	1656051402371	9.79179827230398	-0.100215992113762	1.97879782643693	0.00984507173371869	-0.106973195920901	0.176980162805568	0.0181155135739756	3.47214991523291E-05	0.0111052637322114	0.66552734375	0.4384765625	0.007080078125	0	0	0	-0.388438622835179	-0.494852267102613	-0.474711392950779	0.615536971624001	0.0595406542922711	-0.199965360144256	0.977992211231167	0.968844292705077	0.247529059385283	-0.00837264908126173	-0.240407252343288	0.948020685165791	0.208473340066628	-2.29986137560928	-77.9572531693315	-73.4188451350798
46959	1656051402372	9.76596867468226	-0.097484029361183	1.95644780825393	0.0172767280026512	-0.122457187789669	0.147033564617223	0.0159905758374445	0.00715034433271398	0.0138834967238992	0.6650390625	0.43359375	0.015625	0	0	0	-0.388406853161685	-0.494841644539475	-0.474642615905319	0.615618591672687	0.0596922679920489	-0.199997865565083	0.977976322265205	0.968797409440805	0.247709007167188	-0.00847509463262047	-0.240558542984345	0.947966825125045	0.208543726493011	-2.32718624736307	-77.952890620709	-73.3815019687557
46960	1656051402373	9.718558162391	-0.108705094022448	1.98321921112246	-0.00156533440489744	-0.0908528449648498	0.10633934970792	0.0200050328557115	0.0161074892858972	0.0191131895003335	0.659423828125	0.4296875	0.01220703125	0	0	0	-0.388361290351844	-0.494816541832994	-0.474562099406454	0.615729576918007	0.0598948074707529	-0.200068660030317	0.977949458464861	0.968739022725111	0.24793264392638	-0.00860871217273024	-0.240743261354579	0.947893419825958	0.208664196169377	-2.36247196411853	-77.945518308519	-73.3338109941072
46961	1656051402374	9.70352424944267	-0.123320121736957	1.99955996538053	-0.0186345226683552	-0.0774298006083862	0.0951624329816507	0.0152883459871568	0.021561472425654	0.0191623503004615	0.670166015625	0.437744140625	0.010009765625	0	0	0	-0.388310437868664	-0.494749705364045	-0.474506881596298	0.615857899358443	0.0601318967198942	-0.200224673211433	0.977902978436124	0.968690572112653	0.248116446320007	-0.00876382140354381	-0.240879078578713	0.947812380855466	0.208875465768874	-2.40255904344401	-77.9327731375327	-73.2838254745355
46962	1656051402375	9.69622162287924	-0.125424096432882	2.03571962408387	-0.0277281432765137	-0.0434764018086078	0.0955889514418846	0.0153855665116998	0.0257248856464262	0.0211358090534802	0.661376953125	0.437255859375	0.01416015625	0	0	0	-0.38827161599309	-0.494683665518479	-0.474439829211612	0.615987071082642	0.0603898390537148	-0.20035434916953	0.977860522829264	0.968640854034511	0.248304001343542	-0.00894532347549182	-0.241014446111351	0.947735858604939	0.209066446566632	-2.45001943685785	-77.9211430710227	-73.2263967553983
46963	1656051402376	9.65522366917306	-0.136539574255989	2.03032045952979	-0.0373644836993709	-0.0455498298715627	0.0544660446830392	0.0129482705537004	0.0328266155269801	0.0187065615779422	0.659912109375	0.43212890625	0.008544921875	0	0	0	-0.388200057069379	-0.49457749676021	-0.474413677677334	0.616137547810877	0.0606495242621417	-0.200618135089017	0.977790365610227	0.968598184959194	0.248464756247994	-0.00910060417661818	-0.241120698614885	0.947637920714463	0.20938763077947	-2.4886773418967	-77.9019487086828	-73.179236475841
46964	1656051402377	9.66236431376872	-0.125373066184212	2.05287102847549	-0.0294604197226152	-0.0249846745111013	0.0660670528524125	0.0111603463655101	0.0329555835516477	0.017025220215843	0.659912109375	0.424560546875	0.01513671875	0	0	0	-0.388146851243085	-0.494489305743216	-0.47438548953883	0.616263544022097	0.060877467641193	-0.200824032036497	0.977733932156494	0.968561900026931	0.248600858370165	-0.00924440554273859	-0.241208995996868	0.947558611049586	0.209644696751342	-2.52485530236138	-77.8865307843656	-73.1359309218271
46965	1656051402379	9.664905216985	-0.156272879589547	2.0738155881898	-0.062029575058626	-0.0159814819953245	0.0732329848198194	0.0119060183607721	0.0301464197196278	0.0197478230052709	0.6630859375	0.4287109375	0.004150390625	0	0	0	-0.3880872327219	-0.494387027190038	-0.474353671028937	0.61640762643386	0.0611401242551357	-0.201059854346693	0.977669074981996	0.968521027449847	0.248753789159258	-0.00941125742942861	-0.241306660897619	0.947468462456137	0.209939534288909	-2.56676076079483	-77.8688352937044	-73.0860514496166
46966	1656051402380	9.67577964129647	-0.115194926038204	2.04412162843149	-0.0120237269644595	-0.0375206693044749	0.0772500392549045	0.0163085884143135	0.0246737229417852	0.0144993032180638	0.662353515625	0.435791015625	0.022216796875	0	0	0	-0.388048053219932	-0.494332579227488	-0.474283417353298	0.616530006999009	0.0613810822759526	-0.201170327215856	0.97763125061881	0.968469507265514	0.248947896831797	-0.00957904796510584	-0.241452223505035	0.947394027905438	0.210108019013041	-2.61036791482257	-77.858527104549	-73.0320060640998
46967	1656051402381	9.72468436410131	-0.148035746838775	1.98580528834139	-0.025002780267613	-0.112998270260568	0.113108763145735	0.0209398640277663	0.0270930108059639	0.0168388250220886	0.667236328125	0.42333984375	0.005126953125	0	0	0	-0.387960753991973	-0.494266805174164	-0.474232018460924	0.616677201890408	0.0616086359388069	-0.201383903565501	0.9775729637027	0.96840839319979	0.249180892056915	-0.00969881507817461	-0.241639317905758	0.947287393782078	0.21037355732981	-2.63962814453731	-77.8426591567809	-72.9897496319777
46968	1656051402383	9.72191113064499	-0.107576842869882	2.02368799875987	0.00701606713436904	-0.0679381598732133	0.117960979126417	0.023684343544166	0.0254773172180954	0.0155223206346838	0.662109375	0.4306640625	0.013916015625	0	0	0	-0.387902102326001	-0.494219639132609	-0.474148276521727	0.616816276680649	0.0618607203342189	-0.201507074976683	0.977531661898516	0.96834242309803	0.24943074176509	-0.00986188071080646	-0.241839208790404	0.947195441182473	0.210557814613404	-2.68159843959761	-77.8314275494945	-72.9340209266881
46969	1656051402382	9.75387783051154	-0.111872972472726	2.01541060126424	0.00858251672244091	-0.0857541057028316	0.147488331778012	0.0189734382154596	0.0309343816486537	0.015565017725118	0.668212890625	0.4345703125	0.013427734375	0	0	0	-0.387808660969845	-0.494139615002393	-0.474113074218079	0.616966187256275	0.0620856674815383	-0.201760226604894	0.97746518140224	0.968286716309825	0.249642470664516	-0.00997355796360822	-0.242004555559	0.947085765810498	0.210860966724126	-2.7080270527373	-77.8133702650664	-72.8958188768556
46970	1656051402383	9.73068881425272	-0.138686446361405	2.01374934879657	-0.0163738721314737	-0.0913438223783411	0.124722374555443	0.0170052598471995	0.0347757890143237	0.0142884666598246	0.66064453125	0.432373046875	0.009521484375	0	0	0	-0.387742849192049	-0.494060436481061	-0.47407036805084	0.617103762863845	0.0623231424805691	-0.201964413344373	0.977407899320345	0.96823801860131	0.249825538073146	-0.0101163165960533	-0.242138318418121	0.946993968443794	0.211119536009149	-2.74337110439159	-77.7978325415103	-72.8505707465072
46971	1656051402384	9.69362502458381	-0.166200557924582	2.08010921867853	-0.0595174437657187	-0.0311866423444496	0.102771621755721	0.0150380247760405	0.0386171580298212	0.0130117569060063	0.665771484375	0.429443359375	0.00537109375	0	0	0	-0.387636946600907	-0.493952230705121	-0.474067760278057	0.617258900362163	0.062541904892763	-0.202296819858294	0.977325179665195	0.968193357767254	0.249994712589744	-0.0102110554077916	-0.242260463360727	0.946878366186699	0.21149758282272	-2.76408096187518	-77.7754292176407	-72.8205295677952
46972	1656051402384	9.65705853270915	-0.134520715467894	2.0771150932824	-0.0284820507134195	-0.0209762222866512	0.0660792467494193	0.0145823170705611	0.041876444977441	0.0118584753813516	0.655029296875	0.430419921875	0.014404296875	0	0	0	-0.387559150066199	-0.493872399118081	-0.474030984938097	0.61739985739222	0.0627693574159372	-0.202523790513834	0.977263588826218	0.968142859487266	0.250185061037166	-0.0103362883884729	-0.24240340631561	0.946779567539212	0.211775917178633	-2.79425590502454	-77.7587745280387	-72.7799237887029
46973	1656051402385	9.65146256716374	-0.177285472228565	2.0799693440525	-0.0691069182595893	-0.0318829322927858	0.0616550563838789	0.0146536569407226	0.0464743923796313	0.0101888686182234	0.658203125	0.423095703125	0.012939453125	0	0	0	-0.387428802524739	-0.493744900197199	-0.474052950781024	0.617566754577437	0.0629795467701229	-0.202936693751194	0.977164405316713	0.968100675495585	0.250345445660101	-0.0104038426669222	-0.242517337099067	0.946648750153181	0.212229793007009	-2.80648375568995	-77.7320012562755	-72.7587482893763
46974	1656051402386	9.61791436641334	-0.174510952707261	2.09541593290471	-0.0703464194368592	-0.0132589545441805	0.0321271430328593	0.0123124525291153	0.045697918428421	0.00537620678449907	0.66552734375	0.434326171875	0.009033203125	0	0	0	-0.38733574425828	-0.493625991649105	-0.474076340264604	0.617702214007399	0.063170007939515	-0.203278028258666	0.977081160049763	0.968073991701216	0.250445289642409	-0.0104834864240987	-0.242574311683237	0.946549100746073	0.212608803176645	-2.82290018307007	-77.7095746302035	-72.737018087396
46975	1656051402386	9.65264849666171	-0.207094484602969	2.10678628759605	-0.101339733673991	-0.022062604545079	0.068825751335762	0.0135189535838083	0.0450955544147662	0.000295228830699903	0.667236328125	0.428466796875	0.008544921875	0	0	0	-0.387187645596121	-0.49351913296139	-0.47412907457529	0.617839957546571	0.0632809720868339	-0.203702752318465	0.97698552050152	0.968040796910304	0.250574695480223	-0.0104564574429625	-0.242677840127623	0.946423536627695	0.21304918499754	-2.80982308638108	-77.6838585680085	-72.7424103366732
46976	1656051402387	9.641673239066	-0.177958786337407	2.12679201492414	-0.0773594666007159	0.00367151096223456	0.0620671750110979	0.0202984996045932	0.039959529684108	0.00352168342886859	0.659912109375	0.432861328125	0.017578125	0	0	0	-0.387082608993843	-0.493466103515691	-0.4740878999616	0.617979709703774	0.0634637355820821	-0.203929111986924	0.976926441217655	0.967977699182442	0.250815433849039	-0.0105257792388139	-0.242881716379462	0.946311014110764	0.213316516991121	-2.82488196902719	-77.6679994025568	-72.713603123514
46977	1656051402388	9.6400820096429	-0.190100836515386	2.07730846800137	-0.0764263817307613	-0.0495583459896531	0.0500826270971437	0.0255385664745348	0.0358385808761777	0.00297861135740502	0.666015625	0.4326171875	0.01953125	0	0	0	-0.386925968865705	-0.493411484492889	-0.474084384152608	0.618124096189837	0.0635782073463335	-0.204258529570339	0.976850175128402	0.967913396317845	0.251064582639958	-0.010499170075711	-0.243107936479008	0.946173889114252	0.21366680317572	-2.81314018533914	-77.6475562758226	-72.7105457195817
46978	1656051402389	9.65877453540408	-0.134844602211543	2.06765877607953	-0.0180870599569946	-0.0515818338362915	0.0656896629702164	0.0333708724838094	0.0333800248677184	0.0051762498504466	0.662109375	0.438232421875	0.01318359375	0	0	0	-0.38679777733168	-0.49335841617853	-0.474040830238582	0.618280069146501	0.0637655289050583	-0.204520116984884	0.976783230339234	0.967839872207816	0.251345541435977	-0.0105546466077636	-0.243351472336244	0.946042779449611	0.213969905274171	-2.82398093514644	-77.6296391344707	-72.6835028097631
46979	1656051402389	9.65038384856083	-0.147278712906784	2.05129717153233	-0.0261659179645777	-0.0714941321590855	0.0541065856246341	0.0327484924453322	0.0278753355989752	0.0037256753567634	0.66796875	0.423095703125	0.01171875	0	0	0	-0.386639339710997	-0.493343658868585	-0.474002328943003	0.618420445488837	0.0638676528215341	-0.204773329824242	0.976723505561201	0.96775759588647	0.251663626288908	-0.0105192588692261	-0.243651715625211	0.945903431961112	0.214244110484003	-2.81093145301761	-77.6136758960126	-72.6775926113155
46980	1656051402390	9.65751162663535	-0.134180639068506	2.07359255451585	-0.0174381730058907	-0.0503910924049076	0.065696975669173	0.0343348806999533	0.0318894697917437	0.00218115324276808	0.653564453125	0.43212890625	0.011962890625	0	0	0	-0.386511497139079	-0.493333241620601	-0.473924253276816	0.618568490506451	0.0640362297362438	-0.204951280313167	0.976675142500904	0.967667159542182	0.25200932947064	-0.0105624903940685	-0.243966451842735	0.945772843000766	0.214462350582834	-2.81959749149874	-77.6007642414781	-72.6487885095577
46981	1656051402391	9.6359714726568	-0.0881958946675852	2.05502537226824	0.0305802513754993	-0.0549755044674804	0.0401749562023479	0.0297345062751136	0.0290390888940889	0.00348025975246481	0.665283203125	0.43505859375	0.00927734375	0	0	0	-0.386359018739836	-0.493308297274448	-0.473896019294079	0.618705257271831	0.0641389734748219	-0.20521569773253	0.976612875957381	0.967592136417229	0.252298543071235	-0.0105310354512421	-0.244236871960683	0.945638388903646	0.214747264957153	-2.80749047381148	-77.5841601885671	-72.6436688897686
46982	1656051402391	9.6097614317219	-0.0841211669685461	2.03512982708707	0.037830802735471	-0.0694509619438774	0.0102495210798601	0.0277477907051765	0.0333089677903653	-0.001449117021671	0.664794921875	0.429931640625	0.010498046875	0	0	0	-0.386215155784398	-0.493308213526219	-0.473868938929284	0.618815876192618	0.0641904703712101	-0.205429028214479	0.976564640912407	0.967521462361487	0.252572164320934	-0.0104652606336422	-0.244503176632562	0.945519019468723	0.214969719820007	-2.78710064742429	-77.571312796028	-72.6475255907714
46983	1656051402392	9.61989521043967	-0.100074297450097	2.07560354348198	0.0133010482349328	-0.0405065146750247	0.0289949280705137	0.0320306298188823	0.0306780384774567	0.00101898963833136	0.668212890625	0.43115234375	0.010986328125	0	0	0	-0.386045267728771	-0.493288952598771	-0.473845945056422	0.618954829419575	0.0642720591951878	-0.205714740639836	0.976499128463664	0.967442203734385	0.252878143235615	-0.0104032258104769	-0.244795189577668	0.945375105530705	0.215270121016459	-2.76674513515363	-77.5538844749913	-72.6494763615639
46984	1656051402393	9.59069638939167	-0.0666835268838642	2.03740625814883	0.0538023161881542	-0.0635295332677324	-0.00809675780354979	0.0355087280817065	0.0262550323240178	0.00243971955632529	0.663330078125	0.4267578125	0.013671875	0	0	0	-0.385927133913872	-0.493316720806553	-0.473738028016708	0.619088960564259	0.0644217875670211	-0.205803350343926	0.976470590583191	0.967340583034576	0.253265056239731	-0.0104406753714348	-0.245157153069201	0.945252237381695	0.215397720563388	-2.77504700062807	-77.5463000295392	-72.6185262131924
46985	1656051402394	9.62649378658762	-0.0864439076306236	2.10018261128776	0.0218461902092243	-0.0190465316689113	0.0405751263590819	0.0347311469390648	0.0240339154705306	0.00504123139143542	0.663330078125	0.427490234375	0.013671875	0	0	0	-0.385774647149506	-0.493316875145324	-0.473682674070168	0.619226216014198	0.0645263699651755	-0.206015172827744	0.976419016684882	0.967251746596082	0.253605291804818	-0.0104122368116494	-0.245479950883868	0.945114863142755	0.215632764627053	-2.76448808025897	-77.5326048746969	-72.608831482589
46986	1656051402395	9.65864531034777	-0.0893986914294024	2.09148899042841	0.0240737277934914	-0.0356953641247812	0.0701206148006523	0.0346355248300782	0.0198657090408508	0.00307646701737845	0.662841796875	0.424560546875	0.018798828125	0	0	0	-0.385680853747143	-0.493337736818066	-0.473586056683422	0.619341911547371	0.064668248692552	-0.206081548213634	0.976395623247519	0.967165226300333	0.253933051935844	-0.010460887628372	-0.245783324589899	0.945012381199538	0.215736312968208	-2.7760538836163	-77.5263977592871	-72.5781784454589
46987	1656051402396	9.65761507477823	-0.101481509525657	2.04020640607121	0.0249950034325982	-0.0889261419241123	0.0581655250813675	0.0356201372645379	0.0179454614156819	0.00372541336528115	0.66259765625	0.434326171875	0.01611328125	0	0	0	-0.385536939777697	-0.493361224443227	-0.473520576643909	0.619462859078369	0.0647459314213978	-0.206238867126909	0.97635725738614	0.967074773834187	0.254279063123336	-0.0104182470058301	-0.246118561221886	0.944885012974239	0.215911940565455	-2.76251030957464	-77.5162244999077	-72.5710173203711
46988	1656051402397	9.70062702574771	-0.12072244039822	2.06847994260287	0.00255452508412887	-0.0771137666349834	0.106455470860215	0.0416433935597592	0.0160417804462856	0.000600485696299254	0.656494140625	0.438720703125	0.01220703125	0	0	0	-0.38541764793849	-0.493399148119076	-0.473438552331042	0.619569571928463	0.0648264356041143	-0.206326764078533	0.976333344545676	0.966985720730168	0.254618347648499	-0.0103977374801213	-0.246447051414341	0.94477445110758	0.216021034585865	-2.75569016542788	-77.5098877920318	-72.5576436187286
46989	1656051402397	9.69256740082084	-0.132821568018355	2.05083931702591	-0.00553177813457138	-0.0970246845063652	0.0948855801292261	0.0338396234236406	0.0180715811892313	0.0020367305772053	0.663818359375	0.42822265625	0.015380859375	0	0	0	-0.385274732851808	-0.493420827503094	-0.473383212548334	0.619683468626966	0.0648884421271609	-0.206490347283912	0.976294641261991	0.966900657283002	0.254943428606773	-0.010342492732528	-0.24676427825763	0.944651038579217	0.21619853442426	-2.73882415524264	-77.4996384359577	-72.5549642133805
46990	1656051402397	9.71706165479431	-0.148353295099924	2.0227523476341	-0.0124736088934461	-0.133869270501259	0.112872868715321	0.0430834899819597	0.0233400043013629	0.00310691221189	0.66064453125	0.444091796875	0.0126953125	0	0	0	-0.385114572884956	-0.49347637011678	-0.473305973464799	0.61979778425753	0.0649250552378117	-0.206618104245986	0.976265177193247	0.966797870271356	0.255336442468353	-0.010255690438766	-0.247157065934069	0.944516945398757	0.216335675776009	-2.71415326674553	-77.4918413383463	-72.5558560803128
46991	1656051402398	9.6543402215437	-0.170280941005771	2.06485195655317	-0.0482311607890239	-0.0892663676472303	0.0609441386480665	0.0364934099348385	0.0247556540101468	-0.000540455288372436	0.661865234375	0.4326171875	0.019287109375	0	0	0	-0.384940866447732	-0.493488819796024	-0.473265336476287	0.619926798392185	0.0649774120526289	-0.206851701914389	0.976212225562692	0.966707757412589	0.255680901256914	-0.0101680131184095	-0.247495550831256	0.944372622510613	0.216578628149594	-2.68796960101638	-77.4778407189007	-72.5611618742367
46992	1656051402399	9.66925327607574	-0.143968701732803	2.10578236519066	-0.0328815027513562	-0.0487813847425092	0.0840820117724394	0.0384594988451205	0.0209166635380419	0.00075942635154237	0.66259765625	0.4296875	0.0126953125	0	0	0	-0.384784458688902	-0.493544926205334	-0.473221328082667	0.620012823106214	0.0649499609292969	-0.206989748620065	0.976184791185299	0.966623417694359	0.256004989998332	-0.0100306261435049	-0.247831940919971	0.944254567932905	0.21670865233692	-2.65011405974295	-77.470593015908	-72.5790050888033
46993	1656051402400	9.61362141193862	-0.165464897088156	2.11406005736545	-0.0596485503318632	-0.0375212814841999	0.0317719275503752	0.0372851481471617	0.0269708397808801	-0.00313224963126415	0.656494140625	0.435546875	0.017822265625	0	0	0	-0.384595977281444	-0.493557548275715	-0.473191951589112	0.6201421270566	0.0649806469827059	-0.207252031481607	0.976127097751342	0.966533021976536	0.256350622420437	-0.00991341583720712	-0.248176213498828	0.944103253797699	0.216973761597993	-2.61599440306986	-77.4553648208291	-72.5919959438487
46994	1656051402399	9.63091055841295	-0.180763971423145	2.12023951956134	-0.0753337476323546	-0.0411247175274458	0.050129804681788	0.0395261901506808	0.0235897324862544	-0.000265266101694887	0.660400390625	0.431640625	0.010498046875	0	0	0	-0.384448513818183	-0.493594154661742	-0.473140357451834	0.620243785020939	0.0650060252682211	-0.207401653926073	0.976093628002743	0.96644781068227	0.256675084746681	-0.00982497316694397	-0.248501199003696	0.943982232258115	0.2171283014135	-2.59084494875579	-77.4465388043341	-72.5974124027281
46995	1656051402400	9.61260406070249	-0.163657258616674	2.11882147621207	-0.059916896511474	-0.0367384721895889	0.0317732504413541	0.038999922961891	0.0222525921850392	0.000256315871660114	0.662109375	0.424560546875	0.007080078125	0	0	0	-0.384273887331664	-0.49361896047855	-0.473087629897193	0.620372465386194	0.0650568325886652	-0.207611324998651	0.976045668125132	0.96635083221348	0.257043347906536	-0.00973582956473534	-0.24886477776866	0.943835925905188	0.217347802742175	-2.56478003874986	-77.4339023542545	-72.6011592127217
46996	1656051402401	9.60504491259251	-0.162873146154486	2.1545491316241	-0.0687075231979069	-0.00153360967084029	0.0321475264786279	0.0419273681249898	0.0169163626296909	-0.0014370523024835	0.659912109375	0.430908203125	0.011474609375	0	0	0	-0.384150041515285	-0.493718859270015	-0.472950734671374	0.620474041502727	0.0651185811498455	-0.207583066975551	0.976047560672151	0.966231548117374	0.257492696355224	-0.009700863179126	-0.249311383237378	0.943719652030592	0.217340867209839	-2.55566226765504	-77.4344007648486	-72.5834158643554
46997	1656051402402	9.60886691692451	-0.132329601892084	2.10415283094211	-0.0272209763123644	-0.0438606028858972	0.0246206345118587	0.0405769994826617	0.0142044813071505	-0.00560982265755428	0.650634765625	0.435791015625	0.0166015625	0	0	0	-0.383975191600713	-0.493784157089983	-0.472896188791119	0.620571875828228	0.0650928016675394	-0.207730417244204	0.976017930635815	0.966133882556294	0.257864493724061	-0.00955111789973911	-0.249696311842549	0.943585701792891	0.217480516884262	-2.51464976019774	-77.4265997945192	-72.6014981540442
46998	1656051402403	9.64132705817361	-0.134586332348125	2.09430609224479	-0.0263449432503742	-0.0611573389869155	0.0541755941239597	0.0381226725628102	0.00339050722827369	0.000232722364600861	0.665283203125	0.426025390625	0.012939453125	0	0	0	-0.383864760242777	-0.493883669843681	-0.472832048335224	0.62060987792059	0.0650175494577084	-0.207719406563797	0.976025289835924	0.966057552613267	0.258155399821744	-0.00941246948156199	-0.250011046358716	0.943508578487583	0.217453533010987	-2.47849892909931	-77.4285368737888	-72.6195344561629
46999	1656051402404	9.65191923451683	-0.149928696503424	2.1322167447485	-0.0509288849404552	-0.0322073510354473	0.0728950971907434	0.0363209648119768	0.00393157705084586	-0.00510959530323729	0.66162109375	0.424560546875	0.006103515625	0	0	0	-0.383728053174684	-0.493970135880415	-0.472767435209407	0.620674824904772	0.0649689141276057	-0.207769293002902	0.976017910226115	0.965970087274206	0.258487466824571	-0.00927469601003972	-0.250361400156938	0.943406672850945	0.217492572130101	-2.44182671611149	-77.4265944227123	-72.6356729032861
47000	1656051402404	9.66411680875432	-0.093811758223643	2.15331043625174	-0.00116940519406224	0.00063681375305491	0.0888629301425272	0.0351662017050379	0.00956284763922448	-0.00536346737381199	0.662841796875	0.427734375	0.01220703125	0	0	0	-0.383655747028945	-0.494059855168466	-0.472623952481646	0.620757381609921	0.0650629181030846	-0.207671808833936	0.976032395212143	0.965867420080616	0.25886973462458	-0.00930523090611257	-0.250732812999671	0.943323316955031	0.217426254565155	-2.4506024386327	-77.4304074205506	-72.6043919637587
47001	1656051402405	9.6439587818468	-0.160400176502889	2.1144268540378	-0.0579838848444924	-0.0501456336918837	0.0613489607537598	0.0338512730649934	0.00601411419352725	-0.00224179156475838	0.665771484375	0.42626953125	0.004638671875	0	0	0	-0.383529320712347	-0.494128663498522	-0.472559574600534	0.620829745193038	0.0650486247250524	-0.207732419263384	0.976020449790045	0.965783741887736	0.259185417214576	-0.00920235886222565	-0.251058639219411	0.943223282945395	0.21748424812618	-2.42289731439517	-77.4272628500293	-72.6127516439952
47002	1656051402406	9.66336572785006	-0.104702532498393	2.10143903625384	0.000558731379032843	-0.050573115877426	0.0769581244450741	0.0340477094580679	0.00188391413794689	0.00101423922016511	0.66259765625	0.433349609375	0.01611328125	0	0	0	-0.383483921922934	-0.494240977793593	-0.472378975004673	0.620905823349864	0.0651679196863354	-0.207538775738258	0.9760536864378	0.965672649895508	0.259596371200279	-0.0092767075750988	-0.25145471856289	0.943152893556878	0.217331874992477	-2.44415938683505	-77.4360141456067	-72.5675244092116
47003	1656051402406	9.6586315636082	-0.146039026872458	2.10074087791613	-0.0401263363431144	-0.0614695447860573	0.0725650183317707	0.0351111850933755	0.00455517423465509	-2.02164472996695E-05	0.668701171875	0.431396484375	0.00830078125	0	0	0	-0.383362899204457	-0.494313354491723	-0.472300844424665	0.620982372890279	0.0651724398537775	-0.207578196790967	0.976045001677954	0.965583799564677	0.259929599738603	-0.00919397617850259	-0.251794517616542	0.943052435125821	0.217374390169387	-2.42191478444361	-77.4337268470851	-72.5694987808839
47004	1656051402407	9.6406960524695	-0.129146955489824	2.09755086151856	-0.0241654771555538	-0.0558634150916705	0.0542125655175685	0.0377048443375677	0.00622914114507702	0.00272737289119266	0.655517578125	0.43115234375	0.013916015625	0	0	0	-0.383279111933197	-0.494399099738773	-0.472160090954544	0.621072862909809	0.0652687573745743	-0.207505943104891	0.976053929292295	0.965477334658688	0.260323941730993	-0.00921746288275227	-0.252177527886874	0.942959558484768	0.21733330506638	-2.42855281471537	-77.4360781118969	-72.5395934787186
47005	1656051402407	9.66605338932569	-0.132209252000408	2.12118774890147	-0.0316626232724798	-0.040262469151605	0.0841243097570192	0.0303410803390446	0.00501078066995022	0.00531129024646025	0.666015625	0.43310546875	0.013671875	0	0	0	-0.383184989865238	-0.494448602249416	-0.472077990952407	0.621153937228056	0.0653259003838769	-0.207535640233949	0.976043792445667	0.965396770801243	0.260623268000633	-0.00919712472471129	-0.252470991730867	0.942870335841231	0.217379686551153	-2.42268424025037	-77.4334084049957	-72.5275853236959
47006	1656051402408	9.67605841696468	-0.161104300209306	2.10639946796701	-0.0551437349252737	-0.0640023103255706	0.09094038725976	0.0265939670473425	0.00896683689622099	0.00230554241934659	0.66748046875	0.424072265625	0.0126953125	0	0	0	-0.383118831732837	-0.494481091056511	-0.472022773324737	0.621210844095668	0.0653659041007715	-0.207561295059778	0.976035658864059	0.965341366737975	0.26082892446898	-0.00918247378513037	-0.25267240499419	0.942807817613676	0.217416822718457	-2.41841685206785	-77.4312666946545	-72.5195666144248
47007	1656051402409	9.62245187427687	-0.112040615269197	2.09577991196582	-0.00877375844702179	-0.0508464438516036	0.0358538621967313	0.0285578203678387	0.00513169972769056	0.00361606912666928	0.66064453125	0.42822265625	0.009033203125	0	0	0	-0.38302551304972	-0.494529194641147	-0.471951005151346	0.621284621359012	0.0654062487684247	-0.207597206079938	0.976025318652055	0.965266400061899	0.261107410179265	-0.00914862071672307	-0.252948215122354	0.942722822667023	0.217464664001155	-2.40898193383856	-77.4285444593114	-72.51227632575
47008	1656051402410	9.6579698069053	-0.144360708634527	2.10389697300968	-0.038478464522645	-0.0580259460637042	0.0725923835616253	0.0234916382431439	0.00554244094277119	0.00373024725530762	0.66552734375	0.42919921875	0.0068359375	0	0	0	-0.383021079775766	-0.494563911702528	-0.471818050258004	0.621360698097036	0.0655885293844601	-0.207481579209333	0.976037672993202	0.96519519312305	0.261365159796284	-0.00930012993578505	-0.253172636723132	0.942676852125618	0.2174027793778	-2.44952484564252	-77.4317970156552	-72.4573502155201
47009	1656051402411	9.64049791978608	-0.115221681019888	2.1537884775004	-0.0240124150043744	-0.000341811350978995	0.0661133863878103	0.0225289955562666	0.00704723430451458	0.00672435223160558	0.657470703125	0.435302734375	0.009033203125	0	0	0	-0.382950082829091	-0.494585741946144	-0.471754522467767	0.621435313171036	0.0656652287895831	-0.207526537130492	0.976022957780522	0.965133140507946	0.261593809184802	-0.00931128828120265	-0.253389223964402	0.94260353032588	0.217468355849549	-2.4517215880315	-77.4279230013553	-72.4416668626587
47010	1656051402412	9.69795046244965	-0.134992101174675	2.11393961441288	-0.0293173537500778	-0.0542831773602377	0.113711807954676	0.023592543012716	0.00971737520520626	0.00568685062375964	0.663818359375	0.426513671875	0.008056640625	0	0	0	-0.382885475865938	-0.494665797850958	-0.471642600457578	0.621496354165495	0.0657180117401767	-0.2074476144975	0.976036182819169	0.965049012116572	0.261903939609054	-0.00931292811550555	-0.253695776759775	0.9425347811389	0.217408921614778	-2.45282237930518	-77.4314046501238	-72.4221478287184
47011	1656051402413	9.67989261726769	-0.118912591674072	2.11124821696619	-0.013915925381142	-0.0498643457899447	0.0953472601344494	0.0231612888970646	0.012557954226055	0.00816131464870414	0.6669921875	0.432373046875	0.00732421875	0	0	0	-0.382802881799119	-0.494670004109251	-0.471583390841672	0.62158880797768	0.0658213850336486	-0.207539709325487	0.976009638438752	0.964984121775902	0.262142118337121	-0.00933565820486221	-0.253915714347583	0.94244828974688	0.217527081441685	-2.45746767801399	-77.4244174847425	-72.4035339665193
47012	1656051402413	9.65711737590713	-0.144981225061139	2.10776370526775	-0.0384624764598465	-0.0544787981588135	0.0726126308740298	0.0216503394244068	0.0131399973963744	0.00802653591485335	0.6611328125	0.431396484375	0.01025390625	0	0	0	-0.382770650899512	-0.494716548027047	-0.471432311359621	0.621686208407659	0.0660142258286552	-0.2074399821419	0.976017815307288	0.964891882538189	0.262476409232178	-0.00947573788641098	-0.254216004610554	0.942377200703386	0.217484331836333	-2.49478493060477	-77.4265694402282	-72.3472184291973
47013	1656051402414	9.6946018479526	-0.0936113211620904	2.1524734162915	0.00270395472751154	-0.00794173003373782	0.118432377637468	0.0209283100381256	0.0159298247637057	0.00528791836771698	0.659912109375	0.433837890625	0.015380859375	0	0	0	-0.382680191778324	-0.494710947100827	-0.471393258890074	0.621775960545359	0.0660989485831973	-0.207569832459204	0.975984474081967	0.964834152904727	0.262688532587003	-0.00947587652439175	-0.254413023221717	0.942289498774207	0.217633899278216	-2.49310900008165	-77.4177971022572	-72.3363409480246
47014	1656051402415	9.67178579872911	-0.119429646652761	2.14916140007976	-0.0226877747368466	-0.0141100549486135	0.09568711226086	0.0180796990568056	0.0133801107536907	0.00462747377973677	0.662841796875	0.4345703125	0.01220703125	0	0	0	-0.382622806728665	-0.494711104893637	-0.471371284273812	0.621827808020881	0.0661400701139501	-0.20764804197946	0.975965051519479	0.964799047876428	0.262817800266273	-0.00946578469730636	-0.254535436318914	0.942236220130225	0.217721420931993	-2.48945730192841	-77.4126896463058	-72.3322784742964
47015	1656051402416	9.69101767032314	-0.0646442230177511	2.13694654040035	0.0349066855236047	-0.0164900781250005	0.111276176043747	0.0150559114604526	0.0145446743725367	0.0043545936918263	0.660400390625	0.430908203125	0.008544921875	0	0	0	-0.382551205771366	-0.494697805545072	-0.471347551146948	0.621900427865699	0.0662111344333316	-0.207768003456041	0.975934701922696	0.964756971470905	0.262972121981298	-0.00946831869662634	-0.254676405808113	0.942166715502381	0.217857312303529	-2.48857159952854	-77.4047128415158	-72.3240532457898
47016	1656051402416	9.66818870988481	-0.0905300928424679	2.13369892165062	0.00935696151604294	-0.0221532384099742	0.0885328243047958	0.0105196366666748	0.0162916801314647	0.00394406180563527	0.6640625	0.433837890625	0.00830078125	0	0	0	-0.382502595046894	-0.494704008388712	-0.471318976577162	0.621947048537727	0.0662527328047951	-0.20781975882641	0.975920859105507	0.964722026781542	0.263100374201296	-0.00946594621009905	-0.254797932563063	0.94211949397965	0.217919417733066	-2.48724066266384	-77.4010761746509	-72.3177701246919
47017	1656051402417	9.64577433187028	-0.103386466396429	2.18355575221886	-0.0168315344489257	0.0246048868075749	0.0776451919509711	0.00339117986381115	0.0163614536356904	0.000786418627325265	0.65771484375	0.43212890625	0.01611328125	0	0	0	-0.382453887959129	-0.49466480094585	-0.471338853724717	0.6219931215533	0.0662928393493441	-0.207966097158645	0.975886961632137	0.96471200259172	0.263137417108832	-0.00945789473222408	-0.254825453019268	0.942076855755354	0.218071516580298	-2.48339659944969	-77.3921752773137	-72.3194072096911
47018	1656051402418	9.64249533061741	-0.074222350855357	2.16667548857559	0.0152826569038841	0.0160258942991709	0.0704911391347416	-0.00124471647934894	0.0139317968063042	-0.00157758305905706	0.66162109375	0.428955078125	0.009765625	0	0	0	-0.382431086725145	-0.49464014335972	-0.471380981397228	0.621994825428867	0.0662621979081238	-0.208061527343436	0.975868701192892	0.964724597595192	0.263092868566422	-0.00941240162161583	-0.254785737283664	0.942068226483098	0.218155184966601	-2.47051944296598	-77.3873829591682	-72.3346725376717
47019	1656051402418	9.61678586196278	-0.0706155793935353	2.14477619456936	0.0225970258800577	0.000489344496844986	0.0405918295109586	-0.00615418281094675	0.0110395873313127	-0.00550653088068115	0.661376953125	0.43701171875	0.01611328125	0	0	0	-0.382408694377025	-0.494607199870978	-0.471434333763816	0.621994354676404	0.066226773568914	-0.208174801339177	0.975846948322352	0.964743175467725	0.263026518827052	-0.00936246667144486	-0.254724596085858	0.94206172965529	0.218254616601299	-2.4563107062604	-77.3816764151194	-72.3525408429259
47020	1656051402419	9.6343496830472	-0.0864347386277456	2.14971096533832	0.00678253346996938	-0.00356958282658609	0.0589570369848076	-0.00410936252214175	0.0117918643833261	-0.00588801874986878	0.658447265625	0.435546875	0.0029296875	0	0	0	-0.382389729189512	-0.494582826767403	-0.471496105154902	0.621978573023938	0.0661585005810457	-0.20827416296244	0.975830377598055	0.964767735719922	0.262939035668258	-0.00928868320594184	-0.254649305741684	0.94206418919527	0.218331844954273	-2.43611554314145	-77.3773310336418	-72.3774965450286
47021	1656051402420	9.64137927766376	-0.0862772742503291	2.1168409020128	0.0156746831824937	-0.0368529741041443	0.0586372540641804	-0.00417892673837719	0.00679574302028894	-0.000543817375787126	0.666748046875	0.4326171875	0.016845703125	0	0	0	-0.382383164763548	-0.494558304790206	-0.471521503149043	0.621982853892708	0.0661591104622088	-0.208335040909294	0.975817340915897	0.964778119892392	0.262901174746961	-0.0092817936612728	-0.254609802403112	0.942061294739356	0.218390396936902	-2.43365894623231	-77.3739134266993	-72.3821751422332
47022	1656051402420	9.6560504283379	-0.0731332535551014	2.10321485303867	0.0320101814679338	-0.0492394546040428	0.069858957416395	-0.00438199662418082	0.0113294462023407	-0.00745180802355048	0.65625	0.426025390625	0.008544921875	0	0	0	-0.382349163324277	-0.494586446634356	-0.471547172297991	0.621961918776861	0.0660550222067388	-0.208359340028177	0.975819204291599	0.96477819627687	0.262904763205988	-0.0091715577931053	-0.254636537107336	0.942054919262474	0.218386728221652	-2.40482991347366	-77.3744018607146	-72.4101077033211
47023	1656051402421	9.65155790575577	-0.101613778838119	2.15627430588506	-0.00969738831830382	-0.00685395091018781	0.0773213920604689	-0.00544618170473769	0.00865994498282293	-0.0064130790674452	0.660400390625	0.4296875	0.01416015625	0	0	0	-0.382327343594628	-0.494564958721225	-0.471597623664629	0.621954166557973	0.0660023659178963	-0.208452800148364	0.97580280682295	0.964795627759856	0.2628429673875	-0.00910885011399198	-0.254584140018002	0.942051487236892	0.218462607889896	-2.38757812539053	-77.370104341369	-72.4306616591543
47024	1656051402422	9.68398834759552	-0.104676240295185	2.1467036588089	-0.00801810736508193	-0.023847587368709	0.106903903697537	-0.0119282530830105	0.0138303821782544	-0.00449094600632135	0.6689453125	0.429443359375	0.008056640625	0	0	0	-0.382356889423517	-0.494508963939472	-0.47166040690036	0.621932917810651	0.0659946902921938	-0.208524447670713	0.975788017746099	0.964840084646484	0.262679339345919	-0.00912007347321075	-0.254417593559492	0.942081270063478	0.218528187387765	-2.38979998683369	-77.3662295897174	-72.4382441522811
47025	1656051402421	9.67317869004158	-0.0883780695247595	2.11020535284119	0.0163449125355186	-0.0527628966582636	0.0882273502008015	-0.0120124059090564	0.0092437634248948	-0.00279578776265791	0.669677734375	0.4296875	0.020263671875	0	0	0	-0.382363080471443	-0.494463370826974	-0.471716845741729	0.621922557113254	0.0659783847077994	-0.208613618574798	0.975770060463262	0.964871769173579	0.262563384271725	-0.00910704626235481	-0.254301635470942	0.942093852747648	0.218608899205629	-2.38551026749971	-77.3615263361695	-72.4493607285119
47026	1656051402421	9.69078857341867	-0.104389255380339	2.11496274191739	0.00257594464375242	-0.0562204298443343	0.106595889579351	-0.00846897835788815	0.00982464738480103	-0.0066868504205502	0.664794921875	0.435791015625	0.013671875	0	0	0	-0.38241119854794	-0.494398967733907	-0.471711173890187	0.621948474036168	0.0661164582615782	-0.208632685949648	0.975756637845924	0.964887493197597	0.262500487304539	-0.00925308790275009	-0.254206096342715	0.942107157662182	0.218662671857552	-2.42312400297855	-77.3580118966001	-72.4164017674889
47027	1656051402422	9.69781413519999	-0.103958526583408	2.08224620512181	0.0114758487215922	-0.0894964486619486	0.106285074445354	-0.00410697191049689	0.0117923289470722	-0.00588388759204826	0.6630859375	0.44091796875	0.00927734375	0	0	0	-0.382379657353586	-0.494369339636641	-0.471762123468022	0.621952773553048	0.0660789097763498	-0.208753964903668	0.9757332421414	0.964901079689178	0.262452593006194	-0.00919471799372373	-0.25416428564499	0.942093635771585	0.218769507338771	-2.40668212278092	-77.3518885032693	-72.4353550235527
47028	1656051402423	9.65755028451144	-0.0999957099038342	2.12823155457545	-0.000601851012478873	-0.0378216676354008	0.0770151087028665	-0.00722025552353904	0.0212570070718677	-0.00746252474013712	0.662109375	0.42431640625	0.013671875	0	0	0	-0.38230019385524	-0.49437532268253	-0.471836187523096	0.621940683863389	0.0659273049324268	-0.208908678881661	0.975710384464707	0.964907805676773	0.262434347843831	-0.00900775309481655	-0.254178120632719	0.942064422934919	0.21887920420158	-2.3566202411791	-77.3459087438832	-72.4853698337368
47029	1656051402424	9.67492516142737	-0.115534018429024	2.13408190670315	-0.0162265352457216	-0.0421324127840746	0.0953796411405285	-0.00776422177151295	0.0203326594665835	-0.0105906806938518	0.654296875	0.434814453125	0.006591796875	0	0	0	-0.382247649114867	-0.494320156080975	-0.47192770968096	0.621947389152428	0.0658636402547289	-0.209122978665423	0.975668776115386	0.964933848953609	0.262341943162882	-0.0089090965364319	-0.254095745804545	0.942042612970148	0.219068636076477	-2.32882491667906	-77.3350307809253	-72.5180896391618
47030	1656051402425	9.67192618357191	-0.0727456589463003	2.17061685547657	0.0148601697974187	0.00326104681192263	0.100071780983844	-0.00704381823077445	0.0175427585872475	-0.00785043095637389	0.65966796875	0.428466796875	0.004150390625	0	0	0	-0.382228605083491	-0.494309378238976	-0.471980694464143	0.621927452436433	0.0657849252762858	-0.209197133566582	0.97565818958994	0.964953870062468	0.262271035018148	-0.0088279579730734	-0.254040099704473	0.942045892458555	0.219119064081852	-2.30710794285725	-77.3322645375834	-72.5435258223939
47031	1656051402425	9.67160926669606	-0.0722500884115926	2.17204501147159	0.0147123538829854	0.00331791557077396	0.100071982600374	-0.0145134599471618	0.0121511859653956	-0.00723740278327185	0.660888671875	0.4326171875	0.01123046875	0	0	0	-0.382224559307485	-0.494257838265062	-0.47206262179569	0.621908720536323	0.065732140833854	-0.209324753437692	0.975634374783734	0.964994691098227	0.262122534731156	-0.00877627132400488	-0.25389866445816	0.942058875221907	0.219227151151493	-2.29248493776464	-77.3260439348552	-72.5666728772364
47032	1656051402426	9.67132470642357	-0.0718415648962741	2.17332525919133	0.0140463901147809	0.00514943256909733	0.100072166413444	-0.0223440783837847	0.0145980777608802	-0.00949064307117653	0.658447265625	0.423828125	0.012939453125	0	0	0	-0.38224719174799	-0.49426680681321	-0.472103489209155	0.621856658370713	0.0656372383184286	-0.209297198652328	0.975646675586105	0.96502559416671	0.262010759754633	-0.00871575447042056	-0.253805743727597	0.942096090857556	0.219174816166898	-2.27723684152977	-77.3292566199136	-72.5881672766136
47033	1656051402427	9.64128704217327	-0.0972456927153652	2.20356400222079	-0.0202533412303322	0.0319495661479346	0.0776177776881059	-0.0264311608009851	0.013091044880738	-0.00872904838924094	0.66455078125	0.43505859375	0.005126953125	0	0	0	-0.382274293898595	-0.494187994281466	-0.47222068807235	0.621813647557585	0.0655716961290752	-0.20943580387062	0.975621338800983	0.965097270139062	0.261747971961615	-0.0086751567197933	-0.253550018412319	0.942138335506548	0.219289181064784	-2.26545974400489	-77.3226401117485	-72.6153229976677
47034	1656051402429	9.6707716359537	-0.0711796816542579	2.17580670396039	0.0138612414822237	0.00691898024965665	0.100071349861167	-0.0272335600395032	0.0112940206643378	-0.00977434145249575	0.66455078125	0.427978515625	0.01416015625	0	0	0	-0.382334761019632	-0.49416922159873	-0.472264759180003	0.621757917663474	0.0655255553223166	-0.209392564020785	0.975633720067374	0.965144848993618	0.261572255505428	-0.00868191285886838	-0.253380784711051	0.942196746588845	0.219233821881132	-2.26779412783191	-77.3258729605382	-72.6234480459989
47035	1656051402427	9.62267075738194	-0.0932000345616301	2.14891823090721	-0.00397348629218395	-0.0152086453040857	0.0474384534552978	-0.0251876965477617	0.012047507365606	-0.0101520179083697	0.665283203125	0.43359375	0.007568359375	0	0	0	-0.382357117358735	-0.494099897329925	-0.472380606946046	0.621711258097328	0.0654437072796858	-0.209523458029777	0.975611111925616	0.965213907751045	0.26131919397281	-0.00862503016575489	-0.253138763253378	0.942237867736511	0.219336652527352	-2.25189606182052	-77.3199704032862	-72.6540408476772
47036	1656051402427	9.59727667413808	-0.0763560612097397	2.18012359461085	0.00290759014587175	0.023933112383958	0.0293605555236454	-0.0291987130821865	0.0155402418802574	-0.0147267671989861	0.6669921875	0.43212890625	0.004638671875	0	0	0	-0.382403766930835	-0.494054153588559	-0.472447906235765	0.621667779647974	0.0654069384306689	-0.209554942937665	0.975606815420802	0.965267620538025	0.261120669861098	-0.00862650057383157	-0.252943379328232	0.942285902293823	0.219355704718001	-2.2520841522758	-77.3188489729117	-72.665651004657
47037	1656051402429	9.60429398762447	-0.07552555075421	2.14764080808346	0.0117857468540246	-0.00929075629824971	0.029075832281876	-0.0275092360640419	0.011245076334573	-0.0149803672581349	0.663818359375	0.430908203125	0.005859375	0	0	0	-0.38242355741399	-0.493991322531544	-0.47258233014726	0.621603360054425	0.0652770289922445	-0.209689690855463	0.97558656357849	0.965345366432083	0.260836327934829	-0.00852839595603766	-0.252680100114857	0.942334677053973	0.21944959199673	-2.22554671085995	-77.3135643541646	-72.7084782014684
47038	1656051402430	9.62919893539113	-0.0909156690892029	2.11872939266647	0.00503247837979961	-0.0440610577541016	0.0471698989727756	-0.0280395327052994	0.00990917443584351	-0.014461442573533	0.6591796875	0.43408203125	0.0107421875	0	0	0	-0.382460537152803	-0.494061069518915	-0.472552480905038	0.62154786613511	0.0651956247526387	-0.209510248217772	0.975630558359485	0.965345696355743	0.260836180622566	-0.00849549325690568	-0.252699855640163	0.942374629735945	0.21925519421323	-2.21893276002052	-77.3250473359245	-72.7148466995384
47039	1656051402430	9.61417939281067	-0.102814837289912	2.13387217057385	-0.0122023757576367	-0.0305842342224742	0.0359339776106875	-0.0248480579029521	0.00544773124347623	-0.0182258708790571	0.65625	0.438232421875	0.016845703125	0	0	0	-0.382478029450085	-0.494030033082871	-0.472677978742337	0.621466340047613	0.065019709648392	-0.209595639854813	0.975623956814863	0.965418174025601	0.260572170800077	-0.00836020727069259	-0.25246818931959	0.942428677173178	0.219289766800233	-2.18328804549962	-77.323323628737	-72.7653263671523
47040	1656051402431	9.62891504822488	-0.0888704763451773	2.12010590690682	0.00304137547554959	-0.0440653675843741	0.0471706949307133	-0.0250134283515806	0.00874575230313952	-0.014182305477516	0.668701171875	0.43115234375	0.01318359375	0	0	0	-0.382456849022698	-0.494021503452365	-0.472847400185206	0.621357263496924	0.0647161805295129	-0.209730518141734	0.975615152474413	0.965498148381124	0.260284189547443	-0.00809111514272393	-0.252240245500779	0.942478249314875	0.219339025524588	-2.11260463669412	-77.32102511562	-72.8514347021132
47041	1656051402431	9.63900618151436	-0.117083265132683	2.10544203407502	-0.0206634895355337	-0.0682686932593046	0.0540216684218464	-0.0214569934899124	0.0089195369423707	-0.014422325450697	0.659423828125	0.43359375	0.014404296875	0	0	0	-0.382464311150542	-0.493980875482155	-0.47296013736586	0.621299166116366	0.0645832062415012	-0.209839367377733	0.97560055830759	0.96555958842903	0.260059518318016	-0.00798298972590894	-0.252039065750392	0.9425160406225	0.21940789070805	-2.08374431846633	-77.3172159787475	-72.8929691797169
47042	1656051402433	9.66121366366379	-0.0902749494418472	2.11141252152523	0.00481427347532098	-0.0608536723263185	0.0767785117132007	-0.021370765995597	0.0135083247000695	-0.0161051382858838	0.65966796875	0.4345703125	0.015625	0	0	0	-0.382482088544708	-0.493934606827415	-0.473048670478339	0.621257604765849	0.0645071190738446	-0.209927887870367	0.975586548432829	0.965612447965804	0.259864814602307	-0.00792959426434986	-0.251855974561418	0.94255003051615	0.219472112241449	-2.06921389557086	-77.313560402789	-72.9187347813465
47043	1656051402433	9.63872969935841	-0.102298844754182	2.16095938409796	-0.0214816392843068	-0.0140622427754075	0.0658075267611942	-0.0202966741733585	0.0157642240354692	-0.0134888202642913	0.6552734375	0.4326171875	0.015625	0	0	0	-0.382472182563331	-0.493873613101854	-0.473168528125454	0.621220917096771	0.064400796546623	-0.210098536539839	0.975556837066902	0.965670211393856	0.259653147113668	-0.00782853884918361	-0.251661638377218	0.942570341214801	0.219607767693924	-2.04160530228183	-77.3058112863575	-72.9583030788189
47044	1656051402434	9.65327917296884	-0.0884884132614213	2.14802631634171	-0.00531545220146161	-0.027619855122718	0.0770474519050044	-0.0187839162950394	0.015183365732955	-0.0133501667742491	0.65869140625	0.42529296875	0.017822265625	0	0	0	-0.382454300993219	-0.493814373073147	-0.473335884948233	0.621151521465123	0.0642010099332968	-0.210303748451081	0.975525788337228	0.96574947194746	0.259363695344123	-0.00764401534816617	-0.251408408285696	0.942604268463105	0.219752145196328	-1.99221400710274	-77.297718336308	-73.0237470045065
47045	1656051402435	9.63056756114571	-0.113478038566822	2.14446036166946	-0.0306121835899654	-0.034130341303841	0.0542937814448621	-0.0228688237390714	0.0136716881254249	-0.0125919826661672	0.667724609375	0.430419921875	0.01171875	0	0	0	-0.382459153369991	-0.493752097079132	-0.473455899123466	0.621106572351847	0.0640967564303004	-0.21045312328159	0.975500429890289	0.96581315937576	0.259129015177401	-0.00755610149505453	-0.251190260543135	0.942635473761843	0.219867725266939	-1.9682852737945	-77.2911123370919	-73.0610741975909
47046	1656051402436	9.66005669681453	-0.0868687802182408	2.11684203032501	0.00517866517368284	-0.059800840749933	0.0767847500429539	-0.0203769460947509	0.011174168862721	-0.0118015768073351	0.667236328125	0.43310546875	0.017333984375	0	0	0	-0.382540437802013	-0.493662934481014	-0.473508267278653	0.621087466774693	0.0641736558767221	-0.210488030275959	0.975487842570046	0.965872170607934	0.258905468530023	-0.0076751814550674	-0.250943603099452	0.94268910435827	0.219919441131676	-1.99880961229795	-77.287834532664	-73.044568419312
47047	1656051402437	9.6448653206317	-0.0990628812864317	2.13272221815539	-0.0120649452948349	-0.0463321555895325	0.0655438543942672	-0.0219797772921033	0.0200568833534198	-0.0132191312444183	0.65771484375	0.429443359375	0.006591796875	0	0	0	-0.382526412809056	-0.493583697217363	-0.473639564321567	0.621058966970086	0.0640813939010296	-0.210698594832251	0.975448449222929	0.965933799302606	0.258678213225423	-0.00758138294340993	-0.250729875205435	0.94270445216845	0.220097354689349	-1.97280685524384	-77.277581665095	-73.0835043224282
47048	1656051402438	9.66228241219845	-0.114617355638345	2.13847851926839	-0.0273285346521834	-0.0491001406502517	0.0839166466009296	-0.0199282039871688	0.0203949210011411	-0.00994982905025845	0.6650390625	0.44091796875	0.015380859375	0	0	0	-0.382542887208835	-0.493545088536331	-0.473679393704444	0.621049126082135	0.0640821551229111	-0.210752020733665	0.975436857593294	0.965960673279378	0.258577542851438	-0.0075915749725769	-0.250626126077181	0.942720128187359	0.220148370055187	-1.97499948395172	-77.2745662701763	-73.0873584212545
47049	1656051402438	9.64403120334126	-0.0977766198304469	2.13655011980004	-0.0120059863415968	-0.0446169783280166	0.0655518220666362	-0.0186847062036948	0.0193553399734756	-0.01137639776649	0.661376953125	0.4326171875	0.014892578125	0	0	0	-0.382525064775868	-0.493472676675955	-0.473794844879381	0.621029578327965	0.0640063246799848	-0.21094989023763	0.975399064080796	0.966012560679993	0.258386039567883	-0.00750913875947679	-0.250445449168965	0.942728379951064	0.220318584384973	-1.952061729274	-77.264739711114	-73.1211759696347
47050	1656051402439	9.65873436961267	-0.0715124819366759	2.17680407665985	0.00330141977147947	-0.00416781404932592	0.0885606010773827	-0.0177892188393482	0.0128481003753829	-0.00904483140834765	0.665283203125	0.4296875	0.0166015625	0	0	0	-0.382508041769212	-0.493456506722665	-0.473873386824557	0.620992984835072	0.0638893784649767	-0.211041933666648	0.975386820473602	0.966046262005697	0.258263222482614	-0.00739780898079379	-0.25034529551038	0.94274143334593	0.220376547909896	-1.92263709680397	-77.261557892408	-73.157198915153
47051	1656051402440	9.66888953784735	-0.100170920286349	2.16202939023194	-0.0203941150210911	-0.028360745946885	0.0954209300776121	-0.0182268775195419	0.00320835347032692	-0.00725200233952334	0.6552734375	0.435546875	0.0107421875	0	0	0	-0.382536969996347	-0.493427657532527	-0.473944277700084	0.620943987009555	0.063811936834617	-0.211077056781131	0.975384289815061	0.966094340880685	0.258084576442719	-0.00735363316317644	-0.250179458061071	0.942782492149169	0.220389226735953	-1.91105479439509	-77.2609003326556	-73.1791017315367
47052	1656051402441	9.70450204497401	-0.132265448426153	2.17000487315092	-0.0516756104974344	-0.0360152487507953	0.132150884565997	-0.0161834374120166	0.00396507783166884	-0.00762830249226198	0.6669921875	0.429443359375	0.01025390625	0	0	0	-0.382571231496493	-0.493436421210809	-0.473978812040079	0.620889552811932	0.0637291679194887	-0.211027826644107	0.975400353464235	0.966126143955474	0.257966677136664	-0.00731214419952086	-0.250077722162563	0.94282577917075	0.220319502107851	-1.90088155339838	-77.2650748363271	-73.1959913191443
47053	1656051402441	9.66122245413418	-0.112271991926236	2.14338617424277	-0.0289042954019829	-0.0471642895333517	0.0839215848652959	-0.0176936268667699	0.00454495216501494	-0.00776419666833715	0.6650390625	0.43994140625	0.0166015625	0	0	0	-0.382594070761116	-0.493406003674997	-0.47405230505487	0.620843542793248	0.0636498552192664	-0.21107620211116	0.975395065003353	0.966173048047124	0.257792378181206	-0.00726160994595537	-0.249916660424821	0.942862623426131	0.220344585111814	-1.88753935490706	-77.2637003612071	-73.2193580913364
47054	1656051402442	9.64792204230031	-0.0535452840072304	2.1407718559166	0.0274122435756427	-0.0303578854220804	0.0699488196426632	-0.0107607310109727	-0.00386252255525422	-0.00853424280209333	0.660888671875	0.428955078125	0.015380859375	0	0	0	-0.38262747391997	-0.493467913223154	-0.474006639992156	0.620808617904226	0.063614247725066	-0.210906051907644	0.97543419293928	0.966163576296181	0.257827842889939	-0.00726273153118884	-0.249962339813314	0.94289100149458	0.220171269641617	-1.88931567708811	-77.2738731982799	-73.2154482535228
47055	1656051402443	9.65098370676623	-0.0821419326896688	2.15856712603239	-0.00533300060783486	-0.0212210712717431	0.0770632427944591	-0.0160929337124889	-0.00391851733364933	-0.0099949451548542	0.664306640625	0.4423828125	0.0078125	0	0	0	-0.382660070957496	-0.493472121972133	-0.474066427106419	0.620739524778049	0.0634925750537493	-0.210879382931727	0.975447886238613	0.966207691769338	0.257664585570716	-0.00718732971547781	-0.249822715698177	0.942941592675286	0.220113069862248	-1.87020877880489	-77.2774351966217	-73.2437508065277
47056	1656051402444	9.65108642943045	-0.0813923666903999	2.15813620894262	-0.00623410931777386	-0.0196019142672817	0.0770660576071762	-0.0112967844019007	-0.00477920734286859	-0.0116639330061804	0.656982421875	0.42578125	0.01123046875	0	0	0	-0.382661469265001	-0.493585631476174	-0.474041116834086	0.620667740333675	0.0633164879019181	-0.210691651723796	0.97549989761848	0.966196463518859	0.257710438981286	-0.00705149088649759	-0.249910816579467	0.94297102687939	0.219886848680436	-1.83677312302358	-77.2909737138754	-73.2735674005118
47057	1656051402445	9.65572541195129	-0.038434446005515	2.15887801551759	0.0341707139760233	-0.00843099189462501	0.0814536269033059	-0.0077431539867232	-0.00460151638097912	-0.0119042550103819	0.660888671875	0.431884765625	0.013671875	0	0	0	-0.382664963395541	-0.493616197806364	-0.474084550694102	0.620608100048533	0.06317377611272	-0.210662176007222	0.975515515823076	0.966220673067294	0.257622729165321	-0.00693832507137337	-0.249853326872076	0.943001578480817	0.219821150105357	-1.80785518686769	-77.2950418891494	-73.3069632594121
47058	1656051402445	9.64072530290548	-0.0632188896309484	2.12006801398229	0.0186461491734244	-0.046844752656626	0.0584689642662575	-0.00250106972661822	0.00333780788914706	-0.00807334252440835	0.664794921875	0.44482421875	0.00927734375	0	0	0	-0.38269825544602	-0.493643601105009	-0.474061655229328	0.620583263879941	0.0631630842586165	-0.210556368655131	0.975539051194622	0.966222548475044	0.257615184639604	-0.00695725962528798	-0.249848777474155	0.943027270158115	0.219716080733302	-1.81365180575197	-77.3011747215748	-73.3017110076489
47059	1656051402446	9.66596040769712	-0.065714651645793	2.14384102879764	0.0109968938860024	-0.0310202146175977	0.0883267291077274	0.00317789225151526	0.00886479312552502	-0.010367150388049	0.662109375	0.43505859375	0.01904296875	0	0	0	-0.382640068781707	-0.493655605731235	-0.474098386571022	0.620581534162605	0.0630697255617636	-0.210648578301571	0.975525184798984	0.966218238027471	0.25763459522697	-0.00683606943543508	-0.249889027811656	0.943001374231111	0.219781441385716	-1.78155028749117	-77.2975610723957	-73.3319152136518
47060	1656051402446	9.68807540711719	-0.0389732551912879	2.15003317651	0.0345308751460385	-0.0237285784910446	0.111082637265927	0.00255559686267158	0.0154102229242787	-0.00748317819449554	0.662353515625	0.43798828125	0.005859375	0	0	0	-0.382520913617032	-0.493721776773828	-0.47411279621518	0.620591342390392	0.0629117272086354	-0.210742783046983	0.975515040362392	0.96617840354358	0.257789614221228	-0.00661871027085359	-0.250082800499365	0.94293795882512	0.219833115569771	-1.7245338067624	-77.2949180239063	-73.3783859146298
47061	1656051402447	9.6877811225989	-0.0384807969173873	2.1513676338802	0.0343317598472732	-0.0235514957310508	0.111083749952389	-0.00205518393442376	0.0121366282096003	-0.00257225229618087	0.656982421875	0.433349609375	0.008056640625	0	0	0	-0.382490026343393	-0.49369687007096	-0.474144860489318	0.62060569728414	0.0629001035074056	-0.210845745837144	0.975493540953058	0.966182261193513	0.257776062038792	-0.00658331183852429	-0.250070820236484	0.942918646173757	0.219929560459936	-1.71456435370878	-77.2893183185956	-73.3889557659666
47062	1656051402447	9.68743419377184	-0.0380291414639221	2.15293737175413	0.0324193308412313	-0.0208123315815358	0.111096304472579	-0.000644645288735325	0.0202811501748098	-0.00735184902091107	0.667236328125	0.431396484375	0.017822265625	0	0	0	-0.382391421786523	-0.493830375894561	-0.474083676873942	0.620606983291037	0.0627524543310405	-0.210766281945131	0.975520222174024	0.966112280183909	0.258042935731531	-0.00639573271034055	-0.250378097191587	0.942863414134878	0.219816720775835	-1.66659358387424	-77.2962680342071	-73.4199005832354
47063	1656051402448	9.6914389376638	-0.00797573007711547	2.10281328222291	0.0738563757345548	-0.0628889293857973	0.103787110333663	-0.00401717399704477	0.0163902737269189	-0.00751393818258267	0.672607421875	0.437744140625	0.01416015625	0	0	0	-0.382344195942311	-0.493798662206079	-0.474143267405001	0.620615790169107	0.0627020863559948	-0.21091949219069	0.975490346533797	0.966123702024977	0.258002155607476	-0.00631506828540196	-0.250346641184097	0.942840312839835	0.21995159406543	-1.64457724912293	-77.2884865117643	-73.4438542544702
47064	1656051402448	9.66880504379213	-0.0208857834261498	2.15261405030508	0.0492527679064628	-0.01518437186558	0.0927312428911957	-0.00418887560911073	0.0192608827202428	0.000176743784849597	0.662841796875	0.43359375	0.00927734375	0	0	0	-0.382353795460782	-0.493728119951833	-0.474095215904625	0.620702702525057	0.0629325396503499	-0.210986722353803	0.975460967155302	0.966102004711002	0.258078602706162	-0.0065077890729423	-0.250372546311572	0.942804347579939	0.220076237331125	-1.69377770122884	-77.2808388138892	-73.3913548107409
47065	1656051402449	9.65349624122735	-0.034010508398504	2.16889801263711	0.0319637618647189	-0.00167079468439691	0.0814644537943732	-0.0140517170132859	0.0209408232877042	-0.00169517460021841	0.664794921875	0.433349609375	0.0107421875	0	0	0	-0.382341772860612	-0.49364693187196	-0.474169684314304	0.620717798888092	0.0629516342613474	-0.211167439295819	0.975420629433821	0.966134811692326	0.257955758406156	-0.00650786764911548	-0.250241118483872	0.942797507042924	0.220254950758409	-1.69242460314758	-77.2703459292239	-73.4000282822627
47066	1656051402450	9.65305685055774	-0.0341823337927763	2.17085005212796	0.0318176957943769	0.000743061407395411	0.081465037761621	-0.0145823325196472	0.0196033415979208	-0.00118135830654873	0.670166015625	0.439208984375	0.01171875	0	0	0	-0.382353574501752	-0.493660435566422	-0.474117814690748	0.620739410876233	0.0630233442984799	-0.211101561696297	0.975430258256745	0.966112890211951	0.258036083717206	-0.00657745134520932	-0.250307693528878	0.942790278985349	0.220210236844207	-1.71085683764362	-77.2728498620371	-73.3772612239038
47067	1656051402451	9.67786879501013	-0.0503161761926526	2.14294119746247	0.0252157911415273	-0.0366805858179144	0.0996227333819348	-0.0173377389615588	0.0216410103274133	-0.00353137294909056	0.656494140625	0.438720703125	0.01513671875	0	0	0	-0.382345835245501	-0.493573567405698	-0.474206466608475	0.620745537926402	0.0630267211702357	-0.211291500636446	0.975388914319478	0.96615469217578	0.257879778594251	-0.00656738752518354	-0.250145444102536	0.942790497168369	0.220393591657666	-1.70682037854787	-77.2621019771279	-73.3905397663677
47068	1656051402452	9.65498160354895	-0.0760146725921191	2.14028368945276	-0.00133719899108728	-0.042384563256443	0.0768759941193782	-0.0146766270240335	0.0283278596148129	-0.00609006555622147	0.654541015625	0.4306640625	0.010009765625	0	0	0	-0.382255270595981	-0.493571957567592	-0.474256556121483	0.620764327084184	0.0629348833573732	-0.211462139454854	0.97535786459841	0.966144068249205	0.257923254154769	-0.00642139806350461	-0.250209591829868	0.942740345240083	0.220535261608978	-1.66782890661549	-77.2540360659311	-73.4260612378088
47069	1656051402452	9.65439201834624	-0.0631881005872386	2.19623821144474	-0.00265791810298409	0.0111619290560631	0.0885553803632817	-0.0153862368335644	0.0307020166047513	-0.00517088576979602	0.65869140625	0.43505859375	0.01806640625	0	0	0	-0.382215648016545	-0.493465348289108	-0.474362850128761	0.62079226385879	0.0629436729112577	-0.21174121950382	0.975296749714402	0.966181930983945	0.257782169658024	-0.00638977672048557	-0.250061133086644	0.942716292937296	0.220806296898405	-1.65758449008689	-77.2381746520705	-73.444524616159
47070	1656051402453	9.65669981126405	-0.104824194583874	2.16404477949553	-0.0350457173258387	-0.0323570362981806	0.0839612321238334	-0.0152046091328046	0.0269899212037619	-0.00557404348123231	0.658447265625	0.4287109375	0.0078125	0	0	0	-0.382189373042903	-0.493405578734595	-0.474465225673928	0.620777711933057	0.0628673689995368	-0.211926136786434	0.975261506705691	0.966223611956215	0.257628065518524	-0.00630171051923645	-0.24991923818178	0.942716867571574	0.220964436013305	-1.63358222777669	-77.2290366866876	-73.477139338939
47071	1656051402453	9.65614207542868	-0.104211494296399	2.16656164574489	-0.0352695826908697	-0.0321220073285056	0.083961202481623	-0.0144920266945449	0.025460294877515	-0.0137751132965319	0.66064453125	0.432373046875	0.009033203125	0	0	0	-0.38213805037928	-0.493334217675879	-0.474585901121852	0.620773777296377	0.0627791442529763	-0.212177412725938	0.975212553536813	0.966264517238129	0.257477465817366	-0.00618363346533518	-0.24978322956802	0.942701490465139	0.221183720244903	-1.60140103108412	-77.216354547331	-73.5175454306096
47072	1656051402454	9.66009767135057	-0.0613591252493718	2.17023311627871	0.00500880057827712	-0.0180041229652192	0.0883637933661205	-0.00232201518628935	0.0245746237156269	-0.00706095277167318	0.661865234375	0.445556640625	0.0126953125	0	0	0	-0.382107762813096	-0.493389060665833	-0.474525073486838	0.620795334265302	0.0627863788951949	-0.212110322890105	0.97522668213533	0.96622148356001	0.257639224460563	-0.00617047214173211	-0.249947825220227	0.942672393221959	0.221121784826515	-1.59844171835739	-77.2200135272494	-73.5108182878323
47073	1656051402455	9.62393085035112	-0.028127106406754	2.16460965173617	0.0357736368684228	-0.00906325009232128	0.0516427643507153	0.00185768652565213	0.0182110660603571	-0.0101861294456403	0.66162109375	0.437255859375	0.02099609375	0	0	0	-0.382032090450902	-0.493373225842062	-0.474579136142772	0.620813164668639	0.0627150071203547	-0.212281141107111	0.975194106325585	0.966218760470903	0.257652250807388	-0.00605182352340305	-0.249976268465559	0.942630380787799	0.221268683775822	-1.56668136729708	-77.2115786962736	-73.5410826284075
47074	1656051402456	9.63843209360368	-0.00163036914433194	2.20507927206763	0.0497052524832245	0.030920651068797	0.0745935344107646	0.00105942998679495	0.0159931750346257	-0.00759769343536984	0.6650390625	0.429931640625	0.013671875	0	0	0	-0.381884622090148	-0.493431554410857	-0.474626601820171	0.620821250737592	0.0625097799126449	-0.212448715783573	0.975170790465539	0.966184406517751	0.257787448511405	-0.00577269364517635	-0.250160388585431	0.942555661248656	0.2213788730455	-1.49371095024652	-77.2055448949159	-73.6042882428904
47075	1656051402457	9.66041006971337	0.0125975808944742	2.15879470316748	0.0756627039964127	-0.0154068903287265	0.0857020691794528	0.000615941414095601	0.0196698207708261	-0.0123985118581957	0.6533203125	0.438720703125	0.018798828125	0	0	0	-0.381803312010365	-0.493412840756283	-0.474694062554193	0.62083455645649	0.062418631105222	-0.21263964197834	0.97513501483142	0.966186269135107	0.257783555827424	-0.00563308794113804	-0.250175953732035	0.942513671521158	0.221539999029461	-1.45654345357246	-77.1962921240144	-73.6408291773628
47076	1656051402456	9.6703786163879	0.0100513310383191	2.25108306491275	0.049478340795625	0.0674007829608837	0.115892964664321	0.00150936006303981	0.013584179480492	-0.0137219056307891	0.654296875	0.434814453125	0.0185546875	0	0	0	-0.381737417286332	-0.493427631241896	-0.474753204781884	0.620818098576309	0.0622771345526849	-0.212751184635409	0.975119732108902	0.966190342907384	0.257771877585783	-0.00546629659021552	-0.250195483141521	0.94249169363031	0.221611433941146	-1.41297867092067	-77.19234150648	-73.6840402962722
47077	1656051402456	9.68951288335828	0.0538050655244186	2.1861789161384	0.108023608844525	0.0121343773955153	0.119941523326608	-0.00257526341522585	0.0120658714398974	-0.0129754938118524	0.667236328125	0.439208984375	0.01708984375	0	0	0	-0.381682587917932	-0.493426145999775	-0.474815813517911	0.620805109319667	0.0621611633542678	-0.212871829332256	0.975100801992893	0.966200502738517	0.25773669062719	-0.00532792758782974	-0.250185088041396	0.942474075283391	0.221698081048159	-1.37668767220079	-77.1874496903593	-73.7215534632037
47078	1656051402457	9.68633278145196	0.0718028702254945	2.11615848996629	0.141049812954943	-0.0501146646538164	0.101238111119319	-0.00559274617860008	0.0136453679893406	-0.0168924940037599	0.6572265625	0.438232421875	0.016845703125	0	0	0	-0.381603078353208	-0.493429733757047	-0.474913736840946	0.620776232627808	0.0619680808084372	-0.213041710053248	0.975075990237945	0.96621893146402	0.257672066302248	-0.00510712522457257	-0.250161814515023	0.942453360132542	0.221812376871612	-1.31897522216203	-77.1810407531681	-73.7817129640234
47079	1656051402458	9.6457534446277	0.0762205080902658	2.16172667792924	0.130093375330049	0.00106403767773794	0.0717704130650656	-0.0169604844535146	0.0158984315794499	-0.0189115656457853	0.661376953125	0.43408203125	0.007080078125	0	0	0	-0.381568969471526	-0.493393480053293	-0.475037874886007	0.620731030963593	0.0618037825293732	-0.213214216193681	0.975048711848786	0.966268783105301	0.257488277920448	-0.00494221911329534	-0.250009862327996	0.942464580101808	0.221935990754677	-1.27568990708897	-77.1739983122773	-73.8348661240267
47080	1656051402459	9.63798523220228	0.0648136327884697	2.14387158218172	0.120678344782456	-0.0171419271649646	0.0603206916514622	-0.0220216605713209	0.0162949947308338	-0.018812880734971	0.664794921875	0.43017578125	0.01416015625	0	0	0	-0.381528587234287	-0.493450759390515	-0.475107433695201	0.620657080542463	0.0615585490089691	-0.213226443282672	0.975061551354032	0.966288727682469	0.257417727141139	-0.00471259029469506	-0.249993279505081	0.942481086090597	0.221884570359867	-1.21671797633161	-77.1773126037926	-73.8965526036393
47081	1656051402459	9.67630692205595	0.00427763726648746	2.17139174522075	0.0568106362893943	-0.0166148529813538	0.104084907261102	-0.0262891340878336	0.0180629491930979	-0.0140164319887425	0.66650390625	0.436279296875	0.01953125	0	0	0	-0.381530256095014	-0.49337716446103	-0.475243081716156	0.620610707733437	0.0614459737386489	-0.213405258762069	0.97502953178045	0.966358522395064	0.257157353930008	-0.00461535634001431	-0.249751073082256	0.94251169268737	0.222027274544933	-1.19085531369719	-77.1690488843012	-73.9372540669074
47082	1656051402460	9.66552400391809	0.0213278406159548	2.13571223909816	0.0828289373897084	-0.044373683799806	0.085557224372252	-0.0302886835886597	0.0207108698073473	-0.0112951857227938	0.655517578125	0.437255859375	0.018310546875	0	0	0	-0.381605563046771	-0.493257399355602	-0.475318611561616	0.620601764206196	0.0615387109681728	-0.213507602574196	0.975001277278854	0.966426673006518	0.25689882350979	-0.00474132690705414	-0.249464371712534	0.942559015723847	0.22214866446541	-1.22268024418285	-77.161761210995	-73.921576527045
47083	1656051402461	9.65311855580043	-0.0206947463813967	2.17019693495341	0.0328924345142962	-0.0218909529135697	0.0813168484173285	-0.0327779519350123	0.0227801522310039	-0.00843545761813309	0.66455078125	0.43505859375	0.0126953125	0	0	0	-0.381630413392039	-0.493142777779252	-0.475461272436831	0.620568293349841	0.0614935582738251	-0.213715816489747	0.974958507872486	0.966508945070524	0.256589611973942	-0.00471488342627019	-0.249156580064596	0.942596053890097	0.222336856596769	-1.21483429341075	-77.1507374454024	-73.9476115574889
47084	1656051402462	9.65717813880407	0.00867799622820549	2.12061535651228	0.0737599249927016	-0.0630830595338652	0.0741095887669427	-0.0340257754791033	0.0233893282187828	-0.00336240831572789	0.66015625	0.43310546875	0.022705078125	0	0	0	-0.381659992256313	-0.493066395137197	-0.475560692171447	0.620534614956116	0.061455116095647	-0.213836308909923	0.974934511491644	0.966571175109567	0.256355356744651	-0.00470048036199899	-0.248924551125399	0.942632464993702	0.22244236059464	-1.21055005173871	-77.1445564758688	-73.9657051561736
47085	1656051402462	9.64171248400009	-0.00454321078062554	2.13739108817754	0.0564145762219786	-0.0495329816057467	0.0628097964906011	-0.0354397515436063	0.0289852737526027	-0.00880093873186008	0.658935546875	0.432373046875	0.013916015625	0	0	0	-0.381677383539516	-0.492927233538091	-0.475722683025952	0.620510311103292	0.0614213425821494	-0.214103306542271	0.974878039963499	0.966660013631033	0.25602060749804	-0.00467617185178992	-0.248587684172525	0.942662836152992	0.222690234661828	-1.20295145715306	-77.1300220984027	-73.9930252324032
47086	1656051402463	9.65458839685327	-0.0626465735114831	2.14248930423156	0.000743278486634191	-0.0643636641009894	0.0767574343615873	-0.03525439265014	0.0252738724420772	-0.00920849263483684	0.652099609375	0.43408203125	0.019775390625	0	0	0	-0.381745699202483	-0.492774257205339	-0.475879704238046	0.620469386569913	0.0614240770600724	-0.214308669607631	0.974832743032529	0.966766483070976	0.255617456469435	-0.00472050406973473	-0.248172621310036	0.942725575169733	0.222887505152267	-1.21327811786864	-77.1183754392687	-74.0069037728818
47087	1656051402463	9.58865648566944	-0.0690371212755189	2.11253830701365	-0.00152502656849311	-0.0822048064973983	0.00582357010567591	-0.0311797116531849	0.0259415477868752	-0.00266437243347113	0.6572265625	0.4365234375	0.01708984375	0	0	0	-0.381772412699571	-0.492642735574988	-0.476006086461895	0.620460446473401	0.0614426814728458	-0.214531086341647	0.974782647509946	0.966840709379167	0.255336061105559	-0.00474748209974102	-0.247878679156993	0.942751244439471	0.223105919973482	-1.21901580879049	-77.1055070188493	-74.0180458370322
47088	1656051402464	9.62823194892864	-0.0594669078228309	2.12423298838545	0.00664169518941448	-0.0796100270153227	0.0469460003969129	-0.0303676539925859	0.0285902627284893	-0.00888327827172875	0.660888671875	0.4404296875	0.017822265625	0	0	0	-0.381760453151384	-0.492537169576542	-0.476201474444239	0.620401683373209	0.0612785846453231	-0.214809966637139	0.974731559608705	0.966934818842902	0.254982224293565	-0.00459580281899258	-0.247551996907944	0.942783508302759	0.223332185990358	-1.17888491577051	-77.0923966680026	-74.0782041547081
47089	1656051402465	9.6350582608488	-0.0465932839038117	2.14610136571673	0.0143574335987323	-0.0593003016901169	0.0584091660275092	-0.0279670789841837	0.0215018471826204	-0.0064379428071695	0.663330078125	0.43212890625	0.014404296875	0	0	0	-0.381778185161036	-0.49243445781003	-0.47632343607329	0.620378679794706	0.0612485780173526	-0.215000341625907	0.974691471590675	0.967003276079795	0.254722803164962	-0.00457794699932218	-0.247291883695759	0.942810238939166	0.223507444192975	-1.17338539681991	-77.0821183033593	-74.0989845554254
47090	1656051402466	9.6270870835504	-0.046919940425525	2.18157336146762	0.00476558626395533	-0.0243967526434248	0.0585664294372723	-0.0268067342544284	0.0158745722676272	-0.00620585412514405	0.664794921875	0.431396484375	0.02099609375	0	0	0	-0.381808775256301	-0.492417084205366	-0.476358973749279	0.620346356843096	0.0612150866224384	-0.214996780158304	0.974694361167319	0.967033435501222	0.254608374531633	-0.00457277170458109	-0.247182215769076	0.942841959259303	0.223494948639938	-1.17212478521118	-77.0828589072969	-74.1069901494039
47091	1656051402466	9.67896076005211	0.00523655025676854	2.15952933845596	0.063754884227024	-0.0438621581792732	0.10395961003335	-0.0272365757159833	0.00665946757492831	-0.00809468432389404	0.662353515625	0.437744140625	0.0244140625	0	0	0	-0.381855615350116	-0.492365715021268	-0.476455471377055	0.62028418929717	0.0611323729329271	-0.215050365425142	0.974687731178608	0.967100817772128	0.254352945640904	-0.00453732391131972	-0.246938942340147	0.942898679272756	0.223524583394358	-1.16288691178958	-77.0811596906776	-74.1311379649288
47092	1656051402467	9.67155367508598	-0.00731510038682132	2.14032010207648	0.0569623657210816	-0.0639194051273911	0.0924953085497773	-0.0304221004888451	-0.000945556981402791	-0.00869272336365444	0.65771484375	0.431884765625	0.018798828125	0	0	0	-0.381973885040953	-0.492263084779857	-0.476552435807356	0.620218334488602	0.061149662578189	-0.215069830154637	0.974682351806899	0.967196401977062	0.253987454145592	-0.00463606937671329	-0.246560010482637	0.94299275781625	0.223546013019479	-1.18807369126021	-77.0797811592884	-74.1282402053952
47093	1656051402468	9.67157847090169	-0.00722405595580104	2.14020836182762	0.056723633033328	-0.0636333187773966	0.0924985205878101	-0.0375210217479724	-0.00131431209459856	-0.00822546968592056	0.65625	0.439697265625	0.018310546875	0	0	0	-0.382071556783634	-0.492211485940543	-0.476659376721256	0.620116938317957	0.0610473833838132	-0.215049089225684	0.974693339571577	0.96728912402604	0.253634328161269	-0.00462364781516011	-0.24622137909395	0.94309252822901	0.223498357210267	-1.18514393643073	-77.0825970656138	-74.1520015318918
47094	1656051402468	9.68650668805616	0.00566142978080642	2.12598590638936	0.0727193209598092	-0.0761937656066955	0.103822424127072	-0.0382412037793308	0.000625686037943152	-0.00365899999020935	0.65625	0.439208984375	0.0166015625	0	0	0	-0.382169992176227	-0.492180805672059	-0.47676351754211	0.620000564474662	0.060909205737754	-0.214993830688108	0.974714174218498	0.967380769300027	0.253285290841793	-0.00458351739123475	-0.245895335142583	0.943198926106917	0.223408303216051	-1.17533395400644	-77.0879381543969	-74.1822154230426
47095	1656051402469	9.69696235941574	-0.0238398805120831	2.11066232279221	0.0490044273816167	-0.100270374144065	0.110723700833109	-0.037364392857355	0.00658291364306769	-0.000610410342148267	0.65673828125	0.438232421875	0.015625	0	0	0	-0.38226694225742	-0.492090798310463	-0.476861557608119	0.619936840291729	0.0608994021874612	-0.215028004994033	0.974707248296377	0.967468184126645	0.252950079465443	-0.00464435152819181	-0.245553610268514	0.943281089795991	0.223437262150668	-1.19077464961822	-77.0861624110805	-74.1870217910589
47096	1656051402469	9.62376124738393	-0.0310169808399361	2.1130809294934	0.0354883558968674	-0.0838486859864228	0.0399550903460373	-0.0411785995562003	0.018845769049427	-0.00482978428487293	0.661376953125	0.4375	0.01708984375	0	0	0	-0.382281648723152	-0.492079587438896	-0.476981246871304	0.619844586012148	0.0606931395181246	-0.215082495026704	0.974708091250156	0.967534478983302	0.252699262365208	-0.00448495023264461	-0.245343381394207	0.94333589093873	0.223436841350949	-1.14991876395812	-77.0863785239181	-74.2417085535078
47097	1656051402470	9.61251067740978	0.00966351064249056	2.18403703061499	0.0575137188632975	-0.00585152320992932	0.0446515323952159	-0.0352430825378017	0.0244091672512001	-0.00187413867704013	0.66796875	0.426025390625	0.017578125	0	0	0	-0.382326032049553	-0.491942623083964	-0.477112064282132	0.619825248700757	0.0607130674194223	-0.215287265644127	0.97466164215896	0.96761714996309	0.252381766667374	-0.00452713498386109	-0.245012192639125	0.94337417661569	0.223638521621026	-1.15968529970605	-77.0744754017585	-74.2510406117674
47098	1656051402471	9.59730289377317	-0.0162963609965798	2.14741080808265	0.0431423485927523	-0.0436817106453366	0.0217466165543492	-0.0347073070739436	0.025748408232472	-0.00237544662516893	0.662353515625	0.435546875	0.01513671875	0	0	0	-0.382450669708366	-0.491809424606819	-0.477136444398391	0.61983529145604	0.0609286065895421	-0.215306326536423	0.974643981488855	0.967677701775477	0.252144597332967	-0.00479244429545261	-0.244719370679123	0.943433245009516	0.223709950215065	-1.22723570356263	-77.0699524750679	-74.1992467290908
47099	1656051402471	9.62192621942276	-0.0203005738910763	2.17331612963234	0.0353449595469974	-0.0276575010329155	0.0515492755104301	-0.0303609884138522	0.0277256918809275	-0.00154178787166788	0.65673828125	0.431884765625	0.014892578125	0	0	0	-0.382473452244286	-0.491673170089506	-0.477259480856353	0.619834607032552	0.0609617634937205	-0.215540016058265	0.974590254860646	0.967747755018365	0.251874892522125	-0.00482920012861093	-0.244433929822866	0.943451927760271	0.223943104284949	-1.23535801237861	-77.0562025489113	-74.2073624282638
47100	1656051402472	9.67201178853758	-0.0400742633893967	2.16943664595233	0.0209248350188191	-0.0470586032208786	0.0995888835276535	-0.0323987424098517	0.0269627929294383	-0.00116987934773614	0.655029296875	0.436279296875	0.023681640625	0	0	0	-0.382531737411003	-0.491623291798419	-0.477289326139179	0.619815220842643	0.061002876229789	-0.215539354246852	0.974587828706343	0.967785402100315	0.251728738053855	-0.0049048872918559	-0.244274568003354	0.943491085919027	0.223952017669212	-1.25466348688272	-77.0555819769224	-74.1971975549447
47101	1656051402473	9.63163006996701	-0.0626132951073181	2.10952850733406	0.0123372252490437	-0.102547617852067	0.0469099911903985	-0.031159393616267	0.0254975146723777	0.00104142001576819	0.6630859375	0.439697265625	0.0244140625	0	0	0	-0.382568872310069	-0.491487773553022	-0.477401216929561	0.619813604611475	0.0610556930441356	-0.2157436916573	0.974539307497127	0.967855384786764	0.251458272027154	-0.00496906111687528	-0.243983926696341	0.943516505917728	0.224161652774592	-1.26988539948227	-77.0431771519246	-74.198430797243
47102	1656051402473	9.66657582204003	-0.0836019978777488	2.17250291725834	-0.0207082780670277	-0.0583195778118981	0.0951689140895713	-0.0320407467324434	0.0191076865931245	0.00162861138366678	0.652587890625	0.444580078125	0.021728515625	0	0	0	-0.382601605351586	-0.491355875838255	-0.477551715754933	0.619782037204314	0.0610275241174824	-0.215968856732714	0.974491197611171	0.967943044311318	0.251120740723818	-0.00496352169924169	-0.243642985266204	0.943554887910547	0.224370829723221	-1.26728803098619	-77.0308889993725	-74.2210039662189
47103	1656051402474	9.65885216574081	-0.0969982788149878	2.15478422874688	-0.0289068942944765	-0.0780483973227164	0.083726201246618	-0.0355749232215646	0.0193583235705716	-0.00177566917518828	0.65576171875	0.43798828125	0.01904296875	0	0	0	-0.382659918981165	-0.491233951508607	-0.477671922514716	0.619750051013845	0.0610374786526696	-0.216123308522591	0.9744563313525	0.968025484862915	0.250801841692846	-0.00500967657582729	-0.243312734676266	0.943604340662295	0.224521182581136	-1.27821215611916	-77.0219906606061	-74.2292752657717
47104	1656051402475	9.65109240750421	-0.110589956304306	2.13723863894365	-0.0401524079777771	-0.0979276178965107	0.0722709695482972	-0.0337368333726235	0.022956148139577	0.0055632170688076	0.66455078125	0.436279296875	0.024658203125	0	0	0	-0.382624165931339	-0.491198725698981	-0.477811586826948	0.619692380952807	0.0608397987312223	-0.216303394321043	0.974428735462753	0.968081405229478	0.250589670278522	-0.00481767564493629	-0.243139695934791	0.943619445939356	0.22464511903409	-1.22856074893203	-77.014952066859	-74.290265155863
47105	1656051402475	9.64280344588032	-0.112357524882473	2.1736921807957	-0.0495759989281723	-0.0643210655222111	0.0723834058665016	-0.0301956057369968	0.035608958355273	0.00611121616024335	0.658935546875	0.432861328125	0.015625	0	0	0	-0.382645672509614	-0.491024870169543	-0.477925855511368	0.619728765524383	0.0609629070174208	-0.216591717566548	0.974356994047643	0.968145884226431	0.250338331886783	-0.00492609820898648	-0.242851952480121	0.943620022821535	0.224953732369297	-1.25447811651157	-76.9966712586241	-74.2799670073562
47106	1656051402476	9.64937176551091	-0.100839807950553	2.1964046002592	-0.0413612784595	-0.0426981533142252	0.0838374116327252	-0.0272564416136677	0.0302933319549153	0.00439237008802695	0.656982421875	0.4326171875	0.020751953125	0	0	0	-0.382704140707114	-0.490903282003745	-0.47796639297315	0.619757723301467	0.0611241898123757	-0.216705289628217	0.974321636251054	0.968188164466397	0.250171335747731	-0.00509715188934823	-0.242642765412381	0.943638235881392	0.225103016807162	-1.2971633894206	-76.9876708374514	-74.248291195196
47107	1656051402477	9.61587007178568	-0.0989179565241828	2.20959126356789	-0.0432076471656947	-0.0248117580516079	0.054153680662834	-0.0269935759198919	0.0307438046672227	0.00596403560738827	0.6611328125	0.433349609375	0.023681640625	0	0	0	-0.382727225281478	-0.490752536598545	-0.478063417976644	0.619788017989153	0.0612346324291639	-0.216947243337312	0.974260854904684	0.968244669866145	0.249950478841658	-0.00519782672137331	-0.242389313021562	0.943641166829408	0.225363637700869	-1.32124572419411	-76.9722130655032	-74.2379688125916
47108	1656051402478	9.64511945719022	-0.0736688116292578	2.18437772392822	-0.00864031009528672	-0.0502893277687703	0.0768352727158312	-0.0234428443377386	0.0309286747289171	0.00573749981369666	0.667236328125	0.4375	0.026123046875	0	0	0	-0.382787705992081	-0.490596479500958	-0.478138589719274	0.619816227170482	0.0613971666450594	-0.217127511576905	0.974210465784668	0.968304715400756	0.249714122325168	-0.00536984581085237	-0.24210817016495	0.943662281130168	0.225577332885172	-1.36366274655839	-76.9594118722542	-74.2106836069055
47109	1656051402479	9.65174238218273	-0.0618004039908305	2.20681251998264	-0.000961374275106756	-0.0299088266701879	0.0882760084329561	-0.0229710570037725	0.0285489417655694	-0.000397048395407484	0.65771484375	0.431396484375	0.027099609375	0	0	0	-0.382788157911691	-0.490474226635454	-0.478240937687468	0.61983373955339	0.0614412770523297	-0.217364286194793	0.974154883250712	0.968355189062579	0.249517663364771	-0.00540032263496332	-0.241895012949328	0.943659738865664	0.225816518337856	-1.36994729829009	-76.9453056168224	-74.216259062757
47110	1656051402480	9.69168679787981	-0.0649570024846853	2.16550906003975	0.0108242153038361	-0.0807679296072977	0.117861498551056	-0.0240517649575994	0.0254277676139187	0.00424687795227763	0.657470703125	0.43359375	0.015625	0	0	0	-0.382856307813385	-0.490281437735641	-0.478338555591953	0.61986884549361	0.0616326760921553	-0.217599654337919	0.974090244109722	0.96842901850154	0.249226547603415	-0.00560036550843318	-0.241550510994832	0.943682424548482	0.226090318758753	-1.41895374233228	-76.9289197050467	-74.1858173265044
47111	1656051402480	9.67384370980618	-0.0616208503896903	2.11036748355755	0.0272981643966164	-0.129469406326151	0.0879789006266733	-0.019963134764766	0.0144865204098584	0.00272940126206742	0.65283203125	0.4375	0.014404296875	0	0	0	-0.382888940515753	-0.490203351985676	-0.478396930706763	0.619865396374955	0.0616741007847108	-0.217696521996087	0.974065978054467	0.968470290312352	0.249064871842146	-0.00565565173653748	-0.241374402277265	0.943702767784996	0.226193465865463	-1.43230252096947	-76.9227735100142	-74.1824092778523
47112	1656051402480	9.68075058753717	-0.0495425326264188	2.13158138375515	0.0329590348997773	-0.106461572677783	0.0994569530028819	-0.0216321559123006	0.0192134649844071	-0.00061288955060674	0.658203125	0.436767578125	0.025146484375	0	0	0	-0.382884467574068	-0.490284955711664	-0.478383418133378	0.619814046265781	0.0615399349156754	-0.217572535664935	0.974102165142294	0.96846251257388	0.249097579491097	-0.00554595625337023	-0.24143984374925	0.94372272814424	0.226040293386668	-1.40548458585341	-76.9319401481047	-74.2065557196961
47113	1656051402481	9.62522337048443	-0.0728270350034668	2.13824692171666	0.00608783879971365	-0.0953982744213905	0.0469875969197595	-0.0185382359855339	0.0222162861832868	0.00166107582183106	0.66015625	0.438720703125	0.014892578125	0	0	0	-0.382891456128168	-0.490189662552035	-0.478455770913515	0.619829252964659	0.0615883400133525	-0.217742898776862	0.974061038337254	0.968500633470956	0.24894841620721	-0.00558650465660648	-0.24127453106525	0.943722796217285	0.226216455102348	-1.4146543575046	-76.9215227080814	-74.2065025448623
47114	1656051402481	9.6175014028723	-0.0858648861526815	2.12072848646718	-0.00334381753910006	-0.113821327934811	0.0355728132880948	-0.0137418296772276	0.0213740935480214	1.69976145838356E-06	0.6572265625	0.4267578125	0.0205078125	0	0	0	-0.382853405085495	-0.490213070249105	-0.478463259895039	0.619828464094704	0.061528109375117	-0.217770808688404	0.974058605341549	0.968489781337544	0.248992358290109	-0.00550898882605555	-0.241333452305061	0.943704763364225	0.226228831942774	-1.39495676882381	-76.920906684492	-74.2230999203574
47115	1656051402481	9.62716011798302	-0.102661029974783	2.16024721379434	-0.0283060175532795	-0.0845017441961818	0.053997851164354	-0.0104347840470408	0.0215514719285861	-0.00543201595624162	0.66259765625	0.43310546875	0.0205078125	0	0	0	-0.382819363974476	-0.49015342500034	-0.478536245903781	0.619840314825463	0.0615053626335025	-0.217951669815707	0.974019589121218	0.968512559449872	0.248904791844986	-0.00546139034135806	-0.241247823938742	0.943686110007532	0.226397909053227	-1.38187646019985	-76.9110318440354	-74.241079395305
47116	1656051402482	9.62669046246798	-0.102337809662161	2.16235450290591	-0.0272204341558745	-0.0822451244212659	0.0540199742166418	-0.00308118150164377	0.0223715486285862	-0.00431701936752185	0.657958984375	0.435791015625	0.02099609375	0	0	0	-0.382858115961157	-0.490109192573518	-0.478516529713634	0.619866576924768	0.0616298202915114	-0.217948242383137	0.974012489084682	0.9685173707189	0.248883187666989	-0.00559119955535486	-0.241196740994951	0.943692599599478	0.226425284795216	-1.41453746306466	-76.9092356419286	-74.2105435120565
47117	1656051402483	9.60393477001454	-0.12781273337634	2.15909182650251	-0.0525085758241704	-0.0887277607825067	0.0312420547565377	-0.00857104249318891	0.0260226005303139	-0.00536121868640788	0.65771484375	0.43701171875	0.029052734375	0	0	0	-0.382808252617865	-0.490040133099537	-0.478592419133436	0.619893382790501	0.0616199285995878	-0.21816973322011	0.973963526989614	0.968535361477949	0.248814276151326	-0.00554161980566154	-0.241127016251105	0.943659590895974	0.22663701935889	-1.40068984554516	-76.8968555573329	-74.2281809463006
47118	1656051402483	9.62850626066199	-0.131198249643732	2.18484515324622	-0.0608629160774237	-0.0726737492633106	0.0610104241117675	0.000449275632248667	0.0221148846622839	-0.000902923494362205	0.66455078125	0.438232421875	0.01513671875	0	0	0	-0.382745571983564	-0.490003229228847	-0.478647793930932	0.61991850419013	0.0615862494207065	-0.218352116405161	0.973924785157292	0.968538381385115	0.248804232984053	-0.00546419556005112	-0.241123490490229	0.943620054317734	0.226805324944553	-1.38010336818196	-76.8870678085014	-74.2488858751752
47119	1656051402486	9.6174195869957	-0.102366714287056	2.20267940691799	-0.0376802718651753	-0.0479348448679397	0.0540910956854983	-0.00363168434084082	0.0205884293741235	-0.000175923942534289	0.65869140625	0.439208984375	0.03515625	0	0	0	-0.382705982877448	-0.489952895826634	-0.478685308152504	0.619953761420837	0.0616130712600764	-0.218509705530107	0.973887744064503	0.968541323774042	0.248793012857498	-0.00545352136829774	-0.24110481868251	0.943586533044232	0.226964581081804	-1.37644227902037	-76.877716442381	-74.2531671787855
47120	1656051402487	9.68224105479059	-0.0965612563150209	2.23705524106144	-0.0364612948682686	-0.0291688660083528	0.124985993876569	-0.000814547699819893	0.0102336155783018	0.00336888037230752	0.655029296875	0.43408203125	0.021728515625	0	0	0	-0.382669052483001	-0.489962595021327	-0.478670988206699	0.619979948708788	0.0616214810583783	-0.2185457854557	0.973879116077413	0.968519873411396	0.248876962641969	-0.00543251997534844	-0.241188822044775	0.943556038148058	0.227002103503458	-1.37091709963187	-76.8755391673051	-74.2535954961612
47121	1656051402488	9.66470682494253	-0.0927143946498857	2.18098058509895	-0.0199614343175327	-0.0778508747576192	0.0951565488523869	-0.00232052810882988	0.0108111779777318	0.00323232193125683	0.6572265625	0.439453125	0.02783203125	0	0	0	-0.382657053834158	-0.489939199831248	-0.478676168378156	0.620001843099265	0.0616574125910477	-0.218602831753722	0.973864038468323	0.968517594814883	0.248885409955539	-0.00545171947726264	-0.241188789139488	0.943540595131189	0.227066319239358	-1.37537138432137	-76.87173517988	-74.2487768969466
47122	1656051402489	9.69447671730032	-0.0666383112573194	2.15404045846671	0.0130122064263994	-0.103937711911025	0.117883482618675	0.00503162533945808	0.01163141123556	0.0043505707536655	0.65966796875	0.434326171875	0.025390625	0	0	0	-0.382607467973639	-0.489951893776868	-0.47869023844638	0.620011550579027	0.0616055948012168	-0.218668446958655	0.973852586890787	0.968505460986082	0.248934362133897	-0.00537172124429358	-0.24125074658812	0.943512476681512	0.227117334470523	-1.35489255072372	-76.8688467411639	-74.2658470239583
47123	1656051402490	9.66861243035756	-0.0512244783106653	2.18484935628715	0.0190870436408486	-0.0659814862329598	0.0996049582728435	0.00398205248747124	0.00939209139486532	0.00171168682842876	0.66064453125	0.43017578125	0.02490234375	0	0	0	-0.382575401333276	-0.489951028770665	-0.478682233256034	0.620038201457189	0.0616226179431657	-0.218716119023987	0.973840804360197	0.968488964886341	0.248998763719396	-0.00536102225282675	-0.241312614364052	0.94348443280496	0.2271681034025	-1.35189289554007	-76.8658754773248	-74.2649751354533
47124	1656051402491	9.66785996185564	-0.0393620300533733	2.2389079405595	0.0188334810735822	-0.0116815947211225	0.111086273696547	0.0014060681784952	0.00728835226862872	0.00257349979450718	0.66064453125	0.438720703125	0.02392578125	0	0	0	-0.382628049455709	-0.489907087324873	-0.478659900071462	0.620057676044864	0.0617514917048751	-0.218689104033068	0.973838707923153	0.968497876983642	0.248960951666596	-0.00550516334372275	-0.241243892255122	0.943500673196621	0.227173643117158	-1.38819318276313	-76.8653468767665	-74.2318517143367
47125	1656051402492	9.60539289828775	-0.0751344510208737	2.22448689567314	-0.0159484220587558	-0.0207249431191006	0.0471745001701631	-0.00772955051851446	0.0061546706510705	0.00338605181628572	0.6640625	0.4375	0.022705078125	0	0	0	-0.382644429202776	-0.489884761757327	-0.478668907482247	0.620058253721213	0.061777994415438	-0.218701863692626	0.973834161561083	0.968508563843706	0.248918635619668	-0.00553846573008626	-0.24119419803844	0.943508880540408	0.227192321996098	-1.39647268778247	-76.8642006181589	-74.2262955836341
47126	1656051402494	9.58306228184669	-0.101531602792262	2.21926421498287	-0.041582990688118	-0.0264253008406594	0.0243903310474618	-0.00933462417885565	0.00213259197996942	0.00488402710647514	0.65478515625	0.43798828125	0.019775390625	0	0	0	-0.382665545260557	-0.489922775587706	-0.478617865866883	0.620054588648379	0.0618012248669383	-0.21858527576804	0.973858863399804	0.96849153999138	0.248984037886944	-0.00557546793014913	-0.241256596946225	0.943518641095619	0.227085508861758	-1.40645969064664	-76.8704297917289	-74.2126626889373
47127	1656051402495	9.61304164596105	-0.0757951695072441	2.19144640682564	-0.00765827749086723	-0.0524855891635215	0.0471269629821265	-0.00933441944981066	0.00213256601941069	0.00488426734595908	0.66162109375	0.431884765625	0.0283203125	0	0	0	-0.38270018858245	-0.489906424021258	-0.478618348292823	0.620045754794846	0.0618323447603073	-0.218555988330394	0.973863461223578	0.968505111773151	0.248930084672813	-0.00562684761327537	-0.24119413262084	0.943539661545667	0.227064522723322	-1.41954651295636	-76.8715895661269	-74.2030986478584
47128	1656051402496	9.59411164486101	-0.143897456713483	2.15080226431447	-0.06442406504858	-0.102940787836607	0.019854919779009	-0.011038965964095	0.00597608198448364	0.00881974342748009	0.6552734375	0.43310546875	0.025634765625	0	0	0	-0.382757612032613	-0.489879553429866	-0.478612875447464	0.620035764305864	0.0618954771745306	-0.218503943960555	0.973871129246072	0.968524456178228	0.248852651774004	-0.00572149366108149	-0.241100244068737	0.943572140421033	0.227029267124894	-1.44363794519226	-76.8735240043061	-74.1841979595701
47129	1656051402497	9.59052365520685	-0.103306776476435	2.18698443361669	-0.0333300415144818	-0.0581214410924583	0.0243461379940157	-0.00941234526676823	0.0104408870056196	0.00368504294205947	0.657470703125	0.432861328125	0.02587890625	0	0	0	-0.38276968942738	-0.489839632062388	-0.478633103317678	0.620044234006849	0.0619349745389464	-0.218555864166378	0.973856967509782	0.968538919501347	0.248795434528312	-0.00576135132005767	-0.241031990283499	0.943575204208099	0.227088999433304	-1.45330825711267	-76.8699515937656	-74.1781820375607
47130	1656051402499	9.57532971441129	-0.116958451596983	2.20172234039346	-0.0504048259958993	-0.0445012464370828	0.0129769233426593	-0.00647954348106758	0.00512794095131345	0.00195516304806084	0.663818359375	0.43603515625	0.018310546875	0	0	0	-0.382821834146864	-0.489793068644798	-0.478675059949391	0.62001643541957	0.0619458737799192	-0.218565847006096	0.973854033849093	0.968579770570186	0.248635260565756	-0.00580820502435236	-0.240864976208349	0.943615111009731	0.227100386415886	-1.46504860308782	-76.8692116739279	-74.1762237440297
47131	1656051402499	9.59809011388317	-0.103312910255547	2.15436439788125	-0.0243994290483026	-0.0906355098364599	0.024308278158216	-0.00150585258770742	0.000577895222809358	-0.000137003801382981	0.658935546875	0.43505859375	0.015380859375	0	0	0	-0.382823688210556	-0.489809807151317	-0.478668939036451	0.620006792999056	0.0619247992402158	-0.218534393809765	0.973862432770285	0.968577581391239	0.24864414109317	-0.00579309298545583	-0.240879198075212	0.943620055860535	0.227064753126514	-1.4614676439306	-76.8713301360054	-74.1791748893399
47132	1656051402501	9.63814537889222	-0.0937016323149492	2.16395335790307	-0.0157663590778396	-0.0848949714705019	0.065463514582099	-0.00628059392740716	0.00186272525432725	-0.00211753197076524	0.66796875	0.435546875	0.02880859375	0	0	0	-0.382838635849864	-0.489956076329343	-0.478538695548298	0.619982531230924	0.0618875202617766	-0.2182230317394	0.973934619599444	0.968519495292512	0.248870591527097	-0.00578064972917325	-0.241122213979108	0.943632416299598	0.226755244337139	-1.46031952700263	-76.8895517051918	-74.1667927435969
47133	1656051402501	9.62309773108617	-0.106760669073275	2.17807508858058	-0.0331352856177656	-0.0713147613862305	0.0540869401077319	-0.00503189001613764	0.000836031245186809	-0.00355005298928132	0.655517578125	0.435546875	0.034912109375	0	0	0	-0.382842588780156	-0.489970984236543	-0.478551470473009	0.619958447745092	0.0618338494287901	-0.218200533536598	0.973943069295718	0.968527573665713	0.24884008464846	-0.00574032415070586	-0.24110353401397	0.943645664132726	0.226719973644765	-1.45036226282604	-76.8916862243213	-74.1782866810222
47134	1656051402502	9.645842814375	-0.092775009296434	2.13081913216357	-0.00579919293522266	-0.11896987259062	0.0654244756962008	-0.00592322182869375	0.0069116122502295	-0.00218099354037618	0.66259765625	0.437255859375	0.037841796875	0	0	0	-0.382873632019412	-0.489841051657002	-0.478652274757398	0.619964132741076	0.0618954879622607	-0.218400039688777	0.973894435364457	0.968588929929277	0.248599563547664	-0.00580877115832057	-0.240841095721583	0.943662905739042	0.226927052031652	-1.46631001437754	-76.8794052382801	-74.1770476330314
47135	1656051402503	9.63291767109627	-0.123451746943332	2.2165008223356	-0.057046644839923	-0.0431345885113718	0.0724582693225386	-0.00469546982457864	0.00544168278300842	2.44169692739482E-05	0.662353515625	0.436767578125	0.0234375	0	0	0	-0.382874339163316	-0.489834752135445	-0.478662463066949	0.619960807197796	0.0618883241021761	-0.218413619910372	0.973891845112932	0.968594248002713	0.248578973721871	-0.00580315082014166	-0.240821548196759	0.943665186631905	0.226938312021322	-1.46481923723351	-76.8787514676092	-74.1797217785695
47136	1656051402505	9.69576679659255	-0.10014749842384	2.17861815203638	-0.0206831719064653	-0.0878425204506823	0.124925844723707	0.00176287151579795	-0.000129152514119964	0.00170659061221453	0.6572265625	0.435302734375	0.021728515625	0	0	0	-0.38288682418666	-0.489778581517371	-0.478691142560189	0.619975330949148	0.0619434622425037	-0.218493867798691	0.973870339018382	0.968612930326025	0.248504939797347	-0.0058554335062671	-0.240732213653763	0.943666108658505	0.22702924190217	-1.47741878504079	-76.8733246379286	-74.1718573710673
