// Start Time : 24/06/2022 06:16:02																																
// Update Rate : 100Hz																																
// Filter Profile : 46.1 human																																
// Firmware Version : 4.4.0																																
PacketCounter	Time_Of_Arrival	Acc_X	Acc_Y	Acc_Z	FreeAcc_X	FreeAcc_Y	FreeAcc_Z	Gyr_X	Gyr_Y	Gyr_Z	Mag_X	Mag_Y	Mag_Z	VelInc_X	VelInc_Y	VelInc_Z	OriInc_q0	OriInc_q1	OriInc_q2	OriInc_q3	Mat[1][1]	Mat[2][1]	Mat[3][1]	Mat[1][2]	Mat[2][2]	Mat[3][2]	Mat[1][3]	Mat[2][3]	Mat[3][3]	Euler_X	Euler_Y	Euler_Z
46914	1656051402335	5.00966699192637	-0.866739720528736	8.38832691792831	1.36609473733174E-15	-1.11401773222886E-15	-0.00391427566857771	0.00646360680076321	-0.0137004179797502	0.00605925100842048	0.292724609375	-0.533447265625	0.553955078125	0	0	0	-0.162970630140429	0.214082772569262	-0.705511522797708	-0.655639101488271	-0.0871558846225672	0.855343473097777	0.51067738818621	-0.994900290489069	-0.04861187017742	-0.0883758907316937	-0.0507667584195046	-0.515775560788688	0.855218280401378	-5.89984612189417	-30.7089607683004	95.8181171939117
46915	1656051402335	4.99320082798649	-0.787990317032676	8.37766013409746	-0.0417265499121038	0.00587461622021967	-0.0281895763660387	0.0093987545069324	-0.00695043448321706	0.00840783761182621	0.302490234375	-0.543212890625	0.55029296875	0	0	0	-0.162374462258926	0.213291995646307	-0.701413991037621	-0.660423706249222	-0.074950124460275	0.857194508957844	0.509509619787296	-0.995727201346653	-0.036694105634457	-0.0847400915147824	-0.0539427413248127	-0.51368386817584	0.856282117198623	-5.65174935483106	-30.6311712824873	94.9970363792206
46916	1656051402335	4.97656528937999	-0.828955371545158	8.44000649154021	-0.00271902888909865	-0.039932566823645	0.0201899623126653	0.00690399630139557	-0.0160175378031226	0.00725484662531125	0.299072265625	-0.5458984375	0.54541015625	0	0	0	-0.162445696970647	0.213326563714318	-0.701432302912557	-0.660375572822232	-0.0750309967108014	0.857109553013943	0.509640622070795	-0.995725482313645	-0.0367917600670418	-0.0847179453381174	-0.05386198477337	-0.513818626096109	0.856206345499065	-5.6507786691287	-30.6398947246802	95.0028942256194
46917	1656051402336	4.97253401997975	-0.834703031505688	8.40551672387903	0.00490323483050671	-0.0272421045711572	-0.0109136118755249	0.000745873313600249	-0.0197121672256007	0.0123198799073627	0.297607421875	-0.538330078125	0.559326171875	0	0	0	-0.162501595016663	0.213409452099797	-0.701454687433596	-0.660311259065708	-0.0751645455361994	0.856998102957943	0.509808339104828	-0.99571560838934	-0.0368908938110479	-0.0847908554247984	-0.0538583169453306	-0.513997386647353	0.85609927474301	-5.65631308647175	-30.6510641506634	95.0124020852685
46918	1656051402337	5.01474943975541	-0.742867077587607	8.40043466463582	-0.089519119840659	0.0063607781478169	-0.00152985638335501	0.0126334989567371	-0.0195050965265754	0.0160432233840479	0.293212890625	-0.539794921875	0.5576171875	0	0	0	-0.162594594428777	0.213442573279367	-0.701505280534315	-0.660223906835322	-0.0753347814112921	0.856891896687561	0.509961712387221	-0.995710331232334	-0.0370933215099731	-0.0847645077644735	-0.0537178460747316	-0.514159861220761	0.856010531548847	-5.65514926586142	-30.661279457616	95.0243158276045
46919	1656051402337	4.98250081254461	-0.797470989286681	8.4494199535851	-0.0357771288050058	-0.0462065818639614	0.0285806676913136	-0.0062957380729948	-0.0187694047931249	0.0150008995297196	0.297607421875	-0.541259765625	0.552734375	0	0	0	-0.162624192343193	0.213537889709415	-0.70153270674226	-0.660156650420226	-0.0754931379413441	0.856790109989084	0.51010929568933	-0.995695817383737	-0.0371895331287951	-0.0848927433305988	-0.0537645363441542	-0.514322511708905	0.855909883446349	-5.66431071888698	-30.6711101469505	95.035417961353
46920	1656051402338	4.96822786982612	-0.811536833356046	8.43520456671467	-0.0210626557300779	-0.0529716944298421	0.0103114591085944	-0.00228448172143063	-0.0307968194395773	0.0193722620630775	0.302490234375	-0.539306640625	0.552490234375	0	0	0	-0.162703990382114	0.213663304964701	-0.701569158073952	-0.660057664196625	-0.0757025828980663	0.856624454869396	0.510356407094368	-0.995679944133346	-0.0373437440937144	-0.0850111382565908	-0.0537640009037594	-0.514587201644944	0.855750807250597	-5.67320644739508	-30.6875727551892	95.0502872850138
46921	1656051402338	5.04475783241357	-0.790273857339061	8.36458335616001	-0.0452613324227239	0.0450722898885503	-0.0128767524700333	-0.0024337140749872	-0.0344627186619857	0.0201015964962367	0.295654296875	-0.545654296875	0.546142578125	0	0	0	-0.162795359949328	0.213798779863534	-0.701604994762678	-0.659953167908068	-0.0759189738941471	0.856441979178285	0.51063043946091	-0.995663776476729	-0.037503795793938	-0.0851299566142569	-0.053758288802365	-0.514879210691429	0.855575505015666	-5.68224034369499	-30.705832126178	95.0657217066821
46922	1656051402339	5.0137666458312	-0.846264087836748	8.41269614589347	0.00845969553027469	-0.00750079365612303	0.0172335941865054	-0.0173006411062945	-0.0350114190155746	0.022895527479862	0.29541015625	-0.542236328125	0.556640625	0	0	0	-0.162836613469098	0.213993631374505	-0.701633533903142	-0.659849488252932	-0.0761657803325184	0.856253060100211	0.510910433417994	-0.995637053048127	-0.0376107571669925	-0.0853949034952702	-0.0539039191894203	-0.51518552776097	0.855381926090136	-5.7010901187804	-30.7244923010481	95.0832192694663
46923	1656051402340	5.03442046417038	-0.803172300508929	8.43583481006495	-0.0391105035473661	-0.00687004704106372	0.0438945007740674	-0.00174732949415507	-0.0382729400443479	0.0262339303706004	0.299072265625	-0.5322265625	0.55029296875	0	0	0	-0.162938545883763	0.214144378041458	-0.701686760216034	-0.659718808399494	-0.0764442482184728	0.856047159504331	0.511213788564902	-0.995616653773363	-0.0378265583943772	-0.0855373030272117	-0.0538865070629447	-0.515511796358342	0.855186431237044	-5.71183093303645	-30.7447134580108	95.1029266165765
46924	1656051402341	5.01556137618678	-0.823982514955141	8.38730170719646	-0.0166155828446338	-0.000823457595253135	-0.00547805788967004	-0.0239040864240953	-0.0363786999019924	0.026787524557484	0.298583984375	-0.536376953125	0.55224609375	0	0	0	-0.162958640954906	0.214370059099408	-0.701719866381505	-0.659605327620517	-0.0767305862255206	0.85584941774027	0.511501897641766	-0.99558323170932	-0.0379325790726935	-0.085878682943553	-0.0540966346154121	-0.515832233966174	0.854979918199692	-5.7358511353171	-30.7639222679424	95.1231163334513
46925	1656051402342	5.01688464222694	-0.858807769993296	8.373197790102	0.0164090372934698	0.00536361726165927	-0.0138698697804926	-0.00620750115069803	-0.0372429047197219	0.0240510121593202	0.300537109375	-0.5341796875	0.558349609375	0	0	0	-0.163045818010241	0.214529716430858	-0.701761618428038	-0.659487447112322	-0.0769847366612876	0.855649610231088	0.511797904287014	-0.995562302642985	-0.0381066157387365	-0.0860441014430254	-0.0541207157878529	-0.516150782570682	0.854786123994934	-5.74811976032115	-30.7836616179476	95.1411884352009
46926	1656051402343	5.07791182659691	-0.847279832240045	8.37709160696909	-0.00174668514220455	0.051394747677562	0.019712617493207	-0.012433273310824	-0.0402582442602624	0.0204633801513942	0.2919921875	-0.537109375	0.5537109375	0	0	0	-0.163124124066941	0.214722767839716	-0.701782919660581	-0.65938257998776	-0.0772102667121568	0.855433937472108	0.512124353390076	-0.99553979115644	-0.0382174923598734	-0.0862551302933077	-0.0542134571709836	-0.516499953435321	0.854569306237289	-5.76357475673508	-30.8054357372206	95.1574616648507
46927	1656051402344	5.0104626989898	-0.902112536575697	8.37786265888847	0.0563519028294382	-0.0080775732566497	-0.00942849057404871	-0.00650114714765325	-0.0312567386718804	0.0221373545258816	0.29833984375	-0.547607421875	0.55078125	0	0	0	-0.163192529247677	0.214864494691453	-0.701822434487895	-0.659277420945248	-0.0774429612590568	0.855262808472944	0.512374976159454	-0.995519929809834	-0.038373062305538	-0.0864151458988523	-0.0542462634920863	-0.516771745098615	0.854402894637465	-5.77531186461316	-30.8221555967138	95.1739503320532
46928	1656051402347	5.06688715911912	-0.863457964921398	8.36064671839177	0.0130563300674226	0.0446070778224118	0.00144314256278832	-0.00430990922049169	-0.031435075053278	0.0188990330671542	0.29833984375	-0.53857421875	0.55078125	0	0	0	-0.163268324933956	0.214998657970191	-0.701854440973949	-0.659180836212206	-0.0776481584876743	0.855093053101233	0.512627188141134	-0.995502936100599	-0.0385124044831879	-0.0865488238857723	-0.0542647924400353	-0.517042227713497	0.854238062288554	-5.78529386079767	-30.8389844170953	95.1886090540334
46929	1656051402346	5.04757120748856	-0.879478693821918	8.40065019804713	0.0269395834192302	0.00539351224385568	0.027110714714631	-0.00864903007681293	-0.0222473847113828	0.0189985050100259	0.29833984375	-0.541259765625	0.5498046875	0	0	0	-0.163300008957047	0.215119442146432	-0.701888813538074	-0.659096977777437	-0.0778485619185548	0.854967577818777	0.512806047435	-0.995483605136166	-0.0386295989905134	-0.0867187752850279	-0.0543322492845268	-0.517240944783499	0.854113465370473	-5.79741669396244	-30.8509205750275	95.2026862941532
46930	1656051402347	5.01689919074841	-0.906180115884503	8.37357068075501	0.0563673475847219	-0.00813678119434215	-0.00942862833128188	0.00346321078235968	-0.0273677480317003	0.0159515641670833	0.295166015625	-0.54052734375	0.549072265625	0	0	0	-0.163390307947943	0.215210500047994	-0.701922751980553	-0.65900872391025	-0.0780222181577202	0.854819814379605	0.51302594322097	-0.995473053885495	-0.0387838849585525	-0.0867710162174439	-0.0542764448138902	-0.517473569577751	0.853976095875538	-5.80181210844994	-30.8655973352909	95.2151243457099
46931	1656051402348	5.06216480745203	-0.87394452132815	8.37740784665466	0.0199252242816184	0.0249162535146848	0.0142773545333608	-0.000841068604285933	-0.0226685751219556	0.0130403324420887	0.29736328125	-0.54345703125	0.53955078125	0	0	0	-0.16345201218359	0.215303437257572	-0.701946366117416	-0.658937909603602	-0.0781685420007414	0.854694582186923	0.513212285727651	-0.995461702386097	-0.03889052238462	-0.0868534763335687	-0.0542741017802481	-0.517672385248598	0.85385573923642	-5.80810099296365	-30.8780363690444	95.2256120951974
46932	1656051402348	5.04745202486205	-0.887390437603764	8.36347989687319	0.0346392555788842	0.0181512084679573	-0.00399223396468606	-0.00133213621247734	-0.0177701915922017	0.00901515372191838	0.297119140625	-0.5439453125	0.55322265625	0	0	0	-0.163500286002923	0.215374026670049	-0.701960107829273	-0.658888224306071	-0.0782679286955113	0.854599068046346	0.513356176774012	-0.995453927878963	-0.0389606730134444	-0.0869111237338638	-0.0542734632030964	-0.517824776205866	0.853763370225783	-5.81255412205832	-30.8876427198556	95.2328008322281
46933	1656051402349	5.03428810125937	-0.867716353294884	8.361826013432	0.0162866695823943	0.00512124739301232	-0.0138695359588858	0.0180366813552918	-0.0208495014778115	0.0112131681267729	0.306884765625	-0.54296875	0.55126953125	0	0	0	-0.16361914653212	0.215397314648088	-0.70199946785333	-0.658809167258725	-0.0783985120479317	0.85448112008898	0.513532558578474	-0.995453619241103	-0.0391489559565154	-0.0868300131711698	-0.0540903433938167	-0.518005187868807	0.853665543460987	-5.80782752628489	-30.8994195098967	95.2422022011784
46934	1656051402349	5.02535103403857	-0.875059865203454	8.38148958403587	0.0232202370850026	-0.0144561238819795	-0.00103603517449713	-0.00627693842195734	-0.0232443206694381	0.0120309238396788	0.296630859375	-0.541015625	0.5546875	0	0	0	-0.1636670981297	0.215505756687799	-0.702013315447336	-0.658747033965893	-0.0785308524618826	0.854355975056316	0.513720520416676	-0.995440782365665	-0.0392192281511153	-0.0869453905992868	-0.0541345916659747	-0.518206252402266	0.853540699648445	-5.81633673111888	-30.9119710788507	95.2517667216043
46935	1656051402349	5.03601030896975	-0.900436026460112	8.34762319432473	0.0490161179384381	0.0111888037882072	-0.0222599010673985	0.00971582256154702	-0.0174353598712785	0.00731203841369803	0.29150390625	-0.54248046875	0.54931640625	0	0	0	-0.163748634556933	0.215544737981385	-0.702034184047335	-0.658691775444532	-0.0786230592849415	0.854257973165017	0.513869370397453	-0.995438599286551	-0.0393312217805337	-0.0869197908630681	-0.0540408141972863	-0.518359306154764	0.853453701218553	-5.81522459994621	-30.9219120349596	95.2584983443663
46936	1656051402350	5.05525358885821	-0.854947615925754	8.37190671673878	0.00138106361518676	0.0117949746332687	0.00440004501959201	0.0105114806689997	-0.0150009087318048	0.00988253174100826	0.296142578125	-0.542236328125	0.538818359375	0	0	0	-0.163825263703544	0.21556533204385	-0.702065772604307	-0.658632311332207	-0.0787295228833172	0.854176310300362	0.513988806442538	-0.995436499770065	-0.0394701321800376	-0.0868808586007928	-0.0539243651060059	-0.518483306951487	0.853385741186578	-5.81309746437468	-30.9298893265048	95.2660794675215
46937	1656051402350	5.04407335646041	-0.894356609658637	8.37983337989735	0.040970815281143	-0.00173651941340359	0.00884385687507461	0.0026302767470622	-0.0139031447929687	0.0071786384475386	0.30615234375	-0.546142578125	0.551513671875	0	0	0	-0.163869328633392	0.21562063205839	-0.702081924521347	-0.658586028871235	-0.0788225714177167	0.854095476795744	0.514108858853988	-0.995429909655408	-0.0395443712127153	-0.0869225958472044	-0.0539100843861743	-0.51861079744105	0.853309172327964	-5.81638920688541	-30.937908456707	95.2727644341884
46938	1656051402351	5.05406959903082	-0.919140707582315	8.3464158700728	0.0669581332641083	0.0239998102781833	-0.0123793293032364	0.011437459244819	-0.0108101954980782	0.00588171621258666	0.30712890625	-0.546875	0.548828125	0	0	0	-0.163938579295166	0.215620906995423	-0.702104771435576	-0.658544346731905	-0.078886971212262	0.85403708576646	0.514195976169094	-0.995431426403119	-0.0396539357078396	-0.0868552860333218	-0.0537877411870714	-0.518698584457689	0.853263533370308	-5.81222477983866	-30.9437280454471	95.2774068467519
46939	1656051402352	5.03513723567976	-0.900546657254143	8.39963604533694	0.0474875900658722	-0.0214898485142882	0.0216789095012224	0.0117720199069537	-0.00796820300935383	0.00141353342375815	0.299560546875	-0.534423828125	0.55322265625	0	0	0	-0.163994726668148	0.215627302253861	-0.702116653475818	-0.658515604264379	-0.078925857130718	0.853986063664799	0.514274743831041	-0.995433025646047	-0.039724130926084	-0.0868048666569035	-0.0537010291273541	-0.518777212769093	0.853221192295523	-5.80916016426917	-30.9489901678542	95.2803072251282
46940	1656051402353	5.04482865193243	-0.924507834158013	8.36649352360582	0.0734762498667682	0.00424594665391233	0.000457280686637418	0.0139614596875441	-0.00814989494005005	-0.00183092618790553	0.294677734375	-0.545654296875	0.539794921875	0	0	0	-0.164071298644308	0.215603653821712	-0.702118965976931	-0.658501807921119	-0.0789119558515768	0.853944473993059	0.514345932773261	-0.995441959893004	-0.0397808668466906	-0.0866763353938128	-0.0535556505707254	-0.518841322534783	0.853191346839795	-5.80081881260216	-30.9537462385258	95.2796381245626
46941	1656051402355	5.05194171491982	-0.88910806299918	8.32414764789393	0.0408618417290767	0.0303922826624119	-0.0350870070320592	0.0197537682993867	-0.0028203921949497	0.000555176596173381	0.302490234375	-0.541259765625	0.551025390625	0	0	0	-0.164129124721458	0.215565358224288	-0.702143789371966	-0.658473466282567	-0.0789486492399781	0.85392500250183	0.514372628437236	-0.99544721676431	-0.0398885410709107	-0.0865664076153296	-0.0534036461243238	-0.518865102308377	0.853186413503605	-5.79354523706897	-30.9555298134217	95.2821989908557
46942	1656051402358	5.07254122321404	-0.901181096687921	8.35854815605023	0.0512813618060236	0.0305009615016869	0.00589546108253991	0.0223290311095176	-0.00274038246811089	-0.00432472583760984	0.298583984375	-0.548583984375	0.549560546875	0	0	0	-0.164216926692196	0.215492441240598	-0.702151359722893	-0.658467369575159	-0.0789070483850811	0.853912504908851	0.514399758626933	-0.995462530612569	-0.0399674619458757	-0.0863536457367297	-0.0531792051611728	-0.518879596771638	0.853191617511874	-5.77936742643596	-30.9573424537129	95.2795081756255
46943	1656051402355	5.04544057606241	-0.918700841246361	8.36676421844907	0.0722151837686216	0.00395879569449355	0.000466761971393836	0.0281973580147024	0.00692226220235391	-0.0113439642855915	0.2958984375	-0.54638671875	0.557373046875	0	0	0	-0.16427878936745	0.21539250121719	-0.702153793328644	-0.658482042501968	-0.0788277581328037	0.853942489285526	0.51436213851779	-0.995480166640674	-0.0400149402436796	-0.0861280580435309	-0.0529662380466205	-0.518826589093247	0.853237099566736	-5.76406618073921	-30.9548289631626	95.2740488126021
46944	1656051402355	5.04088628105221	-0.889178090267539	8.34588677900275	0.0470803892267851	0.0106145305088071	-0.0222497616869521	0.0253629282667414	0.00833529831799356	-0.0113970644583769	0.299560546875	-0.543701171875	0.54345703125	0	0	0	-0.164345299470109	0.215266649591144	-0.702150427235089	-0.658510189480365	-0.0787099057852285	0.853990297778628	0.514300808896166	-0.995502545750562	-0.0400491998486758	-0.0858530313712378	-0.0527203199481031	-0.518745248548313	0.853301784231768	-5.74535089636859	-30.9507315244765	95.2659149933285
46945	1656051402357	5.05902635879893	-0.932430243101065	8.3688316384156	0.0895417096821977	0.0167039339092497	0.0103579499526365	0.0305892983299076	0.00782814444840145	-0.0124812163230324	0.30029296875	-0.544189453125	0.548095703125	0	0	0	-0.164406546732268	0.215158930928879	-0.702154244638703	-0.658526034845218	-0.0786278976452113	0.854026627478081	0.514253024561169	-0.995520774808575	-0.0401001917451539	-0.0856175306028848	-0.0524980060233548	-0.518681495891667	0.853354243666224	-5.72934612061675	-30.9475391696528	95.260236692935
46946	1656051402361	5.04528370305683	-0.877422212701621	8.38089498306468	0.0384148620440262	-0.00237649540361449	0.00885405252277138	0.030740388357617	0.0114940344811257	-0.0132111609974252	0.306640625	-0.5419921875	0.54931640625	0	0	0	-0.164481561178182	0.215002282474663	-0.70215329947162	-0.658559472336547	-0.0784904748563929	0.85409159064218	0.514166121162342	-0.995547234955401	-0.040146879852988	-0.0852873437898365	-0.0522010376283265	-0.518570904344217	0.853439669126146	-5.70682934994063	-30.9417336389653	95.2506973233228
46947	1656051402363	5.04274021142899	-0.906492515899044	8.36972329687038	0.070335412035849	0.00348726648787884	0.000480594090079833	0.0286783205158806	0.0134288200303455	-0.0165366218730044	0.3017578125	-0.5400390625	0.544921875	0	0	0	-0.164520608827698	0.214888129641764	-0.702145446385663	-0.658595348548642	-0.0783702722821139	0.854152398151398	0.514083437930697	-0.995566501825431	-0.0401505172183152	-0.0850604279919687	-0.0520138526308372	-0.518470458849218	0.853512122020056	-5.691265578021	-30.9362103614285	95.2423299459612
46948	1656051402363	5.05235139449344	-0.895900792248447	8.34998235465817	0.0634066381333248	0.0230654960529694	-0.0123534646587018	0.0343130770374742	0.0150994446391674	-0.0134150534829312	0.30712890625	-0.53857421875	0.551513671875	0	0	0	-0.164595001659162	0.214706944737751	-0.702150527357504	-0.658630435253169	-0.0782288703740825	0.854236035042743	0.513965991359787	-0.995594794744119	-0.0402137552792025	-0.0846986337833203	-0.0516841224982257	-0.518327744116401	0.853618826620401	-5.66651257541756	-30.9283654255117	95.2324143708155
46949	1656051402364	5.02985277862673	-0.90651786948467	8.39257721120855	0.0762061215299211	-0.0164445841102116	0.013322332104714	0.0358566235501513	0.0161436182979854	-0.0199534808335914	0.298095703125	-0.543701171875	0.5546875	0	0	0	-0.164651972418187	0.21455953869251	-0.702141425557677	-0.65867393363537	-0.078076754256219	0.854309206987126	0.51386749196835	-0.995619811974558	-0.0402257070107324	-0.0843983560220939	-0.0514316094299934	-0.518206205436132	0.853707864669716	-5.645968321222	-30.9217865775078	95.2218514278811
46950	1656051402365	5.03383301404074	-0.901131212530225	8.33928930974912	0.0770775621676998	0.0159490275061691	-0.0306087553406122	0.0312487442426906	0.0135073879456275	-0.0214033483839985	0.30322265625	-0.539306640625	0.5478515625	0	0	0	-0.16473055655967	0.214387791844069	-0.70211545007596	-0.658737894164589	-0.0778564610542875	0.854387665546777	0.513770462788228	-0.995652546627066	-0.040204522999653	-0.084021442057424	-0.0511309873476047	-0.518078481788134	0.853803436887532	-5.62029070210827	-30.915306368395	95.2067235571609
46951	1656051402366	5.04899557506559	-0.88429365166155	8.35324889817494	0.0610328865143982	0.0225021881272699	-0.0123370847630948	0.0388351370311956	0.0184017442305433	-0.0206197287970421	0.294677734375	-0.5400390625	0.5439453125	0	0	0	-0.164775646390711	0.214225714500729	-0.702113084544147	-0.658781865350799	-0.0777108804828899	0.854480373885654	0.513638306300072	-0.995677096207133	-0.0402275942631476	-0.0837189390062487	-0.05087375691952	-0.517923769780875	0.853912659206351	-5.59947302792315	-30.9064808462022	95.1964803082751
46952	1656051402368	5.03129411754746	-0.89251708324034	8.34174756035013	0.0757610586433004	0.0157382313187558	-0.0305981291725015	0.0427713806717508	0.0203490019862593	-0.0282950051667612	0.3037109375	-0.54052734375	0.54541015625	0	0	0	-0.164875525532023	0.213985242502403	-0.702082340268201	-0.658867789890546	-0.0774185930505726	0.854597021080022	0.513488357230446	-0.995720738334746	-0.0402071028718697	-0.0832081734492386	-0.0504635779565572	-0.517732865906543	0.854052754143454	-5.56461881552089	-30.896468105775	95.1763388329254
46953	1656051402366	5.05157757343603	-0.868776172477153	8.38969911603362	0.0518487451711113	0.00939331639049915	0.0187662365827972	0.0479601771398843	0.0243421431630845	-0.0263666933603355	0.304931640625	-0.539306640625	0.552490234375	0	0	0	-0.164936584317933	0.213771692211862	-0.702075849687903	-0.658928742769215	-0.077217670212229	0.854718368452379	0.513316609936887	-0.995753459401536	-0.0402291511229162	-0.0828049726151991	-0.0501246396183529	-0.517530797180257	0.85419517352482	-5.53690485272309	-30.8850010910336	95.1622484432476
46954	1656051402367	5.01864369817665	-0.857011620934012	8.37770102658197	0.0483779962595496	-0.0102923825978367	-0.00938797247444078	0.045325019113569	0.026844604133076	-0.0243201582815198	0.29833984375	-0.549072265625	0.548583984375	0	0	0	-0.165017706652102	0.21350425686043	-0.702066172171175	-0.659005446628987	-0.0769619556092196	0.854866897054398	0.513107635598409	-0.995794828364675	-0.040255507231609	-0.0822930977645874	-0.0496942369995814	-0.517283367660426	0.854370177587513	-5.50176789262659	-30.871050397102	95.1443558524629
46955	1656051402368	4.99866849224089	-0.801862792217468	8.44463863580222	-0.00535556911891643	-0.0620688108300139	0.0330075902011746	0.0395942487287824	0.0189300056393615	-0.0238620976149668	0.307861328125	-0.541748046875	0.546875	0	0	0	-0.165055159445334	0.213351910645987	-0.70205570395393	-0.65905655683707	-0.0768024984610819	0.854959162652125	0.512977783561152	-0.995818497170685	-0.0402508342275447	-0.0820084814924976	-0.0494661189386648	-0.517131221781439	0.854475513128365	-5.48218402466933	-30.8623827669595	95.1332032323739
46956	1656051402370	5.01573566139677	-0.848071556094109	8.38035184727454	0.0466549253747183	-0.0105915817911462	-0.00937993946818949	0.0332407503857064	0.0141601866485034	-0.0208739405729784	0.305908203125	-0.5439453125	0.548583984375	0	0	0	-0.165137206264229	0.213171644403059	-0.70203394198914	-0.659117514123946	-0.0765876113646303	0.855040593726088	0.512874176446817	-0.995850872971979	-0.0402439051951302	-0.0816178099166703	-0.0491464809158165	-0.516997109445678	0.854575106259483	-5.45559396459508	-30.8554675487655	95.1184324428978
46957	1656051402370	5.02194867575482	-0.806169148766997	8.42679759192879	0.00428715847445802	-0.030026330409607	0.0300700572032699	0.0359412616394847	0.0110144144329522	-0.0142350972272989	0.29541015625	-0.543212890625	0.548095703125	0	0	0	-0.165189163177096	0.213068702490243	-0.702042200719616	-0.659128983429445	-0.0765230471442347	0.855079442842597	0.512819041849809	-0.995866005496968	-0.0403014224447818	-0.0814045112044867	-0.048939987242289	-0.516928371998406	0.854628536775951	-5.44108393650241	-30.8517878139307	95.1139093173917
46958	1656051402371	5.00099841328786	-0.789056373036191	8.39302928573503	-0.00609819161278908	-0.0301360858050728	-0.0109227529617915	0.0273285759533711	0.00707579231032968	-0.0166822871605719	0.302490234375	-0.53564453125	0.54345703125	0	0	0	-0.165272202742807	0.212936331450422	-0.7020218499554	-0.659172617706602	-0.076353118132732	0.855122247959098	0.512772993045449	-0.995892074130232	-0.0402991576285233	-0.081086093622858	-0.048674202982612	-0.516857735687307	0.854686435497953	-5.41956289076724	-30.8487145816253	95.1023591824137
46959	1656051402372	5.03593955772397	-0.819437620212799	8.42873276202627	0.0212520254169504	-0.0170894835313776	0.0399750732462483	0.0230930669666067	-0.00219172013036182	-0.00752663236170957	0.3017578125	-0.541015625	0.555908203125	0	0	0	-0.165319613781734	0.212896224702905	-0.702031170681547	-0.659163756738647	-0.076345134202505	0.85511516434121	0.512785994540908	-0.995898850915104	-0.0403566786188886	-0.0809741763578244	-0.0485479065416606	-0.516864967089624	0.854689245612617	-5.41210941808022	-30.8495822731337	95.1018705052122
46960	1656051402373	5.02499680005005	-0.828639931519252	8.36168410972192	0.0368807179768208	0.00854178871618428	-0.0222039986813964	0.0224491065153321	-0.000971111806541291	-0.0108268477645545	0.29248046875	-0.54443359375	0.55078125	0	0	0	-0.165408419309641	0.212812508552424	-0.702018277829924	-0.659182242341083	-0.076237652407335	0.855114003790757	0.512803920496284	-0.995917926386661	-0.0403792151716115	-0.0807279560240314	-0.0483249858469882	-0.516865126994524	0.854701782050221	-5.39567127106699	-30.8507786252496	95.0947325890921
46961	1656051402374	4.9874985224691	-0.853476275402623	8.39053290772355	0.0639036280937426	-0.0370796538672789	-0.0147719346805459	0.0210315658887575	-0.000267216798648834	-0.0108582589647885	0.307373046875	-0.53515625	0.548828125	0	0	0	-0.165424045066252	0.21277205533964	-0.702020285450856	-0.659189241869103	-0.076208857435913	0.855133211343475	0.512776170376227	-0.995923667628849	-0.0403951917411663	-0.0806490963427127	-0.0482520290248444	-0.516832099759284	0.854725875560928	-5.39028047929648	-30.8489266290411	95.0927046387293
46962	1656051402375	5.01566388497786	-0.922261598203527	8.3805955456556	0.133205187155694	-0.00508358975652161	-0.00330092263706128	0.022632403695069	-0.00180530816228725	-0.0145562401881526	0.296142578125	-0.537109375	0.552001953125	0	0	0	-0.165520061859235	0.212687253884813	-0.701994818725942	-0.659219626254395	-0.0760651869662617	0.855129509226704	0.512803675670801	-0.995945538905444	-0.0403872327919059	-0.0803825538394768	-0.0480267723892793	-0.516838847105274	0.854734482314104	-5.37251641731602	-30.8507622858534	95.083176006647
46963	1656051402376	5.01563865341682	-0.919023604918544	8.38096638627725	0.132014808852055	-0.00506966285936855	-0.0032848230942939	0.0343489547263663	0.0061323550665179	-0.0193478232239186	0.298095703125	-0.539306640625	0.547119140625	0	0	0	-0.165589599389887	0.212569757504929	-0.701983336682927	-0.659252286903654	-0.075933013572399	0.85516955817766	0.512756476522763	-0.995966922128247	-0.0404010408131975	-0.0801102111318945	-0.0477919185239537	-0.516771499472867	0.854788365536385	-5.35408429722652	-30.8476123161683	95.0741530650625
46964	1656051402377	5.03053730388103	-0.810771684872821	8.39645772113194	0.0262895195531423	-0.0039762604874598	0.00889347598409706	0.0387983941493199	0.00511858312698702	-0.0171456771396917	0.29638671875	-0.548095703125	0.55419921875	0	0	0	-0.165717487053169	0.212403165689993	-0.701972149710533	-0.659285758014251	-0.0757600075287143	0.855202643933037	0.512726885455788	-0.995998319374171	-0.0404543689688875	-0.0796918555133232	-0.0474106429304266	-0.516712571785585	0.854845219379304	-5.32593294879327	-30.8456375247128	95.062457401642
46965	1656051402379	4.98539646918216	-0.872325203902237	8.38038954206263	0.0935801830312787	-0.0306179317718662	-0.0230825573200608	0.0294506590955323	0.00946036252059456	-0.0227435787532871	0.299560546875	-0.544921875	0.54345703125	0	0	0	-0.165721643283014	0.212308042596131	-0.701956546458327	-0.659331964097658	-0.075635396133403	0.855276701572693	0.51262174222196	-0.996012852377618	-0.0404133123362467	-0.079530887613653	-0.0473041726525868	-0.516593193850777	0.854923263993154	-5.31475444423217	-30.8386210074905	95.0537383765952
46966	1656051402380	5.04403273434533	-0.822658027243715	8.39888238112517	0.0424091112440648	0.00924278205271778	0.0188116298180176	0.0328298553280263	0.013909241971157	-0.0192193757332378	0.299560546875	-0.538330078125	0.557373046875	0	0	0	-0.165800745322552	0.212131858702055	-0.701939637327633	-0.659386785523071	-0.0754383598560755	0.855356201618478	0.512518118913892	-0.996042682736315	-0.0404182832023253	-0.0791538789347812	-0.0469896587524385	-0.516461160917049	0.855020374748195	-5.28910622420221	-30.8317064212809	95.0401748134444
46967	1656051402381	4.9744527929815	-0.839813880188595	8.41478759644954	0.0655929724186047	-0.0562186583671332	-0.00189462374824423	0.0288190872089907	0.0126113134886411	-0.0202101380126874	0.302978515625	-0.549072265625	0.54541015625	0	0	0	-0.165798324953842	0.212032835511303	-0.701931680923019	-0.659427712053507	-0.0753320160367557	0.855437026811901	0.512398849061016	-0.996055782663852	-0.0403943384818287	-0.079001109109414	-0.0468824613447296	-0.516329149455878	0.855105984215074	-5.27843026687658	-30.8237483874008	95.032633202507
46968	1656051402382	4.99385012203242	-0.854264991356154	8.36208292618503	0.0846848004566544	-0.010900461027027	-0.0359063547135125	0.0365859290605531	0.00338292364597953	-0.0197191653791763	0.298095703125	-0.538330078125	0.552978515625	0	0	0	-0.165927013434943	0.211877946774911	-0.70190841278232	-0.659469894649038	-0.0751353685282945	0.855462384219483	0.512385387751873	-0.996087483903838	-0.0404143874440706	-0.0785900865099655	-0.046523121200546	-0.516285566787452	0.855151923766017	-5.25084134523146	-30.8228502508533	95.0194151380249
46969	1656051402382	5.00995735555464	-0.837133229216898	8.37537590885197	0.0676629828045471	-0.00406013711207866	-0.0176483078471978	0.0347085657673653	0.00446311457737652	-0.0267823648421466	0.308349609375	-0.537109375	0.552490234375	0	0	0	-0.165969516864251	0.211793479356497	-0.701880012427534	-0.659516557584903	-0.0749840594864135	0.85550045638012	0.512343985966796	-0.996105502155305	-0.0403628647468577	-0.0783879309929366	-0.0463812397297069	-0.516226508698298	0.855195283147832	-5.23714586715049	-30.8200879825452	95.0091366315599
46970	1656051402383	4.98693131121368	-0.878918835170231	8.40570522772837	0.114372597763619	-0.0370639270273761	-0.000276581676388332	0.045095977653692	0.00603933275267372	-0.0317483627690441	0.29736328125	-0.5400390625	0.54931640625	0	0	0	-0.166129310711569	0.211590433953517	-0.701828261655317	-0.659596567246781	-0.0746668411975239	0.855544278477526	0.512317138489385	-0.996149770260964	-0.0403237134712506	-0.0778436467601328	-0.0459401571026002	-0.516156939017831	0.855261080763723	-5.20058409169445	-30.8182967994406	94.9877985274181
46971	1656051402384	5.01245681095907	-0.885815218671814	8.38644396701586	0.12381599111919	-0.00454283057173982	-0.0031776523070075	0.0429306446477182	-0.000209264491900283	-0.0373191009385392	0.302978515625	-0.5400390625	0.54443359375	0	0	0	-0.166244738143454	0.211470713522599	-0.701765893832261	-0.659672232715357	-0.0743904648478999	0.855559161266485	0.512332490003028	-0.99618273484478	-0.0402253654131565	-0.0774717934125215	-0.0456729409704231	-0.51613994376561	0.855285648723714	-5.17572867254878	-30.8193210022605	94.9693429967463
46972	1656051402384	5.03002718821426	-0.833740564668818	8.41175035527986	0.0760768518717137	-0.00394789103150593	0.0233704055672206	0.0694821172678741	0.0102477532594848	-0.0390404504790806	0.290771484375	-0.541015625	0.554443359375	0	0	0	-0.16647792524423	0.211162318237805	-0.701719148326928	-0.659761936333208	-0.0739985755444658	0.855627438864543	0.512275215757597	-0.99624289738451	-0.0402493254445843	-0.0766816875934087	-0.0449922240871371	-0.516024880856881	0.855391151525625	-5.12259716973822	-30.8154999074194	94.9429020206408
46973	1656051402385	5.00316457712945	-0.723849782531912	8.43394723846496	-0.0284731893602321	-0.0416486886857233	0.0201419938986866	0.0391894007681063	-0.00104098788586866	-0.0275355681227806	0.296630859375	-0.545654296875	0.552001953125	0	0	0	-0.16654156836318	0.211066561928327	-0.701693137352228	-0.659804178098074	-0.0738447051429139	0.855657415030357	0.512247350042852	-0.996262840040628	-0.040218706000161	-0.0764382707932075	-0.0448030476255713	-0.515977561325336	0.855429624885777	-5.10619375863123	-30.8136408800361	94.9325027091594
46974	1656051402386	5.02866845276094	-0.855223754578512	8.40104560261094	0.106660030600565	0.0026690737813212	0.0150843046527402	0.0393271264386194	0.00262383263890826	-0.028276904851507	0.303955078125	-0.533935546875	0.545654296875	0	0	0	-0.166690066950848	0.210898320327562	-0.701643866866279	-0.659872869689208	-0.0735644348561031	0.855682193587322	0.512246285981549	-0.996300814128213	-0.0401793886622859	-0.0759625203253824	-0.0444180334071797	-0.515939531635553	0.85547264012587	-5.0743255215617	-30.8135698931891	94.9137321215476
46975	1656051402387	5.01115511200099	-0.772229513482068	8.39041793795506	0.0282403845958712	-0.00963531367885933	-0.00930861150065709	0.0393239337856533	0.00262571635286926	-0.0282711726661466	0.3037109375	-0.541015625	0.542724609375	0	0	0	-0.166756594792371	0.210799079883858	-0.70161402157093	-0.659919503233871	-0.0733969746896287	0.855713279660418	0.512218378349724	-0.996321826647607	-0.0401399943433598	-0.075707321968825	-0.0442233179667276	-0.515891038754237	0.855511972026744	-5.05713542415327	-30.8117081067912	94.9024239766136
46976	1656051402387	4.99118860209585	-0.749581298707547	8.44412499916021	0.0090234536739346	-0.054957441634402	0.024689308053313	0.0355897044197336	0.0017975727997189	-0.0185053247013627	0.296142578125	-0.53369140625	0.558349609375	0	0	0	-0.166884975421735	0.21065528357087	-0.70159233664351	-0.659956020993266	-0.0732149106664466	0.85572977005887	0.512216885206939	-0.996350577343603	-0.0401648037168248	-0.0753147765678023	-0.0438760057796205	-0.51586175393935	0.855547512964327	-5.03084097859076	-30.8116084965997	94.8902285898226
46977	1656051402388	5.00077533075852	-0.771605799049883	8.41173681798491	0.0332178645298839	-0.0288946059398353	0.00354952898096172	0.0242797346386747	-0.00589811099280671	-0.0153449401096886	0.301513671875	-0.5341796875	0.5576171875	0	0	0	-0.166924422266907	0.210627772510625	-0.701581305696305	-0.659966552330904	-0.0731607741106403	0.855722552521006	0.512236677951186	-0.996358229479812	-0.0401601825033467	-0.0752159443811799	-0.0437924614447137	-0.515874086234454	0.855544357396144	-5.0242914822789	-30.8129289139038	94.8866711900986
46978	1656051402389	5.03250343701182	-0.775106244087724	8.42536030690649	0.0365509306901917	-0.00921360957956668	0.0317097890203506	0.0247247222262409	-0.0082059462968428	-0.0141329707399004	0.298583984375	-0.532470703125	0.55126953125	0	0	0	-0.167047161312574	0.21055895796046	-0.701554309005029	-0.659986153367245	-0.0730270465218373	0.855685707124433	0.512317305094467	-0.996378811989346	-0.0401664051722261	-0.0749394616623322	-0.0435466817908897	-0.515934715364745	0.855520342240033	-5.00605674832913	-30.8183079147286	94.8779911998824
46979	1656051402389	5.01294034498714	-0.759394040902869	8.39052295412718	0.0250050289756946	-0.00871479995598014	-0.00929896384288575	0.0183457965649409	-0.008478269853792	-0.0081729317699866	0.310791015625	-0.543212890625	0.55078125	0	0	0	-0.16708113091197	0.210535694057676	-0.701556739550744	-0.659982392501315	-0.0730142745628347	0.855677107167258	0.512333489028324	-0.99638327460923	-0.0401959262317859	-0.0748642611220972	-0.0434659152561144	-0.515946679206526	0.855517234441661	-5.00107681488895	-30.8193876543419	94.8771909672932
46980	1656051402390	5.01651591610943	-0.816385875098465	8.40036180499342	0.0829507082943022	-0.00921149496587596	0.00520601077578853	0.016343024295743	-0.00913247718721439	-0.0086697021646652	0.289794921875	-0.53515625	0.550537109375	0	0	0	-0.167173749158992	0.210503542283333	-0.701538287678894	-0.659988808389097	-0.0729354207865316	0.855633504299535	0.512417535526243	-0.996396169798549	-0.0402060629746168	-0.0746869822048202	-0.0433023926068012	-0.516018196210345	0.85548239255659	-4.98949626554209	-30.8249951595113	94.872196155178
46981	1656051402391	5.0024583602275	-0.79535133809372	8.39901966995121	0.0625633408678992	-0.0218567387819667	-0.0047154672614429	0.0173888198620663	-0.00814019015422585	-0.00117942641114407	0.30224609375	-0.537353515625	0.548828125	0	0	0	-0.167171968011286	0.210533415773993	-0.701567725794457	-0.659948437438382	-0.0730431860677434	0.855606477896349	0.512447312365747	-0.996387619684656	-0.0402874815303463	-0.0747571412715036	-0.0433174827087004	-0.516056657561693	0.855458427907538	-4.99429877719661	-30.8269819214642	94.8795136907022
46982	1656051402392	5.04752229615345	-0.851686277540638	8.40198217661512	0.116999172482734	0.0169121275225729	0.0251060974870185	0.0211309577914929	-0.00536839165003737	-0.00511947301495441	0.3017578125	-0.539306640625	0.552001953125	0	0	0	-0.167262979786008	0.210475451858786	-0.701569274049314	-0.659942219794933	-0.0729987242504838	0.855580865612634	0.512496408431647	-0.996399870611462	-0.0403527013939526	-0.0745584155925534	-0.0431101392164679	-0.516094024270526	0.855446359515891	-4.98115931451972	-30.8302577852138	94.8767031081197
46983	1656051402392	5.02887150426196	-0.8036144498533	8.37910090467988	0.0716168488641288	0.0106885753505104	-0.00761556257606877	0.0254576934097236	-0.00124233370987073	-0.00859954906204187	0.30615234375	-0.53857421875	0.549560546875	0	0	0	-0.167281574416097	0.21045439654975	-0.701584853892521	-0.659927658628098	-0.0730247204770175	0.855580214321191	0.512493792217388	-0.996400785511718	-0.0404088647010347	-0.0745157586367169	-0.0430449164348757	-0.516090709580863	0.855451643667505	-4.9782931830358	-30.8300832192944	94.878435110119
46984	1656051402393	5.00614936768723	-0.847888985707313	8.40927444619888	0.11824850922289	-0.0223118140967366	0.00983080228656519	0.0212211923466763	0.00280373652252146	-0.00289466307438064	0.29931640625	-0.540771484375	0.55517578125	0	0	0	-0.167341583963638	0.2103715072487	-0.701600627594725	-0.659922103413076	-0.0729992234068044	0.85559572134886	0.512471535786651	-0.996411326324122	-0.0404932927295433	-0.074328742871953	-0.0428436944603151	-0.516058383182993	0.855481246428902	-4.96569049839059	-30.8285981801015	94.8766520270209
46985	1656051402394	5.03423293947034	-0.793322773302684	8.41314291526561	0.0611842297980127	-0.00204430042904897	0.023474897286567	0.0210205812256046	0.00170321831806311	-0.00498586561403513	0.301025390625	-0.541748046875	0.55419921875	0	0	0	-0.167319876264796	0.210367565901963	-0.701629384836753	-0.659898289554395	-0.073076612899835	0.855610711716065	0.512435477542116	-0.996405412103437	-0.0405594693193346	-0.0743719313956155	-0.0428493101235929	-0.516028332017984	0.855499092446433	-4.96845823382541	-30.826192276751	94.8817118794112
46986	1656051402395	5.0177188581913	-0.804370731869963	8.40080243451307	0.0758666937329283	-0.00881529811587396	0.00526367098758484	0.02174293500612	0.00672016784964122	-0.00527780372140453	0.30126953125	-0.544921875	0.557373046875	0	0	0	-0.167370062532098	0.210268404021964	-0.701641098460941	-0.659904712355186	-0.0730260655588413	0.855647262653528	0.512381650395992	-0.99641780637225	-0.04062593776295	-0.074169321994973	-0.0426467922980016	-0.515962493883427	0.855548920876115	-4.95470312842567	-30.8226008965136	94.8781440996295
46987	1656051402396	4.99179040907386	-0.789753175084656	8.42101747812119	0.0615173125151959	-0.040803746189603	0.00819686928913477	0.0259925939211082	0.00462313790948214	-0.00516041067281573	0.299560546875	-0.5341796875	0.55712890625	0	0	0	-0.167318207246066	0.210242295771646	-0.701688766324952	-0.659875495685359	-0.0731378954359299	0.855699716959433	0.512278091125074	-0.996409173022669	-0.0407250145253399	-0.0742309444112979	-0.0426568654202969	-0.51586768418603	0.855605589185261	-4.95847235564499	-30.8156917361232	94.8852801738078
46988	1656051402397	5.01583013832602	-0.83220461837069	8.38991750396355	0.105639691276164	-0.00214805223572945	-0.00296425566176595	0.022035907592943	-0.00119795574508758	-0.00912631242788017	0.295166015625	-0.530029296875	0.55029296875	0	0	0	-0.167400512228586	0.210165380699124	-0.701681718373289	-0.659886617050163	-0.0730534422873981	0.855697166003091	0.512294402335455	-0.996424335530088	-0.040760330787368	-0.0740076955291045	-0.0424468860269642	-0.515869126357048	0.855615162522399	-4.94357876977972	-30.8167799376204	94.8796808164274
46989	1656051402397	5.03062841808152	-0.848962529973515	8.39127811508309	0.122585793262115	0.0116700809122322	0.00700427643900525	0.0295939777471717	0.0037329026076427	-0.00834513834698468	0.30078125	-0.542724609375	0.552978515625	0	0	0	-0.16741966356352	0.210051023083776	-0.701707561950926	-0.659890689019495	-0.0730298695953073	0.855767229860255	0.512180716587609	-0.996433916323691	-0.0408456924936703	-0.0738314282981409	-0.0422621408204009	-0.515746136875515	0.855698447907474	-4.93138493081408	-30.8091956556956	94.8777163963608
46990	1656051402398	4.96982424408896	-0.800899103265656	8.37567966900679	0.0827734488727904	-0.0338627231788601	-0.0410650162053443	0.0309949599962806	0.00108330825541026	-0.0141193573444585	0.297607421875	-0.525634765625	0.55322265625	0	0	0	-0.16752856173235	0.209930493423653	-0.701695667444826	-0.659914054422204	-0.0728952435598766	0.855778958493966	0.512180298005819	-0.996456373002074	-0.0408852574138995	-0.0735057305912326	-0.0419640342424074	-0.515723540208494	0.855726737869584	-4.90957582031022	-30.8091677320852	94.8687014849983
46991	1656051402398	5.04675109655663	-0.829789120190644	8.40463615602411	0.105927167952795	0.0189853958743388	0.0252277610216218	0.0233877276437207	0.000663788947725251	-0.0119268164465511	0.2998046875	-0.53369140625	0.556396484375	0	0	0	-0.167535178555188	0.209875605363688	-0.701702080558088	-0.659923013964627	-0.0728671591726481	0.855815609776318	0.512123050816204	-0.996461797852253	-0.0409076918261361	-0.0734196579296939	-0.0418839173808198	-0.51566093783866	0.855768388439413	-4.90361741924492	-30.8053488458846	94.8666273026063
46992	1656051402399	5.00620877693522	-0.795075175542509	8.42367128697337	0.076358547713623	-0.0264268619981444	0.0181813064946752	0.033329844090722	0.00650594830013071	-0.0122798878657257	0.29833984375	-0.539794921875	0.5537109375	0	0	0	-0.167630564979392	0.209730461330573	-0.701703410451168	-0.659943521095521	-0.0727490852974704	0.855854767463294	0.512074396546764	-0.996483710368224	-0.040975365108221	-0.0730837493908562	-0.0415666399791813	-0.515590570573783	0.85582625454951	-4.8809626571061	-30.8021033016109	94.8585579688322
46993	1656051402401	4.9897218413497	-0.805209445437352	8.41143117479312	0.0888572369415517	-0.0325115808500609	3.78447815663208E-06	0.0229383111604212	0.00297063689165638	-0.0131362123171468	0.2939453125	-0.534423828125	0.557373046875	0	0	0	-0.167604615814801	0.209681502973171	-0.701715919092564	-0.659952368705927	-0.072743127594018	0.855910990429012	0.511981263183205	-0.996485341426165	-0.040993076700696	-0.0730515707250085	-0.0415379550606487	-0.515495823577108	0.85588472013697	-4.87849228753747	-30.795891029058	94.8578443920845
46994	1656051402399	5.01508016129827	-0.814805089426798	8.39207341270293	0.100015080585088	7.3788719264084E-06	-0.00290506242123811	0.0267397563446485	0.00318197731854454	-0.0142284259860431	0.30029296875	-0.53466796875	0.55224609375	0	0	0	-0.167691482077681	0.209568803875643	-0.701701405986017	-0.659981530133966	-0.0726078934412399	0.855934128601306	0.511961777191958	-0.99650574187792	-0.0410105926483233	-0.0727628867965713	-0.0412843822088077	-0.515456010524813	0.855920966561447	-4.85910124586391	-30.7945913062302	94.8487259925917
46995	1656051402400	4.98939374168932	-0.799463415940955	8.41217387148663	0.086688825202969	-0.0315451299730798	2.63350349296587E-05	0.0283545296704413	0.00358804535506818	-0.0120952623358436	0.30029296875	-0.541748046875	0.548095703125	0	0	0	-0.167680525459381	0.209481316101288	-0.701724320224131	-0.659987725637469	-0.072598886779093	0.856007001942873	0.511841200240084	-0.99651075057402	-0.0410675604247056	-0.0726620910184003	-0.0411791892688476	-0.515330445544931	0.856001639172276	-4.85194714741891	-30.7865491696367	94.8477166358771
46996	1656051402401	5.0160291346796	-0.776286203861993	8.40445288044335	0.0648780190410642	-0.00517079132931179	0.00534503030769251	0.0287379573329213	0.00384060197876827	-0.0137252808896482	0.298095703125	-0.54052734375	0.550537109375	0	0	0	-0.167770611509319	0.209359626312063	-0.70171452338462	-0.660013860805481	-0.0724694509168635	0.856033838461249	0.511814659904451	-0.996531408588198	-0.0411005008302321	-0.0723595227231784	-0.0409063611316185	-0.515283238851027	0.856043137568525	-4.83160614405471	-30.784779095743	94.8389637823236
46997	1656051402402	5.00659607532063	-0.747671604088467	8.43718198414813	0.035185192921291	-0.0309106011065283	0.0264621274669157	0.0275689220884198	0.00112988968960732	-0.0146386170150268	0.2861328125	-0.53369140625	0.5576171875	0	0	0	-0.167744610711771	0.209368707089823	-0.701729042359684	-0.660002152403803	-0.0725178087990063	0.856044412191284	0.511790124722107	-0.996526301255321	-0.041123806627765	-0.0724165964046398	-0.0409450645790316	-0.515263812900267	0.856052980137385	-4.83534368641392	-30.783142781974	94.842117884016
46998	1656051402403	4.99980440980908	-0.783584540532802	8.39233578809814	0.0759299321312371	-0.0119267567283625	-0.0128179387727751	0.021765444713834	0.00026106147522621	-0.0140422776887989	0.302734375	-0.544189453125	0.554443359375	0	0	0	-0.167823473438701	0.209284247948186	-0.70170805795597	-0.660031201325659	-0.0723881900791546	0.856052806091807	0.511794434435749	-0.99654404379849	-0.0411178336747398	-0.0721754288082136	-0.0407420999313641	-0.515250343945776	0.856070770647464	-4.81921692405312	-30.7834302057323	94.833456927487
46999	1656051402404	5.02961213380979	-0.819329785050728	8.39483226541432	0.109163509100065	0.0154219479447502	0.00715748572187102	0.0346634342691529	-0.000398912324642588	-0.00861702007997547	0.299560546875	-0.541748046875	0.548583984375	0	0	0	-0.167789063344143	0.209205011778618	-0.70176451096796	-0.660005048779707	-0.0724803316147845	0.856131614640082	0.511649547974762	-0.996540866533021	-0.0412531972640109	-0.0721420476914314	-0.0406559080408621	-0.515108563440042	0.856160186537607	-4.81649781570415	-30.773767897445	94.8391367617293
47000	1656051402404	4.99066728835747	-0.752514283362742	8.42509222236208	0.0465682265974199	-0.0361157908613724	0.00829748982356193	0.0168082897258844	-0.000704247905163645	-0.00804984310418294	0.300537109375	-0.541259765625	0.55224609375	0	0	0	-0.167847436574754	0.209146111192847	-0.701758112935665	-0.660015676432893	-0.0724130897962308	0.85613343393641	0.511656024808087	-0.996551988469601	-0.0412744220714819	-0.0719760818602227	-0.0405028234009351	-0.515103839413876	0.856170284416387	-4.80541279697833	-30.7741998091482	94.834658437848
47001	1656051402405	5.00445358440849	-0.802505104313922	8.41473551618785	0.0939886237228031	-0.017157276638599	0.010103248676284	0.0186732014789705	-0.00370617127066494	-0.00679130152219422	0.298828125	-0.54248046875	0.54931640625	0	0	0	-0.167801924295354	0.209215857987219	-0.701787503126092	-0.659973892987817	-0.0725539495545646	0.856109213849935	0.511676595483202	-0.99653650810337	-0.0413263706823558	-0.0721603707263633	-0.0406314215992421	-0.51513992763857	0.856142477938896	-4.81781456049118	-30.7755715904124	94.8441546195755
47002	1656051402406	4.98995781354427	-0.780997727644821	8.41357380769035	0.0756207539176983	-0.0300455339847473	0.00012257782261571	0.0255061543589129	-0.00378327773258664	-0.0057098274054271	0.299072265625	-0.533935546875	0.55712890625	0	0	0	-0.167896290045466	0.209139860141179	-0.701795454751447	-0.659965525144539	-0.0725126828193233	0.856093998441515	0.511707901700534	-0.996549224914841	-0.0414120490416419	-0.0719352800495137	-0.0403924888063801	-0.515158332968217	0.856142709378194	-4.80285541379782	-30.777659322307	94.8414981322773
47003	1656051402406	4.99035495114171	-0.7788257374256	8.41353958800466	0.0727003267611513	-0.0296066395728452	0.000145983013004169	0.0197041730573308	-0.00465378033086699	-0.0051150538932579	0.30810546875	-0.53515625	0.548828125	0	0	0	-0.167864186050325	0.209163957688781	-0.701828893650677	-0.659930494736146	-0.0726267143179354	0.856094302997043	0.511691220115598	-0.99653885303101	-0.0414843618425428	-0.0720372273352862	-0.0404434761985136	-0.515152008729972	0.856144107691255	-4.8096223342008	-30.776546864258	94.8490737501233
47004	1656051402407	4.9949953467398	-0.803450527268666	8.4354333886509	0.0974497512858583	-0.0362026336641856	0.0230251417335499	0.0128703865730402	-0.00457681619397883	-0.0061948385776893	0.294189453125	-0.53955078125	0.555419921875	0	0	0	-0.167919347194754	0.209135073382851	-0.701821627406721	-0.659933343015049	-0.0725821512293381	0.856075335553609	0.511729275281079	-0.99654663554551	-0.0415010077162618	-0.0719198827964757	-0.0403315571958921	-0.515182187401031	0.856131227837674	-4.80189629905189	-30.7790846979795	94.846219437424
47005	1656051402408	5.0316640335106	-0.807185542258169	8.39477910755765	0.0991556465410374	0.0158191824473946	0.00726300715935757	0.0221521454029415	-0.00629784221478779	-0.0033975095711125	0.302490234375	-0.53466796875	0.5576171875	0	0	0	-0.167922506202974	0.209168822925455	-0.701854036291201	-0.659887374608911	-0.0727013694845414	0.856040928803399	0.511769908346012	-0.996537540664073	-0.0415941126954766	-0.0719920817609617	-0.0403415532952462	-0.515231848785078	0.856100870852984	-4.80686389885733	-30.7817945213075	94.8543356569849
47006	1656051402408	4.9915864335075	-0.773277358688322	8.4133208428988	0.0694664141475565	-0.0295716226974046	0.000169514774142954	0.0226049907729444	0.000167438558110765	-0.00863903524694677	0.302001953125	-0.54443359375	0.55419921875	0	0	0	-0.16799517234296	0.20908885368103	-0.701852855760103	-0.659895478236667	-0.0726311597445197	0.856047215788894	0.511769361113234	-0.996550887825441	-0.0416396181383074	-0.0717807089378563	-0.0401377952619643	-0.515217727316693	0.856118946671624	-4.79271579323451	-30.7817580257895	94.8496346121743
47007	1656051402409	5.02159869312868	-0.809870885588684	8.41568031595027	0.102717828902397	-0.00352950578479324	0.0201889092105389	0.0203502913919419	-0.00584938764915828	-0.00180416521532204	0.29931640625	-0.541015625	0.554931640625	0	0	0	-0.167972168890213	0.209129340620795	-0.701897166346208	-0.659841372789698	-0.0727894264666495	0.856025761752851	0.511782761149795	-0.996537397443472	-0.0417485632930368	-0.0719046101412118	-0.0401860036735252	-0.515244556185137	0.856100538739658	-4.80105264717072	-30.7826516920226	94.8602728537221
47008	1656051402410	5.00298874148098	-0.7624804957194	8.39238200655624	0.0593277971413209	-0.00978460110026371	-0.0127009952497303	0.0193172576384313	-0.00490200914082762	-0.00347749109359698	0.3017578125	-0.53759765625	0.55224609375	0	0	0	-0.168045862901753	0.209082565709188	-0.701905385011445	-0.659828689259571	-0.0727733775832025	0.856003700008046	0.511821942757114	-0.996545540697298	-0.0418211630929181	-0.0717493946586621	-0.0400127583585729	-0.515275320474491	0.856090137356136	-4.79079517281215	-30.7852648130854	94.8593310107361
47009	1656051402412	5.00343136081134	-0.760872154878494	8.39226409740605	0.0561283374887824	-0.00958908730670345	-0.012681955187265	0.0155164561611571	-0.00511409940796807	-0.00238517969731759	0.29443359375	-0.534423828125	0.553955078125	0	0	0	-0.167997293225078	0.209143140554046	-0.701944526544757	-0.659780219377707	-0.0729339431739043	0.855987264410017	0.511826575219538	-0.996529190448704	-0.0418984177541911	-0.071931183594781	-0.0401274534048262	-0.515296347510392	0.856072112456476	-4.80297738539179	-30.785573768482	94.8700940823435
47010	1656051402412	5.0081281304081	-0.785643339643799	8.41414053879787	0.0807996290691888	-0.0161902940951915	0.0102222328726214	0.0169325637460186	-0.00581086317755071	-0.00234210298666902	0.302734375	-0.54248046875	0.551513671875	0	0	0	-0.168064333919076	0.209109483830924	-0.701953389256567	-0.659764384267233	-0.0729306738336339	0.8559599990619	0.511872637303582	-0.996535383526724	-0.0419683620488884	-0.0718044982308133	-0.0399793220730111	-0.51533594537242	0.856055206872604	-4.79465208202414	-30.7886458667139	94.8700312019077
47011	1656051402413	5.00858065654008	-0.784145265647589	8.41401092299079	0.0776394858511709	-0.015724902842661	0.0102484747235874	0.017131447890285	-0.00470339934780485	-0.000253173283193341	0.3046875	-0.53857421875	0.55126953125	0	0	0	-0.168009438927095	0.209153853952392	-0.70200291571006	-0.659711603765493	-0.0731068565771284	0.85595929543831	0.511848680836596	-0.996518582046234	-0.0420705304680455	-0.0719776778084823	-0.0400762168620692	-0.515328783417819	0.856054987616529	-4.80616304417076	-30.7870480843824	94.881743217792
47012	1656051402414	5.00267096230772	-0.815950332041929	8.4567208530874	0.109112855738616	-0.041889408620472	0.0460630041444148	0.0129323573409783	-0.00713028739164515	-0.00333723553482929	0.29638671875	-0.537841796875	0.5537109375	0	0	0	-0.168067988488952	0.209138457176857	-0.702003516247716	-0.659700932355566	-0.0730956621889478	0.855925788744214	0.511906308157804	-0.996523707997803	-0.0421115711577607	-0.0718826472309795	-0.0399690326061043	-0.515381082052124	0.856028513949923	-4.79999498378054	-30.7908915973221	94.8811894710838
47013	1656051402414	5.03654538179061	-0.761258741704635	8.40536586945612	0.0525752859994105	0.0107200671004636	0.0155169672459294	0.018996500192703	-0.00770256196287333	0.00100975634062666	0.29833984375	-0.534423828125	0.55810546875	0	0	0	-0.168046535579943	0.209197701890499	-0.702051783523929	-0.659636245709848	-0.0732807704507921	0.855887707447287	0.511943513410186	-0.996507503663223	-0.0422326897391023	-0.0720360677736638	-0.0400340333345202	-0.515434411111664	0.855993366806626	-4.81038826769733	-30.7933731211798	94.8937073704704
47014	1656051402415	5.00905967239564	-0.812778683863528	8.40186144433731	0.106910769898349	-0.00942867465159565	0.00215063047716235	0.00874806227675006	-0.00759176205752748	-0.000612218278471935	0.30126953125	-0.535400390625	0.55615234375	0	0	0	-0.168089341317117	0.209201654063178	-0.702056692173806	-0.659618861348569	-0.0732978621775915	0.855850535319795	0.512003207600318	-0.996508808255518	-0.0422752513808971	-0.0719930426489118	-0.0399702197812429	-0.515492642346622	0.855961282545617	-4.80770798528507	-30.7973547508395	94.895054779787
47015	1656051402416	5.03660349646352	-0.791522430577484	8.39330834949728	0.0832815791019817	0.0177471294933978	0.00740716705135469	0.0167964811031524	-0.00946979586339208	-0.00157500414088836	0.2998046875	-0.535400390625	0.551025390625	0	0	0	-0.168082555560367	0.209207309369618	-0.702087863202618	-0.659585618829128	-0.0733901319001852	0.855845917044331	0.511997709778299	-0.996502313847345	-0.0423582262802426	-0.0720341527560367	-0.0399628206782465	-0.515493498450699	0.855961112445243	-4.81044139754595	-30.7969880367127	94.9012131545012
47016	1656051402417	5.01033046317272	-0.810426723302242	8.40133089984652	0.104628634454058	-0.00855223464971724	0.00217602672497641	0.0108810925030939	-0.00327169367106934	-0.000877582870492936	0.302978515625	-0.5361328125	0.551513671875	0	0	0	-0.168117204176679	0.209189102474552	-0.70209803915898	-0.659571731106499	-0.0734034743699869	0.855831464084633	0.512019955698183	-0.996504612293635	-0.0424101018621363	-0.0719718065464257	-0.039880918092837	-0.515513228096814	0.855953050131417	-4.80634248870566	-30.798471886219	94.9021822444077
47017	1656051402417	5.01067446608657	-0.809408782526099	8.40122387268407	0.102082211111252	-0.00887139170162412	0.00220255851276008	0.0133299431552132	-0.00491401677883179	0.000840776422738174	0.293212890625	-0.53759765625	0.55712890625	0	0	0	-0.168097510543349	0.209256493290589	-0.702131184356724	-0.659520088335965	-0.0735529600608998	0.855788250286406	0.512070730210203	-0.996490232635122	-0.0424899461940941	-0.0721236489317013	-0.0399647135493297	-0.515578388942122	0.855909893929709	-4.81667671660773	-30.8018587384575	94.9123635368067
47018	1656051402418	4.99749964371026	-0.756493881644258	8.41133607452629	0.0506077648489031	-0.0279259976870342	0.000289716359420211	0.0145622178038669	-0.00475117213796142	0.00460402540210008	0.299560546875	-0.538330078125	0.55712890625	0	0	0	-0.168143344575774	0.209235697553693	-0.702161934797018	-0.659482263496297	-0.0736219196173455	0.855763504219108	0.512102175155007	-0.9964898641844	-0.0426071340060398	-0.0720595775004707	-0.0398467505527373	-0.515609791391149	0.855896477088184	-4.81249298499074	-30.8039562952073	94.9170880395815
47019	1656051402419	5.00087411792757	-0.81462173083319	8.42175261373768	0.105569590522715	-0.026887202783337	0.0151506350963864	0.00514745662323388	-0.00669519048384695	0.00256961489753126	0.29443359375	-0.529296875	0.56005859375	0	0	0	-0.168024472451213	0.209286349510842	-0.7022166613954	-0.659438216230009	-0.0738180312657518	0.85580654825955	0.512002002160268	-0.996467462130748	-0.0426809257676202	-0.072325206465836	-0.040043665850611	-0.515532240050701	0.855934001131834	-4.82993846452936	-30.7972743458078	94.9298748000137
47020	1656051402419	5.04434816325682	-0.780449564761615	8.42591935984581	0.0686048763934107	0.00628750661077624	0.0385014317108308	0.0167448437526429	-0.00495050560867825	0.00138275270476182	0.2958984375	-0.533447265625	0.546875	0	0	0	-0.168080500819218	0.209255742363049	-0.702239634211389	-0.659409186829472	-0.0738569391385114	0.855782912358158	0.512035896648741	-0.996470152260872	-0.0427831172259683	-0.0722276992131381	-0.0399047389953214	-0.515563004681503	0.8559219590649	-4.82352513220149	-30.7995351951382	94.9325959713471
47021	1656051402420	5.00302744963452	-0.780376493338052	8.43283916774946	0.0705552315086908	-0.0316942460040349	0.0232703938510959	0.00896292284950744	-0.0045141369204089	0.00728606338112397	0.306640625	-0.536376953125	0.558349609375	0	0	0	-0.168014680950723	0.209254310111083	-0.702294139104341	-0.659368366593859	-0.0740088482407462	0.855825486437586	0.511942796751696	-0.996456671041095	-0.0428919816705625	-0.0723490196621381	-0.0399598938909816	-0.515483282631204	0.855967401369923	-4.83133356733931	-30.793325320734	94.9424464749134
47022	1656051402421	5.0020839586248	-0.812441932005737	8.42124466931799	0.103159313419208	-0.0254713686701888	0.0151800019157928	0.00914602175412989	-0.00537433932001771	0.00356668238370064	0.294677734375	-0.53857421875	0.551513671875	0	0	0	-0.168044245367736	0.209253246675323	-0.702316556333346	-0.65933729232821	-0.0740709330881866	0.855799385363594	0.511977449584197	-0.996454601076808	-0.0429748274022826	-0.07232836374897	-0.0398964267109813	-0.515519714677371	0.855948420709249	-4.83006732780556	-30.7956366592097	94.9467221689006
47023	1656051402421	4.99834048295051	-0.785632178685542	8.39894413763378	0.0754620739418813	-0.0186377988706991	-0.00774747544031662	0.0112112896820149	-0.00726439952384634	0.00691836201202781	0.296630859375	-0.537353515625	0.5576171875	0	0	0	-0.167994835300592	0.209328288666082	-0.70237704919908	-0.65926162002262	-0.074303703354955	0.85576831988696	0.511995646803357	-0.996432605399813	-0.0431115678585597	-0.0725496768629491	-0.0400127800068976	-0.515559865965754	0.855918805752913	-4.84494314630231	-30.7968504331186	94.9623691390127
47024	1656051402421	5.02294153735592	-0.829976115744918	8.36766717848972	0.119349138374188	0.020084480584944	-0.018709191864879	0.0101124365615066	-0.00376898419027291	0.00238937391336468	0.305908203125	-0.540283203125	0.551025390625	0	0	0	-0.168022665106721	0.209318063565425	-0.70239804654281	-0.659235402939269	-0.0743541350438697	0.855750960682327	0.512017339445797	-0.996431676263291	-0.0431892635534418	-0.0725162192398383	-0.0399421724622853	-0.515582176578075	0.85590866455131	-4.84277654563598	-30.79829737551	94.9658206095936
47025	1656051402421	4.98275855761942	-0.7973142084682	8.38612138708485	0.0868231300330632	-0.0254073211311192	-0.0258369578762512	0.0146949575406485	-0.00109128620887041	0.00383972975205477	0.30419921875	-0.54052734375	0.564453125	0	0	0	-0.167962621513954	0.209379327761333	-0.702459265210676	-0.659166015204098	-0.0745774443482224	0.855738747820995	0.512005273676203	-0.996410350947486	-0.0433209230123267	-0.072730393605888	-0.0400576749099987	-0.515591401312236	0.855897709760745	-4.85707307841413	-30.7974925619944	94.9807303778775
47026	1656051402421	5.01389355652068	-0.8021991990173	8.39999474045511	0.0896080802309569	-0.00562610979173715	0.0023267678953296	0.0168771140696871	-0.00129201990622231	0.000618448513673852	0.30126953125	-0.533935546875	0.55615234375	0	0	0	-0.168005310511581	0.209336484052771	-0.702483614975889	-0.65914279391854	-0.0746099857303369	0.85573474330503	0.512007225661898	-0.996413307323783	-0.04341802733937	-0.0726319205999558	-0.0399233142086113	-0.515589879654976	0.855904904168663	-4.85048768481544	-30.7976227633003	94.9829159483063
47027	1656051402422	5.01388720884712	-0.800900367648441	8.40012246419029	0.0876345774456707	-0.0051372791673403	0.00234485498215697	0.0172773943227692	0.000926896370799578	0.00479307029359432	0.2998046875	-0.530029296875	0.552490234375	0	0	0	-0.167969153766708	0.209323720502978	-0.702547225082667	-0.659088264154605	-0.0747780468731302	0.855761405740372	0.511938140941952	-0.996401118525108	-0.0435724801769202	-0.0727066019914594	-0.0399130894288145	-0.515532593941929	0.855939886835374	-4.85525371256127	-30.7930147831911	94.9939285991087
47028	1656051402423	5.01941337102636	-0.793350001287142	8.43373039632983	0.0791184641249565	-0.0178521163210809	0.0333851885851999	0.0150771988714707	-0.000842748768133576	0.00220907959990302	0.297607421875	-0.545166015625	0.556396484375	0	0	0	-0.16800266240178	0.209286894671716	-0.702575373454877	-0.659061412737329	-0.0748263193331797	0.855759125345957	0.511934899496188	-0.996402147388554	-0.043674099918693	-0.0726314923140849	-0.0397967663828102	-0.515527780418685	0.855948202289167	-4.85021502973665	-30.7927985828091	94.9971493262785
47029	1656051402424	4.99921317222035	-0.77948272319236	8.39899770581577	0.0661120356655218	-0.0175223948752859	-0.00767791602712187	0.0134091678512483	-0.00549154943698457	0.00950830554880947	0.293701171875	-0.5380859375	0.550537109375	0	0	0	-0.167933553306998	0.209348108259077	-0.702653466686196	-0.658976325064795	-0.0750970493555663	0.855750855145725	0.511909080887853	-0.996377141937905	-0.0438471451448867	-0.0728698763982381	-0.0399127072714803	-0.515526819651512	0.855943382484063	-4.86608489407375	-30.7910765312535	95.0151857508534
47030	1656051402425	4.98777206778867	-0.818060304737279	8.40826446885073	0.105479097517397	-0.0308569669300866	-0.00279816210377426	0.0148069128013562	-0.00816043954954434	0.00374647432693373	0.295654296875	-0.538818359375	0.54638671875	0	0	0	-0.167989485368305	0.209338135973768	-0.702680528410563	-0.658936379801095	-0.0751647603606391	0.855710315634766	0.511966907637767	-0.99637673855554	-0.0439607844033117	-0.0728068973385788	-0.0397951462536892	-0.515584430671539	0.85591415526544	-4.86206468875485	-30.7949335071601	95.0199211773426
47031	1656051402425	5.01522633863368	-0.797150896058296	8.39967969124627	0.0795496968769049	-0.00401454851955309	0.00241423504554739	0.0095924841513721	-0.00767411810659687	0.00479458298933044	0.299072265625	-0.54052734375	0.55419921875	0	0	0	-0.16787575919956	0.20945706775414	-0.702748279252999	-0.658855312073871	-0.0754548144504271	0.855693345135342	0.511952605294027	-0.996344402211101	-0.0440748290397597	-0.0731795164490729	-0.0400550016709001	-0.515602859317329	0.855890932482019	-4.8869600484154	-30.7939795433258	95.0392924781115
47032	1656051402426	4.98900517457348	-0.816623410500162	8.40767255270915	0.100780392317528	-0.0302845568598093	-0.00274698171215171	0.00997539457681072	-0.00742679690589296	0.00316220268690626	0.2939453125	-0.5439453125	0.555419921875	0	0	0	-0.167912216681265	0.209462364972496	-0.702769465550638	-0.658821738741964	-0.0755188081003999	0.855657022429999	0.512003876537398	-0.996342182485327	-0.0441588684422897	-0.0731590714694509	-0.0399895614313366	-0.515655945669324	0.855862010298626	-4.88576563336713	-30.7973993701816	95.0437572904396
47033	1656051402427	5.01651472417985	-0.79567436121531	8.39905031008244	0.0746753897169449	-0.00296487229585521	0.00245290326885339	0.0142220617143807	-0.00951733378674066	0.00329420790922649	0.301025390625	-0.534423828125	0.5439453125	0	0	0	-0.167801891147372	0.209556393295204	-0.70284909272686	-0.658734996952114	-0.0758214582357278	0.855654671716532	0.511963074098788	-0.996310508104363	-0.0443086436392085	-0.0734990852982478	-0.0402054462956607	-0.515646998312341	0.855857286712942	-4.90838897884583	-30.7946778098499	95.063879667009
47034	1656051402429	5.00533103573108	-0.834443965443169	8.40816486064262	0.113961771289032	-0.016282669984576	0.00737472277827677	0.00662552491467018	-0.00993803918911142	0.00547784086982726	0.303955078125	-0.5419921875	0.556640625	0	0	0	-0.167832219974041	0.209584467530346	-0.702872897008877	-0.658692938749881	-0.0759119167592612	0.85560477528145	0.512033054996955	-0.99630488111223	-0.0443959268221336	-0.0735226873389996	-0.0401741803386147	-0.515722280105469	0.855813393817213	-4.9102080480481	-30.7993456476321	95.0701837636369
47035	1656051402427	5.02357180221491	-0.787942714165016	8.43176113638983	0.0628316431141678	-0.016784309774163	0.033504468976032	0.0164217554308217	-0.00774643564594937	0.00587894451837439	0.30517578125	-0.537841796875	0.550537109375	0	0	0	-0.167834109875376	0.209703045826607	-0.702928160868711	-0.658595736997375	-0.076166733542448	0.855500332258149	0.512169708405008	-0.996281628396004	-0.0445525755598562	-0.073742694089583	-0.0402684196620657	-0.515882011236271	0.855712688266769	-4.92540576184355	-30.8084613020285	95.0877317089435
47036	1656051402427	5.00677928935163	-0.833161017108202	8.40742979255205	0.11023773262178	-0.0173401015551849	0.00741542375237536	0.00300882341891878	-0.0110114570932224	0.00285169988548841	0.302734375	-0.5390625	0.54736328125	0	0	0	-0.167858681326521	0.209746573791367	-0.702938237385445	-0.658564858087302	-0.0762315815915478	0.855445274517018	0.512252016369439	-0.996276407674517	-0.0445974049504698	-0.0737861164640363	-0.0402748740433996	-0.515969431050124	0.855659675772209	-4.92859556861782	-30.8139521858504	95.0923666281694
47037	1656051402429	5.03297433580757	-0.845057349345598	8.38738785995361	0.118272881134887	0.0135219886842222	0.0045961859407786	0.0153886553026829	-0.006802521485883	0.00420243964837451	0.2998046875	-0.536865234375	0.549560546875	0	0	0	-0.167870557159133	0.209885436860597	-0.70298325965486	-0.658469525549927	-0.0764747199222723	0.855318936458201	0.512426711002483	-0.996253277359707	-0.0447319746317801	-0.0740166048639419	-0.0403859451152642	-0.516167189369446	0.855535158865837	-4.94463099945661	-30.8256073586873	95.109273351919
47038	1656051402430	5.00806975470673	-0.831739613538579	8.40680191093546	0.10641489443974	-0.0189377600356356	0.0074546426271862	0.00959103360177872	-0.00767266762178517	0.00479779419956344	0.294189453125	-0.53271484375	0.5498046875	0	0	0	-0.167902779258254	0.209898165553987	-0.703008858627446	-0.658429921484254	-0.0765573904231857	0.855279164462162	0.512480747744243	-0.996249105893056	-0.0448255971826199	-0.0740161120602053	-0.0403321829173589	-0.516224967116206	0.855502833628851	-4.94478414693862	-30.8292128364324	95.1150038684863
47039	1656051402431	5.00289437900958	-0.837183435215672	8.3731874670976	0.111851699877092	-0.00587137884042623	-0.0235325874608705	0.0162890570875395	-0.00265119484007288	0.000166375834476187	0.294189453125	-0.53271484375	0.55908203125	0	0	0	-0.167857368495139	0.209931852083052	-0.703050012597253	-0.658386817235787	-0.0767014054640362	0.855280503795027	0.512456977928848	-0.996234936810914	-0.044910832742221	-0.0741550253169306	-0.0404084777886508	-0.516215339689287	0.855505042645734	-4.95400563607381	-30.8276268332991	95.1245667306867
47040	1656051402431	5.00876705931698	-0.829485290160782	8.40660922079691	0.103104015361495	-0.0186098974000756	0.00749058920293066	0.0153218614041213	-0.00425470611540208	0.00134711085588443	0.3056640625	-0.5390625	0.550537109375	0	0	0	-0.167899346157044	0.209910888870779	-0.703073326777108	-0.658357900740993	-0.0767493681839012	0.85525995698263	0.512484088011952	-0.996235560953221	-0.0450045865307861	-0.074089771786763	-0.0403018805466149	-0.51624121607371	0.855494456587034	-4.94972891413694	-30.8294357125832	95.1278766655512
47041	1656051402432	5.00904316154211	-0.827950612791053	8.40659600758541	0.100938261511538	-0.0182823134155612	0.00751370437009058	0.0204683925574219	-0.00219481567526552	-0.0025572962576325	0.29541015625	-0.53955078125	0.552001953125	0	0	0	-0.167889129999921	0.209904488400022	-0.70310899181093	-0.658324457552666	-0.0768442972317146	0.855266327387549	0.512459230788146	-0.996229055149781	-0.0450980286750252	-0.0741204255586833	-0.0402818030671122	-0.516222507303431	0.855506691554789	-4.95169616091649	-30.8277771506293	95.1341472718387
47042	1656051402433	5.01971449811031	-0.819251179098758	8.38584891345396	0.0935733324944132	0.00132154321424982	-0.00542423111392054	0.0206034200697274	0.00146342805121165	-0.00332812898803083	0.297607421875	-0.53466796875	0.554931640625	0	0	0	-0.167933042841576	0.209842383108286	-0.703127339429842	-0.658313460229788	-0.0768437624045045	0.855277443779443	0.512440757884872	-0.996235323429452	-0.0451791246634364	-0.0739866680291827	-0.0401275034226511	-0.516196998109004	0.855529334746809	-4.9426744787532	-30.8265445916967	95.1340453562199
47043	1656051402434	5.01049729501219	-0.791630106472555	8.41822466232631	0.0642409988656176	-0.0234714853410737	0.0155164281505122	0.0178179324128922	-0.0016660622540805	-0.00636268467636883	0.292724609375	-0.541015625	0.5537109375	0	0	0	-0.167862955069195	0.209849389708176	-0.703163886007625	-0.658290066284765	-0.0769524338924754	0.855319724906261	0.512353872927982	-0.996223479609787	-0.045234844539813	-0.0741119930485447	-0.0402132017152676	-0.516122056325573	0.855570523909087	-4.95076806020169	-30.8207476193343	95.1410141883815
47044	1656051402435	5.04524708034381	-0.828001379437986	8.36651729828171	0.101183804280144	0.0348036787092247	-0.00823601132438867	0.0199521252292773	0.0026528440303148	-0.0066371604804701	0.296142578125	-0.547607421875	0.557373046875	0	0	0	-0.167903115697354	0.20978318143612	-0.703172092196122	-0.658292161036564	-0.0769199489138632	0.855338852736719	0.512326818015729	-0.99623185187283	-0.0452848950087009	-0.0739687474416241	-0.0400676774111068	-0.516085966950357	0.855599121051322	-4.94108217061952	-30.8189425845324	95.1387412602467
47045	1656051402436	5.008883242252	-0.820440534121598	8.40742755098011	0.0914756650900835	-0.0156195369508631	0.00761100374830725	0.0199718428148666	0.00463150708194321	-0.00083202523159483	0.30322265625	-0.54296875	0.551513671875	0	0	0	-0.167715974382036	0.209809191464812	-0.703271684667903	-0.658225183853015	-0.077221918557497	0.855445561916644	0.512103178950704	-0.996198973839957	-0.0454394210370921	-0.0743159709351315	-0.0403035955532101	-0.515895483225945	0.855702910227932	-4.96356182576586	-30.8040232548462	95.1581660660126
47046	1656051402436	5.01926054281776	-0.811819746877693	8.38684329399596	0.084061986859304	0.00400440145081465	-0.00533882222624982	0.020601193827362	0.0014652499627831	-0.00332390392531073	0.302001953125	-0.538330078125	0.554931640625	0	0	0	-0.167757081918766	0.209748086112469	-0.703291373090173	-0.658213146613767	-0.0772260301818089	0.855457801607451	0.512082112489105	-0.996204709064546	-0.0455223879939209	-0.0741882054571591	-0.0401536785361075	-0.515867872483136	0.855726603676514	-4.95493438077492	-30.8026179959424	95.1583658195321
47047	1656051402437	5.01909918412171	-0.809927527617816	8.38712280354355	0.0805298723124209	0.00310953493566891	-0.00530885885626198	0.0185353882816851	0.0033495630500182	-0.00667902028834848	0.292236328125	-0.54052734375	0.546142578125	0	0	0	-0.167721647539032	0.209814075679534	-0.703328407721728	-0.658161570957432	-0.0773855909232752	0.855426734550542	0.512109921924631	-0.996188184349944	-0.0456028003231756	-0.0743605134748687	-0.0402563247082625	-0.515912285586301	0.855695005187072	-4.96656759733167	-30.8044730558516	95.1691528206944
47048	1656051402438	5.02327245701727	-0.834181230531779	8.40950695913329	0.104676926311574	-0.00344556761763871	0.0177735821525982	0.0210488681055682	-0.00083334005804744	-0.00209562920004356	0.302490234375	-0.529296875	0.553466796875	0	0	0	-0.167770592686949	0.209761218819286	-0.703350416128047	-0.658142424891011	-0.0774031535760985	0.855425968829133	0.512108546764467	-0.996193024845326	-0.045697559276054	-0.0742373916953608	-0.0401024820428088	-0.515905170480923	0.855706518617835	-4.95831889372391	-30.8043813233929	95.1703242049305
47049	1656051402439	5.00993784849257	-0.78057254107482	8.41959007354414	0.0507838538536765	-0.0225860199091369	0.0155972507480779	0.0177004987552892	-0.00334254975550129	0.0002219175564203	0.298828125	-0.538818359375	0.555419921875	0	0	0	-0.167740500017096	0.209805669935599	-0.70339086754999	-0.65809269329188	-0.0775542633797064	0.855406964962932	0.51211742845224	-0.996178596888609	-0.0457911757974267	-0.0743731895250601	-0.040168885131062	-0.51592837924657	0.855689411033778	-4.96744231232695	-30.8049737934193	95.1804775320492
47050	1656051402439	4.98346649668448	-0.799422012764554	8.427863687767	0.0718343155251701	-0.0488703873039946	0.0105173921525026	0.0129372724923626	-0.00515521188214937	0.00249390962651475	0.302001953125	-0.54345703125	0.55517578125	0	0	0	-0.167772536141606	0.20980010507607	-0.703415921322783	-0.658059521362851	-0.0776200849206187	0.855381697586583	0.512149659621884	-0.996176480432133	-0.045883164507532	-0.0743448387490467	-0.0400941672910529	-0.515962098073754	0.855672584053367	-4.96565537192809	-30.807123866122	95.1850026542631
47051	1656051402440	4.99584883086582	-0.759300553194466	8.41804901165508	0.0284242450841793	-0.0354788246991059	0.00548585467212703	0.00875810389892086	-0.00560978779002086	0.00521764074762491	0.29443359375	-0.537109375	0.54736328125	0	0	0	-0.167689716756846	0.209910720462422	-0.703482482685526	-0.657974197733896	-0.0779002280208889	0.855346905812579	0.512165232313889	-0.996146382846855	-0.046014889102765	-0.0746660158438045	-0.0402981192541357	-0.516008043249044	0.855635296657911	-4.98721577624232	-30.8081627044873	95.2038240925916
47052	1656051402441	4.97627623120999	-0.870214400163913	8.37130190428539	0.141825936334071	-0.0237078374956031	-0.0362556482781624	0.0022435062737547	-0.0114961555072572	0.00613437332071519	0.3037109375	-0.54296875	0.55126953125	0	0	0	-0.167704367580075	0.20996748866908	-0.703503053890737	-0.657930354948739	-0.0780057862631872	0.85528709810846	0.512249038182282	-0.996136957706959	-0.0460826034780525	-0.0747499508161081	-0.0403268992086914	-0.516101127169759	0.855577797593134	-4.9931276214905	-30.8137535011882	95.2111990836868
47053	1656051402442	4.99608157932018	-0.791154680447765	8.40590550992546	0.0565724875511289	-0.0298624157510137	-0.0023911434121171	0.0170461961945758	-0.0109021373859006	0.00340606694872128	0.30078125	-0.5322265625	0.5546875	0	0	0	-0.16766847903598	0.210106403675435	-0.703564678946226	-0.657829250498661	-0.0782959166522624	0.855194408577094	0.512359515354264	-0.996107293137014	-0.0462319526458898	-0.0750524290999299	-0.0404970368648595	-0.516241348685886	0.855485160544673	-5.01376982299673	-30.8211240719129	95.231037776992
47054	1656051402443	5.02266300843199	-0.803093175913986	8.38564640857974	0.0671294435700314	0.00268266811950765	-0.0052078552885142	0.00455531654110422	-0.0167900053592695	0.00863621733376505	0.29541015625	-0.54296875	0.555908203125	0	0	0	-0.167705820383801	0.210175971918871	-0.703591412927129	-0.657768912531263	-0.0784296310336715	0.855105649503591	0.512487191218437	-0.996096584686059	-0.0463322370707945	-0.0751326678934301	-0.0405016907386709	-0.516379368289494	0.855401637274709	-5.01959026737655	-30.8296427715155	95.2404625672755
47055	1656051402444	5.00753855005489	-0.81614003031351	8.37248885883355	0.0795681765976602	-0.00338061136155255	-0.023215775010387	0.00842021249468447	-0.0103798991558374	0.00390947908193755	0.303466796875	-0.531982421875	0.5478515625	0	0	0	-0.167650152381082	0.210243635638301	-0.70363696681546	-0.657712748098232	-0.0786147347913437	0.855087251111574	0.512489528146808	-0.996076761319229	-0.0464231093253221	-0.075339103262281	-0.0406301493165128	-0.516401673028875	0.855382080160379	-5.03342588767583	-30.8297987014578	95.2528739993625
47056	1656051402445	5.0289627018866	-0.828554316732626	8.40666185412341	0.0885906995595185	-0.0031618472641743	0.017931804462572	0.00686942130314585	-0.0133400865415637	0.0046407114171658	0.29296875	-0.5458984375	0.54833984375	0	0	0	-0.167686645896404	0.210290500030655	-0.703656148416662	-0.657667939906075	-0.0787081392154277	0.855018361834821	0.512590118658703	-0.996069996290894	-0.0465015728331137	-0.0753801446874744	-0.0406151610892141	-0.516508668513264	0.855318188769742	-5.0365280396593	-30.8365107744615	95.2595014655355
47057	1656051402445	5.04201382018816	-0.788746752486629	8.39639247707992	0.0448193771134365	0.00968764485275391	0.0128573382731929	0.00990097374381136	-0.0136194226031443	0.00681684498510501	0.298095703125	-0.5390625	0.5537109375	0	0	0	-0.167637216754337	0.210457893665536	-0.703714463006373	-0.657564592346925	-0.0790131409009638	0.854914276914701	0.512716786045063	-0.996036579066983	-0.046632563770977	-0.0757399310581122	-0.0408418501724185	-0.516669123447067	0.855210477105451	-5.06107669860521	-30.8449635390568	95.2804067562503
47058	1656051402445	4.99515781656862	-0.822444087854238	8.44593631369104	0.079259343127764	-0.0557206294224602	0.0337571261594487	-0.00207141099104336	-0.0156039777194095	0.00964110099853476	0.300537109375	-0.529296875	0.551025390625	0	0	0	-0.167646144610452	0.210549163637397	-0.703738749182041	-0.657507104743774	-0.0791583548174223	0.854830943871848	0.512833318205599	-0.996021966010907	-0.0467069138061043	-0.0758861477904652	-0.0409169657521945	-0.516800272447562	0.855127639777688	-5.07128492326112	-30.852740617792	95.2905690922229
47059	1656051402446	5.01788887170033	-0.809335437602831	8.40313272338296	0.0641572627815832	-0.0166153646716785	0.00782583919505342	0.0044837157932775	-0.0229879476938551	0.0122794189075554	0.299072265625	-0.539306640625	0.556640625	0	0	0	-0.167669828676078	0.210674852909734	-0.70377607350703	-0.657420849427689	-0.0793693105790197	0.854706495116285	0.513008108848435	-0.996001761091217	-0.0468278661784746	-0.0760765591517221	-0.0410000541634483	-0.516995123918212	0.855005869806393	-5.08466330465989	-30.8644069113012	95.3053560134282
47060	1656051402446	5.046490687169	-0.789629173246789	8.39361955051268	0.0416210627801297	0.00975505501402693	0.0128713401873242	0.00430401517364061	-0.0221177719988729	0.0159992543163637	0.299072265625	-0.5400390625	0.54248046875	0	0	0	-0.167715907738994	0.210770592191349	-0.703822429597853	-0.657328775692627	-0.0795805098754346	0.85458630951702	0.513175585968435	-0.995984634293249	-0.0469892762274799	-0.0762011559712866	-0.041006715300163	-0.517179125164288	0.854894263517187	-5.09360850020216	-30.8755864002007	95.3201363321375
47061	1656051402447	4.99961639066579	-0.83059949504085	8.35488829228835	0.0829809195042954	-0.0110128815035348	-0.0411363032201759	-0.0127007029050659	-0.0244804340833132	0.0161583293376428	0.295166015625	-0.541015625	0.546630859375	0	0	0	-0.167626456306074	0.211048475597698	-0.703876913206019	-0.657204080289922	-0.0799683359930907	0.85442694261526	0.513380623876316	-0.995936174908224	-0.0470826755963309	-0.076774716983302	-0.041427053330784	-0.517433881178871	0.854719824188312	-5.13278553991166	-30.8892749355081	95.3469048668543
47062	1656051402447	5.0072646080918	-0.825488167238612	8.38699418185004	0.073873567944651	-0.0237630288538943	-0.0101479758896268	-0.0012486373396286	-0.0263988704663251	0.0157426789725291	0.304931640625	-0.54541015625	0.555419921875	0	0	0	-0.167668882401392	0.211178695105731	-0.703912927512414	-0.657112848062349	-0.0801797015713123	0.854284265580452	0.513585055309832	-0.995916648761901	-0.047212527289658	-0.0769480733078325	-0.0414878798542366	-0.517657580692673	0.854581409215417	-5.1451419302959	-30.9029249300066	95.3618452586615
47063	1656051402448	5.0170214514124	-0.884701371035972	8.34228034208798	0.128983424789533	0.00773472186899193	-0.0387349847042007	-0.000935059215438343	-0.0236113607997147	0.0112483951735721	0.310302734375	-0.538330078125	0.55224609375	0	0	0	-0.167600835748292	0.21142463263775	-0.703976517662296	-0.656982988478799	-0.0805666254118815	0.854131302529621	0.513778879391509	-0.995871083041071	-0.047345955126919	-0.0774541573817915	-0.0418306685620148	-0.517897749147621	0.854419169140933	-5.17977590961226	-30.915868463862	95.3885272314855
47064	1656051402449	5.00813964494684	-0.892075783774345	8.36213393447212	0.134870851827343	-0.0117998702460949	-0.0257462583702424	0.000820390441404248	-0.0195381133575356	0.0126009448663742	0.30126953125	-0.537109375	0.5498046875	0	0	0	-0.167628359360719	0.211523609522761	-0.704010123990968	-0.656908091798783	-0.0807449841346318	0.854025183055147	0.51392726551986	-0.995854605576578	-0.0474590430874899	-0.0775966737762509	-0.0418790172880903	-0.518062376492293	0.854316991504993	-5.1898720137366	-30.9257788437208	95.4010529991455
47065	1656051402449	5.04197344424024	-0.865665101543435	8.38631264966347	0.103001058492612	-7.5661770156478E-05	0.0102705816403947	0.00789600825885237	-0.0142822257800737	0.00632112823832473	0.302978515625	-0.54345703125	0.54638671875	0	0	0	-0.167699634724109	0.211671154893518	-0.704035172568514	-0.65681552241544	-0.0809404040550649	0.853848108624319	0.514190682908661	-0.995836810053413	-0.0475773834003529	-0.0777524297460802	-0.0419249178180011	-0.518343322506858	0.854144309398889	-5.20127789255719	-30.9433744362978	95.4151632225595
47066	1656051402450	5.02514846472784	-0.911125969098673	8.36210032857835	0.150267430173974	-0.000671319367343298	-0.0155240618467829	0.0108239700211243	-0.00749438838709358	0.00857239021958602	0.3076171875	-0.536865234375	0.548828125	0	0	0	-0.167722367503213	0.211692892054998	-0.704075494653136	-0.656759487728536	-0.0810723654353352	0.853805256303086	0.514241048412065	-0.995827788459352	-0.0477061894638827	-0.0777890430522966	-0.0418842129551862	-0.518402067700406	0.854110653785016	-5.20391763282894	-30.946739089069	95.4242098409805
47067	1656051402451	5.00183362315932	-0.865479064257494	8.39270417551421	0.102787750504785	-0.0415521937621022	-0.00490550291962677	0.00965216055487178	-0.0102092307864609	0.00767295393353474	0.291748046875	-0.5390625	0.549560546875	0	0	0	-0.167748694321627	0.211880065118202	-0.704120207761974	-0.656644459795505	-0.0813568579465176	0.8536280583612	0.514490232797044	-0.995798475466639	-0.0478497828507519	-0.0780755694148458	-0.0420292508068686	-0.51868057247175	0.853934427117791	-5.22405170806138	-30.9633875228402	95.4442530235847
47068	1656051402452	5.04431602598756	-0.864383487824933	8.38503602224765	0.0981813599445029	-0.00230131373021118	0.0103196679688686	0.0106851421002159	-0.0111499684819053	0.00935261004229193	0.294677734375	-0.54541015625	0.547119140625	0	0	0	-0.167783057877671	0.211916496458877	-0.704159155514307	-0.656582156110864	-0.0814974355320532	0.853564677564392	0.514573133010358	-0.995788668726764	-0.047982541610807	-0.0781191585716756	-0.0419892276313611	-0.518772606172457	0.853880488035626	-5.22728047065955	-30.9689268708856	95.4540060641712
47069	1656051402453	5.01413249948355	-0.857692364953402	8.3708315066624	0.0902882912614412	-0.0207208253846048	-0.0178213825882239	0.0138937324356985	-0.0123008348860741	0.0078082662409246	0.296875	-0.5419921875	0.552978515625	0	0	0	-0.167640807657191	0.21203454168612	-0.704244347093081	-0.656489003965369	-0.0818374945612059	0.85356605630379	0.514516872424939	-0.995748623581723	-0.04812708160903	-0.078539561056207	-0.0422765078861594	-0.518756948427483	0.853875825480004	-5.25528280858052	-30.9651675335296	95.4766167678623
47070	1656051402453	5.00617553568241	-0.831227968916621	8.40237842615445	0.0630369223677055	-0.0464714068913792	0.00294115458369504	0.00975437344441475	-0.0172765776692264	0.00760054316125248	0.293212890625	-0.549072265625	0.546630859375	0	0	0	-0.167693924427191	0.212093664405495	-0.704272097313923	-0.656426567236811	-0.0819658190718068	0.853472192620294	0.514652135843032	-0.995739468341499	-0.0482408786894901	-0.0785858053992862	-0.0422435283904699	-0.518900794032128	0.853790050458513	-5.25888510804992	-30.9742060971335	95.4857515615158
47071	1656051402454	5.04766352390378	-0.862722731578586	8.3831923863043	0.0869467313154923	-4.62866922227995E-05	0.0104258028818105	0.0109260384435179	-0.0145612281223365	0.00850059065723229	0.296875	-0.544677734375	0.547119140625	0	0	0	-0.167546546235522	0.212255139800992	-0.704362404385998	-0.656315102492839	-0.082357282168726	0.853442136064609	0.514639483972284	-0.995692598442185	-0.0483964837357522	-0.0790824238972508	-0.0425855313601961	-0.518935738556801	0.853751820945219	-5.29216585761611	-30.9733606383441	95.5119830922519
47072	1656051402454	5.0296947268528	-0.81707606378186	8.35910606915306	0.0433206971958883	-0.00639167406188399	-0.0229897701724369	0.00533643546228828	-0.0143124457369342	0.0111876280260568	0.299560546875	-0.531982421875	0.547607421875	0	0	0	-0.167569316253371	0.212324089466739	-0.704400291328695	-0.656246321786681	-0.08252257878366	0.853362195507723	0.514745555851757	-0.995678205491967	-0.0485184923471448	-0.0791888060817744	-0.0426020551052581	-0.519055795824109	0.853678010564996	-5.29969998307217	-30.98044910277	95.5234918564611
47073	1656051402455	4.99341127064279	-0.843683261449677	8.38789960224843	0.0687991106008443	-0.052543663043105	-0.0149670658377197	0.0121641694661141	-0.0143872223170269	0.0122654612531189	0.2998046875	-0.53857421875	0.55419921875	0	0	0	-0.16754758216428	0.212449215112149	-0.704463619079798	-0.656143389894411	-0.0828073192175496	0.853267589511128	0.514856648567222	-0.995648998810086	-0.0486823657922051	-0.0794550088373688	-0.0427319441691487	-0.5191959629569	0.853586277418271	-5.31798178945179	-30.987873659098	95.5430426375489
47074	1656051402456	5.03489698892643	-0.875667485078686	8.3686469486395	0.0971520953921177	-0.00709903654790463	-0.00749772612303801	0.00281517364964763	-0.0188697001346059	0.0131124675488854	0.3017578125	-0.544189453125	0.549560546875	0	0	0	-0.167575605944312	0.212544322446912	-0.704501290734423	-0.656064980502321	-0.0829943153017713	0.85316276389095	0.515000234890767	-0.995631738387208	-0.0488073047081435	-0.0795945257112076	-0.0427713121572841	-0.519356472297286	0.85348665457596	-5.3278843222688	-30.9974706867058	95.5561600712207
47075	1656051402456	5.0257118925463	-0.882446728222537	8.38878040430559	0.101019966712681	-0.0268585628954006	0.00552033209453917	0.00995638171333511	-0.0161613407381706	0.00968940094004587	0.29248046875	-0.535400390625	0.553466796875	0	0	0	-0.167562691359834	0.21267050933656	-0.704560142593274	-0.655964179198623	-0.083267480145053	0.853061145429922	0.515124459629014	-0.995603717099125	-0.0489645001336112	-0.0798480821627707	-0.0428924847578244	-0.519508575371433	0.853387997845555	-5.34537301078238	-31.0057744032937	95.5749922894047
47076	1656051402456	5.02712972702354	-0.882196783845002	8.38795711467664	0.100062564074132	-0.0268738153378558	0.00553009443132701	0.00678185444775412	-0.0195354274800327	0.00829950729084901	0.29443359375	-0.541259765625	0.552978515625	0	0	0	-0.167610891333843	0.212750318292329	-0.70458561616428	-0.655898620723652	-0.0834071768781717	0.852954926686679	0.515277726945513	-0.995592008608824	-0.0490686027986479	-0.0799301233180354	-0.0428928343603125	-0.519673133094554	0.853287782345574	-5.35145812286514	-31.0160204477004	95.5849773253894
47077	1656051402456	5.02875754142653	-0.881783754430608	8.38702474590234	0.0976474888213201	-0.0247615244001568	0.00555996505837442	0.0156765420109523	-0.0214919835717545	0.0127352633839391	0.305419921875	-0.539794921875	0.550537109375	0	0	0	-0.167561377765027	0.212784352922773	-0.704654932705158	-0.655825761652446	-0.0836315100689484	0.852952837201868	0.515244823392599	-0.995570594572187	-0.0492307790084501	-0.08009695138645	-0.0429530179006036	-0.51966122417158	0.853292007665445	-5.36253609983111	-31.0138207256527	95.5999170429878
47078	1656051402457	5.03020256378508	-0.881217022789655	8.3862177195408	0.0966813033860929	-0.0247584556233989	0.00556953446096919	0.00930090890376954	-0.0149772336322466	0.00637800239641641	0.2958984375	-0.539306640625	0.54931640625	0	0	0	-0.167603033273304	0.21283824095699	-0.704681302106255	-0.655769295473457	-0.0837517087036664	0.852872052469184	0.51535901409233	-0.995561391592967	-0.0493330286011598	-0.0801484114534547	-0.0429321191963701	-0.519784103648851	0.853218212847844	-5.36642266880468	-31.0214550064625	95.6084420062276
47079	1656051402458	5.04197043673652	-0.873642244932362	8.36459899538892	0.087545009606039	-0.0056883371813018	-0.00740632392764517	0.0205762664336856	-0.0160319120380284	0.00967051742190957	0.29931640625	-0.541015625	0.540771484375	0	0	0	-0.167646309201426	0.212925253088472	-0.70474199684948	-0.655664753883383	-0.0839968910523649	0.852756710199073	0.515509956745737	-0.99554124146332	-0.0495331342245052	-0.0802751839584804	-0.0429203779015036	-0.519954288206523	0.8531151032167	-5.37550699995387	-31.031547297806	95.6255114481916
47080	1656051402459	5.05949559225609	-0.859540501056558	8.37638386410182	0.0714714679626762	0.00108144115942473	0.010550528128471	0.00929959412485353	-0.0149763502016158	0.00638084814381347	0.300048828125	-0.54736328125	0.548095703125	0	0	0	-0.16768782679121	0.212979680407729	-0.704768201639557	-0.655608290396947	-0.0841171246176676	0.852675552089565	0.515624584571771	-0.995531951122599	-0.0496348505924283	-0.080327553807517	-0.0429003920738259	-0.520077671579374	0.853040896958926	-5.37945848067696	-31.039212230424	95.6340448235262
47081	1656051402460	5.0116999173676	-0.898585763110366	8.33849256286516	0.111907609516766	-0.0204040661942814	-0.0432395356641155	0.0156806806231421	-0.0127554496047164	0.00622382888171129	0.3056640625	-0.541259765625	0.552978515625	0	0	0	-0.167644205025112	0.213175517892912	-0.704835205893876	-0.655483753898694	-0.0844729377927484	0.852540772822606	0.515789252947069	-0.995491333734502	-0.0497944938919292	-0.0807311144327235	-0.0431431018839089	-0.520283325749615	0.852903238185174	-5.40719222038622	-31.0502243542333	95.6586110190287
47082	1656051402460	5.04357019719434	-0.903305785324873	8.35185177620425	0.113771332539061	-0.00070119431554734	-0.0150322816591544	0.0203065133165157	-0.00587362703265866	-0.00179637984089527	0.293212890625	-0.537353515625	0.552978515625	0	0	0	-0.167697575659907	0.213156090901896	-0.704853789374054	-0.655456436107122	-0.0845087669670812	0.852510386156653	0.51583360669962	-0.995493424882215	-0.0498826825543467	-0.0806508462290296	-0.04302452000871	-0.520324667372417	0.852884008058425	-5.40196892622822	-31.0531907093847	95.6611959996563
47083	1656051402461	5.05883311491027	-0.921060570856631	8.3529923159623	0.129871285399957	0.0126980724428548	-0.00475191595571012	0.0171000400929703	-0.00471948001038709	-0.000249152099356731	0.302734375	-0.54248046875	0.545166015625	0	0	0	-0.16768756637596	0.213157817365409	-0.704887310594496	-0.655422386207384	-0.0846047514822537	0.852510014938267	0.515818485958561	-0.995485677530334	-0.0499704811084672	-0.080692111446911	-0.043015135227016	-0.520316851012673	0.852889249957846	-5.40468347424928	-31.0521794319547	95.6675865633535
47084	1656051402462	5.05886591931423	-0.919182542946302	8.35317933721805	0.128863940004938	0.0126832480072382	-0.00473860980039831	0.0255550628471577	0.004354337335466	-0.00356731200024938	0.29931640625	-0.542724609375	0.557861328125	0	0	0	-0.167723860027681	0.213084828770893	-0.704914350059515	-0.65540775217056	-0.0846187703442977	0.852533839300973	0.515776808854531	-0.995491479280139	-0.0500710682848258	-0.0805580709889308	-0.0428529857309887	-0.520268143333378	0.852927125050189	-5.39552040861404	-31.0493921166171	95.6683621800006
47085	1656051402462	5.02886311136742	-0.877720446871193	8.35120883686097	0.0899119624393039	-0.0135313359625337	-0.0252322131124369	0.029830729609789	0.00646397418868273	-0.0128856385910806	0.297607421875	-0.544921875	0.5478515625	0	0	0	-0.167717903011638	0.213057845329396	-0.704941170828391	-0.655389201333125	-0.0846713995706158	0.852554431794466	0.515734132012192	-0.995488891949763	-0.0501426986390485	-0.0805454888732295	-0.0428091123405651	-0.520227498889485	0.852954119105948	-5.3945129488215	-31.0465380245582	95.671728572658
47086	1656051402463	5.04305584216617	-0.894263726235058	8.35313535544553	0.106865045841615	-0.000601395998537646	-0.0149545129471029	0.0256261287824583	0.0105489666196218	-0.00721770591437989	0.291259765625	-0.541748046875	0.5517578125	0	0	0	-0.167736185907281	0.212961822731414	-0.704961442287388	-0.655393926493279	-0.0846467461060006	0.852612087596533	0.515642857468178	-0.995497703151853	-0.0502121263492719	-0.0803931924162185	-0.04265268330425	-0.520126302403336	0.853023667992384	-5.38393651692984	-31.0404341593472	95.6697069908841
47087	1656051402464	5.00807024183846	-0.852931980419932	8.40563532682454	0.0647547701502274	-0.0577007757857917	0.00848580895382156	0.0301035444307822	0.00504396508625318	-0.00792863950160135	0.29736328125	-0.541015625	0.551025390625	0	0	0	-0.167627613497398	0.212939002186651	-0.70501691564174	-0.655369447868855	-0.0847837399864775	0.85270417997053	0.515468038674263	-0.995482006998792	-0.0502957362956507	-0.0805351640721973	-0.0427468264969781	-0.519967230093652	0.853115929081841	-5.39280851493553	-31.0287444745604	95.6782137158651
47088	1656051402464	5.03313453932197	-0.863123561301607	8.3863402938537	0.0750180956285136	-0.0252046013127646	0.005757818060518	0.0215506415067899	0.00303795777073055	-0.00454460709579214	0.298583984375	-0.538818359375	0.549560546875	0	0	0	-0.167654999681261	0.212884696032814	-0.705035818310202	-0.65535975019569	-0.0847907978106382	0.852721828242522	0.515437682213249	-0.995486562824629	-0.0503674080369181	-0.0804339943260879	-0.0426265626369523	-0.519931349166766	0.853143814553786	-5.38589882366743	-31.0267147620003	95.6785665494278
47089	1656051402465	5.04356609848873	-0.854244986177165	8.36564042369066	0.0655673600361906	-0.00543629166578656	-0.00723458869580895	0.0241686867893119	0.000526459242718457	-0.00653409219929285	0.300537109375	-0.54541015625	0.545654296875	0	0	0	-0.167630868453219	0.212878784732663	-0.705065596754953	-0.655335806457229	-0.0848697454333465	0.852739351789304	0.515395696741869	-0.995479574029313	-0.0504352075715962	-0.0804779940581768	-0.0426326635397896	-0.51989603551784	0.853165029904728	-5.38869451416195	-31.0239075745948	95.6837031503545
47090	1656051402466	5.01822565499832	-0.839342085521075	8.38557054755286	0.0532008895104753	-0.0379536688298943	-0.00449659682092474	0.0207548297194085	0.000563519661703144	-0.00707150190099895	0.303955078125	-0.547607421875	0.55078125	0	0	0	-0.167666654647007	0.21283361765746	-0.705073397368725	-0.655332929461998	-0.0848532889644752	0.852745428628647	0.515388351929743	-0.995485831304832	-0.0504812055151888	-0.0803716838262111	-0.0425191606600886	-0.519881603677875	0.853179488228639	-5.38152728575714	-31.0234165021716	95.6825680485843
47091	1656051402466	5.05844477971132	-0.869287163441043	8.36732652990217	0.0777916197501611	0.00609669128217746	0.003095232745153	0.0217879481248002	-0.000373806829339533	-0.00538896530878483	0.300537109375	-0.540283203125	0.556640625	0	0	0	-0.167631333361648	0.212955869475117	-0.705126881886862	-0.655244697935057	-0.0851082438067839	0.852665148761085	0.515479127535113	-0.995457454150297	-0.050608366968186	-0.0806427316589814	-0.0426736899357682	-0.520000901230998	0.853099067462985	-5.40007502317258	-31.0294859156509	95.7000630432192
47092	1656051402467	5.01546503858672	-0.900674212672312	8.36362882140508	0.113655752604858	-0.0270259292066184	-0.0196928051700631	0.0147540683640158	-0.00141897903940159	-0.00854812258096723	0.29638671875	-0.543701171875	0.54833984375	0	0	0	-0.167655425075115	0.212938615111668	-0.70512152089451	-0.655249910651365	-0.0850784260685223	0.852660999066057	0.515490913682654	-0.99546225519187	-0.0506094015714075	-0.080582795688048	-0.0426211204219298	-0.520007604890792	0.853097609274415	-5.39609440204521	-31.0302739861631	95.6981067142146
47093	1656051402468	5.05853340014231	-0.865370406684227	8.36767895256191	0.0737351976512654	0.00650348038062735	0.00312628121980474	0.0243053871775784	0.00418266076958164	-0.00731755001289154	0.2998046875	-0.538330078125	0.552734375	0	0	0	-0.167606876969605	0.212916743919351	-0.70515851280969	-0.655229629033443	-0.085164136058384	0.852708880510416	0.515397550467697	-0.995454122521855	-0.0506811867909557	-0.0806381253484056	-0.0426398860654431	-0.519922092629399	0.853148789902555	-5.3994555498717	-31.0240315146707	95.7034911182668
47094	1656051402468	5.00483417212072	-0.902717713558415	8.38517828202317	0.11623550116562	-0.0461750511952569	-0.00662619016109822	0.0261292471757986	-0.000805588314741678	-0.0118325115645411	0.29638671875	-0.537353515625	0.549072265625	0	0	0	-0.167669107803201	0.212854898515261	-0.705155180329956	-0.655237387608768	-0.0851020723362314	0.852709694585191	0.515406455183197	-0.99546645828757	-0.0507135161153896	-0.0804653323339631	-0.0424754953882807	-0.519917605052612	0.853159724933072	-5.38788499692151	-31.0246268860386	95.6993566436211
47095	1656051402469	5.01688815878331	-0.860956929842157	8.37550167470683	0.0744445274341819	-0.0325196708858868	-0.0120321771741647	0.0197176755907299	0.00150269306633461	-0.00874732667365198	0.298828125	-0.539306640625	0.5478515625	0	0	0	-0.167652822061085	0.212832919749493	-0.705163662513801	-0.655239565804739	-0.085107285317944	0.852738184846639	0.515358455921964	-0.99546634334065	-0.0507265193498476	-0.0804585577216275	-0.042467743780486	-0.519869607054606	0.85318935905172	-5.38724802157189	-31.021417688194	95.6995142875471
47096	1656051402469	5.04645117127254	-0.896951673640072	8.37844441005936	0.109240073064345	-0.00664028296787493	0.00859280087341929	0.0304373194056086	0.0032937053539577	-0.0153483181688938	0.301025390625	-0.5400390625	0.549560546875	0	0	0	-0.167718282456515	0.212739586077698	-0.705156892691912	-0.655260408489948	-0.0850087495908458	0.852762151134687	0.515335061959831	-0.995483423084532	-0.0507513311621515	-0.0802312703948498	-0.0422642503411896	-0.519827871489604	0.853224892490653	-5.37189632951464	-31.019853623034	95.6927999144602
47097	1656051402470	5.01807160938776	-0.822507676637982	8.38733068564191	0.0373935014939717	-0.0393504744776091	-0.00442909827289917	0.0252313068005541	0.00378628000186061	-0.0142979600141205	0.307373046875	-0.551513671875	0.5458984375	0	0	0	-0.167722956254814	0.212743300936522	-0.705162130396241	-0.655252369478214	-0.0850266844766655	0.852754442903922	0.515344858356546	-0.995482184329846	-0.0507692403996389	-0.0802353096281378	-0.042257349760545	-0.519838767635568	0.853218595703557	-5.37220460956403	-31.0205085838999	95.6940442035578
47098	1656051402471	5.03129666967461	-0.871747192559493	8.3779470504957	0.08734115140508	-0.0202487644507615	-0.00168094008261122	0.0258850738849333	0.00261155487520963	-0.0109787013850392	0.302978515625	-0.54248046875	0.54638671875	0	0	0	-0.167771040301457	0.212672564252658	-0.705164107771119	-0.655260894271685	-0.0849720769488775	0.852772333036303	0.515324261166516	-0.99549352242929	-0.0508070817049423	-0.0800705142355951	-0.0420997973904787	-0.51980572183889	0.853246516900733	-5.36106057510161	-31.0191315161176	95.6902926744501
47099	1656051402471	5.03267416935717	-0.836364188111235	8.38932744627739	0.0492875201821414	-0.028976919976856	0.00591028832235452	0.0252979468189076	0.00125335229198443	-0.0114225705165906	0.297607421875	-0.545166015625	0.547607421875	0	0	0	-0.167780640378533	0.212819015432818	-0.705204555939558	-0.655167350885609	-0.085210798095407	0.852640180106671	0.515503485105201	-0.995467822882859	-0.0509276180074799	-0.0803130831742005	-0.04222479713161	-0.520010673920977	0.853115446768751	-5.37802783403796	-31.0311145705934	95.7070522483904
47100	1656051402472	5.03563243264117	-0.892655034808666	8.40078466442919	0.105824573933178	-0.0294552432003769	0.0217187301161932	0.0185418069268261	-0.00121227487901206	-0.00963096846327269	0.294189453125	-0.540283203125	0.5576171875	0	0	0	-0.167816316883461	0.212789756395182	-0.705199347386655	-0.655173323485004	-0.0851711999625697	0.852636413916004	0.515516258096089	-0.995474786671077	-0.0509368715337877	-0.0802208465457972	-0.0421404295078952	-0.520015942815995	0.853116406721898	-5.37188150993497	-31.0319686404292	95.7044426619959
47101	1656051402473	5.0093825519166	-0.884167509928575	8.33291824401585	0.101416478070548	-0.0156399124799411	-0.0503791560975397	0.0290870063969427	0.00146027995491133	-0.0125132176928844	0.303466796875	-0.535888671875	0.55517578125	0	0	0	-0.167746625025743	0.212752815644569	-0.705225427166414	-0.655175095761225	-0.0852133273734849	0.852715139975811	0.51537906330581	-0.995469407132213	-0.050963666659156	-0.0802705683578691	-0.0421823221477929	-0.519884212817324	0.853194618455562	-5.37470171446031	-31.0227954705697	95.7067221356489
47102	1656051402473	5.01523678381082	-0.874557420986285	8.36653694037899	0.091691370843832	-0.0284773384988889	-0.019466637705289	0.0245021986831592	-0.00122419904603029	-0.0139429627462237	0.28955078125	-0.535400390625	0.552978515625	0	0	0	-0.167805631186047	0.212699165162012	-0.70521284847698	-0.655190944400654	-0.0851321930352634	0.852713909068702	0.515394508109837	-0.995482379719728	-0.0509677830295252	-0.0801069083200877	-0.042039759473079	-0.519885828210223	0.853200670563272	-5.36376962966359	-31.0238281027631	95.7013325716999
47103	1656051402474	5.03934334400679	-0.91694508728037	8.33605942971514	0.134953417789828	0.0114844121101169	-0.0296760034727885	0.0292563524943087	0.000580427256514758	-0.0162236703705434	0.29345703125	-0.538818359375	0.552734375	0	0	0	-0.167825215846662	0.212578221988229	-0.705196251523308	-0.655243041397481	-0.0849825072524017	0.852797901281521	0.515280227673184	-0.995501845239418	-0.0509341124730052	-0.0798861208940668	-0.0418813751685604	-0.519751340312288	0.853290392924689	-5.34851290657856	-31.0161876325062	95.6908170669972
47104	1656051402475	5.04194844775978	-0.847942187187269	8.35863271006285	0.0675587745242902	-0.000911904713105025	-0.0146046688643331	0.0356965727741378	0.0089957365932939	-0.0200407395963875	0.30224609375	-0.539794921875	0.551513671875	0	0	0	-0.167891237123394	0.212445955926175	-0.705184443975136	-0.655281731992636	-0.0848367684278143	0.852853338919967	0.515212485306587	-0.995524596369197	-0.0509451350546896	-0.0795950453119231	-0.0416353305099534	-0.519659287906339	0.853358496615581	-5.32871444783682	-31.0116588565912	95.6807547523621
47105	1656051402475	5.0040125679434	-0.870293833147039	8.38909573122289	0.0933538578722329	-0.0463190616573129	-0.0063823425404177	0.0414829042330527	0.00986779096201679	-0.0206350490080594	0.295654296875	-0.544677734375	0.544677734375	0	0	0	-0.167901852474459	0.212321932475093	-0.705191633917009	-0.655311471270835	-0.0847516871129976	0.852941842733028	0.515079959274953	-0.995538825867129	-0.0509725452217913	-0.0793992810087834	-0.0414680325383283	-0.519511320905328	0.853456729851374	-5.3150752902778	-31.0027997248211	95.6745098083326
47106	1656051402476	5.01994772912585	-0.852486762109797	8.40210487473816	0.0769937092882808	-0.0395804572137016	0.0114909226257307	0.0369345128686129	0.00264486443966871	-0.0249815124699504	0.296875	-0.5458984375	0.550537109375	0	0	0	-0.167999196643476	0.212202106365591	-0.705159744970473	-0.655359649394384	-0.0845599997456323	0.85296691967082	0.515069937377723	-0.995566053252711	-0.0509479919993521	-0.0790729771923008	-0.0412048547362909	-0.519472555635528	0.853493071962306	-5.29313237333894	-31.0021298121253	95.6615935766146
47107	1656051402477	5.01976790850773	-0.84833284834628	8.40263271092022	0.0714296348069052	-0.0395370347769088	0.0115331283049329	0.0345185683246924	0.00628080894486714	-0.0209176000149864	0.30224609375	-0.542724609375	0.553466796875	0	0	0	-0.167910289285502	0.212227256513121	-0.705182142704733	-0.655350190322193	-0.0846445255934485	0.853012222795944	0.514981021055905	-0.995552782937491	-0.0509514392751589	-0.0792376628959218	-0.0413516707338167	-0.519397823057156	0.853531452689946	-5.30385644821452	-30.9961864157893	95.6669170376994
47108	1656051402478	5.0138325658774	-0.850883769104702	8.36981911108994	0.0788561232362355	-0.026782864721607	-0.0193500957237092	0.0415817101064073	0.0028073987705381	-0.0206656510932491	0.3056640625	-0.539794921875	0.556396484375	0	0	0	-0.168016526341584	0.212095302792766	-0.705169683250841	-0.655379086661499	-0.0844973992856933	0.853035893843416	0.514965972981438	-0.995577957957845	-0.0509876705999675	-0.0788973198231619	-0.0410453303366314	-0.519355390134303	0.853572058818705	-5.28095450004519	-30.9951806003184	95.6569749750567
47109	1656051402479	4.99691749387995	-0.762162217580145	8.44511633012241	-0.00954811307874869	-0.0852308442937432	0.0291980912139582	0.0274560083808316	0.00104490740988683	-0.0146150082742697	0.294921875	-0.544189453125	0.556396484375	0	0	0	-0.168072762210573	0.212079543023919	-0.705183247142625	-0.655355172393609	-0.0845222892397022	0.853001387791709	0.515019043382961	-0.995580566209253	-0.0510637308954166	-0.0788151734979032	-0.0409306585354333	-0.519404589710623	0.853547628067348	-5.27563726056339	-30.9987278808864	95.6588579276976
47110	1656051402480	5.01983700405983	-0.836830305041303	8.40374478442958	0.066843552261791	-0.0403979951133451	0.0115618995714346	0.0344865337641147	-0.00443637167048981	-0.0201526903496257	0.295654296875	-0.54443359375	0.54345703125	0	0	0	-0.16818085783127	0.211997175513612	-0.705158582513707	-0.655380629970591	-0.0843828578369794	0.852986818402633	0.515066035508669	-0.995602285745375	-0.0510668548672045	-0.0785383024552725	-0.0406893342517191	-0.51942820867308	0.853544793266778	-5.25722578154544	-31.0018689933603	95.6496791588611
47111	1656051402480	5.01581471553789	-0.807248126151357	8.38149126195552	0.0372166043364048	-0.0330739591524412	-0.0118219611233687	0.0283819206041918	0.000634450128946204	-0.0215905528711274	0.289794921875	-0.5380859375	0.541748046875	0	0	0	-0.168082774512596	0.212024972097779	-0.705163111601152	-0.655391927136782	-0.0844192055121654	0.853040930163797	0.514970454692286	-0.995591912468399	-0.0510136661017424	-0.0787041911106188	-0.0408673655648568	-0.519344565135849	0.853587184238168	-5.26800751898607	-30.9954801574097	95.6517407744347
47112	1656051402480	5.03884960385354	-0.882063706510465	8.34012078729665	0.113596839377129	0.0117599870629516	-0.0294050386406752	0.0256648881833983	-0.005043554261264	-0.0217275558958579	0.298828125	-0.539306640625	0.553466796875	0	0	0	-0.168164608640053	0.211975175115975	-0.705123805416431	-0.655429331484746	-0.0842661116607946	0.853024204066574	0.515023232196528	-0.995611093525712	-0.050957833128022	-0.0784974502224942	-0.0407157570739734	-0.519377518303868	0.853574379070979	-5.25432540319614	-30.9990078711392	95.6416674510667
47113	1656051402481	5.04632853034558	-0.838770640069463	8.38454263460936	0.0678243203631944	-0.00655769467299887	0.00896618426092921	0.0369902076697068	0.000124611491112309	-0.0220795618400049	0.2998046875	-0.537353515625	0.544189453125	0	0	0	-0.168137025819146	0.211940513137403	-0.70511346754597	-0.655458738079709	-0.084207566447296	0.853075472222365	0.514947885174426	-0.995615662340392	-0.0509101231320206	-0.0784704547277881	-0.0407251599816079	-0.519297985799359	0.853622318879492	-5.25223520007028	-30.9939716227228	95.6374364368796
47114	1656051402481	5.03437890575947	-0.874309570033153	8.39509115094245	0.106300189073214	-0.0199685518048745	0.0145830729439016	0.0273017214349259	0.00610730617956804	-0.0203541593742539	0.29736328125	-0.5478515625	0.548828125	0	0	0	-0.168182599338506	0.211850079275182	-0.705090067833736	-0.655501451892412	-0.0840649196933675	0.85311613235473	0.514903829848891	-0.995634120365004	-0.0508747809560781	-0.0782588974345811	-0.0405683083447272	-0.519234649632302	0.853668314381686	-5.23787332496521	-30.9910270567053	95.6276815267853
47115	1656051402482	5.04463205486803	-0.863633627690947	8.37464512546734	0.0948293484795577	-0.00114873004077143	0.00158085514114603	0.0432822254588248	0.00489364101656654	-0.0250974786114659	0.30029296875	-0.54052734375	0.55029296875	0	0	0	-0.168184061631073	0.211849819946562	-0.705098510429304	-0.655492079122442	-0.0840885112420284	0.853113450826034	0.514904420545013	-0.995632503523731	-0.050899575992696	-0.0782633444904568	-0.0405590952089344	-0.519236625425691	0.85366755040377	-5.23817397277981	-30.9910665370001	95.6292682885654
47116	1656051402482	5.02906858904357	-0.839679484949893	8.37409313232586	0.0756641428914221	-0.014138175340594	-0.00880540152095932	0.0380957660753633	0.0160980882239285	-0.0248195576586322	0.299072265625	-0.540771484375	0.54833984375	0	0	0	-0.1682337272274	0.211686033996713	-0.705080267427175	-0.655551868671536	-0.083898321008868	0.853207912748115	0.514778913083955	-0.995658834753128	-0.0508815409839995	-0.0779394224070015	-0.0403057875488914	-0.519083159437001	0.853772872067838	-5.21597372072871	-30.982678375015	95.615999727571
47117	1656051402483	5.01905700134459	-0.808990820779923	8.40693618924395	0.0453094220692022	-0.0404300827185246	0.0116846829023149	0.0396211382161691	0.00833911040436429	-0.0247958573587994	0.30029296875	-0.538330078125	0.55810546875	0	0	0	-0.168245220929894	0.211643091642935	-0.705081049997657	-0.655561942403823	-0.0838641706119557	0.853232727953679	0.514743346568261	-0.995664482800685	-0.0508914828630944	-0.0778607388947775	-0.0402372784469097	-0.519041394226625	0.853801494788143	-5.21056322916518	-30.9803014576353	95.6135661418058
47118	1656051402483	5.04393270694685	-0.817501917779872	8.38808418519882	0.0553476916280194	-0.00796703603191351	0.0090433757030226	0.0326262781851917	0.00928005762608533	-0.0221743335462901	0.3017578125	-0.539306640625	0.544921875	0	0	0	-0.168297719663191	0.211523959145481	-0.705059874335154	-0.655609690186232	-0.0837036233801654	0.8532901715946	0.514674252797914	-0.995686171507858	-0.0508670976826676	-0.0775988804131058	-0.0400343764914224	-0.518949343802843	0.853866984527182	-5.1927390998239	-30.9756840763074	95.6025133433426
47119	1656051402486	5.00738874851988	-0.807320804955592	8.4294451992703	0.0477868564586716	-0.0605808807944587	0.0247564213200651	0.0386870393679233	0.00876272227491275	-0.017809731099529	0.29833984375	-0.537841796875	0.564697265625	0	0	0	-0.168333203035291	0.211454956705916	-0.70507656343804	-0.655604891478688	-0.083692318050194	0.853313507393934	0.514637400504907	-0.995693068033916	-0.0509380551074332	-0.07746372577587	-0.0398862152703444	-0.518904011008718	0.853901468080758	-5.18353597992225	-30.9732214117621	95.6016092411708
47120	1656051402487	5.04083462021191	-0.743867998753439	8.46540579855616	-0.0172093570248744	-0.0532789549057852	0.0677636839123163	0.030849816350347	0.00103769133782373	-0.0140302791810374	0.2939453125	-0.540771484375	0.552001953125	0	0	0	-0.168400147614129	0.21137646911956	-0.70507313215731	-0.655616699677463	-0.0836162667751424	0.853323782668679	0.514632725215377	-0.995707097076228	-0.0509734628131585	-0.0772598402850168	-0.0396950470791881	-0.518883636300908	0.853922757172175	-5.16983868601974	-30.9729089888037	95.596484421506
47121	1656051402488	5.01214113005241	-0.801175525188481	8.37573578637197	0.0461926693595516	-0.0264460288828085	-0.0191406466417536	0.0211483496809046	-0.0037061748382524	-0.011548871437152	0.29541015625	-0.5341796875	0.55810546875	0	0	0	-0.168337058828211	0.211325784272284	-0.705072680885357	-0.655649725231322	-0.0835721448583193	0.853413497023269	0.514491107505558	-0.995709340939114	-0.0509297014115931	-0.0772597817801879	-0.0397316620641068	-0.51874036724805	0.854008095053543	-5.16932098884004	-30.9634459687193	95.5929657606482
47122	1656051402491	5.0358465894432	-0.745533197757365	8.43211278705319	-0.0122681628932098	-0.0386756196376771	0.0369039902233563	0.0272849232874378	-0.0067448673757008	-0.00430787369204619	0.298095703125	-0.540283203125	0.55224609375	0	0	0	-0.168408957230017	0.211293188604886	-0.705091279096914	-0.655621765742533	-0.0835970468186836	0.85337904769685	0.514544200934392	-0.995713709947867	-0.0510305774676472	-0.0771368134237641	-0.0395694526756304	-0.518787125047775	0.853987223147756	-5.16126331421927	-30.9669936084917	95.5948461348709
47123	1656051402490	4.97745672017448	-0.790953532992545	8.41597481231567	0.0377613702854073	-0.0774283675156942	-0.00341145941969323	0.00594455222709255	-0.010729667462185	-0.00352279079893032	0.299072265625	-0.54443359375	0.55224609375	0	0	0	-0.168341960047843	0.211347051922825	-0.705091578649818	-0.655621288434023	-0.083643421278724	0.853388944574703	0.514520249703027	-0.99570325245879	-0.050986299591285	-0.0773009074783474	-0.0397342562504723	-0.518775198454651	0.853986816261562	-5.1721858930384	-30.9653931993781	95.5978655928837
47124	1656051402491	5.03365497668849	-0.841106310605536	8.39891663907149	0.0835460306799196	-0.019052213625658	0.014804675579807	0.0165491626657248	-0.0105621755957799	-0.00351291818603745	0.300537109375	-0.536376953125	0.55224609375	0	0	0	-0.168390900257878	0.211365346953576	-0.705098524001626	-0.655595352537116	-0.0836784768841534	0.853334628718829	0.514604628754588	-0.995702632946154	-0.05103884767786	-0.0772742050869035	-0.0396759278460483	-0.518859371561327	0.853938389635072	-5.17070055082878	-30.9710314839657	95.6005509846053
47125	1656051402493	4.99907230475998	-0.807954688886674	8.36221101532673	0.053152932920249	-0.0323675378442373	-0.0368899754377292	0.0136899026593277	-0.0111982814844988	-0.00940069428670335	0.30517578125	-0.537353515625	0.550048828125	0	0	0	-0.168371293926224	0.21146549522706	-0.705104648125034	-0.655561505049264	-0.0837804409583062	0.853269490579898	0.514696040550492	-0.995688366788417	-0.0510429148518369	-0.077455129498589	-0.0398185127176647	-0.518966084912059	0.853866903419968	-5.1831725518682	-30.9771400787121	95.6077572465104
47126	1656051402496	5.03296864549481	-0.903284843036153	8.37651865516688	0.145161712316462	-0.00693136807335526	0.000143082995215593	0.0166451819177297	-0.008931271126176	-0.0100975512407912	0.29736328125	-0.53662109375	0.55078125	0	0	0	-0.168421356789893	0.211473118598165	-0.70509149421583	-0.655560333967749	-0.0837497902102904	0.853226851734111	0.514771708740515	-0.995693209969683	-0.0510395372769201	-0.077395072548756	-0.0397618442731429	-0.519036516166691	0.853826733374836	-5.17941784232324	-30.9821969025157	95.605997093625
47127	1656051402495	5.04674075215175	-0.829021108283868	8.37687214234304	0.0697962257115791	-0.000508662027406202	0.00179086106616388	0.0262457408946945	-0.00581393468992297	-0.00599192470494881	0.29736328125	-0.541748046875	0.552978515625	0	0	0	-0.168473713175668	0.211504230434509	-0.705116960367085	-0.655509451251308	-0.083847934578023	0.85315585740911	0.514873389131277	-0.995687469623765	-0.0511466396570294	-0.0773982175894167	-0.0396986989865447	-0.519142662685626	0.853765136954218	-5.17999882992874	-30.9889925157684	95.6129887632849
47128	1656051402496	4.98035060312103	-0.814839801617462	8.40354687523355	0.0610991753753216	-0.072334975846803	-0.0107237682298482	0.0166438743087543	-0.00893127988581785	-0.010094443466776	0.29541015625	-0.54248046875	0.553466796875	0	0	0	-0.168523714272893	0.211512373251505	-0.705103619163619	-0.65550832178665	-0.0838171955922354	0.853112878657238	0.514949603351836	-0.995692281677311	-0.0511427120599314	-0.0773388855064899	-0.0396428799569853	-0.519213674003599	0.853724547378368	-5.17629426742946	-30.9940864639569	95.6112250209456
47129	1656051402498	5.05241270827276	-0.850320090436504	8.39910977677824	0.0887368534524746	-0.0062310964886069	0.0253535928509692	0.0251317165867496	-0.00236393356562063	-0.0105554375712977	0.296875	-0.5419921875	0.553955078125	0	0	0	-0.168441074794604	0.21153106270227	-0.705125382772637	-0.655500120826709	-0.0838943918364189	0.853158508102855	0.514861428998239	-0.995680586318915	-0.051148402216438	-0.0774855533523952	-0.0397731196415218	-0.519138132872568	0.853764427668174	-5.18581634777302	-30.9881931581725	95.6160615141466
47130	1656051402499	4.98247925737847	-0.777339818903483	8.41427112087134	0.0224602063354312	-0.077620848782259	-0.00336601192229047	0.0213450074448517	-0.00257626284542578	-0.00946819614708999	0.304931640625	-0.5390625	0.547607421875	0	0	0	-0.168482602132415	0.211502713093139	-0.705124765443225	-0.655499260328773	-0.0838686649742427	0.853148469455072	0.51488225459993	-0.995686579295063	-0.0511746441253442	-0.0773911597686812	-0.039677233360397	-0.519152044072941	0.853760430265863	-5.17955744226544	-30.9895850452482	95.6144159500091
47131	1656051402500	5.02209502850265	-0.839970656402914	8.38532354244299	0.0813303040600146	-0.0266258957708906	-0.00282925232543008	0.0186380944936403	-0.00825981170186318	-0.00959514317984298	0.300048828125	-0.538818359375	0.544189453125	0	0	0	-0.168481635022048	0.211593861678994	-0.705140420626001	-0.655453250475924	-0.0839899502016864	0.853073801929933	0.514986190810907	-0.995672521035158	-0.0512181482806332	-0.077543098611012	-0.0397733468620922	-0.519270439893812	0.853683952720136	-5.19013315844525	-30.9965319654084	95.6229721241266
47132	1656051402501	5.06665334437622	-0.771417058849091	8.39953265259108	0.00964183919892005	0.00025932643196512	0.0269323290347341	0.0257447597432384	0.00102506772932502	-0.00433139272571628	0.308837890625	-0.537109375	0.55908203125	0	0	0	-0.168519108676751	0.211543234804536	-0.705164231428622	-0.65543434189315	-0.0840142669557732	0.853079553154302	0.514972697274274	-0.99567586265773	-0.0513105665510527	-0.0774390229857967	-0.0396381062699624	-0.519251867353664	0.853701539638453	-5.18309891587156	-30.9956300517119	95.6245519723098
47133	1656051402502	5.02708252854451	-0.861462515013362	8.40798810367194	0.102170827958615	-0.0346300914795038	0.0207404219598946	0.0139436628169922	-0.0038978709202128	-0.0110006150428557	0.299560546875	-0.53955078125	0.56298828125	0	0	0	-0.168566239171263	0.211612875746635	-0.705170190764238	-0.655393329144739	-0.0840900142484646	0.852986104627557	0.515115108316577	-0.995669251126861	-0.0513591498616299	-0.0774918065731223	-0.039643560185339	-0.519400561260572	0.853610827659791	-5.18716069817133	-31.0051492961198	95.6302032951524
47134	1656051402503	5.03927191414974	-0.820179274559185	8.3976179748219	0.061112119156379	-0.021304231894062	0.0149651610278898	0.0234147421668341	-0.00442407164345072	-0.00608926341427043	0.3017578125	-0.53564453125	0.56591796875	0	0	0	-0.168617316711333	0.211587419603295	-0.705180821628782	-0.655376970283245	-0.0840984546548495	0.852963934875076	0.51515043989799	-0.995673146648606	-0.0514235813759478	-0.0773989684772035	-0.0395276481406379	-0.519430593131457	0.853597928741379	-5.18105799006112	-31.0075111278235	95.6309101978261
