// Start Time : 24/06/2022 06:59:50																																
// Update Rate : 100Hz																																
// Filter Profile : 46.1 human																																
// Firmware Version : 4.4.0																																
PacketCounter	Time_Of_Arrival	Acc_X	Acc_Y	Acc_Z	FreeAcc_X	FreeAcc_Y	FreeAcc_Z	Gyr_X	Gyr_Y	Gyr_Z	Mag_X	Mag_Y	Mag_Z	VelInc_X	VelInc_Y	VelInc_Z	OriInc_q0	OriInc_q1	OriInc_q2	OriInc_q3	Mat[1][1]	Mat[2][1]	Mat[3][1]	Mat[1][2]	Mat[2][2]	Mat[3][2]	Mat[1][3]	Mat[2][3]	Mat[3][3]	Euler_X	Euler_Y	Euler_Z
1864	1656054026557	9.56898552758725	-0.236441406700783	2.67507472854035	1.73472347597681E-16	-1.38777878078145E-15	0.125995315814981	0.00618730515266883	0.000930867413724063	0.00200441947023036	0.67724609375	0.402099609375	-0.0283203125	0	0	0	-0.330369880565419	-0.506240468706185	-0.418744824416442	0.677664446377243	0.13674671973717	-0.23304375285532	0.962803689178761	0.902030165590696	0.431017028079268	-0.0237886920644234	-0.409440978659372	0.871730996787899	0.269152659718666	-5.05088495018069	-74.3237197469386	-59.5962027432775
1865	1656054026556	9.5710301186501	-0.260649282817553	2.65046931051416	1.38777878078145E-15	-2.77555756156289E-15	0.12197635381342	-0.00437376754562827	-0.00148578799536488	-0.000498434423834991	0.675537109375	0.403076171875	-0.0078125	0	0	0	-0.342985540983655	-0.498960954686375	-0.432815797823222	0.667884248600953	0.127416901706219	-0.235868921877915	0.963395445729187	0.920414493769223	0.390062807661595	-0.0262329132712793	-0.369597203478507	0.890065648012158	0.266797768749222	-5.61556205484629	-74.4496941363701	-61.6219864653068
1866	1656054026556	9.53855417247784	-0.287999353945403	2.67464888543454	-0.0447554405253781	0.00156004456092831	0.0978474623621963	-0.000797935653368599	0.00209222488214988	-0.000303612820191444	0.677978515625	0.400146484375	-0.0107421875	0	0	0	-0.336655573266698	-0.502660691945309	-0.425761147537198	0.672846712862106	0.132119348041742	-0.234496930358637	0.963096914918431	0.91139102398057	0.410780940472559	-0.0250084056294578	-0.389757462123142	0.881061977727365	0.267990507523067	-5.33130222789753	-74.3860183881755	-60.6023889864224
1867	1656054026557	9.57113556098282	-0.260501666498938	2.65010305367688	-0.00615106434781118	-0.0161149923394048	0.121961379537314	0.00131984311549306	-0.0102254417998259	-0.00326662037789975	0.672119140625	0.401611328125	-0.015869140625	0	0	0	-0.336664690484818	-0.50270340030421	-0.425751607162467	0.672816279902562	0.132049720642322	-0.23442025564901	0.963125129471626	0.911390194325341	0.410784910358676	-0.0249734080419766	-0.389782997276563	0.881080530464195	0.267892355006692	-5.32582372012882	-74.3920256294622	-60.6072921525627
1868	1656054026558	9.55755952574838	-0.24043512331614	2.65275068538358	0.00865627027482937	-0.00158040955158603	0.109094826271477	0.000732622210601518	-0.011603259448245	-0.00282918922250879	0.67431640625	0.40234375	-0.019775390625	0	0	0	-0.336680264396719	-0.502743383848556	-0.425742377813802	0.672784450842696	0.131985035459906	-0.234338152920179	0.963153975489177	0.911393254511511	0.41077965459841	-0.0249481662437583	-0.389797750180222	0.881104820923123	0.267790979124517	-5.32247413801738	-74.3981696493901	-60.6107141765541
1869	1656054026559	9.60405072778131	-0.23259449491246	2.62435860700679	0.032532590153214	-0.0338703106485601	0.146074765329095	-0.00224205107952829	0.000395226742674737	-0.00314511271175315	0.684814453125	0.40380859375	-0.011962890625	0	0	0	-0.336679059172645	-0.502742576037284	-0.425759258860545	0.672774974897653	0.131957911467831	-0.234354554372163	0.963153701361352	0.911406144397222	0.410752529218284	-0.0249238780243336	-0.389776794532508	0.881113104309434	0.267794226708036	-5.31725805877918	-74.398111250787	-60.6174635454981
1870	1656054026560	9.57824196763775	-0.217101715161157	2.60752955706793	0.0498120169352105	-0.0366929180745268	0.116322411665216	-0.0055933911080236	0.00754602377160547	-0.00228298332741806	0.676025390625	0.39990234375	-0.013671875	0	0	0	-0.336676190792253	-0.502709601408843	-0.425793619928247	0.672779304403294	0.131965699759523	-0.234429563515331	0.963134379947571	0.911430978223416	0.410697871564035	-0.0249164649876102	-0.389716083863224	0.881118628813841	0.267864398409961	-5.31430106126683	-74.3939956656104	-60.6238563065936
1871	1656054026561	9.59932225307328	-0.241510809197722	2.65857272317076	0.0106622542248311	-0.00757783214033053	0.150904003949877	-0.00623229224650927	0.0108561981459978	-0.00466260293230652	0.67724609375	0.4033203125	-0.020751953125	0	0	0	-0.336662322653249	-0.502667661739947	-0.425843243776989	0.672786172625527	0.131965507140773	-0.234544367190223	0.963106455561594	0.911461417286416	0.410632024470423	-0.0248882558159336	-0.389644953416974	0.881118766284466	0.267967404693228	-5.30629000548733	-74.3880494615943	-60.6358816944652
1872	1656054026562	9.55712307022028	-0.239708120181325	2.65438842709757	0.00861441176694053	-0.00154450816403778	0.109094868356351	-0.00457773178139938	0.00908304192503039	-0.00108013598367109	0.683349609375	0.409423828125	-0.0087890625	0	0	0	-0.336655867090019	-0.50263089305101	-0.425873554405624	0.672797687393863	0.131987802017328	-0.234626206799979	0.963083466373132	0.911480763305254	0.410589085623574	-0.0248881676960684	-0.389592143456596	0.881116987606895	0.268050025009222	-5.30464511952237	-74.3831558128934	-60.64028743114
1873	1656054026563	9.59675348714781	-0.217244766773894	2.68505375095826	0.0227970975475169	0.024509704852612	0.15492348004449	-0.00916181628765279	0.011066540844885	-0.0023185552438441	0.6787109375	0.40234375	-0.024658203125	0	0	0	-0.336657294822044	-0.502578057906983	-0.425923006010084	0.672805138583887	0.13200977732356	-0.234733235345598	0.963054373810313	0.911519512993123	0.410502917588876	-0.0248904014391395	-0.389494025787001	0.881128630152948	0.268154323107098	-5.30306685244325	-74.3769650974184	-60.6473768523913
1874	1656054026563	9.58226447528753	-0.255105981464073	2.67362036789945	-0.00872497281747351	0.00129987159040862	0.138847166984556	-0.00676087807272689	0.0118892058200386	-0.00124898461015172	0.6767578125	0.402587890625	-0.0205078125	0	0	0	-0.336650912973079	-0.502527778693255	-0.425964755267897	0.672819456990934	0.132039717822367	-0.23484187969041	0.963023781877096	0.911547621656081	0.410440380127905	-0.0248923243913145	-0.389418086855928	0.881128813456884	0.26826398887203	-5.30131851996128	-74.3704579043491	-60.6531526367022
1875	1656054026564	9.54209351834539	-0.277656614368117	2.64490162879634	-0.0229074221001659	-0.0247544003509202	0.0930185155854239	-0.0097486771102115	0.00968837763381215	-0.00188108352618795	0.6787109375	0.408203125	-0.009521484375	0	0	0	-0.336658346638384	-0.502477588229252	-0.426011885307199	0.672823382874756	0.132060293808641	-0.234934967482278	0.962998255373952	0.911588063786689	0.410350062431432	-0.0249003659442035	-0.389316427550663	0.881146064688835	0.268354861932048	-5.30123583684067	-74.3650301971728	-60.6590386166976
1876	1656054026564	9.55374815161999	-0.273342458740395	2.66640369855721	-0.0254935895878213	-0.00727824132249754	0.109904316832756	-0.00735460799962161	0.00341204132013752	-0.000971707771327998	0.681396484375	0.40185546875	-0.02294921875	0	0	0	-0.336673837762047	-0.502453619668791	-0.426039058161927	0.67281632558136	0.132062162004456	-0.234966090470654	0.962990405817028	0.911618044195949	0.410282895774146	-0.0249095750973854	-0.389245586825413	0.881169042672356	0.268382174096609	-5.30264866275566	-74.3633615130978	-60.6619342538131
1877	1656054026564	9.52798091946983	-0.257983827900887	2.64942757631236	-0.00820540835365889	-0.0101099185316096	0.08015211907348	-0.00501157350390555	0.00182414822812053	-0.00287810208657502	0.68115234375	0.4052734375	-0.011962890625	0	0	0	-0.336679580592718	-0.502441652151679	-0.42606440127438	0.672806340756169	0.13204302429959	-0.234993972058289	0.962986226708402	0.911641350933247	0.41023197195723	-0.0248953098531862	-0.389197491002218	0.881185316650448	0.268398492390005	-5.29930885522223	-74.3624731755609	-60.6683842050564
1878	1656054026565	9.57930787307239	-0.2885788629816	2.68413517099858	-0.0427771118191238	-0.00440125949017905	0.139656554758545	0.00218989400212672	0.00429271385468765	0.000330117585588437	0.683837890625	0.403076171875	-0.016357421875	0	0	0	-0.33666553005098	-0.502432132323884	-0.42606379419927	0.672820865131641	0.132063191361994	-0.235026060941915	0.96297563009944	0.911632381515774	0.410251928296029	-0.0248949051267183	-0.389211657660924	0.881167467628893	0.268436546567935	-5.29847624000255	-74.3602209144388	-60.6679883772894
1879	1656054026566	9.56535532104705	-0.268636316545566	2.68810617231354	-0.0280488165858066	0.0102130267672682	0.126790070380901	0.00730371778371321	0.0012764304245956	-0.00184337046375418	0.6806640625	0.408203125	-0.015625	0	0	0	-0.336633609308872	-0.502446500186138	-0.426053795697151	0.672832438803625	0.132051355245503	-0.23504487115637	0.962972662187723	0.911606386525452	0.410311952511463	-0.0248575475910034	-0.389276554166616	0.881134501747217	0.268450655068766	-5.29029397672225	-74.3595901549687	-60.6721396214953
1880	1656054026566	9.5998927042589	-0.265329594923292	2.63937609265431	-0.00153485251574714	-0.0394844061873983	0.146885144369309	0.00501154452564688	-0.00182400887538006	0.00287840985094463	0.67822265625	0.40576171875	-0.016357421875	0	0	0	-0.336630826929144	-0.502456640129923	-0.426026170257027	0.672843751109037	0.132078054090959	-0.23501330440676	0.962976705003481	0.911582881458661	0.410362777234262	-0.024880540430356	-0.389322537055163	0.881119252889413	0.268434022300699	-5.29548584662417	-74.360449365999	-60.6639063934027
1881	1656054026567	9.55793795936213	-0.263592899026845	2.63429342512143	-0.00354910626049771	-0.0334788018170003	0.105075876895141	0.00831895331907591	0.00281333034880381	-0.000640304461747908	0.676513671875	0.39990234375	-0.01708984375	0	0	0	-0.3365952384675	-0.502465973173157	-0.426012159663704	0.672863456477483	0.132083171243638	-0.235040720381468	0.962969311887344	0.911551336629561	0.410434570519347	-0.0248520424001669	-0.389394653999108	0.881078499956252	0.268463182488318	-5.28888357370505	-74.3588781576292	-60.6658128500166
1882	1656054026568	9.54387552596605	-0.243668504225355	2.63865929373819	0.0112604100870977	-0.0187433658771809	0.0922093589364383	0.0111539453054137	0.0108945000613512	0.00222916036904426	0.677978515625	0.41455078125	-0.0224609375	0	0	0	-0.336545974597395	-0.502449168411084	-0.425990518934483	0.672914346646903	0.13215382188188	-0.235115773316028	0.96294129649736	0.911504753590264	0.410537769520438	-0.0248560652464291	-0.389479719041137	0.881010393204978	0.268563280290599	-5.28777444867021	-74.352925634515	-60.6605396084176
1883	1656054026569	9.569347338516	-0.259071294153387	2.65669282306231	-0.00602727951082294	-0.0159110722390908	0.121961784093767	-0.000153093440494474	0.00588072348319714	0.00223594510657938	0.67578125	0.400634765625	-0.0146484375	0	0	0	-0.336539581192735	-0.502425293525626	-0.425993275922127	0.672933624947842	0.132197106589648	-0.235158403011864	0.962924945414873	0.911502394466868	0.410541678319507	-0.0248780072306768	-0.389470550735858	0.880997194011146	0.268619869432615	-5.29130719494724	-74.3494524857759	-60.656961966846
1884	1656054026570	9.58301169838409	-0.278947838981036	2.65377356581225	-0.020683442504585	-0.0303634888160639	0.134829384356221	0.00160957033052585	0.0100136642031379	0.000926685603320469	0.679443359375	0.402099609375	-0.016845703125	0	0	0	-0.336522174754866	-0.502394496954857	-0.425997668912772	0.672962540865847	0.132251511020722	-0.235227169948682	0.962900678341577	0.911494724749183	0.41055762395828	-0.0248958664067228	-0.38947003040946	0.880971404716217	0.268705190655463	-5.29341230129417	-74.3442992788528	-60.6540476545218
1885	1656054026570	9.56887543211962	-0.259428875201924	2.65835717036231	-0.00595547209858004	-0.0157496169674455	0.121962084669832	-0.00190875705912151	0.00884643236095398	0.00370562742316728	0.67041015625	0.40185546875	-0.015625	0	0	0	-0.336519062169029	-0.502354429908787	-0.426004879930138	0.672989442579603	0.132319738053454	-0.235289890102024	0.962875980870456	0.911497256619472	0.410549526145172	-0.0249366749417602	-0.389440930176377	0.880958429324422	0.268789895095791	-5.30037836206199	-74.3390563727844	-60.6479488698781
1886	1656054026574	9.56859776486304	-0.259782346952488	2.65932194458635	-0.00584808944242895	-0.0155313949808986	0.121962492016976	-0.00451917077431719	0.0114931113104884	0.00189628460645186	0.68212890625	0.404052734375	-0.023193359375	0	0	0	-0.336524264404187	-0.502303965273299	-0.426021873975889	0.673013750849129	0.132392178729584	-0.235362213854768	0.962848346989606	0.911512103538382	0.410513564722585	-0.0249859616943105	-0.389381555950288	0.880955868059313	0.268884291875882	-5.30894079586937	-74.3331921383836	-60.6420738416669
1887	1656054026575	9.5682161068497	-0.25996926726774	2.66067658566218	-0.00584801899829613	-0.0155313916296799	0.121962492063684	-0.0021681980633415	0.0170033730519391	0.000151771320475025	0.676025390625	0.404541015625	-0.0126953125	0	0	0	-0.336495723101141	-0.502241869694383	-0.426055416177861	0.673053129408103	0.1324597733428	-0.235511380090601	0.962802574931016	0.911520344548523	0.4104948213603	-0.0249932613021554	-0.389339273539309	0.880924736560506	0.269047465321061	-5.30728059308216	-74.3234834746225	-60.6450885064062
1888	1656054026575	9.5560148648001	-0.264383535890165	2.64118202091464	-0.00316997942500699	-0.0327213544585939	0.105078533265885	-0.000999921993048013	0.0126598535522041	-0.000881069675613229	0.681640625	0.403076171875	-0.01025390625	0	0	0	-0.336481109977624	-0.502200160232069	-0.426073571476124	0.673080064613929	0.132512621504929	-0.235601519347219	0.962773249121087	0.911524988730529	0.410483548635612	-0.0250090227582925	-0.389310416071418	0.880905886222131	0.26915092338222	-5.3085787208754	-74.3172662873493	-60.6446911682984
1889	1656054026576	9.55135134042128	-0.273804870947787	2.67492934619338	-0.0250316796861681	-0.00643720700736761	0.109906074099555	-0.00271406000954238	0.00383932336835979	0.00324222596674518	0.68212890625	0.407470703125	-0.0185546875	0	0	0	-0.336490208386407	-0.502176003766005	-0.426075929171272	0.673092046812704	0.132557127644885	-0.235622022219279	0.962762104860716	0.911531254834785	0.41046728448182	-0.0250475513662462	-0.389280592079623	0.880907981014714	0.269187201803355	-5.31599779506446	-74.3149042902044	-60.6386001635454
1890	1656054026577	9.55366420986536	-0.240386081124704	2.66674969364421	0.00916432816332	-0.000359260996685845	0.109094489372836	0.001119010106102	0.000344481608872592	-0.00384834895071206	0.680908203125	0.41259765625	-0.017822265625	0	0	0	-0.336489895200011	-0.502184487891803	-0.42607631897421	0.673085626765659	0.132539421060469	-0.235611681009954	0.962767073406969	0.911531703817091	0.410467041675345	-0.0250351879282445	-0.389285569731614	0.880910860115798	0.269170581098266	-5.31371505988164	-74.3159573178849	-60.6407962615805
1891	1656054026578	9.59768114419215	-0.265980876963661	2.64734144183137	-0.000987470553649207	-0.0384213966949112	0.146889371220626	0.00517093429974035	-0.000605869628859231	0.000804789296753123	0.68115234375	0.403564453125	-0.01806640625	0	0	0	-0.336475808803731	-0.502196171850736	-0.426059610213317	0.67309452799233	0.132544427046685	-0.235603058263029	0.962768494393109	0.911510510669485	0.410514477269504	-0.0250290409564807	-0.389333486612597	0.880891061873859	0.269166070136681	-5.31250635313137	-74.3162584926433	-60.6389754819148
1892	1656054026579	9.57192760567562	-0.250572033850414	2.63035803658701	0.0164185837480936	-0.0409063897788435	0.117137656847841	0.00277829914502401	0.00566973860767039	-0.000104509846061296	0.676513671875	0.3994140625	-0.010986328125	0	0	0	-0.336468341862239	-0.502186799278189	-0.426051384406539	0.673110460029017	0.132577272951999	-0.235619367391295	0.962759980684042	0.911499206024244	0.410538545539495	-0.0250459586258618	-0.389348769246525	0.880875482878506	0.269194947110407	-5.3155096275785	-74.3144541158011	-60.6346034027703
1893	1656054026580	9.57383879816503	-0.274614260103389	2.60639052684632	0.00424947570812733	-0.0729673907195041	0.113124018642294	0.0033661793597864	0.00704724579782649	-0.000540422048871727	0.68310546875	0.4052734375	-0.014404296875	0	0	0	-0.336440634591302	-0.502171173647844	-0.426056615243711	0.673132655841344	0.132599745928439	-0.235683665244466	0.962741147617909	0.911486818586625	0.41056692000575	-0.0250316547560562	-0.389370115600244	0.880845056825505	0.269263623505898	-5.3111440725113	-74.3104633957598	-60.63713418655
1894	1656054026581	9.59717587040744	-0.265638870670662	2.64920692637036	-0.000739230101785664	-0.0375688777701118	0.146892645043149	0.00475932585875684	0.0134310798580151	-0.000511609825182684	0.685302734375	0.4072265625	-0.022705078125	0	0	0	-0.336415025161572	-0.502142884381226	-0.426054960281305	0.673167605675242	0.132659388969997	-0.235755972829623	0.962715226738034	0.911469617164881	0.41060420333047	-0.0250464606812174	-0.389390066005044	0.880808327323549	0.269354909021683	-5.31247684864927	-74.3049723882165	-60.6336340508987
1895	1656054026581	9.58282548381924	-0.245775360620672	2.65458103676012	0.0139889684558888	-0.0229577102277043	0.134021999243529	0.00199666989980949	0.0219574955074407	-8.39464885861778E-05	0.6875	0.401611328125	-0.013671875	0	0	0	-0.33636132942724	-0.5020733171511	-0.426087172928133	0.673225936322229	0.132744210542005	-0.235949775045091	0.962656053958916	0.911461968752644	0.410621554264102	-0.0250403412773633	-0.389379062206911	0.880748342507611	0.269566880541661	-5.30703376836391	-74.2924444020854	-60.6381031664099
1896	1656054026582	9.55421154375395	-0.264016427937496	2.64773460520181	-0.00266512705180602	-0.0309245649481558	0.105084447105451	0.000289228871118398	0.0202354506712227	0.00420100296342816	0.681640625	0.402587890625	-0.017822265625	0	0	0	-0.336350370843767	-0.502010529115678	-0.426086485989499	0.673278666784696	0.132871470228235	-0.236047027172905	0.962614654657938	0.91145273771504	0.410637468980761	-0.0251152539472024	-0.389357264361596	0.880714863069716	0.269707713380515	-5.3200561962313	-74.2836851824986	-60.6247293335608
1897	1656054026582	9.57729735442371	-0.255278089373538	2.69134279001837	-0.00777994567221617	0.00397736113208272	0.13884724073502	0.000766105470346783	0.0167909092412486	-0.00218683356345334	0.66943359375	0.39990234375	-0.015380859375	0	0	0	-0.33630658231924	-0.501959283031448	-0.426120085482148	0.673317483521699	0.132917101854482	-0.236203785390338	0.962569901774349	0.911452629149227	0.410639110874878	-0.0250923382101097	-0.389341943350015	0.880672068585785	0.269869521734614	-5.31206119981498	-74.274221764949	-60.6325784498614
1898	1656054026583	9.54884338820562	-0.273420521650711	2.68390756970862	-0.0244761345973371	-0.00409735295662031	0.109908702099448	0.00406645412112472	0.0132454433963713	0.00497977201180538	0.6806640625	0.396484375	-0.018798828125	0	0	0	-0.336297494153293	-0.501924362556927	-0.426102074803628	0.673359451961642	0.133017912239733	-0.236247908374211	0.962545147415015	0.911431529903745	0.41068203454852	-0.0251561681582798	-0.3893569073751	0.880640217278259	0.269951859396077	-5.32388145068851	-74.2689896068931	-60.6185848360308
1899	1656054026583	9.57650495680647	-0.255492030897137	2.69414070019618	-0.00772953945789665	0.00452163144749398	0.138847047600237	0.00199064265535217	0.014858224688291	-0.000242771896158189	0.68408203125	0.39306640625	-0.014404296875	0	0	0	-0.336258577578836	-0.501878981646272	-0.426122790322787	0.673399602282241	0.133073710698446	-0.236379610083347	0.962505099964562	0.911424060023708	0.410699073144359	-0.0251486406842243	-0.389355326573101	0.880596928938098	0.270095313572718	-5.31948695578839	-74.2605286437379	-60.6219631368802
1900	1656054026584	9.55497054261761	-0.23098250817259	2.64515576019311	0.0316704137424167	-0.0239578626581735	0.104272196613449	0.00443739806337486	0.0109938779617261	0.00364416313651133	0.680419921875	0.40771484375	-0.01708984375	0	0	0	-0.336256124280443	-0.5018510384823	-0.426095938801314	0.673438642338825	0.133175572222529	-0.236397970732541	0.962486501929632	0.911399911397234	0.410748139641845	-0.0252223568660134	-0.389377026117766	0.880569114388132	0.270154708116265	-5.33382354720402	-74.2566008797933	-60.6051215019792
1901	1656054026585	9.55228376154422	-0.26457356421262	2.65462557951486	-0.00235352587012218	-0.0297303587151118	0.105088177696029	0.00262610820830056	0.0115484588505711	0.00213662273224207	0.6806640625	0.405029296875	-0.01904296875	0	0	0	-0.336228235994362	-0.501814076303482	-0.42610126106156	0.673476741592129	0.133240696290863	-0.236490454430752	0.962454768711269	0.911386701121393	0.410776577283736	-0.0252365721547937	-0.389385667264463	0.880531015080216	0.270266412287605	-5.3346192941529	-74.2499012690175	-60.6027265019078
1902	1656054026586	9.56820704919615	-0.251116658252964	2.64380828682773	0.0169218100576796	-0.0379704128132326	0.117148472879082	0.00225539343429399	0.0137994790624046	0.00347381483279537	0.681640625	0.3955078125	-0.016357421875	0	0	0	-0.336218351262099	-0.501781068539598	-0.426091266913187	0.673512592154126	0.133323983031149	-0.236539660228037	0.962431142829405	0.911371674463709	0.410806905069821	-0.0252855241624661	-0.389392329834481	0.880503648990826	0.270345959059711	-5.34334353252701	-74.2449151063564	-60.5925114722029
1903	1656054026586	9.54709640137883	-0.27410076299724	2.69004604340295	-0.0242404175475856	-0.00284839244751312	0.109909717876091	0.00417440313177188	0.0120513796070778	-6.98808666073762E-05	0.680419921875	0.40185546875	-0.013427734375	0	0	0	-0.336178574697299	-0.501749537019159	-0.426101022868044	0.673549765293076	0.133370640823731	-0.23664559946756	0.96239863488001	0.911355376308083	0.410843768450598	-0.0252740182729904	-0.389414496700648	0.880457982062716	0.270462736031103	-5.33863345822231	-74.2380569263012	-60.5949101305709
1904	1656054026587	9.53300356078416	-0.254374264467977	2.69443156298787	-0.00933094378585668	0.0124123658163201	0.0970343021700746	0.00581375571084107	0.00318178021810178	0.00335109175740161	0.678955078125	0.402587890625	-0.015380859375	0	0	0	-0.336187240937673	-0.50175298672029	-0.426061392288649	0.673567939668332	0.133431260636653	-0.23659668387671	0.962402258862404	0.911328492827635	0.410899658063545	-0.0253347422282698	-0.389456643088065	0.880445046656409	0.270444158695967	-5.35175127137642	-74.2388213313608	-60.5787047016826
1905	1656054026589	9.57930528027725	-0.24684705729723	2.66715705722506	0.0145569475378662	-0.0198531439577217	0.134027865284862	0.00278007116351728	0.00566836368740903	-0.000100760883875536	0.673828125	0.4052734375	-0.01708984375	0	0	0	-0.336165765057369	-0.501739938259261	-0.426063926655036	0.673586774782788	0.133453129517771	-0.236646472004189	0.962386985318216	0.911317632823236	0.410924217613371	-0.0253270504459719	-0.389474561848867	0.880420203463556	0.270499225517974	-5.34905304237404	-74.2355999339216	-60.5798453812719
1906	1656054026588	9.5417310239656	-0.235843352498883	2.629490620227	0.0343360547459958	-0.0396800461491299	0.0873995288534637	0.00278011614560201	0.00566832153089741	-0.00010066236376123	0.67919921875	0.402099609375	-0.01611328125	0	0	0	-0.336160240232706	-0.501738388930396	-0.426057883497802	0.673594508491268	0.133466537965807	-0.236651506533438	0.962383887904861	0.91130949596069	0.410941945592124	-0.0253321914731489	-0.389489006026222	0.880410575702276	0.270509763920439	-5.34992530459056	-74.234946725718	-60.5779039202604
1907	1656054026588	9.55330187924779	-0.231584217887085	2.65112351901188	0.0317814345120123	-0.0222205297925645	0.104275886391141	0.00187531647925066	0.00895327581716149	0.00464834547081097	0.67919921875	0.403076171875	-0.013427734375	0	0	0	-0.336146638473306	-0.501704451914302	-0.426052322377377	0.673630090605601	0.133544123052428	-0.236710799015428	0.96235854276233	0.911295859087768	0.410969712079882	-0.0253722872927681	-0.389494318838729	0.880381674833397	0.270596160744933	-5.35664304662462	-74.2296027226592	-60.5697977520287
1908	1656054026590	9.58532209928748	-0.261990477240756	2.61178750959946	0.0241403466371606	-0.0771301773843415	0.12521688653168	0.00118708409090991	0.00985119708751651	-0.000707295968818884	0.67919921875	0.409423828125	-0.016357421875	0	0	0	-0.336140035995512	-0.501688493409096	-0.426055848635132	0.673643040211687	0.133570138849417	-0.236743937882946	0.962346780471272	0.911294290815217	0.410972580089468	-0.0253821579499782	-0.389489067286027	0.880371425189552	0.270637063563694	-5.3579096512415	-74.2271232524912	-60.5684539370987
1909	1656054026591	9.59913900816232	-0.224252833229505	2.62556635898762	0.0556159096226593	-0.0538945402913812	0.141274651804276	0.0014595126185289	0.0158902522524042	0.00317182793698839	0.679443359375	0.399169921875	-0.021484375	0	0	0	-0.336109332972101	-0.501632754538477	-0.426068013236752	0.673692172998675	0.133661255341253	-0.236870470315621	0.962302992364181	0.911284272415161	0.410993128771073	-0.0254091115888427	-0.389481249445169	0.880327795991596	0.270790191726378	-5.3605507701143	-74.2178961343526	-60.5648344744989
1910	1656054026592	9.56856069554767	-0.21827782560184	2.64273795459686	0.0506903800458945	-0.0296140344982369	0.116341602966253	0.00060885343502999	0.0155705771386237	-0.000108183879619739	0.673095703125	0.408447265625	-0.017333984375	0	0	0	-0.336092586999476	-0.501613493370952	-0.426074447095499	0.673710799797995	0.13368893760091	-0.236924759730618	0.962285781974216	0.91127906637417	0.411004676992529	-0.0254090274998487	-0.389483929259425	0.880307794874529	0.270851352464379	-5.35932972424365	-74.2142709653031	-60.5653759820471
1911	1656054026592	9.57750973300398	-0.247320354200551	2.67355381845811	0.0141003115463396	-0.0179272426241529	0.134032180639833	-0.00275032804757463	0.0156220880564356	0.000590187935931674	0.6806640625	0.39501953125	-0.0146484375	0	0	0	-0.33607010224898	-0.501554240911378	-0.426105378413051	0.673746566808056	0.133755099822564	-0.237059301555487	0.962243451948352	0.911288841661474	0.410982185723662	-0.0254222359577391	-0.389438339579895	0.880282074430592	0.271000459596342	-5.35916634989665	-74.2053580862069	-60.567164403605
1912	1656054026592	9.57716339003035	-0.247686151509242	2.67476035210051	0.0137863643727353	-0.0171880333326303	0.134033925560772	-0.00286995506917292	0.00971873663859829	0.00547933016838877	0.67529296875	0.403076171875	-0.01171875	0	0	0	-0.336092555005918	-0.501531711007345	-0.426099098416543	0.673756109918306	0.133811002365309	-0.237051593639757	0.96223757856303	0.911295890315551	0.410962705596406	-0.0254844050915121	-0.389402639872893	0.880293244641655	0.271015474647277	-5.37189951425406	-74.2041217915926	-60.5561193055581
1913	1656054026593	9.5724127103684	-0.257331942576909	2.70847050976233	-0.00807817412814618	0.00910461698546694	0.138843633050008	0.00363137624462966	0.00598690742424825	0.00318246860731738	0.67333984375	0.404052734375	-0.020263671875	0	0	0	-0.336075571234736	-0.501514202029864	-0.426089124731588	0.673783921867437	0.133863125895636	-0.237090659194387	0.962220703813954	0.911277346912465	0.41100253640943	-0.0255051380940279	-0.389428119849645	0.880264127627491	0.271073431163189	-5.37510153222766	-74.2005703337126	-60.5506084608711
1914	1656054026593	9.56965544964043	-0.243517634474074	2.62182577592218	0.0377604351892739	-0.0603689012148807	0.112357040918255	0.00164650737131739	-0.00177213576688025	0.00358441705348328	0.68212890625	0.413818359375	-0.020263671875	0	0	0	-0.336095242270206	-0.501542811277765	-0.426067533496845	0.673766468057622	0.133842530711022	-0.237007729065823	0.962243998856803	0.911272339726945	0.411012890046493	-0.0255171915423532	-0.389446915280438	0.880281625719117	0.270989593157856	-5.37928081506916	-74.2054732103005	-60.5458008627182
1915	1656054026594	9.59526397743825	-0.259051231452546	2.63921660894919	0.0204647129846724	-0.0575083015486373	0.142107293273233	-0.00356673201699765	0.0035203753275113	-4.08909546266206E-05	0.67626953125	0.402099609375	-0.01220703125	0	0	0	-0.336099544491075	-0.501523825223221	-0.426082491055743	0.673768995830242	0.133855127098402	-0.237038485861059	0.962234670530099	0.911286202696844	0.41098161401725	-0.0255258636316768	-0.389410145892268	0.880287946731337	0.27102189785272	-5.38046060886535	-74.2035097118011	-60.5466755283483
1916	1656054026594	9.61140703582012	-0.245727485002748	2.62768460807363	0.0391512053564144	-0.0655732549605166	0.154178789076399	-0.00447278975980775	0.00680507782137005	0.00470858683897919	0.68115234375	0.402099609375	-0.01806640625	0	0	0	-0.336123987837467	-0.501520998005398	-0.426080220405614	0.673760342509866	0.133864668677545	-0.23700543480673	0.962241484426817	0.911298386141932	0.410952621158684	-0.0255576716059395	-0.38937835314121	0.880310381078674	0.270994706719816	-5.3876631762408	-74.204943930173	-60.5415057899566
1917	1656054026595	9.57877941298289	-0.216015379359266	2.6690386519885	0.0467315713038083	-0.0100784285875032	0.133224327509488	-0.00845319818637401	0.0172620617499885	0.0031923573333906	0.67822265625	0.40771484375	-0.02001953125	0	0	0	-0.336123394933887	-0.501440049394729	-0.426119865083154	0.673795815379292	0.133959474889052	-0.237144100369291	0.962194125292547	0.91132702740278	0.410885847919266	-0.0256099415243229	-0.389278702490469	0.880304206305812	0.27115788048226	-5.39538732600891	-74.1949781980586	-60.5384861832503
1918	1656054026595	9.55021797010567	-0.234596411561071	2.66194769369007	0.0293175831862153	-0.0176831294959462	0.10429260509239	-0.00626024201908115	0.021551947432422	0.00353058217231642	0.674560546875	0.406494140625	-0.010986328125	0	0	0	-0.336123573168101	-0.501396337859893	-0.426139417627033	0.673815889309453	0.134013818250363	-0.237216764006607	0.962168646024277	0.911341278626078	0.410852280610403	-0.0256413219123874	-0.38922663114199	0.880300295576154	0.271245311882792	-5.40022838462113	-74.1896191554746	-60.5360515540241
1919	1656054026596	9.51954992282819	-0.228946329110547	2.67930930751844	0.0247253521196518	0.00574859031766753	0.0793448326754404	-0.00808123351593717	0.015010476095696	0.00185638646878902	0.681884765625	0.403076171875	-0.017822265625	0	0	0	-0.336123111022081	-0.501326307456276	-0.426178762683848	0.673843342273527	0.13408719137904	-0.237340727506929	0.962127852301638	0.911370159904592	0.410785832948204	-0.0256793902678344	-0.389133726042293	0.880297891918146	0.271386375378187	-5.40540386061348	-74.1810427147214	-60.5354401730356
1920	1656054026596	9.54482054869311	-0.244695341216902	2.69784436339241	0.00688371778417539	0.00928916286060746	0.109091991830313	-0.00648933724789305	0.0108274743952825	0.00246299596545652	0.6796875	0.404541015625	-0.01708984375	0	0	0	-0.336141359632136	-0.501303680022541	-0.426200175485392	0.673837530237622	0.134096061624157	-0.237361546089095	0.96212148021707	0.911397148454576	0.41072479352176	-0.0256978943763094	-0.38906745436461	0.88032075996463	0.271407213481033	-5.40886295223637	-74.1797034617122	-60.5359692420103
1921	1656054026597	9.56297720680345	-0.255508685362984	2.66224531971473	0.0139921887128028	-0.0315975950572263	0.117175357000463	-0.00552860677532884	0.00995358867901325	0.000691479724177125	0.68505859375	0.40283203125	-0.010498046875	0	0	0	-0.336140049731767	-0.501258082526913	-0.426228730741112	0.673854042622428	0.134138807584526	-0.237446073005356	0.962094664112704	0.911417740161543	0.410677872114292	-0.0257174702197705	-0.389004477119003	0.88031985537645	0.271500403335536	-5.41111187401585	-74.1740685967431	-60.5368851348554
1922	1656054026598	9.57653815804318	-0.275467068384657	2.6597554003363	-0.00107884984674022	-0.0453712567944756	0.130058944311857	-0.00711978426703924	0.0141360994752329	8.62522356549457E-05	0.6767578125	0.396728515625	-0.01904296875	0	0	0	-0.336153979070407	-0.501224871416324	-0.426253752634491	0.673855970511382	0.134162733277408	-0.237489802459967	0.962080534428933	0.911444742202568	0.410616481440294	-0.0257407669056065	-0.388932954261826	0.8803366963254	0.271548261257645	-5.41503566025059	-74.1711003142068	-60.5370274395893
1923	1656054026599	9.55769891695557	-0.265188000146113	2.69770459233199	-0.00823189824534134	-0.00448132282252211	0.121971932605771	-0.00472055950077861	0.0149575398985201	0.00116267654935928	0.678466796875	0.40673828125	-0.010498046875	0	0	0	-0.336140505701029	-0.501163205387128	-0.426287106969921	0.673887456794064	0.134229487994629	-0.237616562164963	0.962039923255581	0.911461575355274	0.410577725716544	-0.0257629151361712	-0.38887046841279	0.880320566913176	0.271690003986312	-5.41685655122739	-74.1625719710982	-60.5379147870028
1924	1656054026599	9.52929424758698	-0.283414648977046	2.69005090498213	-0.0253125090395555	-0.0123928290700001	0.0930358401810611	-0.00434900907245695	0.0127068721876328	-0.00017495620287906	0.67724609375	0.40576171875	-0.02294921875	0	0	0	-0.336147193729478	-0.501137435425708	-0.426310120804321	0.67388872661779	0.134241903429499	-0.237659283723923	0.962027637972765	0.911483054088479	0.410529490095204	-0.0257716874052002	-0.388815834905376	0.880331529948805	0.271732669925483	-5.41784426426334	-74.1599929441753	-60.5400564311747
1925	1656054026600	9.5477388514618	-0.236429556915217	2.67066430279713	0.0279966492973179	-0.0154383507517841	0.104300170835703	-0.00137277173550211	0.00780981496840759	0.000299503297052947	0.680419921875	0.402099609375	-0.017333984375	0	0	0	-0.336135520366968	-0.501108437292904	-0.42632596282811	0.673906090965334	0.134273014985098	-0.23772663551359	0.962006654973967	0.911488016832504	0.410518170732627	-0.0257764751098303	-0.388793457529266	0.880318623150577	0.271806492042983	-5.4173817765284	-74.1555889676166	-60.5413230707472
1926	1656054026601	9.55681323780255	-0.265550452247944	2.70080486393999	-0.00936588874129313	-0.00268594913723844	0.121971575885336	-0.000358998917638811	0.00934572393438157	0.00150699130632987	0.67138671875	0.403564453125	-0.01904296875	0	0	0	-0.336132024719182	-0.501128388625021	-0.426312675569682	0.673901404302508	0.134255681525417	-0.237694821651158	0.962016935265887	0.911476021302315	0.410545529213604	-0.025764918661291	-0.388827564055131	0.880314455295916	0.271771200144546	-5.41566642557745	-74.1577464779664	-60.5412069020947
1927	1656054026602	9.56109847675414	-0.256460778348927	2.66889335111904	0.0124697424567995	-0.0289659369882345	0.117185410980078	0.00124444771550753	0.0122584407792547	0.00228116335790262	0.677978515625	0.406494140625	-0.022216796875	0	0	0	-0.336106970920496	-0.501087182680862	-0.426322503609095	0.673938322376817	0.134321516538859	-0.237792355471697	0.961983641167522	0.911467936023496	0.410562454030243	-0.0257812517487595	-0.38882377987434	0.880280220736492	0.271887478903211	-5.41677533122293	-74.150760129941	-60.5392440232989
1928	1656054026602	9.54233912962182	-0.246226221688035	2.70646926376697	0.00432438537372182	0.0127506108212529	0.109089592851653	-0.0112860254056446	0.00918298116002677	0.000311384662374252	0.681640625	0.39990234375	-0.0166015625	0	0	0	-0.336127506630736	-0.501087877178669	-0.426354740568591	0.673907170035658	0.134265149078528	-0.237788195777824	0.961992538272334	0.911505870813642	0.410479868961788	-0.0257550897761666	-0.388754314722275	0.880319857282477	0.271858477261559	-5.41188505670968	-74.1526267817212	-60.5491122969352
1929	1656054026603	9.59071261995288	-0.263154334625484	2.6553048796541	0.0159772820052847	-0.0515355136265959	0.142148219523989	-0.00589881958737796	0.0122026753946147	0.00203197418312805	0.68017578125	0.408447265625	-0.0126953125	0	0	0	-0.336125797569583	-0.501032762786287	-0.426383159884205	0.673931020053323	0.134327143163801	-0.237885601748579	0.961959801182029	0.911525749748707	0.410433698350744	-0.02578733803995	-0.388686282436759	0.880315068449272	0.271971237645904	-5.41638781782513	-74.1457594516261	-60.5478348979493
1930	1656054026604	9.54169051836152	-0.247088266946384	2.70867658507463	0.00393823919297848	0.0134965100352505	0.109088767035544	-0.00265253206870177	0.0133417828461387	0.00639138428693938	0.67919921875	0.406494140625	-0.01513671875	0	0	0	-0.336137902852043	-0.500999937228423	-0.426375609748253	0.673954162072727	0.134405804617842	-0.23790509713433	0.961943992362619	0.911525370050199	0.410430299356072	-0.0258547698758532	-0.388659979210464	0.880311384754276	0.272020746326693	-5.42948422470512	-74.1424442389836	-60.5354823566991
1931	1656054026605	9.57153975757196	-0.253477146175164	2.69427652302033	0.00845846303027947	-0.00990204571650957	0.134049804962887	-0.00338559888657134	0.0118327926377779	-0.00194433862408575	0.68115234375	0.403564453125	-0.016845703125	0	0	0	-0.336118552148054	-0.50095808388741	-0.426410525124113	0.673972834135864	0.134430124502466	-0.238015608560323	0.961913255812556	0.91154083193272	0.410396765930548	-0.0258419471625339	-0.388615302510923	0.880297145624934	0.272130634179503	-5.42462924299969	-74.1360005158359	-60.5424378986943
1932	1656054026607	9.57800366061528	-0.268465185571533	2.63784857479839	0.0176132561042389	-0.0675504529138775	0.125300330843235	-0.00829664926842971	0.0113808081933967	0.000955714644895459	0.679931640625	0.404541015625	-0.016357421875	0	0	0	-0.336132902053658	-0.500937011520839	-0.426433326644475	0.673966913559178	0.134433456830996	-0.238041083137526	0.961906486319321	0.911566728851871	0.410338580167825	-0.0258524365612409	-0.38855339984971	0.880317381609932	0.272153565291114	-5.4263634660412	-74.1345816770767	-60.5444554228015
1933	1656054026608	9.57521243446694	-0.302093442267139	2.64749099426683	-0.0164644931600195	-0.073311622534683	0.126101110474234	0.00104019231275559	0.015725095222118	0.00155063530139425	0.679443359375	0.4091796875	-0.016845703125	0	0	0	-0.336099022006436	-0.500885785296099	-0.426451928482741	0.674010111339569	0.134504365563323	-0.238171378445363	0.961864320023278	0.911560268745141	0.410352400199338	-0.0258608603091294	-0.388544015640048	0.880275696665583	0.272301754989254	-5.42518461603551	-74.125746696089	-60.5449434002952
1934	1656054026609	9.57718822603056	-0.26874498086324	2.64077919802127	0.0167810890794959	-0.0667615825390343	0.125307101659621	0.00222057085080896	0.018478405317367	0.000685715668538724	0.683837890625	0.40625	-0.02001953125	0	0	0	-0.336057727794963	-0.500874183008199	-0.42646200652186	0.674032946804906	0.134510419578437	-0.238253606206738	0.961843108908266	0.911544165618312	0.410390721165272	-0.0258203429230516	-0.388579697297798	0.880235579325747	0.272380512770313	-5.41517841161248	-74.1213042036511	-60.5523070488193
1935	1656054026609	9.55822826312385	-0.258400806584145	2.67896799315106	0.0095917564966505	-0.0258599818654039	0.117197182499947	-0.00231931306707533	0.0157763836197187	0.00224587441739002	0.679443359375	0.407958984375	-0.02099609375	0	0	0	-0.336036617064553	-0.500814795598118	-0.426486874280773	0.674071864542678	0.134586973152462	-0.238381385721504	0.96180073903026	0.911549824476173	0.410376676116055	-0.0258437845022227	-0.388539913207275	0.880207531575045	0.272527865003652	-5.41715231872601	-74.1124338067729	-60.5515026826729
1936	1656054026610	9.55761710110235	-0.316018441903571	2.66402759987484	-0.0376308212672097	-0.0624074197072132	0.114026318313808	0.0017844092206993	0.0112246208849032	-0.00112576848792081	0.68115234375	0.396240234375	-0.021728515625	0	0	0	-0.336009076959796	-0.500857649509097	-0.426467029292061	0.674066308352266	0.134534975710053	-0.238348679138106	0.961816119361604	0.911519545137325	0.41044754625486	-0.0257862483895862	-0.388628947896757	0.880183343926983	0.272479030257697	-5.40612659411625	-74.115653216617	-60.557615296179
1937	1656054026611	9.55769409463695	-0.258465106435025	2.68086687315858	0.00849014324448994	-0.0245296473867854	0.117201560914516	0.0103873932003198	0.00119380757848147	0.00461524358762736	0.67724609375	0.395751953125	-0.024169921875	0	0	0	-0.335982054066706	-0.500871282097519	-0.426427321755632	0.674094768838495	0.134575396060613	-0.238337329406265	0.961813277193977	0.91147237813486	0.410551597210872	-0.0257970914016483	-0.388725567299492	0.880137888878266	0.27248803623021	-5.40820867947114	-74.1150582464147	-60.5490789036918
1938	1656054026612	9.54834545683094	-0.229738542535132	2.65182804838762	0.0450852597456872	-0.0342124935990652	0.099561099027639	-0.000320444727534745	0.00465863833916388	0.00431958463877445	0.67041015625	0.396728515625	-0.01513671875	0	0	0	-0.336036064541822	-0.500902988969218	-0.426347363631653	0.674094863126317	0.134648242332085	-0.238154197202187	0.961848443982659	0.911440073723993	0.410615377703168	-0.0259230323011683	-0.388776083172413	0.880157707430133	0.272351917937896	-5.4371535653592	-74.1224214768227	-60.5169370285101
1939	1656054026613	9.54799524653643	-0.287775020534711	2.63591508308648	-0.00116710878239733	-0.0720151669768548	0.0963937479930088	-0.00150098064663437	0.00190524337220142	0.00518483176974179	0.6806640625	0.399658203125	-0.01220703125	0	0	0	-0.336049493668746	-0.500888574711439	-0.426335427603273	0.674106428317411	0.134697477787755	-0.23814420090116	0.96184402532571	0.911437608566115	0.410617681950628	-0.0259731584674353	-0.388764807009197	0.880159337192216	0.272362747057046	-5.44738865739324	-74.121496114669	-60.5069312817604
1940	1656054026614	9.5875994365273	-0.265835132873789	2.66625794064748	0.0132192632305839	-0.0451695106334839	0.14218318483635	0.00207793319153558	0.00547958748082284	0.00539823903696465	0.683349609375	0.397216796875	-0.015380859375	0	0	0	-0.336084263378658	-0.500864479026659	-0.426314144522534	0.674120457884641	0.134782047658746	-0.238108833644039	0.961840934338725	0.91143951158888	0.410607236178489	-0.0260713312373364	-0.38873103341969	0.880173778829237	0.272364283117156	-5.46782337435223	-74.1208488264977	-60.4878704292072
1941	1656054026614	9.59445198441009	-0.271009378188655	2.72089418113665	-0.0112839010135686	-0.00134769726445952	0.163789515691375	0.00342625124727069	0.00945061924565307	0.00245941045790962	0.68310546875	0.40478515625	-0.013671875	0	0	0	-0.336058335562475	-0.500839462836003	-0.426311601493109	0.674153577456579	0.134836501797048	-0.238176429986303	0.96181656566214	0.911421535044988	0.410646427062719	-0.026082511321961	-0.388754296747151	0.880137205292221	0.272449255130245	-5.46845820503092	-74.1157466457038	-60.4849207392844
1942	1656054026615	9.57079506301927	-0.279882492108078	2.67989021487003	-0.00589800733472329	-0.0351858489907708	0.130098515010452	0.0054017195350949	0.0101126401654886	0.00189692897579906	0.68115234375	0.397216796875	-0.00732421875	0	0	0	-0.336061186836656	-0.500833301413438	-0.426268651969004	0.674183891268386	0.13492208108769	-0.238145649659744	0.961812186231338	0.911388184381026	0.410715830100934	-0.0261550047822339	-0.388802789863479	0.880113149801001	0.27245776579451	-5.4833944217876	-74.1148298735814	-60.4661569530135
1943	1656054026616	9.55882031900351	-0.284259147959158	2.65992947376937	-0.00336988656231534	-0.0526134231096487	0.113253114036194	0.00737727737465429	0.0107745759238189	0.00133465048266837	0.681640625	0.405517578125	-0.019287109375	0	0	0	-0.336016569582712	-0.50081390280782	-0.42626188553974	0.67422481759156	0.13497247938101	-0.238229144806904	0.961784437581683	0.911356223290158	0.410787339803944	-0.0261456636385359	-0.388860211489995	0.880057177700046	0.272556599440532	-5.47947241507383	-74.1090222823915	-60.4655936623012
1944	1656054026617	9.52381250097308	-0.28735748871758	2.70897906635288	-0.0295973627207978	-0.00208451630877571	0.0930314970463293	0.0113492344733522	0.00031925378426352	0.00284687740366594	0.68701171875	0.40576171875	-0.015625	0	0	0	-0.336018860502691	-0.500842541561957	-0.426200610255355	0.67424113918256	0.135019576759445	-0.238138889743904	0.961800178354756	0.911309050171586	0.410888730408873	-0.0261966848732213	-0.388954404740534	0.880034272295418	0.272496147896465	-5.49131041296109	-74.1123164582239	-60.4477053130013
1945	1656054026618	9.55648266229681	-0.260022192006156	2.68503173011524	0.00895517344220668	-0.0196419265348767	0.117212023549897	0.0159269051064477	-0.00166560298538236	0.00409891218920248	0.67724609375	0.398193359375	-0.013427734375	0	0	0	-0.335979015651407	-0.500878354308178	-0.426142104157822	0.674271371401299	0.135047562498953	-0.238101609081543	0.961805479094329	0.911240074847775	0.411042016211713	-0.0261913516266774	-0.389106260364073	0.879972774954652	0.272477950454888	-5.49056371950919	-74.1134259288823	-60.438760899699
1946	1656054026620	9.55638648440957	-0.260020680369309	2.68537417688964	0.00904871185381933	-0.0187049041824448	0.117213748027577	0.00998005895854863	0.00812754863662767	0.00314840217573946	0.68359375	0.3974609375	-0.013427734375	0	0	0	-0.33596556357799	-0.500886634070154	-0.426088931671206	0.674305525861152	0.135121604234323	-0.238066921660215	0.961803666493517	0.911189562876462	0.411150724794028	-0.0262423704407124	-0.389198834240475	0.879931373638067	0.27247943979919	-5.5011635004493	-74.1130465341946	-60.4216988515448
1947	1656054026619	9.59097925034896	-0.256821509295743	2.63784446515275	0.0354493855477511	-0.0683299142339271	0.137445197001744	0.00935397816183393	0.0114356291010901	0.000771869949471891	0.676025390625	0.393798828125	-0.017333984375	0	0	0	-0.335911778213085	-0.500869720089116	-0.426079925059336	0.6743505751588	0.135170841918563	-0.238158408398313	0.961774098218604	0.911150561711213	0.411238349438308	-0.0262235360810961	-0.389273037068287	0.87986566728134	0.272585601511148	-5.49511160722438	-74.1068588573681	-60.4221880002213
1948	1656054026619	9.54409726354731	-0.264170361231517	2.66657072715028	0.0123099043650753	-0.0348403575370172	0.100375356403275	0.00856002681786528	0.013526387204803	0.00046952417982683	0.676025390625	0.404296875	-0.01025390625	0	0	0	-0.335913423464945	-0.500845884070096	-0.426031558691581	0.674398015525644	0.135301022817733	-0.238147964373173	0.96175837937051	0.911111386558424	0.411318565869766	-0.0263263870370767	-0.389319501833729	0.87983099765566	0.27263114469221	-5.51561535808515	-74.1035703697434	-60.3974263373489
1949	1656054026620	9.56958945262573	-0.22182989812555	2.70133190323926	0.0411734853600848	0.00598407553401154	0.133252195675997	0.00737872683793808	0.0107735449371721	0.0013351670968202	0.6826171875	0.401123046875	-0.01513671875	0	0	0	-0.335869610012702	-0.500825797139391	-0.426023743358146	0.674439690472559	0.135354582029612	-0.238230312869842	0.961730448282431	0.911078973547874	0.411390750330055	-0.0263202298969103	-0.389376734131023	0.879774953367514	0.272730251979217	-5.51234182791612	-74.0977286347558	-60.3961947404213
1950	1656054026624	9.57147799600073	-0.245976330300996	2.67788561348511	0.028881251203295	-0.0256907596057225	0.129308035157267	0.0046090328404049	0.012202726571868	0.0015944440575326	0.680908203125	0.412353515625	-0.015625	0	0	0	-0.335850378776377	-0.500799491248305	-0.426030099151171	0.674464785780879	0.135396448365365	-0.238297201466882	0.961707983508039	0.911071996773923	0.411405755386014	-0.0263271937289298	-0.389378502827805	0.879749821374415	0.272808785282406	-5.51221382751063	-74.0930316855573	-60.3954926959316
1951	1656054026625	9.568922821402	-0.221885950552471	2.70368777164428	0.0410243204626267	0.00644242042104892	0.133252525730601	0.00183935157045386	0.0136319203479351	0.00185355688243642	0.677734375	0.406005859375	-0.0185546875	0	0	0	-0.33582039762266	-0.50075685342036	-0.426039458051874	0.674505459189149	0.135465907870813	-0.238403149316156	0.961671943128672	0.911060611827745	0.411430081446849	-0.0263410261131665	-0.389380982304981	0.879709739901053	0.272934468586198	-5.51256811775519	-74.0854991614703	-60.3938100583355
1952	1656054026626	9.5242361611904	-0.253528678338372	2.70778618340129	0.00338356233385243	0.00708185539064557	0.0922303843443508	0.00695706302586128	0.0106135816562311	-0.000304755790041861	0.68017578125	0.4072265625	-0.01171875	0	0	0	-0.335746035030609	-0.500810267022857	-0.426042178596576	0.67450110338116	0.135354277002355	-0.238441716189519	0.961678099822267	0.911021962011697	0.411525324035816	-0.0261895477160884	-0.389510210943855	0.879654736619893	0.272927352811439	-5.4812028244014	-74.0867856789222	-60.4180736243389
1953	1656054026627	9.55428551330788	-0.259413172146802	2.69289824407718	0.00790545879544528	-0.0162454921581526	0.117219052224625	0.000759830902495578	0.00259292436035306	-0.00250651618533857	0.67724609375	0.396240234375	-0.015869140625	0	0	0	-0.335731778479043	-0.500810592564115	-0.426050898172693	0.674502450300309	0.135338765083645	-0.23846868769487	0.961673595173914	0.911020811385645	0.411529610171081	-0.0261622089029118	-0.389518292109466	0.87964542000827	0.272945846589758	-5.47514713783964	-74.0858443668586	-60.4236747400454
1954	1656054026628	9.57282277420664	-0.269721425485899	2.65646139847663	0.0149045923654917	-0.0566032770878855	0.125373142732927	-0.00282018019976158	-0.000980350122537011	-0.00272206323765541	0.679443359375	0.406005859375	-0.01416015625	0	0	0	-0.335755570950418	-0.500825174243531	-0.426060777707197	0.674473539228362	0.135292717086949	-0.238423756684164	0.96169121497071	0.911043125982083	0.411480820550594	-0.0261525700420535	-0.389482096256073	0.87968042297622	0.27288468283939	-5.47436148362271	-74.0895265896467	-60.4274098247659
1955	1656054026629	9.57279277005604	-0.269673783697986	2.6565743569108	0.0148677870011105	-0.0565468788037732	0.125373518925933	-0.00356391676985607	0.0035201620072051	-4.4869096620632E-05	0.677978515625	0.407470703125	-0.023681640625	0	0	0	-0.335760099004839	-0.500808918871591	-0.426073625659978	0.674475239139206	0.135303384591257	-0.238448916750181	0.961683476107817	0.911055525481508	0.411452842866444	-0.0261608024864388	-0.389449385168038	0.87968668979233	0.272911165389857	-5.47554610508984	-74.0879092033145	-60.4280658877044
1956	1656054026629	9.59120634486696	-0.280255173385997	2.62056706567314	0.0204836618151814	-0.0964617345667433	0.133539529221728	1.6085123752995E-05	0.00709343910859673	0.000170932285639466	0.677490234375	0.404052734375	-0.01513671875	0	0	0	-0.335727950557297	-0.500869252006765	-0.426064012997765	0.674452513107499	0.135198898444848	-0.238408273675223	0.961708247288387	0.911031503568813	0.411512400085674	-0.0260603929532162	-0.389541855728557	0.879669846941981	0.272833471217562	-5.45620097777114	-74.0930868290797	-60.442870363522
1957	1656054026630	9.54692008851315	-0.254286563090434	2.64030944878426	0.0306046550841557	-0.0584354669612728	0.0956539439141419	0.00476201227033502	0.00632561939999194	-0.000648543315943784	0.678466796875	0.404296875	-0.02294921875	0	0	0	-0.335696567522698	-0.500863180863296	-0.426062824385098	0.674473393312126	0.135213087464989	-0.238459976625714	0.961693433754151	0.911012179082948	0.411556568460943	-0.0260384431022945	-0.389582122973736	0.879635168978774	0.272887777217961	-5.45055472181034	-74.0899903346051	-60.4456213925951
1958	1656054026632	9.57232094192347	-0.269553459478518	2.65828617936425	0.0121066091002143	-0.0543254888883182	0.125389657466906	0.00459304377696655	0.00510882349881601	0.00142564968106762	0.680419921875	0.4052734375	-0.0126953125	0	0	0	-0.335672795029702	-0.500930856639305	-0.426022913996699	0.674460175468738	0.135145507232746	-0.238373257126356	0.961724431509243	0.910968700185311	0.411656502853417	-0.0259798179589502	-0.389707222357361	0.879611910984308	0.272784103087119	-5.44041103947224	-74.0964705115212	-60.448969601451
1959	1656054026633	9.60009318831336	-0.251477938305315	2.66818726830739	0.0287417277771054	-0.0455547670586448	0.154325842486189	0.00280247154377733	0.0127572542269842	8.39523721249448E-05	0.67333984375	0.3984375	-0.010498046875	0	0	0	-0.335635984304864	-0.50089848572893	-0.426034767841339	0.67449504788734	0.135190167169682	-0.238477569684741	0.961692293541907	0.910955794862523	0.411685725260162	-0.0259692784536419	-0.389721898931818	0.879569958772055	0.272898386068339	-5.43595346101262	-74.0897520187248	-60.4516023516492
1960	1656054026634	9.55313290678427	-0.259021342992205	2.69702199097525	0.0048801731556896	-0.0132665215377879	0.117225426683989	0.0010457243210347	0.015721941709114	0.00155198217823851	0.6796875	0.399169921875	-0.020263671875	0	0	0	-0.33562561978178	-0.500834758885424	-0.426076711244737	0.674521032861944	0.135246360854096	-0.238609453976084	0.961651678285313	0.910981359412799	0.41162815896193	-0.0259850255343683	-0.389642637140923	0.879561133306178	0.273039975276551	-5.43642622034801	-74.0812652865869	-60.4549770829137
1961	1656054026635	9.51774036248961	-0.272399733042371	2.63548688850061	0.0125633656380448	-0.0656887497569779	0.0667307050394523	0.000454813897308564	0.0143456186560843	0.00198463209955393	0.685791015625	0.3994140625	-0.0185546875	0	0	0	-0.335598033277225	-0.500788412880452	-0.426091089572249	0.67456008551668	0.135314697823623	-0.238720870738097	0.961614412551594	0.910975296540908	0.411640686895184	-0.025999115074651	-0.389633085922006	0.879525037032207	0.273169851170273	-5.4367856836383	-74.0734823270428	-60.4540352696215
1962	1656054026636	9.57097552336507	-0.269869739332597	2.66309417787823	0.0120001320700709	-0.0519634336611195	0.12540241783071	-0.000355390904116118	0.00934316256315836	0.00151028500507793	0.680419921875	0.408935546875	-0.0146484375	0	0	0	-0.335625138340202	-0.500818634953318	-0.42600569672519	0.674578096112896	0.13539968248236	-0.238573576381136	0.961639004323551	0.910922870939371	0.411749825743611	-0.026107550625828	-0.389726120735126	0.879513916690816	0.27307292279523	-5.46125048562757	-74.0786179100253	-60.4234223100143
1963	1656054026637	9.57077476137962	-0.270026851426808	2.66379966669246	0.0119378319771714	-0.0518810052066644	0.125402923515093	0.00501474171606718	0.00526782738658702	0.00306958950939455	0.675537109375	0.40283203125	-0.01318359375	0	0	0	-0.335604682701561	-0.500811265804234	-0.425988640566263	0.674604514586771	0.135443508304136	-0.238598508270171	0.961626646838323	0.910896932084559	0.411806350114584	-0.0261210475334375	-0.389771516631483	0.879480688734298	0.273115145984691	-5.46321710025483	-74.0760370528852	-60.4180325052494
1964	1656054026639	9.58217307610011	-0.265682769295632	2.68570932845644	0.00834882851698769	-0.0341329545530178	0.142232420517436	0.00520162286958104	0.0135771272545006	0.00116755586733438	0.6865234375	0.40283203125	-0.016845703125	0	0	0	-0.335553081602933	-0.500810519499614	-0.426012691403146	0.674615549590099	0.13540402064395	-0.238692545652059	0.961608870510039	0.910886598121103	0.411834632380447	-0.026035378534351	-0.3898093849009	0.879441927714504	0.273185905970605	-5.44400532386703	-74.0723251864618	-60.43489482447
1965	1656054026640	9.58175583467018	-0.265496023299467	2.68721601117497	0.00827470960115019	-0.0340574914781948	0.142232740860511	0.00655467445225995	0.0175452359334753	-0.0017694107254277	0.683837890625	0.400634765625	-0.016357421875	0	0	0	-0.33548880773661	-0.500773285920495	-0.426029251542794	0.674664696587679	0.135450385876554	-0.238846126179569	0.961564205331556	0.910861456738813	0.411892673426709	-0.0259967729736957	-0.389852022687507	0.879373045747033	0.273346751983717	-5.43280171824306	-74.0630023887072	-60.4422921129684
1966	1656054026641	9.5674580982606	-0.2455929223432	2.69224746546442	0.0232026119954497	-0.0178230911455357	0.129340127155071	0.00700817573879387	0.0130215798200976	0.00268247098382126	0.677734375	0.407958984375	-0.015380859375	0	0	0	-0.335479393557275	-0.500785785037936	-0.425944987446675	0.674713303315885	0.13556893034598	-0.238774876088718	0.961565194707912	0.910788121955239	0.41204888833499	-0.0260904297999637	-0.389982130398426	0.879319209485791	0.273334348004763	-5.45250230774285	-74.0632088400459	-60.4134404956082
1967	1656054026642	9.52529225623037	-0.243835601919891	2.68771754344531	0.0211698269689378	-0.0118720321339985	0.0875088386035863	0.00716138288625116	0.00714508043528834	0.000437312528942828	0.67236328125	0.401611328125	-0.02001953125	0	0	0	-0.335441115307254	-0.500781317634433	-0.425934409431131	0.674742327805438	0.13559590154175	-0.23882666239933	0.961548530658893	0.910757237248652	0.412118274047959	-0.0260726484066058	-0.390044877269633	0.879272627529669	0.273394660139494	-5.44761383900497	-74.059731931185	-60.4138816169938
1968	1656054026643	9.55537012544351	-0.249898182631618	2.6728317079597	0.0240814289103192	-0.0344847231189549	0.112523343231983	0.00459341639343774	0.00510801275735865	0.001429187366191	0.671875	0.40087890625	-0.0068359375	0	0	0	-0.335401255731799	-0.500849014193929	-0.425926413235344	0.674716942979037	0.135473910978889	-0.238788758359	0.961575139198935	0.910730311529709	0.412185376324015	-0.0259521715012225	-0.390150123805034	0.879251468253535	0.273312525269004	-5.42421166929892	-74.0652840833469	-60.4321154579447
1969	1656054026644	9.56684392058015	-0.245486193830098	2.69443882673384	0.0214016155396299	-0.0168919084767828	0.12934579290231	0.0075827123692893	0.00730454870892244	0.00207994754474095	0.685302734375	0.405029296875	-0.019287109375	0	0	0	-0.335364928484419	-0.500842981760924	-0.425909716093479	0.674750017488432	0.135514442715999	-0.238834835244785	0.961557984361302	0.910695518285487	0.412262556959626	-0.0259471983813253	-0.390217258447266	0.87920276705815	0.273373344726935	-5.42197910008609	-74.0617043300042	-60.4295038838915
1970	1656054026645	9.58524986186919	-0.256160260667525	2.65865203205577	0.0282699037951738	-0.0574381550706548	0.137537019826929	0.00602728557448194	0.00680315194156726	0.00428219957405979	0.681396484375	0.401611328125	-0.014892578125	0	0	0	-0.335354506559733	-0.500835841588134	-0.425900271166312	0.674766458659028	0.135544837602336	-0.238851322387189	0.961549604957148	0.910681548480059	0.41229262790108	-0.0259597040889255	-0.390239303834608	0.879184187057703	0.273401629421567	-5.42401888261591	-74.0599560583398	-60.4256860708615
1971	1656054026646	9.57334130993826	-0.260467671352211	2.63862817115576	0.0307761758067968	-0.0748564694901213	0.120716638764152	0.00772286850385484	0.013202454192558	-0.00280274608989545	0.6708984375	0.402099609375	-0.02294921875	0	0	0	-0.335292838719358	-0.500818219373386	-0.425909843409471	0.674804141017307	0.135563832861182	-0.238969927153334	0.961517457530708	0.910652976977642	0.412359035180869	-0.0259071732626839	-0.390299375789592	0.8791208108224	0.273519646894371	-5.41078658823731	-74.0532505790591	-60.4344484312143
1972	1656054026647	9.56583584206341	-0.302784213238257	2.68109463089292	-0.0262821028053181	-0.0529530329354204	0.126209317284653	0.00498384287844495	0.00994971640820492	0.00026287265394691	0.677001953125	0.3935546875	-0.02197265625	0	0	0	-0.335261967993851	-0.500876045569182	-0.425874252495747	0.674799022563798	0.135508616072335	-0.238909681121434	0.961540211970678	0.91060843615544	0.412461067756157	-0.0258484736105296	-0.39042245193214	0.879089319609734	0.273445199583738	-5.40006063084592	-74.0579965357363	-60.4382659853677
1973	1656054026648	9.58441342243101	-0.255572532775967	2.66172231722599	0.0269353957394414	-0.0558429948754213	0.137549802118313	0.00834573027621505	0.00989566967165031	-0.000423936199796975	0.68408203125	0.411376953125	-0.01025390625	0	0	0	-0.335211113328726	-0.500867743179752	-0.425868324606631	0.674834189590065	0.135535347877527	-0.238988143772527	0.961516945566681	0.910573879059451	0.412539359195316	-0.0258164267346174	-0.39049376467537	0.879031253284478	0.273530026685877	-5.39174240842533	-74.0531438131272	-60.4414897053735
1974	1656054026649	9.55863011076398	-0.239966392103601	2.64521763012441	0.0439123428259414	-0.0576051259190434	0.107843019136373	0.00834591842297999	0.00989549526119741	-0.000423520644850674	0.681884765625	0.407470703125	-0.02099609375	0	0	0	-0.335179588742684	-0.500899167226258	-0.425824112161109	0.674854423608921	0.135547699548489	-0.238956217797632	0.961523139151089	0.910520925287432	0.412656937584976	-0.0258049700001181	-0.390612935987572	0.878984742665559	0.273509335124653	-5.38976908499909	-74.0544354814999	-60.435964262668
1975	1656054026649	9.5325814466728	-0.281919116214422	2.61275105382092	0.0149814022553258	-0.0983150525066513	0.0749900723674575	0.00814480912913573	0.0133613444909153	-0.00115869413486252	0.6708984375	0.40185546875	-0.015869140625	0	0	0	-0.335120272781346	-0.50088018993538	-0.42582668776305	0.674896340255304	0.135581334638095	-0.239067534544806	0.961490725709001	0.910487958072475	0.412732069519413	-0.0257665867983591	-0.390678102666079	0.8789191957836	0.273626876202507	-5.37950098515944	-74.0476768057762	-60.4413151596498
1976	1656054026650	9.58824649933534	-0.24559309071422	2.63212118371157	0.0466764071434565	-0.0797288899850514	0.132880159296656	0.00419122517767032	0.0120395774179253	-4.02162810548049E-05	0.6806640625	0.400146484375	-0.023681640625	0	0	0	-0.335065977543647	-0.500941672459423	-0.425815040447536	0.674885014513539	0.135477984244439	-0.239055357155106	0.961508321337111	0.910449401854969	0.412824684042768	-0.0256450171947435	-0.390803790215746	0.878879011275405	0.273576462972554	-5.35524867985396	-74.0513454048662	-60.4588082054259
1977	1656054026651	9.54127059557439	-0.252954748355066	2.66077963571626	0.022721197424721	-0.0474921330419826	0.0957336538674021	0.00718080385743309	0.0142357744566027	0.000612342808964487	0.685302734375	0.405029296875	-0.0166015625	0	0	0	-0.335012169531246	-0.50091561854412	-0.425815531154174	0.674930754072163	0.135529353052901	-0.239166338833948	0.961473482125133	0.910417651316154	0.412895959387712	-0.025624732062578	-0.390859942476893	0.878815332757722	0.273700778729059	-5.34862093308678	-74.0440824032141	-60.4608984008203
1978	1656054026652	9.52704915754284	-0.233091034245624	2.66549767755616	0.0367876836230707	-0.0306463497047035	0.0828460912651838	0.00359966291320441	0.0106636864934014	0.000391973451526273	0.67041015625	0.408203125	-0.01953125	0	0	0	-0.334997459012045	-0.500988507179879	-0.425717480657714	0.674945808781415	0.135550284672252	-0.23901270479082	0.961508734892121	0.910332212388808	0.413082658235844	-0.0256511315950344	-0.391051637782747	0.878769392055381	0.273574436258299	-5.35655752815787	-74.0514316388718	-60.4413069258922
1979	1656054026653	9.56391377092273	-0.243769955720713	2.70497621039784	0.0167109155348609	-0.0100658360517473	0.1293640381459	0.00414430855523826	0.00962837582850773	-0.00301977938125104	0.671630859375	0.4052734375	-0.015625	0	0	0	-0.33495483888215	-0.500978415628235	-0.425729194819416	0.674967062650074	0.135550559506071	-0.239096079242903	0.961487967011685	0.910316657203664	0.41311981717569	-0.0256046924267967	-0.391087751579026	0.878729242456057	0.273651765968113	-5.34541399574406	-74.0471017059146	-60.4498311945204
1980	1656054026654	9.56597136278089	-0.267751790356413	2.68122613194989	0.0018191995765044	-0.0419110723444839	0.125456973141798	0.00140336583648821	0.00637689654974837	4.40704301241678E-05	0.680419921875	0.39990234375	-0.02294921875	0	0	0	-0.334887146957096	-0.501058354649685	-0.425780300963623	0.674909074876027	0.135303321094155	-0.239129972352291	0.961514361631528	0.910321983742889	0.413123468228526	-0.0253551949952098	-0.391160960750563	0.878718303167532	0.273582248077375	-5.29496200146999	-74.0526049651014	-60.4981682594111
1981	1656054026655	9.54031536688101	-0.252259985023278	2.66426845630959	0.0190142710184155	-0.0447250766467441	0.0957543372891809	0.00375339175230869	0.00478702042180527	-0.001852319256458	0.6826171875	0.407470703125	-0.018798828125	0	0	0	-0.334858287203978	-0.501062875737011	-0.425781717485332	0.674919144123365	0.135291847226795	-0.239166351995563	0.961506927768644	0.910306577398744	0.413159713092119	-0.025317713605761	-0.391200781209019	0.878691360803537	0.27361184409795	-5.28661043796505	-74.051054822948	-60.5039861019779
1982	1656054026656	9.57045218567504	-0.258276919101158	2.64930249686813	0.022411828780366	-0.0658388078215909	0.120802894084941	0.000811297428503338	0.0050013900245184	0.00047548859278403	0.672607421875	0.400146484375	-0.014404296875	0	0	0	-0.334851626217224	-0.501165242673094	-0.425687944802179	0.674905594588011	0.135246346373032	-0.238966357966055	0.961563053342414	0.910230344016596	0.413328324139555	-0.025306467462207	-0.391393851030103	0.878666476101385	0.273415575912198	-5.28804717809318	-74.0627620085406	-60.491702863515
1983	1656054026657	9.57031086825764	-0.258049057677205	2.64983515007804	0.0222424428122044	-0.0656937538220513	0.120804235160872	0.00392559637213391	0.006002086300678	-0.00392586919836782	0.67529296875	0.40185546875	-0.0126953125	0	0	0	-0.334814486072586	-0.501170504596036	-0.425697175152992	0.674914291081221	0.135220080779434	-0.2390199245052	0.961553433483305	0.910216504229441	0.413362349965425	-0.0252484268697411	-0.391435109797701	0.87863589917587	0.273454770477809	-5.27523557295638	-74.0607548155646	-60.501976773433
1984	1656054026658	9.54466428659993	-0.242608728665229	2.63284800012176	0.0392524071739524	-0.0684363274401245	0.0911068415638585	0.00303633405476501	0.00460721019175352	0.00363375986224854	0.680908203125	0.414794921875	-0.01708984375	0	0	0	-0.334827374205039	-0.50115499396408	-0.425718688595486	0.674905845054228	0.135214540410806	-0.239039241166359	0.961549410713826	0.910240883961298	0.413308455326997	-0.0252518102433464	-0.391380328104069	0.878655997497213	0.273468603015645	-5.27567312257603	-74.0599155337952	-60.5049671530108
1985	1656054026659	9.58395648237016	-0.27786082923214	2.64721085808105	0.00697925212998565	-0.0799235462258095	0.133704814819577	0.00160427690117391	0.00291112666068444	0.00078001204716807	0.68017578125	0.402099609375	-0.018310546875	0	0	0	-0.33481633027048	-0.501157720151365	-0.425712980359195	0.674912900210528	0.135218795772756	-0.239046786967384	0.961546936405257	0.910229941958584	0.4133329666758	-0.0252450276500777	-0.391404305075758	0.878642414352705	0.273477929033791	-5.2740852321652	-74.0593993331825	-60.5049695105673
1986	1656054026660	9.5535455620282	-0.271885614445377	2.66314105156226	0.000481823619471675	-0.0556291418403097	0.10867242225361	0.000858402456091869	0.00741214862252771	0.00345626225270696	0.67919921875	0.39697265625	-0.010009765625	0	0	0	-0.33476866455097	-0.501235359454555	-0.425683451761281	0.674897514118866	0.135113426658129	-0.2389896229698	0.961575957503853	0.910181190611106	0.413447080262724	-0.0251338831058416	-0.391554034833569	0.878604274935527	0.273386111334447	-5.25274916756315	-74.0654548611549	-60.5182361425108
1987	1656054026663	9.55589411649949	-0.238590772633793	2.65520842312062	0.0343161862216496	-0.0496754542372704	0.107923729865465	0.00118444095925449	0.00275073761779074	-0.000862439582318063	0.671875	0.40185546875	-0.01513671875	0	0	0	-0.334754853628535	-0.5012412445766	-0.425684337668142	0.674899435006042	0.135100118798673	-0.239002359044651	0.961574661829063	0.910174116887949	0.413464065272347	-0.0251106287397675	-0.391575069236827	0.878592817577947	0.273392805414878	-5.24778858927231	-74.0651844584946	-60.5219618998972
1988	1656054026661	9.56968966110887	-0.258285913418602	2.65205465600881	0.0200231629190386	-0.0639208141371361	0.120820523378955	0.005978807258387	0.00439247749126125	0.00130696184115026	0.685791015625	0.40087890625	-0.0126953125	0	0	0	-0.334777401553986	-0.501209499780284	-0.425693576058335	0.674905999411345	0.13514803326533	-0.239019068844046	0.961563775229412	0.910193524726512	0.413418141422856	-0.0251632249204963	-0.391513418225278	0.878609882184008	0.273426257477518	-5.25807916536071	-74.0629126408986	-60.5149739057118
1989	1656054026662	9.57436019248808	-0.249022334192354	2.61947661051704	0.0417431897645282	-0.0900665321817061	0.116168989611456	0.00496676046471647	0.00285671104814042	9.56823947759669E-05	0.680908203125	0.4013671875	-0.016357421875	0	0	0	-0.334753136058004	-0.501220982724456	-0.425682004356123	0.674916806386843	0.135144715288168	-0.239029286182597	0.961561701752268	0.910170469482943	0.413470338133369	-0.0251395299295127	-0.391568158065591	0.878582540135482	0.273435728752124	-5.25297465936562	-74.0624799830724	-60.516625906138
1990	1656054026664	9.57420949548356	-0.248937727271028	2.62003540617593	0.0424921339490569	-0.0887483374323129	0.116177682716916	0.00439329962519164	0.00857271969092591	0.000697983093361054	0.679443359375	0.406005859375	-0.0166015625	0	0	0	-0.334771703762307	-0.501210279268098	-0.425621590773739	0.674953645655247	0.135269034846454	-0.238967650457115	0.961559540666471	0.910131726992167	0.413548335654628	-0.0252589310847002	-0.391615280261079	0.878562596581651	0.273432324632153	-5.27784863586163	-74.0620290567431	-60.4877157261487
1991	1656054026666	9.5575249493434	-0.262424288883997	2.63308002961719	0.0230436059237331	-0.0798480787856485	0.104033527712101	0.00159539108890071	0.0146825542586766	-0.0018582736198317	0.68359375	0.401611328125	-0.01904296875	0	0	0	-0.334729151940204	-0.501177601622743	-0.425644347683936	0.674984663350053	0.135295801832784	-0.239089306331377	0.961525532476598	0.910124320581801	0.413566568252217	-0.0252272612385905	-0.391623246363057	0.878520914504638	0.273554812946135	-5.26892152530178	-74.0549346354235	-60.4953564570163
1992	1656054026667	9.55489069685671	-0.237894976144648	2.65887938299017	0.0343948029063847	-0.0460996680558601	0.107940718195964	0.0109181735050994	0.0119290497103031	-0.00140476945884494	0.6748046875	0.40380859375	-0.01416015625	0	0	0	-0.334673314370847	-0.501245080378903	-0.425572738563624	0.675007397170903	0.13528242717481	-0.239022788404472	0.961543951944498	0.910036197854427	0.41376323367898	-0.0251814425752623	-0.391832596260635	0.878446408768836	0.273494284087959	-5.26056309863305	-74.0587767241475	-60.4909506534472
1993	1656054026668	9.60807193648199	-0.234922780092334	2.68659665451155	0.0335139429881918	-0.0342195749629841	0.166578261059049	0.00360078896081548	0.0106624985624909	0.000394211770146771	0.6787109375	0.403076171875	-0.022216796875	0	0	0	-0.334638255519648	-0.501226945118018	-0.425575727179658	0.675036360402854	0.13531369984633	-0.239098758834837	0.961520663406429	0.91001760096978	0.413805076756545	-0.0251659368138087	-0.391864987666804	0.878406023416365	0.273577574860853	-5.25575036929229	-74.0539191541856	-60.4930787412693
1994	1656054026669	9.60101278353068	-0.230156732071129	2.63351575786858	0.0566183794459737	-0.0766703049460339	0.145160789936781	0.00758327892098495	0.00730322964385997	0.00208961164733069	0.6787109375	0.39892578125	-0.01171875	0	0	0	-0.334599999047206	-0.501304655348164	-0.425528393652721	0.67502745822611	0.135238457443186	-0.239013625537159	0.961552414814694	0.909959774344583	0.41393685366589	-0.0250896443167184	-0.392025214371656	0.878367103200459	0.273472966327735	-5.24189917756162	-74.0605422837824	-60.4979926460691
1995	1656054026670	9.58432978657003	-0.243733954322895	2.64651944852475	0.0371526515825444	-0.0677601614492797	0.133009041196395	0.00579807422178106	0.0149483017762996	0.000744310990074709	0.68115234375	0.400390625	-0.01806640625	0	0	0	-0.334549123173385	-0.501276844998383	-0.425531713710407	0.675071232892552	0.135288570590301	-0.239124979296069	0.961517678955664	0.90993189514139	0.413999289621206	-0.0250705882965422	-0.392072632138525	0.878307367878575	0.273596817704771	-5.23558209556717	-74.0532967556476	-60.5003327526301
1996	1656054026672	9.57475026794828	-0.214772507872222	2.61880744657017	0.074377949782993	-0.0781918646560645	0.115478427760895	5.79812314144593E-05	0.0212725394538246	0.000513319950581671	0.6796875	0.406005859375	-0.020751953125	0	0	0	-0.334559813430853	-0.501212829766532	-0.425521444488781	0.675119938081168	0.135434399115213	-0.239184680879267	0.961482299352924	0.909927364142631	0.414002463034589	-0.025182386418641	-0.392032799036949	0.878289615692898	0.273710861029076	-5.25661985795522	-74.0459202442992	-60.4800037552605
1997	1656054026674	9.56690478427513	-0.257361226081429	2.66217281442974	0.0182714524487858	-0.0575664498183748	0.120862756879951	-0.00233839071157751	0.0204511829924113	-0.000571696865714148	0.677734375	0.39892578125	-0.01123046875	0	0	0	-0.334521739852121	-0.501151089585298	-0.425558330021384	0.675161387168423	0.135495386313759	-0.239349236002911	0.961432755585386	0.909932973670351	0.41399062663144	-0.0251742822884722	-0.391998703716119	0.878250365377738	0.273885581947557	-5.25160410505902	-74.0355961385637	-60.4858388916292
1998	1656054026675	9.56886428757299	-0.223907842206283	2.6556834420149	0.0516745208741209	-0.050590876541326	0.120123065651965	-0.00275687438563864	0.0202901020037632	-0.00221354829053491	0.68310546875	0.40234375	-0.016357421875	0	0	0	-0.33449890490672	-0.501132826566324	-0.425575248923187	0.675175592166822	0.135503195283227	-0.239419278008022	0.961414215302724	0.909932804805001	0.413992380240344	-0.0251515375800085	-0.39199639642188	0.878230447218184	0.273952745507703	-5.24560665351664	-74.0317343205144	-60.4916099731996
1999	1656054026676	9.54941079705661	-0.270616822748956	2.67805810061767	-0.00180569745115711	-0.0474962869077104	0.108714537145477	0.00317724216435839	0.0222704055579908	-0.00388123421454325	0.685791015625	0.40673828125	-0.02099609375	0	0	0	-0.334430060558723	-0.501082427105128	-0.425612362398512	0.675223705755864	0.135541036439984	-0.239613060225103	0.961360602901084	0.909921165991821	0.414021303136493	-0.0250964585000499	-0.392010330375182	0.878163960726425	0.274145871682247	-5.23051639085942	-74.0205723272186	-60.5046210604846
2000	1656054026677	9.55138205771527	-0.23698449101609	2.6715368384268	0.0314135730479911	-0.0395231075884107	0.107978986528682	-0.000160074540852713	0.0176452768715758	-0.000389925121175743	0.68505859375	0.40380859375	-0.01953125	0	0	0	-0.334396825486366	-0.501131554703194	-0.425533670808752	0.675253302837853	0.135576519777576	-0.23953243127706	0.961375692251214	0.909839635452242	0.414199716225339	-0.0251084216744294	-0.392187257627186	0.878101821798218	0.2740918559708	-5.23402142211406	-74.0237131312858	-60.4899281197498
2001	1656054026678	9.58139182632625	-0.243155800512407	2.65718923698358	0.0357753972828749	-0.0626450154800132	0.133047624743705	0.00400068988436128	0.0037315780406312	0.00186965678497469	0.673583984375	0.40185546875	-0.013916015625	0	0	0	-0.334379211286017	-0.50113648982075	-0.425517639654696	0.675268465110415	0.135593913825669	-0.239538038388256	0.961371842056207	0.909816535239877	0.414250562804875	-0.0251066409531498	-0.392234831112107	0.87807630612661	0.274105523259758	-5.23339277185988	-74.0229116673205	-60.487352060029
2002	1656054026679	9.53933920904874	-0.241435300968358	2.65218408812281	0.0330802755363306	-0.0554870632035527	0.0912103954546435	0.00120569334086868	0.00984007515645531	-0.000687784762171028	0.6787109375	0.402587890625	-0.011474609375	0	0	0	-0.334364029258885	-0.501176715222293	-0.425486294183998	0.675265880611721	0.135566627161121	-0.239481822515834	0.96138969532893	0.909783686005669	0.414324218798662	-0.0250815947422838	-0.392320448457757	0.878056887907255	0.274045192113511	-5.22934553177901	-74.026628369014	-60.4865303448637
2003	1656054026679	9.56932673916391	-0.247405026393629	2.63795746790483	0.0374379394691192	-0.0785979601008187	0.116283565865706	0.00298468309868138	0.0139648286230451	-0.00197816688436769	0.67578125	0.403076171875	-0.022705078125	0	0	0	-0.334318453975558	-0.501151744235199	-0.425502637482647	0.675296680042721	0.135588869490656	-0.239592484203173	0.96135898601074	0.909769589562639	0.414357353653407	-0.0250455061912065	-0.392345450307855	0.878011061995632	0.274156201162819	-5.21976022378062	-74.0202358118898	-60.4938477165535
2004	1656054026680	9.56895200595477	-0.247238219520699	2.63933208803141	0.0362599699509941	-0.0772947819738134	0.116298168068257	-0.0017634487388578	0.0147338690693687	-0.00117154261879881	0.677978515625	0.40478515625	-0.025146484375	0	0	0	-0.334294372340466	-0.501178527337738	-0.425502920455798	0.675288546504867	0.135534696838325	-0.239592174922567	0.961366701976315	0.90975681983012	0.414389074610161	-0.0249844675012133	-0.39239377508509	0.877996175708988	0.274134712714139	-5.20751502412249	-74.0218417594749	-60.503629260219
2005	1656054026681	9.56629673407717	-0.22294584384574	2.66499806871704	0.048168307526222	-0.044993400544599	0.120167619958901	-0.00257533097237759	0.00973347413232571	-0.00164928130852927	0.677001953125	0.412109375	-0.025146484375	0	0	0	-0.334277308575124	-0.501155977738273	-0.425524852048928	0.675299909105358	0.135542572531866	-0.239663644992055	0.961347776978012	0.909763930650793	0.414374562521018	-0.0249662256325001	-0.392374567879038	0.877983518754558	0.274202733897933	-5.20244995090185	-74.0179031215201	-60.5095255224899
2006	1656054026682	9.56850666863915	-0.189566409895782	2.65762463168422	0.078080426555649	-0.0363904558621481	0.119472676492116	-0.00811566705575326	0.0125920654258961	-0.00114804150013485	0.673095703125	0.410400390625	-0.01904296875	0	0	0	-0.334194686729808	-0.501355789542504	-0.42545565452931	0.675236084405161	0.135259716642497	-0.239465138452147	0.961437078814774	0.909666902557479	0.414602794781204	-0.0247113122091596	-0.392697002083381	0.877929934576621	0.273912567307555	-5.15504409755334	-74.03649676943	-60.5404598954909
2007	1656054026684	9.59593873400616	-0.229307126197232	2.65201848475764	0.0483601894237039	-0.0653015118712123	0.145285363319582	-0.013655781246111	0.0154503563963561	-0.000646436824639015	0.67529296875	0.402099609375	-0.016845703125	0	0	0	-0.334204840650898	-0.501290916473443	-0.425511107825311	0.675244280734017	0.135295428356983	-0.239580182176174	0.961403392637103	0.909715585615174	0.414494843205568	-0.024730108063524	-0.392571904693322	0.877949520909046	0.274029083093446	-5.1567622357797	-74.029480451388	-60.5457669421233
2008	1656054026685	9.56515213454742	-0.223274697591859	2.66907588521646	0.0411354027787181	-0.0411882814573751	0.120215742766362	-0.0117004999379499	0.0207891362296144	-0.00400717702246921	0.687255859375	0.40185546875	-0.0166015625	0	0	0	-0.334142687475978	-0.501324047300474	-0.425590475984368	0.67520042265686	0.135093892699343	-0.23969020960413	0.96140430806985	0.909745267449388	0.414442822315461	-0.0245090877969216	-0.392572526431461	0.877944047448996	0.274045728009207	-5.11061113291184	-74.0296710824089	-60.5935774809139
2009	1656054026686	9.56706321463367	-0.247375952795263	2.64615752410058	0.0287922220231841	-0.0730790430024566	0.116354554845302	-0.0103350249960134	0.0129847181883085	-0.00430689250198355	0.677734375	0.412109375	-0.0166015625	0	0	0	-0.334137169694688	-0.501281603629094	-0.425646211025297	0.675199532531885	0.135084113805706	-0.239798612903218	0.961378649360917	0.909785877929777	0.414355309736464	-0.0244812910759442	-0.392481768387874	0.877955752041578	0.274138211382936	-5.10313255229318	-74.0243287154922	-60.6064312642823
2010	1656054026687	9.56676553008942	-0.247294263294521	2.64724117596099	0.0274680127785207	-0.0718192084405697	0.116367499094235	-0.0115210889367581	0.0102344572127578	-0.00344750894743663	0.68017578125	0.4013671875	-0.00927734375	0	0	0	-0.334120972263537	-0.501326771167632	-0.425642556282425	0.675176316739315	0.134999765583998	-0.239759970388011	0.961400135163193	0.909775123205087	0.414383180350063	-0.0244091179712966	-0.392535716195909	0.877953151621718	0.27406928880861	-5.0894399816465	-74.0288021283479	-60.6177848855192
2011	1656054026688	9.61076219832821	-0.273228307574262	2.62925514764828	0.0169837412941123	-0.109440010477813	0.154364397089527	-0.0127072079892781	0.00748418018173488	-0.00258847422980087	0.68310546875	0.4052734375	-0.017578125	0	0	0	-0.334139348461635	-0.501295404873154	-0.425689206711532	0.675161100887782	0.134983232684735	-0.239812546936555	0.961389343203773	0.909822626821063	0.414279190197882	-0.024403694257389	-0.392431286492807	0.877987867171745	0.27410762572539	-5.08760712296258	-74.0265550553109	-60.6261550684088
2012	1656054026689	9.56849620360807	-0.271267711726373	2.62503563437835	0.0152819598060514	-0.102854588539142	0.112518164669746	-0.00180774340956078	0.0240908098247902	-0.00677306037011514	0.684814453125	0.40576171875	-0.014892578125	0	0	0	-0.334105466461239	-0.501237097923066	-0.425726709182116	0.675197510388883	0.135036281509256	-0.239967119473107	0.961343322777004	0.909831337110161	0.414260612739367	-0.0243943178863273	-0.392392839751808	0.877954398761452	0.274269817892761	-5.08267091970576	-74.0169762583243	-60.6323122023377
2013	1656054026691	9.57937585453397	-0.266323594514337	2.64853952894032	0.0123523371660553	-0.085080326736052	0.129281245609622	0.000213720970706341	0.027160609891234	-0.00434263202993117	0.678466796875	0.40283203125	-0.018798828125	0	0	0	-0.334034100146059	-0.501169444290171	-0.425779662806534	0.67524964775248	0.13508173370047	-0.240199765972229	0.961278834494634	0.909830503348899	0.414265797359934	-0.0243373029242711	-0.392379128390342	0.8778883309195	0.274500816098988	-5.06660858143625	-74.0035629184932	-60.6477977845031
2014	1656054026692	9.54848125637203	-0.25979913516233	2.66594641032292	0.00707111460967383	-0.0600628952565477	0.104197349231843	-0.00338751485583406	0.016500275637525	-0.00475170301728336	0.676025390625	0.406005859375	-0.00830078125	0	0	0	-0.334007881534901	-0.501200476075063	-0.425754844936555	0.67525523312874	0.135061789590361	-0.240176555670417	0.961287436253562	0.909796192622879	0.414343094171235	-0.0243040778784399	-0.392465541011645	0.877858201772304	0.274473635709397	-5.06022607639978	-74.0053514214521	-60.6490467612597
2015	1656054026693	9.55055270215847	-0.226109638503221	2.65912855148293	0.0408262121241404	-0.053971508718912	0.103489683752654	0.000809836572552178	0.0167669932163004	-0.0021427771886773	0.675048828125	0.40185546875	-0.01611328125	0	0	0	-0.333962230417093	-0.501165898653867	-0.425781104536399	0.675286918058589	0.135086386092453	-0.240307857053069	0.961251164956924	0.909789782346797	0.41435935934921	-0.024266710883021	-0.392471935595207	0.877814590422302	0.274603941362606	-5.05010127248892	-73.9978111072986	-60.657967049281
2016	1656054026696	9.51005493152091	-0.238332401248884	2.74162851105216	-0.00839239518946096	0.0218122990088387	0.087511005127876	0.00263332950188349	0.0115339055108126	0.00218040292932403	0.674560546875	0.405029296875	-0.01025390625	0	0	0	-0.333938795939337	-0.501140970151877	-0.425830130568342	0.675286093816518	0.135052855870769	-0.240413506664968	0.961229458523927	0.909815155338524	0.41430716093347	-0.0242066006614934	-0.392424654217197	0.87781029967317	0.274685217203643	-5.03617338154512	-73.9933002866968	-60.6747972239119
2017	1656054026695	9.51065403978455	-0.191019775624241	2.64693948576897	0.0719266138128777	-0.0421837731768321	0.060932265708642	-0.00318671866367129	0.00126815087367919	-0.0013938545833666	0.672119140625	0.404052734375	-0.014892578125	0	0	0	-0.333941303431482	-0.501148804329053	-0.425838487389732	0.675273769992341	0.135022917154372	-0.240406551713455	0.961235403913303	0.909823691436546	0.414289577040216	-0.0241867082633531	-0.392415165792431	0.87782050343398	0.274666163564087	-5.03240331604932	-73.994535676804	-60.679513370863
2018	1656054026696	9.56396282303736	-0.246063557567878	2.65746322706179	0.0236064815515115	-0.0684983719944764	0.116400895846693	-0.00712248357022546	-0.0047323217816433	0.00251668837394414	0.67138671875	0.406982421875	-0.01953125	0	0	0	-0.33397059851511	-0.501172491527121	-0.425902558215334	0.675201291445441	0.134866289284264	-0.240386160764577	0.961262491584666	0.909893668583064	0.414141300466187	-0.0240934663473112	-0.3923067624795	0.877896051341526	0.274579546127914	-5.01467534745487	-74.0001653890744	-60.7058248839783
2019	1656054026697	9.58041869345646	-0.232844334601369	2.64544499130476	0.0425984358260524	-0.0769916290931843	0.1286040871725	-0.00571724433030116	0.00164191412364986	0.00257139412551152	0.67919921875	0.403564453125	-0.01708984375	0	0	0	-0.333990426116346	-0.501167091710203	-0.425905143627585	0.675193861110218	0.134872709636607	-0.240367055753661	0.961266368237024	0.909907097816784	0.414110407788376	-0.02411728641418	-0.39227340661574	0.877915855119192	0.274563882898717	-5.01989269592959	-74.0009712432072	-60.7027176622426
2020	1656054026698	9.58029040989231	-0.233075781526455	2.64588915211744	0.0402768144263113	-0.0754640172056051	0.128625477630511	-0.00136485444785158	0.00780263368808106	0.000304638878891696	0.6806640625	0.40087890625	-0.01318359375	0	0	0	-0.333954191683731	-0.501267700649179	-0.425885503811954	0.675149485510867	0.134704459857446	-0.240271857995436	0.961313758743697	0.909873657145273	0.414192270999408	-0.0239727069276656	-0.392408762042339	0.877903295870208	0.274410580285501	-4.99272519879435	-74.0108256811952	-60.7235482222607
2021	1656054026699	9.57750216410204	-0.266423374857913	2.65529698244731	0.00595932361621577	-0.0810966618305993	0.129320425908249	0.00100920678012994	0.0133024517616811	-0.00140841903739777	0.68701171875	0.398681640625	-0.01220703125	0	0	0	-0.333916217642686	-0.501244857819625	-0.42590407196752	0.675173513688201	0.134718627981739	-0.240370723456896	0.961287057324464	0.909865871600797	0.414211362153375	-0.0239383198902557	-0.392421950164412	0.877867223882891	0.274507104209173	-4.98385539602591	-74.0052726293011	-60.7310315631858
2022	1656054026700	9.54933133137377	-0.226785875973022	2.66345383456439	0.0372238861040552	-0.0504699313512595	0.10352230068837	0.00281082352212344	0.0127482050270789	0.000110705094758867	0.68798828125	0.402099609375	-0.020751953125	0	0	0	-0.333967313367903	-0.501180732934567	-0.425846673318112	0.675232047048192	0.134944967518134	-0.240334676126676	0.96126432327046	0.909846607686331	0.414240888851445	-0.0241585696025504	-0.392388845691625	0.877863161007825	0.27456741307399	-5.02837724682209	-74.0005461434816	-60.6863247135481
2023	1656054026701	9.54652339239221	-0.260027924344758	2.67292659917665	0.00293153552240206	-0.0560980542819986	0.104222657876022	0.000791335331069571	0.00967793604208524	-0.00231961230880725	0.685546875	0.403564453125	-0.010498046875	0	0	0	-0.333936128497177	-0.501170544896686	-0.42586210613811	0.675245298812134	0.134939102967142	-0.240404867264746	0.961247594684035	0.909840673183226	0.414256257279859	-0.024118514174312	-0.392404622694377	0.877836689310661	0.27462949402455	-5.01895371661453	-73.997069082694	-60.694529514698
2024	1656054026702	9.57420970446749	-0.241715757832843	2.68308233465602	0.0202562374976782	-0.0450496996436261	0.133186602260629	0.00457137892922729	0.00978459846536806	-0.00135325068272481	0.6728515625	0.402587890625	-0.013427734375	0	0	0	-0.333943594057385	-0.501200366586186	-0.425745224454591	0.675293175129157	0.135078392775964	-0.240260385314693	0.961264154670035	0.909750992357373	0.414445359684292	-0.0242523347521895	-0.392564593041498	0.877786985028026	0.274559737043817	-5.04793333202792	-74.0005110959693	-60.6545798948203
2025	1656054026702	9.56246741913099	-0.245904655622898	2.66285387011114	0.0226782348186285	-0.0623702365280976	0.116443444687311	0.00158305761863283	0.00758865148456046	-0.00201581829890093	0.67822265625	0.410888671875	-0.009521484375	0	0	0	-0.333915436889629	-0.501198356533996	-0.425753306723527	0.675303494903152	0.135068658443207	-0.240309655613116	0.961253206457829	0.909741128374769	0.414469205641582	-0.024214807829867	-0.392590800770667	0.877762238304851	0.274601376828859	-5.0394023210037	-73.9982354159474	-60.6613621227283
2026	1656054026703	9.5713534727072	-0.216964576537598	2.70925630275364	0.0305252008771786	-0.0132531616980784	0.137028368702422	0.000375671433433586	0.00951739253804026	-0.00396270237133262	0.68505859375	0.408447265625	-0.02392578125	0	0	0	-0.333851745463574	-0.501199984273873	-0.425849718003414	0.675272985903632	0.134901186880564	-0.240476642092475	0.961234963152165	0.909782600397067	0.414390059454676	-0.0240103860839646	-0.392552276509723	0.877753873949343	0.27468317562959	-4.99559536846048	-73.9944440880345	-60.7087001804135
2027	1656054026704	9.53901073047887	-0.19659474266941	2.63883106016413	0.0723244657671271	-0.0598500541364136	0.0861000145962745	-0.00356135890910144	0.0152835724844834	-0.00267679104184017	0.6806640625	0.40380859375	-0.0087890625	0	0	0	-0.333822473856479	-0.501162056674732	-0.42588663767546	0.675292322440722	0.134914329598087	-0.240597638180344	0.961202840284577	0.909794268428983	0.414366255595663	-0.0239790608114572	-0.392520716399617	0.877731953802338	0.274798297795786	-4.9870311939676	-73.9877704313404	-60.7186153092165
2028	1656054026709	9.54760816874086	-0.225400495290249	2.66974155358676	0.0346144500829031	-0.0465247946834744	0.103551047265208	-0.00734077165792715	0.0151763191213333	-0.00364301045996074	0.684814453125	0.39697265625	-0.012451171875	0	0	0	-0.333795679664147	-0.501199951579017	-0.425860012911623	0.675294233780841	0.134883715880206	-0.240564865264196	0.961215339448329	0.909758379204018	0.414447387280924	-0.0239385597748201	-0.392614409641858	0.877702631177801	0.274758105549482	-4.97937501288517	-73.9903668615778	-60.7208325572502
2029	1656054026709	9.54227463948476	-0.234522067863578	2.70410132636218	0.012379638040122	-0.0200324085774285	0.108079500224063	-0.00314519042534597	0.0154432192536665	-0.00103159476425114	0.674560546875	0.405517578125	-0.0078125	0	0	0	-0.33376880563992	-0.50116003465424	-0.42589030790712	0.67531803594887	0.134912130592278	-0.240679640128978	0.961182619405094	0.909765984933006	0.414431660024959	-0.0239217856322279	-0.392587021789984	0.877678591510777	0.274874008094123	-4.97381580911815	-73.9835708500469	-60.7273421971487
2030	1656054026706	9.55587143641825	-0.254133929830624	2.701814725493	-0.00131342948568418	-0.0343360590491525	0.120986933867119	-0.00160201882506633	0.00885620314775388	-0.00340861946206951	0.679443359375	0.401123046875	-0.012451171875	0	0	0	-0.333805556860725	-0.501083116596746	-0.425932927865935	0.675330068507352	0.134993702442488	-0.240761969172309	0.961150547261531	0.909819284248647	0.414309982336907	-0.0240022612532971	-0.392435434575101	0.877713457078256	0.274979120941186	-4.98856592187995	-73.9769121326219	-60.720928295674
2031	1656054026708	9.54185609876501	-0.234266872918633	2.70559991693317	0.0131745246074065	-0.0195483385606106	0.10807944212333	-0.00437322808301524	-0.00148201488432999	-0.00053996143311452	0.67626953125	0.403076171875	-0.01171875	0	0	0	-0.333820361636236	-0.50109618397574	-0.425936401209174	0.675310863741271	0.134961593059859	-0.240726739300193	0.96116388060759	0.90983117669747	0.414284296564061	-0.0239948229774272	-0.392418906664857	0.877735244026534	0.274933161124009	-4.98785723032994	-73.9796800326098	-60.723165848494
2032	1656054026709	9.54425892278397	-0.2584667122013	2.68115208578581	0.00120982409528968	-0.0511329396157355	0.104249861090816	-0.00775647040257071	0.00324945529713196	-0.00266556018408811	0.681884765625	0.40234375	-0.0166015625	0	0	0	-0.333868928814763	-0.501070811552272	-0.425975693468383	0.675280896188068	0.134945500768955	-0.240722545852724	0.961167190316232	0.909890446305929	0.414152493892425	-0.0240226460632779	-0.392286996398572	0.877798591774257	0.27491916036486	-4.99386467281213	-73.9803671747915	-60.7256543744006
2033	1656054026710	9.54414987776304	-0.25829521144538	2.68155675900479	0.000956122504942876	-0.0509048211836643	0.104251062378884	-0.0107636591887238	0.00573196778732886	-0.00613126068130462	0.682373046875	0.39697265625	-0.01904296875	0	0	0	-0.333876034447699	-0.501054974845327	-0.426026104297158	0.675257331882901	0.134891341280271	-0.240774004917033	0.961161903429294	0.90993499708363	0.414057104157732	-0.023979482457463	-0.392202278333546	0.877829478345724	0.274941411608456	-4.98453560620656	-73.9792695562104	-60.7406861414467
2034	1656054026711	9.56047521492125	-0.244404153496384	2.67013542891586	0.0207064817390374	-0.0567202527107652	0.1164816354334	-0.00439233382262871	0.00319648207756978	-0.00334135121160546	0.6748046875	0.40185546875	-0.01220703125	0	0	0	-0.333942728389652	-0.501113882677656	-0.425916450503829	0.675249811502098	0.134960107555887	-0.240513331406089	0.961217512732914	0.909886680267324	0.414154862691788	-0.0241242363786984	-0.392290706543774	0.877854821211737	0.274734261486798	-5.01823378934229	-73.9908183561748	-60.7017536209615
2035	1656054026712	9.5717419040727	-0.239775876939815	2.69204630790529	0.0177730874373894	-0.0388984806998241	0.133217309226003	-0.00595507701249063	0.0144613458875272	-0.00376354665834727	0.682373046875	0.4013671875	-0.013671875	0	0	0	-0.333921467025454	-0.501075225776341	-0.425960215879492	0.675261406020405	0.13496302520217	-0.240629439604389	0.961188043321366	0.909908537529775	0.414108696694931	-0.0240923359608974	-0.39223900259753	0.87784478133512	0.274840143945514	-5.0097108910533	-73.9846972129795	-60.7130248256359
2036	1656054026713	9.57136867587794	-0.239546846472292	2.69339336954278	0.0179694520598447	-0.0380096743724356	0.133220392800451	-0.000790510026800897	0.0138547707937995	-0.00291968536427058	0.67822265625	0.40283203125	-0.01318359375	0	0	0	-0.333928710234533	-0.501039262762472	-0.425978482677349	0.675272986241449	0.135003978932684	-0.240680734562002	0.961169448995878	0.909926313726536	0.414067897554011	-0.0241221848769858	-0.392183667763437	0.877849964530327	0.274902547303079	-5.01475316134089	-73.9808361250116	-60.7108185339592
2037	1656054026714	9.54567551607862	-0.224097474379818	2.67675292264475	0.0351664607169481	-0.0407806226261423	0.103574391650937	1.99046890955787E-05	0.00708722997841073	0.000184013926779149	0.67138671875	0.404296875	-0.019775390625	0	0	0	-0.333913035577645	-0.501031460473754	-0.425981463280869	0.675284646077452	0.135014537113253	-0.240715611560968	0.96115923192722	0.909919355107737	0.414083755224825	-0.024112462736674	-0.392196177911532	0.877832921466116	0.274939120573718	-5.01207891455183	-73.9787149494807	-60.7124490069971
2038	1656054026715	9.54295163301193	-0.257437877979565	2.68590019589774	-0.000567764510707617	-0.0453580294033855	0.104278013291191	-0.00118637678884983	0.00901591797425681	-0.00176226557647426	0.686767578125	0.402587890625	-0.013427734375	0	0	0	-0.333887892330282	-0.501096617248763	-0.425984936794957	0.675246539540104	0.134878027611286	-0.240669522159962	0.961189938966792	0.909909895708057	0.414111417958077	-0.0239940661269608	-0.392265088123125	0.877832509434486	0.274842111074177	-4.98934468863302	-73.9850908922529	-60.7324927748057
2039	1656054026715	9.55423234400032	-0.252728144887137	2.70773679645425	-0.00351143191679864	-0.0275249767325139	0.121007607744193	0.00255417168069828	0.00671484959763379	-0.00377852323374881	0.672607421875	0.3984375	-0.021240234375	0	0	0	-0.333854362119549	-0.501102712260346	-0.425994236759483	0.675252728174259	0.134849964026061	-0.240716888400597	0.961182015458522	0.909898193832812	0.414140350282909	-0.0239384027732995	-0.392301878738756	0.877805872563111	0.274874673318148	-4.97724150922139	-73.9834454356579	-60.7423851432483
2040	1656054026716	9.53770625328311	-0.266153239134761	2.71988909324226	-0.02286241999936	-0.016467579484173	0.108788381595733	0.0037790090006884	0.00010756138309048	0.000968388559536129	0.681884765625	0.403564453125	-0.0224609375	0	0	0	-0.333890763008045	-0.501184826725493	-0.425878298098899	0.675246920056973	0.134882889337045	-0.240464049813915	0.961240681052972	0.909827986627634	0.414289267172581	-0.0240299366356211	-0.392453361449735	0.877804900791	0.274661455676086	-5.00003580552694	-73.9956322893657	-60.7107361724413
2041	1656054026716	9.57056992251008	-0.238805403163408	2.69629598534524	0.0154300525818926	-0.0335445035732511	0.133240718541829	0.00197898340273904	0.000661257108321498	-0.000551129502456985	0.6728515625	0.40234375	-0.0146484375	0	0	0	-0.333880478070425	-0.501205148697411	-0.425867196093735	0.675243923759356	0.134861060420933	-0.240443243664557	0.961248948482238	0.909813702298357	0.41432191530945	-0.0240078654708268	-0.392493976377088	0.877795190844867	0.274634450565341	-4.99595531430822	-73.9973504442389	-60.7125774823079
2042	1656054026716	9.56158722480003	-0.26727137778784	2.65049676929505	0.00466819021538774	-0.0811572656880081	0.112729962099827	0.0063320054151821	-0.00494336952932873	-0.000193694505020644	0.6728515625	0.402099609375	-0.0234375	0	0	0	-0.333871994597789	-0.501355135706623	-0.425762881483579	0.675202553219912	0.134737993302788	-0.240175490967527	0.961333140331303	0.909729247608389	0.414510919948187	-0.0239456319520188	-0.392731930464805	0.877779260852188	0.274345038247775	-4.98830025602149	-74.0148576160607	-60.7076578336518
2043	1656054026717	9.60342775941801	-0.268619681908579	2.65638948866467	0.00623361945114222	-0.0865049928586839	0.154602357875227	0.00393934685887446	0.00600085307942261	-0.00390294404938086	0.6748046875	0.401611328125	-0.027099609375	0	0	0	-0.333835333139796	-0.501367961805864	-0.425766588954916	0.675208818775177	0.134705957208658	-0.240214030094208	0.961328000652429	0.909711392314533	0.414553564154274	-0.0238856680907564	-0.392784276398193	0.877748575728202	0.27436827444415	-4.97545222074915	-74.0137883166276	-60.71739325751
2044	1656054026718	9.56131385819591	-0.266515138780011	2.65155888576532	0.00153513223632683	-0.077132398106413	0.112763035228642	0.00496791982251674	0.0146227926821925	-0.00250211260381768	0.675537109375	0.39697265625	-0.0068359375	0	0	0	-0.333768306602877	-0.501565755207465	-0.425635631715819	0.675177620870603	0.13453220443408	-0.239945800828108	0.961419314677557	0.909572811890464	0.414866053042646	-0.0237372682187781	-0.393164578567018	0.877674296477784	0.274061021421225	-4.95020986526743	-74.0327963958129	-60.7216327572387
2045	1656054026718	9.55847578373299	-0.242106739631072	2.67749288022465	0.0132876258644429	-0.0446781728759948	0.11655582290153	0.00201865974181865	0.0148351085094	-0.00018293720745346	0.678955078125	0.403076171875	-0.019775390625	0	0	0	-0.333728610947588	-0.501540230361758	-0.425645283987555	0.675210118246774	0.134566979095657	-0.240043356238912	0.96139009525927	0.909556653890763	0.414902612908295	-0.0237174021534758	-0.393190057733037	0.877630337287533	0.274165223127337	-4.94421698809129	-74.0267116363228	-60.7252508290963
2046	1656054026719	9.52279872160777	-0.244943403068887	2.72688212725552	-0.0126194476363256	0.00564578225312265	0.0958638771005091	0.00475133852371486	0.0109988176720164	-0.00341473273721592	0.67822265625	0.40283203125	-0.01953125	0	0	0	-0.333744047389096	-0.501503157960217	-0.425658879225252	0.675221453987487	0.134618202185263	-0.240080627234206	0.961373617313913	0.909575402098431	0.414858858738093	-0.0237637375849273	-0.393129148674944	0.87764082616601	0.274218986776548	-4.95286180224896	-74.0232812034989	-60.7197437743881
2047	1656054026721	9.56195675539878	-0.222108286792309	2.75808057802983	0.000953328105183365	0.0324898581199974	0.141522853954845	0.00476942536418617	0.00632074897548161	-0.000614012423089507	0.677978515625	0.4033203125	-0.014404296875	0	0	0	-0.333712332988289	-0.501512677783071	-0.425648657157291	0.675236501897344	0.134616509366097	-0.240105089139997	0.961367745233406	0.909548952044767	0.414918598943417	-0.0237331010425852	-0.393190919580238	0.877605892425471	0.274242225668734	-4.94609112403686	-74.0220589078384	-60.7225413434829
2048	1656054026723	9.54128751868197	-0.197535779093708	2.70833176572866	0.0395013728010318	0.00475407088747076	0.107426840912995	0.000237022252955922	0.0107102188746116	0.00109804554365479	0.675537109375	0.400390625	-0.023681640625	0	0	0	-0.333699589774213	-0.501556371429769	-0.425602885446129	0.675239197590495	0.134606780356267	-0.240029190932173	0.961388060141464	0.9095058125112	0.415013535368903	-0.0237264086820347	-0.393294027021085	0.877581764259634	0.274171580125452	-4.94597109808117	-74.0262879199728	-60.7165803856695
2049	1656054026724	9.51314656780613	-0.215497290564238	2.69986357412595	0.0226746102074789	-0.00386573326061415	0.0784769224003341	0.00435524552473823	0.00616035936951558	-0.00225726165590839	0.67919921875	0.398681640625	-0.0078125	0	0	0	-0.333665528397184	-0.501568695749958	-0.425598668391786	0.675249533184772	0.13458923381365	-0.240058236521436	0.961383264478675	0.909482972101021	0.415066177245133	-0.0236810465437239	-0.393352846182342	0.877548922616472	0.274192317206229	-4.93619024255585	-74.0252894949037	-60.7227242665562
2050	1656054026726	9.55478321137666	-0.217083620266657	2.70646360432916	0.0247730441959181	-0.00788771862115581	0.120352291839335	-0.000356954309266337	0.00933528630048162	0.00152495243620798	0.679931640625	0.406982421875	-0.013427734375	0	0	0	-0.333709337252912	-0.501558908868697	-0.425562520699123	0.675257936007326	0.134670403821302	-0.239979156594997	0.961391640661891	0.909478720882462	0.415069238412862	-0.0237904095250193	-0.393334893693159	0.877569103674076	0.27415347832933	-4.95957198622834	-74.0270334001235	-60.6999306547986
2051	1656054026727	9.53814034831424	-0.23069541064695	2.71897554900053	0.00523587858964683	0.00109335683253567	0.10810600736219	-0.0014025577008981	0.00539127470653752	-0.00267669058441746	0.67431640625	0.402587890625	-0.01904296875	0	0	0	-0.333695569381937	-0.501562334994431	-0.425572364662371	0.67525599110669	0.134646773101225	-0.240002319862413	0.961389168315354	0.909478835688414	0.415070858821087	-0.0237577270035012	-0.393342718158446	0.877562002720142	0.274164982179599	-4.9525858108371	-74.0265186430454	-60.7065813398658
2052	1656054026728	9.58484287461543	-0.222895816758022	2.6923833933427	0.0275808664584751	-0.0297933674276989	0.145534138079476	0.00136795730363755	0.0039640549761286	-0.00292366824380024	0.6796875	0.407958984375	-0.02197265625	0	0	0	-0.333656577845419	-0.50163976761087	-0.42555907652449	0.675226113238684	0.134514031877872	-0.239946386045721	0.961421711348125	0.909448018734578	0.415145520896215	-0.0236325559252826	-0.393459370771253	0.877541980935048	0.274061663223592	-4.92846929568799	-74.0332955875573	-60.7249939714319
2053	1656054026729	9.5568488770587	-0.240765543449162	2.68341469464895	0.01075714997555	-0.0384127942264202	0.116585102083677	-0.00259062238380284	0.00264163218512268	-0.00182343360283936	0.67529296875	0.4140625	-0.01123046875	0	0	0	-0.333654661154581	-0.501648921481313	-0.425564458950535	0.675216867343075	0.134486501709547	-0.239941599819445	0.961426757238435	0.909451603481078	0.41513891673592	-0.0236106064517931	-0.393460495836142	0.877546413865051	0.274045853332915	-4.92419700819484	-74.0343466230738	-60.7295086294323
2054	1656054026730	9.55671885138685	-0.240600235011171	2.68389256393738	0.00750536372221954	-0.0381704763474253	0.116589027007254	-0.00219368964551689	0.00747948777698972	-0.00297950493795955	0.67822265625	0.406005859375	-0.01953125	0	0	0	-0.333535089127477	-0.501768133570431	-0.425586086002769	0.675173731608996	0.13421044706818	-0.23997453331123	0.961457112543153	0.909403649918196	0.415261655443141	-0.0232971894031659	-0.393665540037763	0.877479333591783	0.273966168907945	-4.8605527618186	-74.0406709147784	-60.7830442916487
2055	1656054026731	9.58694114566629	-0.246258045272204	2.66927380196208	0.0117192802292087	-0.0610263620118262	0.141771165140806	0.00491266877264596	0.00512631736365486	-0.00566706328086227	0.674560546875	0.406982421875	-0.018798828125	0	0	0	-0.333492322455881	-0.501791992068964	-0.425590375706526	0.675174421660375	0.134155257602877	-0.240007917914066	0.961456481696421	0.909383025213434	0.415311405937922	-0.0232152870223363	-0.39373199045946	0.877446656746962	0.273975335116886	-4.8433854146959	-74.04053945793	-60.7964772984179
2056	1656054026732	9.58432054869987	-0.221796282195331	2.69433291439732	0.0212777973261021	-0.0273764457382912	0.145556538364266	-0.00573832268949105	0.00631697782526364	-0.00023580547592828	0.6787109375	0.40625	-0.021728515625	0	0	0	-0.333449678986705	-0.50190572310717	-0.42555778346265	0.675131490622597	0.133982436093251	-0.239894316887023	0.96150893055854	0.909335525893725	0.41542376903604	-0.0230649835784296	-0.393900505414883	0.877424531709252	0.273803913391866	-4.81517409015123	-74.0514724391621	-60.8163757418943
2057	1656054026733	9.6029892369323	-0.232454633328697	2.65891632034377	0.0282095345363578	-0.0678214720384956	0.154051210871893	-0.0043332607580711	0.012689740693966	-0.000173859583216077	0.676513671875	0.403564453125	-0.007568359375	0	0	0	-0.333435550918763	-0.501876069456415	-0.425579270600747	0.675146968241298	0.134005390683831	-0.239970461160588	0.961486730557447	0.909343756009161	0.415406035636875	-0.0230598994708777	-0.393873696347986	0.877412105755802	0.273882288580961	-4.81274653830203	-74.0468439514385	-60.8199379128803
2058	1656054026734	9.56965676177291	-0.259530492960889	2.68410968307183	-0.0111598123249198	-0.0500081464213049	0.129520927952822	-0.00159604733843521	0.0206176226168613	-0.00601870895315686	0.679931640625	0.40673828125	-0.00732421875	0	0	0	-0.333376903540601	-0.501857126102804	-0.425631306939799	0.675157208150986	0.133954831065105	-0.240120940350385	0.961456206615551	0.909351239230136	0.415395661476798	-0.0229514299526086	-0.393873617985434	0.877375847873361	0.273998530331031	-4.7881910958865	-74.0404821364697	-60.8444246926941
2059	1656054026735	9.55520663405203	-0.239449527951154	2.68937414622065	0.00326498370393676	-0.0351244467057886	0.116602569217196	-0.00195649777079758	0.018188160399949	-0.00187754772525177	0.6796875	0.40185546875	-0.015380859375	0	0	0	-0.33333868441072	-0.501816887767125	-0.425661862599868	0.675186723325525	0.133983579759456	-0.240252514140138	0.961419330887509	0.90935243887364	0.415394600406684	-0.0229230859077838	-0.393861069756083	0.877340330431877	0.274130265254094	-4.78001781108983	-74.0327997720598	-60.8525465047953
2060	1656054026736	9.58508665351272	-0.245420819598633	2.6760024157296	0.00811952240670298	-0.0583338463378692	0.141790894678397	-0.00274717466496367	0.0202758950827047	-0.00217942980214406	0.67724609375	0.402099609375	-0.02099609375	0	0	0	-0.333320468202159	-0.501723633881629	-0.425724881395981	0.67522528539924	0.134063441129982	-0.240450895977291	0.961358601342967	0.909389922191343	0.415311581675744	-0.0229403474867871	-0.3937473341741	0.877325285598056	0.274341721364213	-4.77993057482636	-74.0201557539198	-60.8581398177157
2061	1656054026737	9.54915462977515	-0.248378577996335	2.72598971968443	-0.0187118565809611	-0.00858547245284683	0.121025028768381	-0.00513960870837788	0.0194538416814125	-0.00327337821766685	0.677978515625	0.403564453125	-0.011474609375	0	0	0	-0.333286847399996	-0.501674220440862	-0.425770447918135	0.675249864550017	0.134085004449289	-0.240600035867069	0.961318279407293	0.909405713277412	0.415278806059525	-0.0229076820341256	-0.393703518196415	0.877299912218473	0.27448570779045	-4.77066347159559	-74.0117660223743	-60.8693296852508
2062	1656054026738	9.5486181674677	-0.248303827947243	2.72787505939075	-0.0192675426779967	-0.00717155932905	0.121025087882728	-0.00611121832849728	0.0203268699614925	-0.00150521328210236	0.67919921875	0.4052734375	-0.016845703125	0	0	0	-0.333280455066218	-0.501655362079373	-0.425776183846475	0.675263413222574	0.134113077932292	-0.240638303625663	0.961304784735669	0.90940601306655	0.415277559079974	-0.0229183839522199	-0.393693263500825	0.877290006641328	0.274532071935737	-4.77207957520131	-74.0089591614265	-60.868103922916
2063	1656054026740	9.55314836634785	-0.239039064411504	2.69671276783538	0.00241800769800616	-0.0330716284961022	0.116609861150966	-0.00116404930182605	0.0160987932187603	-0.00157074010873653	0.677001953125	0.4013671875	-0.0107421875	0	0	0	-0.333244902056586	-0.501623154154972	-0.42580014205182	0.675289778907961	0.134136900488533	-0.240750249818925	0.96127343099633	0.909403685321684	0.415284148563892	-0.0228913318726557	-0.393690524461372	0.877256173055334	0.274644092937826	-4.76453756036497	-74.0024395068538	-60.8751077375636
2064	1656054026741	9.54768357807072	-0.248288912237708	2.73114569958686	-0.0197595819707184	-0.00608885752585372	0.121024843975846	-0.0041158203685826	0.0163103805145119	0.000745341828870641	0.677001953125	0.399658203125	-0.01025390625	0	0	0	-0.333247682605272	-0.501579857625408	-0.425819177709181	0.675308563811957	0.134191348639103	-0.240818024294453	0.961248854940975	0.90941932507505	0.415248019866585	-0.0229253828085784	-0.393635838219106	0.877254672926737	0.274727256925382	-4.770154361838	-73.9973310032881	-60.8720781754805
2065	1656054026742	9.56378056464232	-0.23471032310855	2.72063616922107	-0.000816747652189649	-0.0143782690647978	0.133298828511981	-0.00395396600020653	0.0104394666699559	-0.00151218153287025	0.683837890625	0.39794921875	-0.006591796875	0	0	0	-0.333233804270975	-0.501560671418183	-0.42584044114625	0.675316254255739	0.134193623141817	-0.240880002032222	0.961233008239432	0.909427884469765	0.415230300750921	-0.0229067738266731	-0.393615287377052	0.877246044139987	0.274784249155269	-4.76531616813323	-73.9940378695079	-60.8779340401277
2066	1656054026742	9.53551941338837	-0.252694329190208	2.71261410162836	-0.0147896098250581	-0.0232712518089526	0.104343425700153	-0.00434629296174331	0.0173643958435215	-0.00296691271526956	0.678955078125	0.404052734375	-0.017333984375	0	0	0	-0.333311650510143	-0.501378973105969	-0.425911813565935	0.6753677487313	0.13443650478436	-0.24106329925812	0.961153115758439	0.909525111486244	0.41500494139836	-0.0231294226231188	-0.393307637552718	0.877302333500677	0.275044937922817	-4.80687868387783	-73.9774452965959	-60.8524072929982
2067	1656054026743	9.56297976186436	-0.234621825337209	2.72345727757895	0.00144152054694941	-0.0139577642480231	0.133299356591008	-0.00332473793486262	0.0142216797878281	0.00104958971597856	0.676513671875	0.409912109375	-0.0126953125	0	0	0	-0.333294472780196	-0.501343073771417	-0.425928990725069	0.67539204293175	0.134479234482704	-0.241148351470031	0.961125802419346	0.90952785328862	0.414998578548191	-0.0231357709008279	-0.393286688797295	0.877281968574681	0.275139833591198	-4.80654125837791	-73.9717765273899	-60.8532595093552
2068	1656054026743	9.55124462235819	-0.239080459088243	2.70344404206785	0.00250608868486504	-0.0309132434493757	0.11661679367703	-0.00118279105594864	0.00901275233978126	-0.00175670012337327	0.6826171875	0.404296875	-0.01123046875	0	0	0	-0.3332378632287	-0.501399854786294	-0.425933555484269	0.675374946561969	0.134357583865624	-0.241158872083945	0.961140176078907	0.909500537012606	0.415066265646599	-0.0229949624041708	-0.393391424450984	0.877247053877861	0.275101424262107	-4.77808752023529	-73.974759476854	-60.8763742361307
2069	1656054026745	9.5674594460667	-0.225310493892248	2.69257739405067	0.0214636390827567	-0.039206427381866	0.12889300448726	0.00120951243919601	0.00983423506317139	-0.000659842573485168	0.676025390625	0.40087890625	-0.014892578125	0	0	0	-0.333210212923832	-0.50139163679869	-0.425938000068914	0.675391886721242	0.134366493291248	-0.241212510873792	0.961125470518066	0.909487767097473	0.415095548201096	-0.0229714467041999	-0.39341790373681	0.877218450821454	0.275154761103169	-4.77230283534477	-73.9717076546746	-60.8801763741372
2070	1656054026744	9.55571999276814	-0.229589887770689	2.67262200969025	0.0245013629758057	-0.0559654717245415	0.112214243489655	-0.00216907102466894	0.014562674057674	-0.0027855766861899	0.67919921875	0.40966796875	-0.014892578125	0	0	0	-0.333213253744796	-0.501351840670271	-0.425948084020673	0.675413568937177	0.134429123151298	-0.241268075019343	0.961102766006442	0.909496387422078	0.415074314495848	-0.0230137939504053	-0.393376577994881	0.877213217765363	0.275230518770675	-4.77974980576283	-73.9669969335687	-60.8744353898868
2071	1656054026744	9.53879596661568	-0.243122478635592	2.68601796764268	0.00494485807396548	-0.0470056436159764	0.0999407081578702	-0.000945723308404065	0.0197194094448019	-0.000647956828868431	0.677490234375	0.40478515625	-0.02001953125	0	0	0	-0.333172009348556	-0.501305487014606	-0.425974187438023	0.675451858027063	0.134477600651131	-0.241408199940937	0.961060797205043	0.909492025565386	0.415084807646325	-0.0229969105356458	-0.393370093367666	0.877169700492721	0.27537844175139	-4.7737057388819	-73.9582928132397	-60.8797960805114
2072	1656054026746	9.56626900516484	-0.224913106679556	2.69683694856605	0.0193764885177874	-0.036606599407215	0.128907204448991	0.00696721750768717	0.0106039228739682	-0.000230681755197158	0.67724609375	0.397216796875	-0.013427734375	0	0	0	-0.333079062821461	-0.501419271557765	-0.425908696328281	0.675454539115995	0.134360993004848	-0.241339402265667	0.961094384788925	0.909388446469987	0.415320240603842	-0.0228418732084261	-0.393649307106789	0.877077186260603	0.275274104040915	-4.74345932467755	-73.9652583431575	-60.8939817823701
2073	1656054026746	9.55201236376443	-0.205082192965379	2.70131879108168	0.0338151987975906	-0.0217241337579298	0.115983575765725	0.000831503333652675	0.0120813686001259	0.000683787308661302	0.675537109375	0.403076171875	-0.0146484375	0	0	0	-0.333051230054216	-0.501400947422791	-0.425913043470885	0.675479124388215	0.134390338649792	-0.241406334759446	0.961073471913362	0.909375143917486	0.415349915121483	-0.0228318994748279	-0.39367001981691	0.877044713538932	0.275347936165802	-4.74013200339594	-73.9609209998146	-60.8954163644949
2074	1656054026746	9.58849302699772	-0.215887885846757	2.74117048315554	0.013897639988605	0.000184804569300367	0.162262687320295	0.00398082902337002	0.00840747412137033	-0.00090269687146973	0.67333984375	0.398681640625	-0.01611328125	0	0	0	-0.333075005752948	-0.501391218705572	-0.425895431443106	0.675485727327755	0.134439854561664	-0.241370804438156	0.961075470642299	0.909374336657501	0.415348244037129	-0.0228943662066639	-0.393654977530032	0.877055283856241	0.275335772695229	-4.75325040178732	-73.96133548807	-60.8828604575312
2075	1656054026747	9.57679554966915	-0.220221376761963	2.72108682009804	0.0163427513469875	-0.0170866965791015	0.145588831843037	-0.0023505607638472	0.0133471098097038	-0.000715707890979993	0.674072265625	0.39892578125	-0.017578125	0	0	0	-0.333051921050197	-0.501364138668053	-0.425914257515172	0.675505339422061	0.134462091405883	-0.241454131116817	0.961051428666218	0.909375289233108	0.415346926260146	-0.0228804322172917	-0.393645181993832	0.877032971679441	0.275420836684829	-4.74891027205722	-73.9563504527504	-60.8872389232874
2076	1656054026747	9.5865161197358	-0.201615389416324	2.65687617668134	0.0600876628888993	-0.0676430253466448	0.136822408943493	-0.00554456483752184	0.0192893684364893	-0.00491052332371796	0.678466796875	0.406494140625	-0.020751953125	0	0	0	-0.333072716491731	-0.50134862146101	-0.425927725972762	0.675498110682506	0.134470264013632	-0.241455653844988	0.96104990261817	0.909397842882601	0.415296275552981	-0.0229034249031737	-0.393590283742596	0.877056537937043	0.275424250575928	-4.75360197048723	-73.9560340819356	-60.8859122812777
2077	1656054026748	9.55307067801782	-0.228706107656044	2.68215188410743	0.0212659885454203	-0.0500585257507631	0.112253254003456	-0.00572762396220509	0.0180744637984376	-0.00284081992431995	0.677978515625	0.406494140625	-0.014892578125	0	0	0	-0.333045827690997	-0.501302258101629	-0.425969526392351	0.675519418865885	0.134492017214568	-0.241588122900629	0.961013567114901	0.90941462479192	0.41526087848539	-0.0228788770291261	-0.393544073160971	0.877036818880994	0.275553045359653	-4.74632103086503	-73.9485030241967	-60.8953299057369
2078	1656054026748	9.53613014958565	-0.242274044233	2.69554345523486	5.1846049023762E-05	-0.0398627567559519	0.0999732393406187	-0.0063222223879154	0.0166995694246763	-0.00241586747858215	0.68115234375	0.4072265625	-0.016357421875	0	0	0	-0.332984590234694	-0.50137291166571	-0.425943317686923	0.675513698034273	0.134394987131411	-0.241562184275797	0.961033661513401	0.909359998458924	0.415387105568181	-0.0227584210892401	-0.393703417100658	0.87698418666222	0.275492932228163	-4.72247077000025	-73.952667453108	-60.9102868070347
2079	1656054026749	9.53820722151447	-0.208685088374939	2.68878450020409	0.0337435177490178	-0.033568245197977	0.0993378023346771	-0.00475269506957496	0.0172009350859953	-0.00460555299906084	0.681396484375	0.400634765625	-0.0205078125	0	0	0	-0.332951700836289	-0.501335175642197	-0.425987010961506	0.675530364281363	0.134396216311777	-0.241693522549653	0.96100046732487	0.909375120226169	0.415356462804608	-0.0227134215847118	-0.393668067989669	0.876962513431438	0.27561241314806	-4.71114127340985	-73.9457887472023	-60.923293695495
2080	1656054026750	9.58214529063441	-0.234072383229006	2.67195839397049	0.0227391348377007	-0.0688643780485887	0.137508628705515	0.000593644261707155	0.017811196315695	-0.00581820843387649	0.6826171875	0.408935546875	-0.016845703125	0	0	0	-0.332896804642296	-0.501406755249321	-0.425900469624699	0.675558859924698	0.134400111527618	-0.241608258104989	0.961021362736977	0.909275084699232	0.41557701486482	-0.0226840265660845	-0.393897741002115	0.876881516700813	0.275541966498594	-4.70626917177707	-73.9501184895189	-60.9140009370573
2081	1656054026750	9.55126870779903	-0.227541734324252	2.68866051427114	0.017907720406238	-0.0453511989871154	0.112282507564565	0.00359116317612629	0.0153307330941345	-0.00234833507608963	0.6748046875	0.405517578125	-0.02197265625	0	0	0	-0.332845522702574	-0.501389882169142	-0.425911889719046	0.67558945097686	0.134414496508728	-0.241712404662874	0.960993161557561	0.909253914296355	0.415625840425602	-0.0226380234841365	-0.393941699322452	0.876829672286815	0.275644088150527	-4.69503533050452	-73.9442751860064	-60.9218849784577
2082	1656054026751	9.58126457887949	-0.233275711638402	2.67518437360328	0.0201053049503944	-0.0664942217690548	0.137530420513775	-0.000380017841907154	0.0186832011210681	-0.00405051309934944	0.681396484375	0.404296875	-0.008544921875	0	0	0	-0.332741016974187	-0.501503824917968	-0.425847830777822	0.675596739362658	0.134295077228944	-0.241661026437017	0.961022778363489	0.909144597315614	0.415874081289614	-0.0224688603037575	-0.394234617206433	0.876726124176146	0.275554658431264	-4.66161241033327	-73.9504118628934	-60.9383394087384
2083	1656054026752	9.57815490059854	-0.208718879800491	2.70158669896626	0.0317380408223159	-0.0339336802828251	0.141257906088814	-0.00116972768629868	0.0207699990115379	-0.0043513264588029	0.67822265625	0.40380859375	-0.0205078125	0	0	0	-0.332689056762294	-0.501462615750822	-0.425886727780931	0.675628397578883	0.13431148020879	-0.241820085610102	0.960980474556922	0.909144584152876	0.415876973221332	-0.022415803571511	-0.39422905954485	0.876680893677846	0.275706473029917	-4.648103472159	-73.9416471060631	-60.9513731829428
2084	1656054026753	9.54978524129714	-0.226407922248751	2.69402039805804	0.0149823086861281	-0.0417982265384961	0.112302953771039	0.00100617165417634	0.0179697838931387	-0.00417012708276072	0.68212890625	0.3994140625	-0.01806640625	0	0	0	-0.332648831541592	-0.501460695929473	-0.425872820433452	0.675658394551566	0.134339022507971	-0.241868463144481	0.960964449689857	0.909109721404372	0.415954191380141	-0.0223969891136798	-0.394300065279817	0.876630912761705	0.275763850623885	-4.64325712378523	-73.9383281939991	-60.9512514349866
2085	1656054026753	9.56573616430352	-0.212336825422548	2.68424601291406	0.0339082127662418	-0.0499903563872535	0.124612206281338	-0.00195888673955347	0.0228561490117586	-0.00465110253166473	0.68408203125	0.40625	-0.0107421875	0	0	0	-0.332594430995685	-0.501411341792586	-0.425917961970805	0.675693347949386	0.134361111984788	-0.242046627515089	0.960916500896297	0.909113107188242	0.415949668282584	-0.0223434955669006	-0.39428473204621	0.876583882788281	0.27593522158483	-4.62935101561213	-73.9284014995447	-60.9651589641533
2086	1656054026755	9.55997575602398	-0.221224123348729	2.71936425141229	0.0124969028774041	-0.0221409444601854	0.128960973214461	-0.00472895717402147	0.024280709222486	-0.00440692865205851	0.67724609375	0.4091796875	-0.011962890625	0	0	0	-0.332585567578451	-0.501360800487744	-0.425891045284998	0.675752177590912	0.13450833056068	-0.242102869752008	0.960881735422014	0.90908433531922	0.416007315569143	-0.0224406922835985	-0.394300875331251	0.876540993822193	0.276048375945615	-4.64750363864594	-73.9212078396715	-60.9441777105197
2087	1656054026756	9.57582539386245	-0.207274907036509	2.70994295293324	0.0314314437840675	-0.0303201302516654	0.141270541871387	-0.0122799643867441	0.024061193963458	-0.00636391519018419	0.677001953125	0.40234375	-0.019287109375	0	0	0	-0.332559465285475	-0.501288190157099	-0.425969365815513	0.675769525685192	0.134520499591499	-0.242297967642006	0.960830854035302	0.909130497532279	0.415908602871538	-0.022400279332121	-0.394190275940902	0.876533929140225	0.276228704916118	-4.63615525678983	-73.9106851262155	-60.9615676828396
