// Start Time : 24/06/2022 06:59:50																																
// Update Rate : 100Hz																																
// Filter Profile : 46.1 human																																
// Firmware Version : 4.4.0																																
PacketCounter	Time_Of_Arrival	Acc_X	Acc_Y	Acc_Z	FreeAcc_X	FreeAcc_Y	FreeAcc_Z	Gyr_X	Gyr_Y	Gyr_Z	Mag_X	Mag_Y	Mag_Z	VelInc_X	VelInc_Y	VelInc_Z	OriInc_q0	OriInc_q1	OriInc_q2	OriInc_q3	Mat[1][1]	Mat[2][1]	Mat[3][1]	Mat[1][2]	Mat[2][2]	Mat[3][2]	Mat[1][3]	Mat[2][3]	Mat[3][3]	Euler_X	Euler_Y	Euler_Z
1864	1656054026558	5.09841216649761	1.36099103524862	8.59139119824697	-2.29850860566927E-15	1.9298798670242E-15	0.269877086210792	0.00487598350848337	-0.00650482176834263	-0.00825969641679807	0.19140625	-0.319580078125	0.6357421875	0	0	0	-0.254047826929884	0.0969430118859965	-0.780218678301513	-0.563312140920214	-0.236278267048177	0.829756985108579	0.505644070650721	-0.928269631131281	-0.346562968676714	0.134942953359482	0.287207368359703	-0.437489947776522	0.85212350815735	8.99867818596733	-30.3741165453741	105.894620332397
1865	1656054026556	5.07625084848295	1.33748551757049	8.60056890648802	0.0273872950497323	-0.0117584568963713	0.263328086012086	0.00187646201896289	-0.00804096471595771	-0.00771201428118778	0.18896484375	-0.318603515625	0.6572265625	0	0	0	-0.254398868289971	0.0956929298769354	-0.782943197054276	-0.559574864670295	-0.244314373284006	0.827542320944261	0.50545444310346	-0.924919013200436	-0.355437668001578	0.134866167684597	0.291265009960299	-0.434554681497951	0.852248157968699	8.9923475341862	-30.3615239554605	106.448121236589
1866	1656054026556	5.06092458686418	1.35835745422043	8.55210234489111	-0.00162875427161258	-0.0112411608828772	0.217089211400072	0.000596661788941223	-0.00643034536469638	-0.00602332808998815	0.1904296875	-0.31689453125	0.65087890625	0	0	0	-0.25442859235202	0.0957009236811452	-0.782918449894705	-0.559594608100201	-0.244239931957905	0.827535783688524	0.505501120030625	-0.924931988884452	-0.355390415583516	0.134901699209561	0.291286236501914	-0.434605774497296	0.85221484920069	8.99502371779951	-30.3646234780849	106.443503186751
1867	1656054026558	5.0932261066373	1.31197232055	8.57095261314781	0.0396353441554962	0.0235329229463467	0.243222712663295	0.00186082900508983	-0.00649661857196209	-0.00777226141161375	0.18505859375	-0.31689453125	0.64501953125	0	0	0	-0.254464898284878	0.0956926387326059	-0.782890779576763	-0.559618228515608	-0.24415010770784	0.827539067212494	0.505539135125389	-0.92494073753931	-0.355340714410888	0.134972622120921	0.291333755247289	-0.43464016026943	0.852181068866516	9.00002626661899	-30.3671478952097	106.437720518364
1868	1656054026559	5.07718366719771	1.36348337577466	8.59756413241331	0.00457208878465653	-0.0198696698273008	0.264741581390615	0.00438905433152967	-0.00662909675020766	-0.0112702089222182	0.18310546875	-0.31640625	0.647216796875	0	0	0	-0.254508520331643	0.0956796671897397	-0.782852908285114	-0.559653587815353	-0.244026549448002	0.827550296662326	0.505580408697369	-0.924955458751464	-0.355266525863728	0.135067001619882	0.291390532602502	-0.43467942451284	0.852141628730117	9.00662641775947	-30.3698887674259	106.429639562503
1869	1656054026560	5.10135275915562	1.33977453456266	8.59135006623332	0.0197210163717721	0.0109263792713159	0.268462540914289	0.0018768155085549	-0.00804139101834601	-0.00771193199281168	0.1943359375	-0.31689453125	0.652587890625	0	0	0	-0.254548501379655	0.0956853349927773	-0.782822134765053	-0.559677480728479	-0.243932356021589	0.827542723234746	0.50563825696537	-0.924968957740433	-0.355210868465486	0.13512093154124	0.291426548039697	-0.434739324360261	0.852098754225384	9.01060954416318	-30.3737304520742	106.423781765472
1870	1656054026561	5.09418198145328	1.33857869032245	8.56783469829747	0.0166831415038151	0.0153006413994226	0.244636429247599	0.00638349840567246	-0.00650883612428815	-0.00850425194773258	0.188232421875	-0.31884765625	0.65185546875	0	0	0	-0.254595909347694	0.0956677395933441	-0.782793105022781	-0.559699527669369	-0.243834723340213	0.827544631974167	0.505682222135942	-0.92497109260219	-0.355168244655572	0.135218326563346	0.291501467481578	-0.434770514270485	0.852057213089042	9.01743010019723	-30.3766502657108	106.417526419994
1871	1656054026562	5.08684821349306	1.34337271519968	8.62132879351185	0.0305128873538551	-0.0160236237534066	0.287154088455868	0.00210456916770159	-0.00643496565342408	-0.00626701939811688	0.190673828125	-0.314453125	0.646240234375	0	0	0	-0.254629273772442	0.095670711936949	-0.782768661029133	-0.559718028230514	-0.243759323623729	0.827538335220136	0.505728875868867	-0.924980590827327	-0.355125687502446	0.135265119926179	0.291534386889833	-0.434817260256537	0.852022095631192	9.02086503187368	-30.3797487274549	106.412841115607
1872	1656054026562	5.07905442310063	1.36631237402028	8.5960099191133	0.00453424369053767	-0.0198813716952247	0.264741575410344	0.00359607633790353	-0.00489437104903655	-0.00657146673118227	0.193115234375	-0.311767578125	0.65576171875	0	0	0	-0.254661636749726	0.095661968250358	-0.782745758351298	-0.559736827787372	-0.243684268772961	0.82754038866848	0.505761685257997	-0.924986122305826	-0.355086942897994	0.135328993659855	0.291579578664591	-0.434844993193872	0.851992477196836	9.02536327171433	-30.3819277895648	106.40802082622
1873	1656054026563	5.1031714824177	1.3425121919266	8.58984246546292	0.019647631369023	0.0109253849177001	0.268462685282575	0.00138978065716559	-0.00816673715499286	-0.0107216677766052	0.193115234375	-0.31689453125	0.639892578125	0	0	0	-0.254700504009495	0.0956666297033864	-0.782706658296145	-0.559773022105733	-0.243563633959847	0.827543465468741	0.505814757566701	-0.92500882067811	-0.355004119367619	0.135391125631312	0.291608363871763	-0.434906757813682	0.851951098437008	9.02987005419486	-30.3854527327313	106.400276974053
1874	1656054026563	5.0798739259754	1.36762018782464	8.59531766572226	0.00448733137508538	-0.0198709108817785	0.264741617041212	0.00357995525006054	-0.00334984470281036	-0.00663195177223433	0.19140625	-0.316650390625	0.64306640625	0	0	0	-0.254726805614421	0.0956535492915022	-0.782685542071857	-0.559792814567224	-0.243492518520757	0.827552438921545	0.50583431502758	-0.925014531148369	-0.354964806533687	0.135455170764597	0.291649636702642	-0.434921771077863	0.851929306018822	9.0342983774096	-30.3867517272806	106.395577402149
1875	1656054026564	5.08026540538455	1.3682190477959	8.59499097920755	0.00442298106475103	-0.0198538350854068	0.264741679145992	0.00187738102095468	-0.0080422478466662	-0.00771153585443074	0.18896484375	-0.3134765625	0.656494140625	0	0	0	-0.254764247638669	0.0956600148903763	-0.782655505662471	-0.55981666564376	-0.24340095798521	0.82754568761009	0.505889423263449	-0.925028694500692	-0.354908924837351	0.135504868625228	0.291681140977998	-0.434980217928056	0.851888679352551	9.03798220987688	-30.3904120753805	106.38986962482
1876	1656054026564	5.10394068379414	1.36868653488558	8.58688491674886	-0.00335759010083193	0.00271043425466881	0.269876162841246	0.00161735221641756	-0.00656026492605089	-0.00927694481599449	0.194580078125	-0.31787109375	0.64013671875	0	0	0	-0.254798883600423	0.0956602311526353	-0.782621954414687	-0.559847769987466	-0.243296006712079	0.82755007163929	0.505932734706663	-0.925046552049889	-0.354839189231771	0.135565579429113	0.291712066357509	-0.435028767686857	0.851853298183605	9.04233399894058	-30.3932889641166	106.38309942981
1877	1656054026565	5.10483482432935	1.34493785597671	8.58847456117705	0.0195194049854054	0.0109748601964294	0.268462880633635	0.00184485529150451	-0.00495331405238585	-0.00783237927870303	0.19482421875	-0.31494140625	0.649658203125	0	0	0	-0.254823798587562	0.0956574150196777	-0.782595560874461	-0.559873806071285	-0.243212305897318	0.82755793884579	0.505960109211603	-0.925061082279315	-0.354781960454013	0.135616203267271	0.291735785107573	-0.435060476703774	0.851828981250317	9.04590878474351	-30.3951073126112	106.377617907746
1878	1656054026565	5.07378183868176	1.36801001388289	8.57090770749728	0.00132175283856463	-0.0154473062914469	0.240915577250819	0.00359619893106705	-0.00489439441528449	-0.00657178454392635	0.196044921875	-0.318359375	0.645751953125	0	0	0	-0.25485616023001	0.0956486710619485	-0.782572647231891	-0.559892597844774	-0.243137232942892	0.827559958845947	0.505992885791657	-0.925066570997753	-0.354743221205428	0.135680087821526	0.291780954106559	-0.435088222690172	0.851799338633797	9.05040925220926	-30.3972845378844	106.372795548656
1879	1656054026566	5.11324422470342	1.34814279511981	8.61094336940819	0.0224724638810166	0.00663705507168524	0.292289238195021	0.00161743711838226	-0.00656067556631191	-0.00927685321517426	0.194091796875	-0.31201171875	0.648193359375	0	0	0	-0.254886522738923	0.0956498169835778	-0.782540324037284	-0.559923757571235	-0.243036492466738	0.827566138868819	0.506031174066598	-0.925085535875053	-0.354672996436634	0.135734361579616	0.291804754320815	-0.43513371668536	0.851767946074137	9.05429773856472	-30.3998279458403	106.366259141854
1880	1656054026567	5.07557790038809	1.32064912211516	8.57407319112039	0.0471195770434616	0.00105289766850032	0.238089463205437	0.00310837888497806	-0.00501964620393125	-0.00958180205099623	0.19091796875	-0.31494140625	0.646728515625	0	0	0	-0.25491944741017	0.0956394964390248	-0.782508586797475	-0.559954885362385	-0.242933203381783	0.827578276864878	0.506060919609511	-0.925099747196171	-0.354607226159375	0.135809325501362	0.29184570655099	-0.435164234303456	0.851738324105967	9.05952521766004	-30.4018039241567	106.35944846461
1881	1656054026568	5.10585051442317	1.37178527903287	8.58525489351472	-0.0036691928284786	0.00280527266226399	0.269876028318633	0.00236608898543672	-0.00791756367748519	-0.00470141828361317	0.188720703125	-0.3173828125	0.64453125	0	0	0	-0.254952222742958	0.095649940591579	-0.782488655379881	-0.559966032170737	-0.242874813866772	0.827561805225264	0.506115879341365	-0.925106465061484	-0.354578263359577	0.135839182323628	0.291873008499632	-0.435219155926309	0.851700905966505	9.06187535180132	-30.4054549708965	106.35603475576
1882	1656054026568	5.10669542179151	1.34801005533328	8.5868866573388	0.0192716955336006	0.0110372949620943	0.268463289049251	0.00132337956137604	-0.00199004351546554	-0.0109632795304407	0.192138671875	-0.304443359375	0.64111328125	0	0	0	-0.254968956538919	0.0956363589638475	-0.782456054979966	-0.560006285742207	-0.242767582261345	0.827592012907274	0.506117932082107	-0.925129223516049	-0.354493293546712	0.135905940366852	0.291890083421096	-0.435230932956852	0.851689036091187	9.06637910893481	-30.4055913397888	106.348634251201
1883	1656054026569	5.08330519980339	1.37294575705254	8.5924395870973	0.00393349343885269	-0.019751581510269	0.264742083028079	-0.00138046628780426	-0.00809923035359417	-0.00872706680860047	0.187255859375	-0.318115234375	0.64990234375	0	0	0	-0.254993831270737	0.0956579694085877	-0.782422920424345	-0.560037563469752	-0.242672147033469	0.827588067692525	0.506170148534185	-0.925156836136824	-0.354414960782979	0.135922272356302	0.291881924077986	-0.435302223502421	0.851655397804993	9.06780271931485	-30.4090602781969	106.342624144844
1884	1656054026570	5.09146236453904	1.37541009339463	8.61517599441554	0.00696988054687529	-0.0241255588840277	0.288568435096607	0.00359639446071661	-0.00489428157422029	-0.00657215620257266	0.194091796875	-0.318115234375	0.64599609375	0	0	0	-0.255026191673492	0.0956492253386836	-0.782399996587658	-0.560056347693924	-0.242597057936517	0.827590053699957	0.506202894596079	-0.925162284398533	-0.354376226199705	0.135986167792696	0.291927071384334	-0.435329982107089	0.851625734505251	9.07230524821467	-30.411235787088	106.337799923624
1885	1656054026573	5.08461592382552	1.34969641972931	8.59371724891021	0.0266860529639816	-0.0114517133248533	0.263330320926924	0.00184486395935572	-0.00495396154019405	-0.0078324067148129	0.185302734375	-0.31591796875	0.6494140625	0	0	0	-0.255045282565259	0.0956484971180607	-0.782375331844436	-0.560082234106361	-0.242519589759269	0.827599651589437	0.506224323074303	-0.92517844348711	-0.354318512074968	0.136026613968548	0.291940227255106	-0.435358712661205	0.851606537680527	9.07515987743464	-30.4126594301653	106.332681589687
1886	1656054026574	5.08433218732433	1.37465825381668	8.59155810994307	0.00374504846172127	-0.0196837213711365	0.264742287597494	0.00333537056005386	-0.00341253972146432	-0.00813768305746525	0.191162109375	-0.313232421875	0.642333984375	0	0	0	-0.255071861457219	0.0956346302995208	-0.78234978621497	-0.560108181505693	-0.24243434100627	0.827613625775925	0.506242310293087	-0.925188438457012	-0.35426568499572	0.136096207808995	0.291979354828952	-0.435375138087306	0.851584725960446	9.07995426494703	-30.4138544624366	106.326985287075
1887	1656054026575	5.08517704577399	1.35105159650141	8.59317227240578	0.0264644900343879	-0.0113391732179273	0.263331032571093	0.00312521582563017	-0.00656467754334804	-0.00952144828753447	0.18896484375	-0.319091796875	0.6533203125	0	0	0	-0.25509912077712	0.095630421855056	-0.782319598322514	-0.560138649867214	-0.242338263007351	0.827624414068528	0.506270674165812	-0.925205360207607	-0.354199030681519	0.136154647762699	0.29200549262932	-0.435408860614939	0.851558521989129	9.08406308344659	-30.415738927088	106.320657833642
1888	1656054026576	5.11642764506205	1.35364137736285	8.60818937850874	0.0217188521730923	0.00685176792752228	0.292290742744141	0.00359659949152989	-0.00489438082741494	-0.00657222955168966	0.19384765625	-0.315673828125	0.6533203125	0	0	0	-0.255131477634326	0.0956216750133592	-0.782296670075295	-0.56015742820824	-0.242263169486512	0.82762638313044	0.50630339388234	-0.92521078009055	-0.35416030178154	0.136218548833278	0.292050627656551	-0.43543662063317	0.85152884877553	9.0885667562956	-30.4179128344314	106.315832827383
1889	1656054026577	5.08601994064079	1.35234807706248	8.59246946713011	0.0261726847168634	-0.0112239651940859	0.263331923759482	0.00187922033275592	-0.00804366849416178	-0.00771104480176703	0.190673828125	-0.313232421875	0.646484375	0	0	0	-0.255157375380843	0.0956306352673287	-0.782269992809773	-0.56018135789807	-0.242183120104469	0.827624409828554	0.50634491465048	-0.925227857431812	-0.354103255723684	0.136250857311162	0.292062918167651	-0.435486762763031	0.851498990774253	9.09099984609083	-30.420671555886	106.310765144255
1890	1656054026577	5.10893899148898	1.37720312148368	8.5825497279467	-0.0045494323721201	0.0031086026643627	0.269875580604367	0.00132185833928114	-0.00199123212521571	-0.0109634097450779	0.193359375	-0.306640625	0.648193359375	0	0	0	-0.25517410902934	0.0956170491928374	-0.782237376705543	-0.560221599431482	-0.24207586722303	0.827654557954537	0.506346923764031	-0.925250539297725	-0.354018278868174	0.136317635529981	0.292079978837111	-0.435498554445701	0.851487107969474	9.0955058048842	-30.4208050473181	106.303363179391
1891	1656054026578	5.07165492603841	1.33134568031552	8.62467820447936	0.0596561779299291	-0.0298122145150007	0.280616926326182	0.00161803800084177	-0.00656219005565823	-0.00927656132179391	0.1943359375	-0.312744140625	0.6474609375	0	0	0	-0.255194903721197	0.0956203252157322	-0.782207700571146	-0.560253003282952	-0.241984266854324	0.827664787497636	0.506373986428479	-0.925272066246509	-0.353946651436142	0.136357513034883	0.292087688920453	-0.435537331894335	0.851464629040733	9.09835822711722	-30.4226031883879	106.297330796464
1892	1656054026579	5.09464792997932	1.35610423700263	8.61472744267735	0.0289347805189263	-0.0154796034902611	0.287159581271544	0.000337672409297024	-0.00495185690839472	-0.00758738604450769	0.190673828125	-0.3193359375	0.650146484375	0	0	0	-0.255218880552746	0.0956231657658635	-0.782180277613568	-0.560279882282667	-0.241899553037448	0.827670073086961	0.50640582180353	-0.925289422373654	-0.35388532735647	0.136398900014751	0.292102877568354	-0.435577117394876	0.851439066356635	9.10134220103928	-30.4247184879915	106.291829552221
1893	1656054026581	5.09448477129523	1.38099404602804	8.61249555746534	0.00554250158929974	-0.0235369471511823	0.28857070781482	0.00336988056319608	-0.00650197217199829	-0.00801671338997968	0.198974609375	-0.314208984375	0.64892578125	0	0	0	-0.25523523786879	0.0956238210386516	-0.782157519122053	-0.560304090187521	-0.241828599738393	0.827678976852575	0.506425156982591	-0.925305251687466	-0.353830822738205	0.13643291421061	0.292111484793327	-0.435604476740861	0.85142211640006	9.10375202586508	-30.4260032352017	106.287138296351
1894	1656054026581	5.08818550427195	1.33099388079274	8.59296090658965	0.048392188444589	-0.00270089762805138	0.261924513646491	0.00158312429369986	-0.00347324175810203	-0.00939792467362567	0.1982421875	-0.314453125	0.642333984375	0	0	0	-0.25525777690468	0.0956153721780545	-0.782127498634565	-0.560337169758148	-0.241731447034217	0.827697083269656	0.506441947178201	-0.925323352629991	-0.353759913581361	0.136494016793781	0.292134559051709	-0.43562766428432	0.851402335865865	9.10796894610749	-30.4271188919165	106.280604416431
1895	1656054026582	5.08738342402853	1.3802004359016	8.58886293476354	0.00204483234064403	-0.0190134772827984	0.264744062882237	0.000110886048684098	-0.00656002646270743	-0.00903144871737106	0.202392578125	-0.3173828125	0.64990234375	0	0	0	-0.255265754077622	0.0956292877918693	-0.782099630117721	-0.560370058694543	-0.241649584227714	0.827708666747901	0.506462082917353	-0.925352195788291	-0.353680873270187	0.136503309969484	0.292110924465964	-0.435669832411252	0.851388868223205	9.10872033388643	-30.4284568665077	106.27516712833
1896	1656054026582	5.09610232700341	1.35837405057831	8.61350951587528	0.0280192451513371	-0.0151563628568499	0.287162652912372	0.00186277709077263	-0.0064994783498566	-0.0077717148744841	0.1943359375	-0.316162109375	0.64599609375	0	0	0	-0.255300215566163	0.0956303763539798	-0.782070372550991	-0.56039500660536	-0.241558473007299	0.827707751787449	0.506507040177478	-0.925365574578826	-0.35362453538035	0.136558563852402	0.292143898623231	-0.435717300101796	0.851353262100534	9.11272023064974	-30.4314442415885	106.269372422105
1897	1656054026583	5.08882639521528	1.35717646203248	8.59004620019152	0.0244577003244953	-0.0105803420157511	0.263336928913292	0.00614034850776735	-0.00657019334499673	-0.0100120771781095	0.184814453125	-0.318603515625	0.649169921875	0	0	0	-0.255321617100742	0.0956191775022061	-0.782043887101804	-0.560424128122233	-0.241471336918994	0.827725241113289	0.506520008164043	-0.925379813216113	-0.353563539024473	0.136620002798279	0.292170831430287	-0.435733575819489	0.851335689469728	9.1169363105183	-30.4323059712447	106.263488437883
1898	1656054026583	5.08905488796054	1.3578886643149	8.58979827280303	0.0244589829886783	-0.0105845932479442	0.263336921334869	-0.00169431576990075	-0.00198755948516601	-0.0104731147632771	0.194091796875	-0.3212890625	0.64208984375	0	0	0	-0.255329801579983	0.0956181690240231	-0.782011071230743	-0.56046636174722	-0.241368299549922	0.827753463628792	0.506522997921041	-0.925410136126172	-0.353469246204656	0.136658596299148	0.292159928681741	-0.435756463449543	0.85132771635524	9.11955243776502	-30.4325046432793	106.25639027354
1899	1656054026584	5.08929988456805	1.35847433402038	8.5895605174288	0.0237687895210162	-0.0102907820039369	0.263338877459061	0.00512248090741419	-0.00644110953447297	-0.00675728957239092	0.194580078125	-0.327880859375	0.649658203125	0	0	0	-0.255337454032799	0.0956153592507584	-0.781996760572264	-0.560483321873079	-0.241322460940333	0.827763919324019	0.506527752162742	-0.925420648914099	-0.353432297954934	0.136682966479743	0.29216449546293	-0.435766571259928	0.851320975286794	9.12122239325424	-30.4328205677388	106.25327153054
1900	1656054026584	5.0902507486272	1.33476967663745	8.59115189016821	0.0467069870282597	-0.00206246033753394	0.26193261829146	9.3267964179906E-05	-0.00501632589513537	-0.00909188973715022	0.195068359375	-0.31103515625	0.6484375	0	0	0	-0.25536163376659	0.095617696869274	-0.781964875507452	-0.560516391837107	-0.241223620963937	0.827774078546506	0.506558229205221	-0.925442443704652	-0.353357261054653	0.136729402287573	0.292177083425463	-0.435808124002338	0.851295384090947	9.12453873802104	-30.4348458242032	106.246776914
1901	1656054026585	5.0894272249652	1.38401849878131	8.58703750940547	8.31225251345987E-05	-0.01826931568282	0.264745646562098	0.00335264506031071	-0.00495750477335676	-0.00807771170235234	0.193603515625	-0.31494140625	0.64599609375	0	0	0	-0.255358330038304	0.0956189292922948	-0.781948074894353	-0.560541124102469	-0.24117154293998	0.827793925573822	0.506550593385332	-0.925462285990346	-0.353301337101873	0.136739615370061	0.292157224941422	-0.435815766104338	0.851298287282088	9.12517823792398	-30.4343384057441	106.243085425634
1902	1656054026586	5.09809550779052	1.36234305986413	8.61170301123023	0.0260469248016229	-0.0144122815992255	0.287169021187184	0.00161868089357711	-0.0065635003061175	-0.00927635762651188	0.195556640625	-0.32275390625	0.646484375	0	0	0	-0.255392871261963	0.0956194887871884	-0.781914426191562	-0.560572229767197	-0.241066513044807	0.827797955174763	0.506594000849693	-0.925480098334607	-0.353231377155819	0.1367997872044	0.292187480695159	-0.43586481803546	0.851262789345295	9.12950041777159	-30.4372229705257	106.23630945081
1903	1656054026587	5.11403876726565	1.360787741753	8.5804985830406	0.0145326485699039	0.0127815610622557	0.268469173988409	0.000374251457229502	-0.00804273861888963	-0.00746531827875189	0.193359375	-0.317138671875	0.650634765625	0	0	0	-0.255394303016823	0.0956409358809037	-0.781893081116316	-0.560597690927112	-0.241007957827483	0.827802611333024	0.506614252596641	-0.925507211969744	-0.35316608062203	0.136784941020804	0.29214990134487	-0.435908885167876	0.851253122740752	9.12862823781975	-30.4385687930476	106.23248684055
1904	1656054026587	5.08404732036988	1.33510360106332	8.566813726188	0.0422246459329807	0.00281248829733186	0.23811088104549	0.00307135119033522	-0.00193164159108322	-0.00970437050665047	0.18994140625	-0.313720703125	0.649658203125	0	0	0	-0.255414960124544	0.0956224016231333	-0.78186483505364	-0.560630835897336	-0.240912527971264	0.827828288274538	0.506617685240994	-0.925521855864881	-0.353098844297757	0.136859418645608	0.292182217431042	-0.435914591735624	0.851239108904803	9.13366273193385	-30.4387969100282	106.225920849214
1905	1656054026591	5.06828247141352	1.36211391810659	8.59547614719026	0.0293791176908927	-0.0319646847230353	0.25821958909553	0.000111535102478485	-0.00656182091678293	-0.00903085125608906	0.1845703125	-0.31640625	0.64599609375	0	0	0	-0.255406855203136	0.09563292038058	-0.781843206651588	-0.560662896103789	-0.240848910495513	0.827850346184113	0.506611889552514	-0.925551559977296	-0.353022922943988	0.136854395982285	0.292140569138758	-0.43593419250952	0.851243365709452	9.13328827820586	-30.4384117568472	106.221451952671
1906	1656054026588	5.0841443784326	1.36065801610751	8.56430055627673	0.018564874875859	-0.00503269496764285	0.239515792571259	0.00312618921689457	-0.00656578269530279	-0.00952192120787823	0.194091796875	-0.318115234375	0.646484375	0	0	0	-0.25544562701691	0.0956272573504665	-0.781809646379318	-0.560692996315998	-0.240741791040252	0.827855256926746	0.506654777561095	-0.925565515781936	-0.352957583067632	0.136928523509076	0.292184643747839	-0.435977772522645	0.851205918579131	9.13854713272094	-30.4412619206872	106.214525361947
1907	1656054026588	5.09290037198037	1.33884462422958	8.58894722576336	0.0437259397658281	-0.000782864281922764	0.261946178381651	-0.00115080779803454	-0.0064967152359638	-0.00728039699974539	0.193603515625	-0.317138671875	0.649169921875	0	0	0	-0.255429201377904	0.0956476901070648	-0.781793261814939	-0.560719839350622	-0.240698369684118	0.827871558145165	0.506648771878216	-0.92559641053592	-0.352889562271591	0.136895002256419	0.29212254215385	-0.436001880791885	0.851214884921258	9.13625306017281	-30.4408628022413	106.21145200423
1908	1656054026590	5.1004352759497	1.36566878514817	8.60979058612135	0.0237953139129626	-0.0133823455808834	0.287175994155961	0.00335263046993606	-0.00495750915488539	-0.00807816028073224	0.193359375	-0.310302734375	0.650390625	0	0	0	-0.255461417492368	0.0956384601205889	-0.781766020322223	-0.560744717842359	-0.240609651169367	0.827878459790272	0.506679634068159	-0.925606206147044	-0.352837292715311	0.136963484226297	0.29216458872737	-0.43603107765917	0.851185498237106	9.1410566005517	-30.4429138218977	106.205662330812
1909	1656054026591	5.04731537019035	1.3400404815462	8.60385941583598	0.0586046140485644	-0.0455062419460857	0.251704941193743	0.00209032847831431	-0.00489219400063835	-0.00632772830281505	0.193115234375	-0.317138671875	0.64208984375	0	0	0	-0.255451922161714	0.0956384631938553	-0.781754376741578	-0.560765275554033	-0.240573242393391	0.827899358467199	0.50666277472687	-0.92562347548905	-0.352791180181455	0.136965560670372	0.292139858061004	-0.436028709416911	0.851195199643607	9.14109041762	-30.4417933892431	106.202951229259
1910	1656054026592	5.0780035464883	1.36692479476228	8.61692856121507	0.0308908675022132	-0.0355369308964974	0.282056025300138	0.00337122521639836	-0.00650236293187913	-0.00801728988217448	0.18798828125	-0.310302734375	0.64697265625	0	0	0	-0.255490260349923	0.0956333943114688	-0.781725353862583	-0.560789133175042	-0.240480549958226	0.827899365525534	0.506706764958006	-0.92563296876867	-0.352739604010503	0.137034225254173	0.292186091763943	-0.436070421291025	0.851157961517591	9.14598902743232	-30.4447169048418	106.197035515399
1911	1656054026592	5.08665994583261	1.33921856154525	8.56462027455406	0.0392547362618084	0.00446247144685677	0.238122322062798	0.00335258620414366	-0.0049577271602604	-0.00807822409545948	0.195068359375	-0.320556640625	0.6494140625	0	0	0	-0.255480475016454	0.095626607749369	-0.781709818910245	-0.560816402929718	-0.240429378180679	0.827929915208127	0.506681132085176	-0.925652839896211	-0.352681028190642	0.137050765581486	0.292165251355687	-0.436059798488527	0.85117055755143	9.14694123254104	-30.4430133772514	106.1932033906
1912	1656054026593	5.0709653223986	1.36619562168513	8.59324571643941	0.0271072357737991	-0.0306965463253855	0.258229905610854	9.29675356171923E-05	-0.00501833203035556	-0.00909138420326326	0.18994140625	-0.318115234375	0.65087890625	0	0	0	-0.255504243467922	0.0956287319225351	-0.781678176792102	-0.560849315884176	-0.240331252884273	0.827940247783552	0.506710800148552	-0.925674434998208	-0.35260638100628	0.13709697467268	0.292177564638052	-0.436100545945272	0.851145454401545	9.15023842403903	-30.4449850811009	106.186749254258
1913	1656054026593	5.09507893016062	1.34242716264738	8.58709576195414	0.041129936357481	0.000572454149792866	0.261957125241189	0.00312633916642398	-0.00656626389377888	-0.00952209317612637	0.18603515625	-0.31494140625	0.64013671875	0	0	0	-0.255486210734346	0.0956353385696703	-0.781663022206621	-0.560877524827017	-0.240286396537048	0.827967421761189	0.506687671195354	-0.925701462815034	-0.352540568321166	0.137083731455984	0.292128823263552	-0.436102162560471	0.85116135628254	9.14920144196993	-30.4434479552318	106.183382907655
1914	1656054026594	5.08717800003968	1.3656386023533	8.56170599611514	0.0151591198824904	-0.00328878526804793	0.239522227356263	0.00614090501333798	-0.00656936719210643	-0.0100138589572114	0.1953125	-0.308349609375	0.642822265625	0	0	0	-0.255533256883201	0.0956170641482041	-0.78162977552035	-0.560905540791272	-0.240175457872629	0.827974264242804	0.506729086581046	-0.925707623504406	-0.352484702706658	0.137185750512303	0.292200522281357	-0.436134328056606	0.851120263340684	9.15632965157609	-30.4462003953014	106.176175304349
1915	1656054026594	5.10302693124915	1.37039627814544	8.60750343151111	0.0205848726057297	-0.011630823195376	0.287185216608654	0.000338133654439289	-0.00495513365581962	-0.00758644847734498	0.1845703125	-0.318115234375	0.6513671875	0	0	0	-0.255522673602971	0.0956224443116299	-0.781610156018785	-0.560936783806295	-0.240116175695679	0.82800036896111	0.506714526306034	-0.925735179468945	-0.352412545433838	0.137185186206251	0.292161940818585	-0.436143080675493	0.851129022837319	9.15619998859582	-30.4452327198695	106.171908081596
1916	1656054026595	5.07252848363202	1.36890825319502	8.59189133540445	0.0253437819109601	-0.0298259561286289	0.258237113752443	0.00186442900022445	-0.00650133305736235	-0.00777139089806374	0.193603515625	-0.319580078125	0.64892578125	0	0	0	-0.255556365822129	0.0956234547779641	-0.781581274668035	-0.560961504804387	-0.240026268030767	0.827999650748598	0.506758294471263	-0.925748381110251	-0.352356690047848	0.1372395637208	0.292193986123899	-0.436189570414889	0.851094197568225	9.160136262681	-30.4481415797556	106.16618241184
1917	1656054026595	5.08138966431821	1.34722084828537	8.61647922494586	0.0500337685130948	-0.0253005007092368	0.280681530055585	0.00339078734828805	-0.00804750999536269	-0.00795636980746643	0.190185546875	-0.314453125	0.64794921875	0	0	0	-0.255534138015972	0.0956304090059036	-0.781573859027464	-0.560980776913715	-0.240005744483437	0.828022153038478	0.506731247006216	-0.925769489572231	-0.352310785613296	0.137215022930115	0.292143962443383	-0.436183934158591	0.851114258363596	9.15831382596737	-30.4463439779106	106.164455957303
1918	1656054026595	5.10512023364162	1.34794920156515	8.60824857221435	0.0422279614131418	-0.00272119022362138	0.285796307413381	0.00489805769398603	-0.00804890051773651	-0.00820245191629116	0.188232421875	-0.313720703125	0.654052734375	0	0	0	-0.25558219942117	0.0956233023527577	-0.781543450078722	-0.561002459018888	-0.239907960627596	0.82801636678607	0.506787003347466	-0.925774822511003	-0.352264850043828	0.137296953456074	0.292207372309851	-0.436232015970855	0.851067846772381	9.16418071483346	-30.4500496369343	106.158320946918
1919	1656054026596	5.09075305533862	1.32023208791455	8.56363980802329	0.0581636468800078	0.015060132432446	0.236745275644774	0.000111781979133852	-0.00656462069008142	-0.0090298269184554	0.1953125	-0.316650390625	0.645751953125	0	0	0	-0.255551864930527	0.0956225944890916	-0.781531168761095	-0.561033507028432	-0.239869296643816	0.828057280221767	0.506738454431209	-0.925803409626499	-0.352195446829106	0.137282241957203	0.292148536281719	-0.436210394081315	0.851099127507409	9.16288435736319	-30.4468229874152	106.155096105256
1920	1656054026597	5.06685645241974	1.37601508175418	8.64413554353976	0.0368626643257359	-0.0595980252383161	0.300799678606983	0.0126411886596884	-0.00490110721736265	-0.00805108991207617	0.19287109375	-0.312744140625	0.647705078125	0	0	0	-0.255609087997634	0.0955762092399257	-0.781509097796005	-0.561046087609938	-0.2397825634212	0.828064948143865	0.506766972024279	-0.925785538856219	-0.352184951609816	0.13742960344952	0.292276338973683	-0.436204311664947	0.851058364720688	9.17298473888391	-30.4487183057176	106.149417469945
1921	1656054026598	5.09172890228808	1.32217899454356	8.56275923730575	0.0572758154702025	0.0154519954713149	0.236749780087381	0.00241357182803082	-0.0110083176813859	-0.00457804937731558	0.197265625	-0.3154296875	0.652099609375	0	0	0	-0.255616831997076	0.0956020370820987	-0.781495223231047	-0.561057485265626	-0.239749066854382	0.828052509683434	0.506803143389443	-0.925802469089006	-0.352149497466331	0.137406403282056	0.292250189343229	-0.436256544525326	0.851040571411064	9.17165101672285	-30.4511223572201	106.147508959038
1922	1656054026598	5.08351805345194	1.37537958702912	8.61233048647065	0.0251754971752194	-0.0322782155287328	0.282082842701875	0.000111550075537407	-0.00656557504733636	-0.00902935207027647	0.187744140625	-0.32421875	0.64306640625	0	0	0	-0.255645957791743	0.0956080422119902	-0.781462245183435	-0.561089124722621	-0.23964827676549	0.828056315259741	0.506844593738348	-0.925823553355252	-0.352076192764786	0.137452182743341	0.292266062853672	-0.436308484041639	0.851008493058266	9.17499471426397	-30.4538773378694	106.141003832257
1923	1656054026599	5.09990407472105	1.34964557671453	8.58309902442765	0.0359037396806363	0.00322146238103994	0.261976606953251	0.00485929798744251	-0.00495974489989333	-0.00832500384532003	0.1943359375	-0.313232421875	0.654296875	0	0	0	-0.255618365031755	0.0956182421009144	-0.78145602427058	-0.561108621718863	-0.2396327321825	0.828079867998643	0.506813462609372	-0.925846982850828	-0.352028532820577	0.13741643433815	0.292204582463673	-0.436302239617839	0.851032806472047	9.17239145939296	-30.4518082127116	106.139576213802
1924	1656054026599	5.09210001806068	1.37887673856719	8.63466728917355	0.0267314579974871	-0.0362763312380789	0.305920852956024	0.00514402970910365	-0.00798516735049746	-0.00669786276785471	0.192626953125	-0.31298828125	0.64208984375	0	0	0	-0.255665746224539	0.0956118309510658	-0.781430250609409	-0.56112402142677	-0.239549717570599	0.828069229156964	0.506870086447443	-0.925847909588958	-0.351996420720069	0.137492429282547	0.292269706130489	-0.43634833736781	0.850986807979269	9.17786536518594	-30.4555717391342	106.134472540967
1925	1656054026600	5.09244370638101	1.37342713876659	8.55732862952746	0.00916328084697676	-8.89874836635437E-05	0.239530018744183	0.00184479725450045	-0.00495808174071044	-0.00783216441844996	0.197021484375	-0.319091796875	0.64794921875	0	0	0	-0.255649187719524	0.0956082929225465	-0.78141581357848	-0.561152272945826	-0.239503238772162	0.828102154960953	0.506838257796974	-0.92587088466055	-0.35193436178434	0.137496581533287	0.292235014253144	-0.436335909528973	0.851005094285569	9.17794395574329	-30.4534562170499	106.130896847781
1926	1656054026601	5.10175494738377	1.32742788549009	8.58397083328143	0.0580287799752353	0.0120384524821119	0.260594689187219	0.00335200262279373	-0.00495905547624073	-0.00807866128104118	0.1865234375	-0.314697265625	0.646240234375	0	0	0	-0.25568049468512	0.0955984104309624	-0.78138917222743	-0.561176790402434	-0.23941618910239	0.828109637711409	0.506867158459856	-0.925880233191807	-0.351883107673392	0.137564793165989	0.292276721926968	-0.43636304433762	0.850976857121291	9.18271906148388	-30.4553771256848	106.125200568676
1927	1656054026602	5.08550191695527	1.3787300863592	8.61062336988401	0.0217225859719338	-0.0309265967269818	0.282095094767751	0.000111649536360373	-0.00656669845747981	-0.00902888302555482	0.190673828125	-0.31201171875	0.638427734375	0	0	0	-0.255652138078193	0.0956214596868573	-0.781374651116633	-0.561206000801634	-0.239379617920569	0.82813262493167	0.506846874359491	-0.925915947392081	-0.351808722223182	0.137514658610338	0.292193526432787	-0.436379397418663	0.850997041486806	9.17921544874244	-30.4540289206904	106.12244112998
1928	1656054026602	5.11735947675091	1.35074192756718	8.55053100478882	0.0230606789646367	0.0311751122962123	0.243253593780439	0.0023562008731938	-0.00637422506553875	-0.00476165256560349	0.19384765625	-0.3212890625	0.6474609375	0	0	0	-0.255684354662765	0.0956237524630258	-0.78135513185411	-0.561218109713882	-0.239319488219726	0.828122305350927	0.50689212850321	-0.92592029510669	-0.351780662588135	0.137557160986236	0.29222900209902	-0.436421599842766	0.850963217491151	9.1823629468882	-30.4570368126391	106.118792108756
1929	1656054026604	5.07852859098827	1.37789460631592	8.58690896605046	0.0176025858243343	-0.0264132984854616	0.258263148149748	0.00610054682510806	-0.00348031729506458	-0.0101380302206818	0.19287109375	-0.31201171875	0.648681640625	0	0	0	-0.255673057753202	0.0956233963450036	-0.78133720684104	-0.561248271994147	-0.239263329445424	0.828151662095988	0.50687067754048	-0.925944966641081	-0.351713086510061	0.137563888901172	0.292196813697101	-0.436420358536607	0.850974907221148	9.18268041079784	-30.4556110271398	106.114664434245
1930	1656054026604	5.1024643884177	1.35429976142753	8.58084394955033	0.0327215751118297	0.0044064366871064	0.261986996286023	7.19141224010607E-05	-0.00347765662358609	-0.00915141104115076	0.19140625	-0.315185546875	0.64892578125	0	0	0	-0.255689433826932	0.0956211665525006	-0.78130800786166	-0.561281838996815	-0.239171221283232	0.828169347075701	0.506885252768409	-0.92596663482642	-0.351638579438984	0.137608504963786	0.292203555929976	-0.436446837557954	0.850959011872804	9.18577652184989	-30.4565797995048	106.108456533066
1931	1656054026606	5.08026279485593	1.33053223029611	8.59029764203994	0.062637013777606	-0.00930218691965547	0.255509580733623	0.00161908905502947	-0.00656804868701528	-0.00927530633075292	0.19091796875	-0.314697265625	0.64892578125	0	0	0	-0.255675421181572	0.0956180388804099	-0.781291244538115	-0.561312088639086	-0.239117636302505	0.828202075887632	0.506857058256587	-0.925990805340851	-0.351571859576582	0.137616336159874	0.292170813794442	-0.436438482548551	0.850974539288581	9.18612560391015	-30.454705802257	106.104431215882
1932	1656054026607	5.07994466362962	1.35537407161072	8.58809367435476	0.039663129027019	-0.0175094089251257	0.256888093693039	0.000317729481796857	-0.00341328242807147	-0.00764681273086326	0.196044921875	-0.314453125	0.6474609375	0	0	0	-0.255691488125832	0.0956162828838893	-0.781266559366532	-0.561339427230127	-0.239039820673901	0.828214906578437	0.506872797310587	-0.926007985217006	-0.351511147768842	0.13765581828812	0.292180039438922	-0.436463035680573	0.850958778694931	9.18888343315498	-30.4557519214014	106.099225464846
1933	1656054026608	5.08789664891208	1.35801493216467	8.61094316994635	0.0417541548974588	-0.0214225488315174	0.280728152551729	0.00508513145195868	-0.00335023605896528	-0.0068825130207917	0.196044921875	-0.3115234375	0.64453125	0	0	0	-0.255675215056669	0.0956042270458853	-0.781260563840828	-0.561357237028077	-0.239016473683859	0.828245280412803	0.506834174835962	-0.926019805653936	-0.351475768414324	0.137666639946672	0.29216167586523	-0.436433889256412	0.85098003235337	9.18936788354062	-30.4531848424149	106.097174744926
1934	1656054026609	5.0803845197397	1.3567451024685	8.58761698725479	0.038732543584048	-0.0170428977052991	0.256892516565252	0.00310627984135134	-0.00502405877589271	-0.00958342453768798	0.197509765625	-0.314697265625	0.6435546875	0	0	0	-0.255706340142514	0.0955935032212369	-0.781229738470729	-0.561387785297978	-0.238916044258304	0.828257935677794	0.506860844594178	-0.926033395078211	-0.351411273320245	0.13773985691646	0.292200744345197	-0.436461807000571	0.850952299505624	9.19446625714526	-30.454957465673	106.09052806711
1935	1656054026610	5.11154167053068	1.35944693420816	8.60262801970069	0.0334101812124781	0.0011238960899536	0.2858296342554	0.00382399897947844	-0.00328510857040882	-0.00513121049578082	0.1943359375	-0.310546875	0.6396484375	0	0	0	-0.255712603287218	0.095601100634072	-0.781211767391786	-0.561408646679253	-0.238862791907687	0.828265269562136	0.506873958572768	-0.926050894843183	-0.351361521982648	0.137749123518725	0.292188820460682	-0.436487942682498	0.850942988155255	9.19517315646973	-30.4558291068282	106.086992108434
1936	1656054026610	5.11193609466815	1.35997744062741	8.60230979507325	0.0333862584620355	0.0011439565236252	0.28582971112116	0.000132626545147944	-0.00811329681171595	-0.00896669476848826	0.193359375	-0.322265625	0.643310546875	0	0	0	-0.255747535607143	0.0956116093884902	-0.781177065069483	-0.561439231965887	-0.238758373680856	0.828262035930874	0.506928435612875	-0.926071769837031	-0.351288817919395	0.137794207119545	0.29220800144449	-0.436552592754227	0.850903236362032	9.1985535557492	-30.4594500922189	106.080382836412
1937	1656054026612	5.07421455812275	1.3321398914172	8.56566005498894	0.0570047471290005	-0.00459336954337672	0.231689750253462	0.0013122008223664	-0.00199905010101452	-0.0109641529683565	0.189208984375	-0.322998046875	0.639404296875	0	0	0	-0.25572176654646	0.0956374994844516	-0.781151431965936	-0.561482223355546	-0.238688181940141	0.828292104962704	0.506912359938641	-0.926118466227704	-0.351182363096149	0.137751712737987	0.292117336551862	-0.43658119142567	0.850919693613438	9.19559047090468	-30.458381558688	106.075346236663
1938	1656054026612	5.11220870875791	1.36135289192797	8.60193022063938	0.0322136010862725	0.00105133212288714	0.285833529973045	0.00655136648161673	-0.000260501817104748	-0.00725279689719257	0.18115234375	-0.325439453125	0.65087890625	0	0	0	-0.255743076047356	0.0956035835502469	-0.781134594348135	-0.56150171805504	-0.238622599350149	0.828316924440828	0.506902680762556	-0.92611674259399	-0.351151550867178	0.137841820253042	0.292176375099827	-0.436558886072043	0.850910867732374	9.20159652966968	-30.4577381994618	106.070700726623
1939	1656054026613	5.10455131224298	1.36010742559125	8.57868388996014	0.0264082520524718	0.00606337190142184	0.262004662246323	0.00135335026625776	-0.00508926897362866	-0.0108409767158534	0.19287109375	-0.318603515625	0.651611328125	0	0	0	-0.255644473793846	0.0956479329459059	-0.781147482753529	-0.561521135959875	-0.238679833777998	0.828357912761067	0.506808746287825	-0.926165374710767	-0.351090973587014	0.137669266550625	0.291975402447829	-0.436529834755716	0.850994751883686	9.18938398204655	-30.4514947470394	106.073601958165
1940	1656054026614	5.06634813913681	1.36270496466989	8.61705628236482	0.0449106655434101	-0.0434034647643751	0.275652759454012	0.000338451677315514	-0.00495938800424503	-0.00758494247036953	0.19384765625	-0.321533203125	0.646240234375	0	0	0	-0.255665292899525	0.0956516553829998	-0.781121359881058	-0.561547362175853	-0.238599636079883	0.828363661381209	0.506837112064287	-0.926182895340485	-0.351030641711666	0.137705239400004	0.291985372991977	-0.436567443910577	0.850972037658184	9.19198533620951	-30.4533800656734	106.068374194932
1941	1656054026615	5.08196499104767	1.36123801193746	8.58597068230878	0.0324637145400871	-0.016213262845878	0.256916048186866	0.00308590934864117	-0.00347967609663196	-0.00964505066689034	0.19482421875	-0.315185546875	0.6474609375	0	0	0	-0.255619907100214	0.0956721888239296	-0.78111692384606	-0.561570696049024	-0.238593632866185	0.828393317201315	0.506791466356645	-0.926216181278303	-0.350970371249306	0.137634966644974	0.291884675675094	-0.436559629972043	0.851010590759433	9.18696544620474	-30.4503462620253	106.067445243433
1942	1656054026615	5.08990822685774	1.363945651719	8.6088167372683	0.0353634993318013	-0.0205428720218449	0.280754394792746	0.00182496593297907	-0.00341475770096536	-0.0078934999142092	0.19384765625	-0.323974609375	0.6552734375	0	0	0	-0.255638618862746	0.0956657168196774	-0.781092728510789	-0.561596934321134	-0.238515559814103	0.828406860063784	0.506806079211593	-0.926230266944971	-0.350913907972962	0.13768413774357	0.291903786069335	-0.436579320846059	0.85099393434265	9.19036837017674	-30.4513174828874	106.0622097917
1943	1656054026617	5.08305318965463	1.33805302338899	8.58747832649801	0.053809970560985	-0.00757807684488802	0.255562071921803	0.000338677951485829	-0.0049597503629327	-0.00758484101514341	0.194091796875	-0.313232421875	0.64599609375	0	0	0	-0.255593541181037	0.0956942279619381	-0.781091288756407	-0.56161459656081	-0.238521973272753	0.828426884833431	0.506770327417905	-0.92626219121494	-0.350863319329216	0.137598271337195	0.291797226497736	-0.436581982718553	0.851029112882613	9.1843613399999	-30.4489413121979	106.062251172232
1944	1656054026617	5.10591884339738	1.36286976282383	8.5774315718231	0.0229861445567746	0.00677974505068847	0.262012594618231	0.00186667884860692	-0.00650460213983057	-0.0077703246899667	0.199951171875	-0.3134765625	0.64892578125	0	0	0	-0.255624125542759	0.0956965950946026	-0.781063592713319	-0.561638791631741	-0.238436348349875	0.828426507921154	0.506811235825665	-0.926275941675064	-0.350808058843476	0.137646597213467	0.291823555696847	-0.436627102713556	0.850996936255598	9.18787343849848	-30.4516602115974	106.056789292953
1945	1656054026619	5.06699272957332	1.38985338284517	8.61389700506847	0.0182686575372578	-0.0508550354422687	0.277030639333976	0.00131139269089315	-0.0020002008704449	-0.0109642164805203	0.188232421875	-0.322509765625	0.651123046875	0	0	0	-0.255625232885766	0.0956907831638208	-0.781031639670318	-0.561683711855246	-0.238334296297222	0.82846354343028	0.506798698119334	-0.926307458355372	-0.350709363708016	0.137686000750726	0.291806881008173	-0.436636117853829	0.850998028659185	9.19044714048277	-30.4508269087669	106.049590340388
1946	1656054026622	5.08377967708024	1.33986328424635	8.58676599367231	0.0533148748435978	-0.00745409544465702	0.255564798351799	0.00308580002650788	-0.00347983199614761	-0.00964523629903514	0.196044921875	-0.321533203125	0.6494140625	0	0	0	-0.255648819240042	0.0956773945322832	-0.781002902546938	-0.561715215754339	-0.238239395222457	0.828482801937553	0.50681183634337	-0.926322053698121	-0.35064370513114	0.137755017637841	0.291838043093312	-0.436652308989208	0.850979034793372	9.19517702444245	-30.4517001244276	106.043174799738
1947	1656054026619	5.10650053285978	1.36482898879426	8.57677373594479	0.0204631719859509	0.00734106140708663	0.26201764167517	0.00209237902530847	-0.00489476363352949	-0.00632739872982739	0.1884765625	-0.322021484375	0.644287109375	0	0	0	-0.2555826904404	0.0957131655721988	-0.78101620057769	-0.561720724843392	-0.238294631257322	0.828500715870843	0.506756581126913	-0.926351229340883	-0.350617634435127	0.137625122422288	0.291700306157828	-0.436639254104136	0.851032956566791	9.18608225228236	-30.4480277081761	106.046373864603
1948	1656054026619	5.09213199070637	1.34307812858125	8.60929393480093	0.054081017449946	-0.0113236627312878	0.279416289142482	0.0018460831689066	-0.00496002551407051	-0.0078318963785663	0.1904296875	-0.312255859375	0.654296875	0	0	0	-0.255606951900781	0.0957115010197246	-0.78099034474391	-0.561745917768283	-0.238213220021322	0.828507225877671	0.506784212930472	-0.926365326027672	-0.35056166488644	0.137672807212211	0.291722033005251	-0.436671839921619	0.851008789425086	9.18946728977419	-30.4498641778383	106.041054263358
1949	1656054026621	5.07623657571852	1.36391675399949	8.56095588005058	0.0237104322119719	-0.00986129042609403	0.23309547364847	0.00335319095216417	-0.00495971064926286	-0.0080791559795578	0.19482421875	-0.31884765625	0.64697265625	0	0	0	-0.255554926287208	0.095699648161764	-0.780998179525369	-0.561760714690974	-0.238233158160453	0.828555157941659	0.506696469892153	-0.926381224068424	-0.350532953543202	0.13763893407669	0.291655258904044	-0.436603938058914	0.851066513984109	9.18663235640114	-30.4440327044976	106.041447496768
1950	1656054026624	5.09202716290513	1.36862020223945	8.60682155155718	0.0295364320249957	-0.0185217041363844	0.280777039785066	7.1389496379063E-05	-0.00348105141083892	-0.00915076446259168	0.195556640625	-0.30859375	0.645751953125	0	0	0	-0.255568384925439	0.0956988025488457	-0.780970067140188	-0.561793818093765	-0.238145013156465	0.828573134857846	0.506708508810093	-0.926403488484674	-0.350458890284694	0.137677676999023	0.291656526126424	-0.436629278006254	0.85105307963464	9.18931670296259	-30.4448328000787	106.035487392343
1951	1656054026625	5.09991987135365	1.36498718031291	8.5526582708761	0.0153796612948464	0.0129350814980261	0.238179879333259	0.000114116657462137	-0.00657095364128256	-0.0090273468484177	0.192626953125	-0.311767578125	0.646728515625	0	0	0	-0.25557631146146	0.0957108216632374	-0.780939941587303	-0.561830041266861	-0.238055507499664	0.828588201682597	0.506725929257105	-0.92643387675314	-0.35037288669325	0.137692092272526	0.291633069718138	-0.436669706188371	0.851040375272606	9.19039728653971	-30.4459905588333	106.029493682361
1952	1656054026626	5.08479791785576	1.36764321509206	8.58327512195759	0.0260466092549164	-0.0139496751032157	0.256938081968194	0.00306400709560683	-0.00193515706006202	-0.00970722247965301	0.192138671875	-0.310791015625	0.654052734375	0	0	0	-0.255592678957445	0.0956931371918995	-0.780913558880701	-0.561862278066437	-0.2379663258987	0.82861481174592	0.506724305212951	-0.926448672916799	-0.350307207960732	0.137759633062296	0.291658848981092	-0.436671906362238	0.851030411915458	9.19493418919089	-30.4458826246648	106.02330876845
1953	1656054026627	5.09335649928742	1.3459931429227	8.60811426151413	0.05177122814999	-0.00897677748459844	0.279430762783878	7.13891374772662E-05	-0.00348143396029788	-0.00915072304006434	0.19140625	-0.324462890625	0.643798828125	0	0	0	-0.255575475201377	0.0956487220448296	-0.780900885474161	-0.561895279845322	-0.237909741926275	0.828678107971903	0.506647360660924	-0.92645997832795	-0.350250032917477	0.137828962841199	0.291669098900016	-0.436597649798317	0.851064996893562	9.19911513650604	-30.4407690174978	106.018533382747
1954	1656054026628	5.10841322058812	1.36879315819556	8.5750028145492	0.0179807686300146	0.00974388708577787	0.262020340573398	0.00188967282419164	-0.00805017410921542	-0.00770847240609529	0.19140625	-0.313720703125	0.65185546875	0	0	0	-0.255611607627181	0.0956544460485809	-0.780871901666475	-0.561918149008528	-0.237821399722156	0.828671413732059	0.506699782807832	-0.92647296065672	-0.350196441531938	0.137877864468302	0.291699905735614	-0.436653341223536	0.851025865994774	9.20273903711411	-30.4442528772178	106.013012979436
1955	1656054026629	5.06327744022304	1.34500162774171	8.59220926083435	0.0547584022734932	-0.0266945643304952	0.250520708580245	0.00159989510751572	-0.00502585025008873	-0.00933642505312876	0.189208984375	-0.312255859375	0.643310546875	0	0	0	-0.255559209191834	0.0956784471916675	-0.780872725567123	-0.561936750716315	-0.23783315758327	0.828699147654353	0.506648903907747	-0.926505180858373	-0.350145445874763	0.137790843584605	0.291587960993875	-0.436641602930955	0.851070250680473	9.19655862188954	-30.4408715764835	106.013255618404
1956	1656054026630	5.08597709539497	1.36991061942042	8.58221483689389	0.0239128928855455	-0.0123133714375295	0.256945508941154	0.00207131249275371	-0.00335007234036156	-0.0063892923931092	0.1923828125	-0.311767578125	0.649658203125	0	0	0	-0.255576170717173	0.0956721956604508	-0.780853826289127	-0.561956362993325	-0.237771734105723	0.828708485679714	0.50666245985152	-0.926514619323723	-0.350103754137646	0.137833310626077	0.29160806339979	-0.436657310829857	0.85105530387811	9.19950334338236	-30.4417724634814	106.009160779756
1957	1656054026631	5.10930250259473	1.37039823454674	8.57421659263789	0.0156205557815037	0.0111966380348879	0.262022766693612	0.000317698552344809	-0.00341648060561205	-0.00764620243416592	0.19091796875	-0.31396484375	0.642578125	0	0	0	-0.255550044533243	0.0956438660114709	-0.780846809039521	-0.561982816860298	-0.237738976585645	0.828761390123685	0.506591292120451	-0.926528566997936	-0.350055128896289	0.137863052592611	0.291590455174309	-0.436595882909654	0.851092851266875	9.20105548522226	-30.4370429643115	106.006098731163
1958	1656054026632	5.09495419560691	1.3486246204945	8.60675679456206	0.0492276282189121	-0.0074194785367991	0.279444755602691	0.0016218206730047	-0.00657102373114561	-0.00927465395737189	0.192138671875	-0.31640625	0.6494140625	0	0	0	-0.255579547669116	0.0956441229265033	-0.780815702848468	-0.562012575257995	-0.237641920130254	0.828767124569967	0.506627447962341	-0.926545851269027	-0.349988134002994	0.137916973405221	0.291614648625476	-0.436638705669953	0.85106259312574	9.20491425431403	-30.4394456962994	105.999793745841
1959	1656054026633	5.11839515259044	1.34938447749501	8.59864673588581	0.0403427985156331	0.0156976751078462	0.284523097892404	0.00483875950025562	-0.00341372324945233	-0.00838902436301894	0.185302734375	-0.318359375	0.654296875	0	0	0	-0.255554070786082	0.0956304194595459	-0.780812178848846	-0.562031388038046	-0.237625671529381	0.82880441938312	0.506574056423363	-0.92655939131859	-0.349951083468039	0.137920025880475	0.291584866873327	-0.436597610610223	0.851093879557308	9.2047819063946	-30.4358975890378	105.998072679845
1960	1656054026634	5.07162798398587	1.37420450084831	8.61212278279375	0.032905745010643	-0.0376152912165006	0.275722301400062	-0.00118936671253571	-0.00341793103638704	-0.00739848018454461	0.1923828125	-0.321533203125	0.640380859375	0	0	0	-0.255562103400619	0.0956351040066364	-0.780789231794368	-0.562058816940942	-0.2375557952088	0.828817527127393	0.506585383611832	-0.926580360482885	-0.349887626361177	0.137940148204749	0.291575169947856	-0.436623585764414	0.851083876374182	9.20620822749821	-30.4366503207323	105.993368905278
1961	1656054026635	5.103623501695	1.35254014820804	8.62899026932839	0.0486636009121638	-0.0103702284546559	0.303306656174159	0.00490487071811197	-0.00804849471564702	-0.00820369086065415	0.197998046875	-0.31884765625	0.6435546875	0	0	0	-0.25550112447412	0.0956562011371717	-0.780807676689531	-0.562057326790748	-0.237621473586597	0.828836817088685	0.506523016188634	-0.926597884902565	-0.349882905169686	0.137834365686185	0.291465941380167	-0.436590750369631	0.85113813315293	9.19869259877276	-30.4325058571785	105.997211187543
1962	1656054026636	5.08766057996216	1.37347865809658	8.58064658615606	0.0196968843170621	-0.00986496528440148	0.256957334627039	0.00130898674922937	-0.00200241689769672	-0.0109644761451	0.1923828125	-0.310791015625	0.64990234375	0	0	0	-0.255511193356929	0.0956428618282787	-0.780778226686136	-0.562095929342553	-0.237524392571701	0.828868882355517	0.506516079504058	-0.926620169402779	-0.349801218395658	0.137891875267834	0.291474226286667	-0.436595331481716	0.85113294610123	9.20252010304959	-30.4320449088796	105.990422692067
1963	1656054026638	5.09639182196428	1.35174031160273	8.6054167621859	0.0450125471162273	-0.00590865667129251	0.279465433393456	0.000608775369164858	-0.00644145724586768	-0.00601793159001432	0.18603515625	-0.3154296875	0.64990234375	0	0	0	-0.255516843497075	0.0956660919923041	-0.78075812410201	-0.562117330439937	-0.23747049901674	0.828866749167882	0.506544839299157	-0.926643940590179	-0.349744211323997	0.137876734849866	0.291442566321815	-0.436645048946193	0.851118283064423	9.20168277063682	-30.4339560347265	105.98701897987
1964	1656054026640	5.0658073357849	1.35008492370709	8.58992051881429	0.0497495561134852	-0.0240746655241024	0.250553326084631	0.00182454836806028	-0.00341606738579877	-0.00789385253662191	0.19775390625	-0.31640625	0.645751953125	0	0	0	-0.255532586058708	0.0956586859913816	-0.780735641432152	-0.56214266112267	-0.237397452016144	0.828881799395258	0.506554451572111	-0.926657445036681	-0.34969008868065	0.137923244729124	0.291459138361338	-0.436659826993276	0.851105026513102	9.20487456045463	-30.4345947911355	105.982077117008
1965	1656054026641	5.08919093114852	1.35061220326685	8.58187520143686	0.0407656176935223	-0.000837606462081027	0.255626154506951	0.000339850335984071	-0.0049624085427047	-0.00758416398336411	0.19384765625	-0.316650390625	0.652099609375	0	0	0	-0.255493580591762	0.0956641651799976	-0.780736051861418	-0.562158887771652	-0.237400830351481	0.828912260922972	0.50650302016868	-0.926678581307609	-0.349651504799507	0.137879048942023	0.291389177379916	-0.436632899451023	0.85114279555363	9.20157409268403	-30.4311771113955	105.981735602278
1966	1656054026641	5.06637741712957	1.35108186516084	8.58942753960407	0.0484447720991711	-0.0233323807256342	0.250561440362064	0.0016000328046501	-0.00502690346958996	-0.00933640976942033	0.189453125	-0.313720703125	0.648193359375	0	0	0	-0.255515278176616	0.0956601863608186	-0.780707579328322	-0.562189244777105	-0.237310391350549	0.82892553057188	0.506523684464188	-0.926696087085526	-0.349584763604723	0.137930617470545	0.291407172762485	-0.436661147597949	0.85112214272748	9.20517623481708	-30.4325502647445	105.975715339129
1967	1656054026643	5.12071372231445	1.3538462521455	8.59656468410075	0.034779150196396	0.0184955271589961	0.284539056969876	-0.000400689237689936	-0.00516008591754694	-0.0120972958621151	0.184814453125	-0.31494140625	0.640869140625	0	0	0	-0.255475789604931	0.0956413128277115	-0.780700274048854	-0.562220545966059	-0.237280357238728	0.828983388796173	0.506443060144648	-0.926719548450221	-0.349521593948438	0.137933077555616	0.291357015685022	-0.436601874095562	0.851169720412658	9.20483186372928	-30.4271928455552	105.972738600284
1968	1656054026643	5.08995806237406	1.35225011959466	8.58116228483585	0.0395167565155126	0.000342193179114617	0.255631162595138	4.80924041906765E-05	-0.00193855246067831	-0.00921231766313423	0.186279296875	-0.318115234375	0.6533203125	0	0	0	-0.255480663100189	0.0956344011628127	-0.780675646156782	-0.562253703939609	-0.237200806376158	0.829010066805666	0.506436656048282	-0.926741027702726	-0.349449667440843	0.137971002380865	0.29135347093693	-0.436608794071248	0.851167384192237	9.20734423829573	-30.4267673112751	105.967168949883
1969	1656054026644	5.06702662662131	1.35265924500496	8.58879630199554	0.0452147084766587	-0.0205602528940268	0.25058251713541	0.00234105097004774	-0.00482937788437856	-0.00482335596253309	0.19775390625	-0.314208984375	0.646240234375	0	0	0	-0.25538365612449	0.0956131686524228	-0.78072265887831	-0.562236107057092	-0.237339496211548	0.8290648556698	0.506281965540214	-0.926737018006213	-0.349497363803058	0.137877090742681	0.291253262634088	-0.43646655975908	0.851274620329464	9.20004511576674	-30.4164891237672	105.975026644923
1970	1656054026645	5.11354224371664	1.35322106959244	8.57292260706862	0.0294325279480888	0.024688184988516	0.260695772093271	7.05903077787271E-05	-0.003483762119148	-0.00915039719812472	0.193359375	-0.3193359375	0.646728515625	0	0	0	-0.255393233854803	0.0956101577155876	-0.780697038774192	-0.562267843195744	-0.237258337218385	0.829085305625035	0.506286517119516	-0.926758055098441	-0.349427140499214	0.137913671522067	0.291252448454123	-0.436483939543238	0.851265987685572	9.20253598870155	-30.4167915314256	105.969468719076
1971	1656054026647	5.07466840571796	1.38013289216469	8.60938331585889	0.0240711655498247	-0.0333097720624057	0.275762383765993	0.00313001375031033	-0.00657046137963158	-0.00952260389021144	0.187744140625	-0.316162109375	0.64404296875	0	0	0	-0.255401496107148	0.0956454347318296	-0.780669636187803	-0.562296137044878	-0.237186260101276	0.829079067220609	0.506330503046947	-0.92679101572592	-0.349350010158734	0.13788757584282	0.291206269144204	-0.436557522783307	0.85124405320238	9.20105751986979	-30.4197140117806	105.964978604302
1972	1656054026647	5.1149453802626	1.33009674670912	8.57427909915017	0.0512367519043549	0.0327406499049917	0.259372431664548	0.000340303206360156	-0.00496309142768695	-0.00758406669553282	0.19140625	-0.3251953125	0.643310546875	0	0	0	-0.255416903573885	0.095647946570555	-0.780646525817845	-0.562320795822183	-0.237115055909271	0.829087346614923	0.506350295688834	-0.926807755999929	-0.349293585805486	0.13791799858438	0.291210977951585	-0.436586947352039	0.85122735137113	9.20323033803621	-30.4210290883609	105.960278742124
1973	1656054026648	5.08387988037111	1.35910158737728	8.63377594825824	0.0469856077903259	-0.0290708826003816	0.298298052399598	0.00486123807315749	-0.00495776729292087	-0.00832834981593805	0.19677734375	-0.309814453125	0.65380859375	0	0	0	-0.255339962425707	0.095697835573222	-0.780666487001485	-0.562319538988108	-0.237196479321279	0.829097074669307	0.506296228479324	-0.926839001627259	-0.349277320677604	0.137749113691743	0.291045177352548	-0.436581486134115	0.851286855710078	9.19152163808978	-30.4174367588603	105.96530231141
1974	1656054026649	5.09173524602395	1.3556223297632	8.57957574206216	0.0331270634064029	0.00225317993251758	0.255653967369875	0.000340358399252101	-0.00496340288797243	-0.00758396154653811	0.196533203125	-0.312744140625	0.64208984375	0	0	0	-0.255354124872244	0.095701145830873	-0.780643796268058	-0.562344044998775	-0.237126891930293	0.82910541550733	0.506315165781054	-0.926856144878985	-0.349220931482149	0.137776731398329	0.291047287950851	-0.436610754552791	0.851271123194777	9.19350001045559	-30.4186949746014	105.960704722442
1975	1656054026650	5.09205089118192	1.3560653988591	8.57931838721961	0.0337385513237662	0.00241586959268045	0.255651899148079	9.32695809130693E-05	-0.00502954669732908	-0.00908830528969826	0.18359375	-0.317626953125	0.645263671875	0	0	0	-0.255397253726464	0.0956821913421542	-0.780598491304343	-0.562390572842689	-0.236978172733305	0.829128527570943	0.506346946683816	-0.926876403168208	-0.349123523675271	0.137887267238593	0.291103897084784	-0.436644764064109	0.851234322097887	9.20114066426599	-30.4208065701772	105.950782028393
1976	1656054026650	5.08451613107713	1.3544393437356	8.55604885516805	0.0306433458220573	0.00684241175787302	0.231803485233545	0.00231860645014774	-0.00328435853596368	-0.00488548009765698	0.189697265625	-0.315673828125	0.642333984375	0	0	0	-0.255409923721998	0.0956760053446563	-0.780586208486323	-0.562402919610629	-0.236937453755527	0.829134722866789	0.506355857420905	-0.926881127775206	-0.34909811602946	0.137919833087355	0.291121998450837	-0.436653314107764	0.851223745731225	9.20338897580891	-30.4213986280501	105.94806756573
1977	1656054026651	5.1002291498921	1.35917007484567	8.60197235813712	0.0342178259290163	-0.000583371068498328	0.279509519118426	0.00130687729871404	-0.00200388720646674	-0.0109647872055073	0.197509765625	-0.313232421875	0.64892578125	0	0	0	-0.255307166082338	0.0956681164803476	-0.780612335780565	-0.562414654559532	-0.237016014567375	0.829206122939808	0.506202147879412	-0.926905145751938	-0.349074735651569	0.137817559506639	0.290981545148789	-0.436536406968445	0.851331724872217	9.19553438517705	-30.4111861778726	105.951782611211
1978	1656054026652	5.09254218838102	1.3577415041868	8.57876166535857	0.0311038692612064	0.00385513870903985	0.255659934903779	0.0035785427561545	-0.00334843541348114	-0.0066380607249823	0.182373046875	-0.3115234375	0.64599609375	0	0	0	-0.255323174142922	0.0956549062280234	-0.780596307725302	-0.562431880342604	-0.236960913439732	0.829218669723906	0.506207391572984	-0.926910326845836	-0.349041037777582	0.137868052621682	0.291009916477693	-0.436539519091302	0.851320431320182	9.19896577162796	-30.4115345508678	105.948033750029
1979	1656054026653	5.06967871217072	1.35820403284484	8.58635588250603	0.0383768782081675	-0.0173631605132852	0.250616940765154	0.000340707332138976	-0.0049639486263716	-0.00758382007366101	0.18505859375	-0.31396484375	0.64794921875	0	0	0	-0.255291207028392	0.0956110858279213	-0.780602303750251	-0.562445520260046	-0.236962872706786	0.829275198685391	0.506113862489316	-0.926909876710611	-0.349027114012424	0.137906323787121	0.291009754844864	-0.436443259232475	0.851369839761586	9.20095079773004	-30.4053209863688	105.947127056942
1980	1656054026654	5.09304911926956	1.35878646051459	8.5782952655129	0.0303652043991263	0.00533967083615947	0.2556615118782	0.00157714783135739	-0.00348305031606739	-0.00939847409379837	0.1923828125	-0.31787109375	0.642822265625	0	0	0	-0.255303119909195	0.0956017438556728	-0.780577745577189	-0.562475783164057	-0.236882620637225	0.8292973105777	0.506115199049223	-0.926927004478152	-0.348962599851471	0.137954457246085	0.291020536060946	-0.436452832014521	0.851361247072771	9.20419855760605	-30.4054097773669	105.941597289504
1981	1656054026656	5.10103085588638	1.36132098280023	8.60115681089941	0.0315015180259592	0.00204685968064162	0.279518172565622	-0.00118946766879858	-0.0034213442996102	-0.00739749307568485	0.196533203125	-0.310302734375	0.645263671875	0	0	0	-0.255221890104781	0.0956070016837594	-0.780601102858054	-0.562479338515803	-0.236957561108336	0.829341984606648	0.506006903907739	-0.926945983314569	-0.348952589943733	0.137852217931192	0.290899051649498	-0.436375941752369	0.85144217608077	9.19663458915916	-30.3982157235736	105.945568888845
1982	1656054026657	5.07036465847451	1.35957362985689	8.58573407273918	0.0362050280971449	-0.0160641527569843	0.250627146307506	0.00184784968856581	-0.00496184246906381	-0.00783219461496232	0.187255859375	-0.316162109375	0.649169921875	0	0	0	-0.255238700081073	0.0956026392263539	-0.780579669025249	-0.56250219702532	-0.236888968645223	0.829352570839091	0.506021669275923	-0.926958544280909	-0.348902827429286	0.137893706152486	0.290914890850951	-0.436395612093476	0.851426682707759	9.19951964405501	-30.399196556808	105.940994535058
1983	1656054026658	5.07842793777185	1.36212313350108	8.60854618982924	0.0386212119359309	-0.0195509229089444	0.274482875530451	0.000564737006882805	-0.00335292104139419	-0.00614153417397627	0.187255859375	-0.31787109375	0.652099609375	0	0	0	-0.255215767968653	0.0955782777423567	-0.780580456080425	-0.562515649728299	-0.23688211118184	0.829391277724312	0.505961435128081	-0.926963611944859	-0.348881873269108	0.137912655816566	0.290904327111466	-0.436338798342608	0.851459409207952	9.2004146518818	-30.3951953873276	105.939850387843
1984	1656054026658	5.09404745451744	1.36067588867123	8.57740294802623	0.0276769734669596	0.00748439834404926	0.255667894583292	0.00088219161577257	-0.00677229706183217	-0.0137873745293086	0.1923828125	-0.303955078125	0.64794921875	0	0	0	-0.255239673143276	0.0955747081751344	-0.780539670211614	-0.562562003371092	-0.236753403233635	0.829415006618944	0.505982779205568	-0.926992835720485	-0.348778935040683	0.137976581327346	0.290915981995123	-0.436375986125709	0.851436368821904	9.20485108106485	-30.3966131901034	105.931196616993
1985	1656054026660	5.10297218626944	1.33891564466513	8.60210154328325	0.0534993042905949	0.0132882045150641	0.278206177766066	-0.000671109520416653	-0.00483420896312459	-0.00432672960551401	0.19140625	-0.316650390625	0.64453125	0	0	0	-0.255210474698157	0.0954995102419705	-0.780560429879011	-0.562559216842973	-0.236789482298726	0.829477977578111	0.50586265506126	-0.92696787894729	-0.34881394217713	0.138055732017221	0.290966136298818	-0.436228287088052	0.851494914295771	9.20941861033053	-30.3886340855693	105.932352934963
1986	1656054026661	5.10324334567571	1.33909135523015	8.60191332700369	0.053305776599545	0.013462427802608	0.278206971013811	-0.00294387894348313	-0.0034908375386657	-0.00865311953078686	0.192626953125	-0.31884765625	0.6572265625	0	0	0	-0.255208201629323	0.0955069316737231	-0.780536849456986	-0.562591704936324	-0.236718694715935	0.829498809252094	0.505861626357784	-0.926995418354437	-0.348737999078223	0.138062675436925	0.290935996263557	-0.436249393636571	0.851494399646795	9.2098793257403	-30.3885657579691	105.927451942575
1987	1656054026661	5.08030893443318	1.33938272019271	8.60958503197497	0.059525409052982	-0.00833057521480785	0.273185265609054	0.0018242742811585	-0.00341675794322709	-0.00789445631995959	0.18408203125	-0.31591796875	0.64794921875	0	0	0	-0.255150235931319	0.0955030497216526	-0.780560352411783	-0.562586047499268	-0.236790592526688	0.829529475658681	0.505777682687061	-0.926999978333241	-0.34875221330603	0.137996137207947	0.290862949618939	-0.436179713796479	0.851555049196111	9.20487229314301	-30.3829902893727	105.93148494371
1988	1656054026661	5.10292471199204	1.36437630189918	8.59954916383874	0.0285501039490979	0.00616815196807668	0.279525276101484	0.0016006841846394	-0.00502828554330765	-0.00933670690332768	0.197998046875	-0.3203125	0.648681640625	0	0	0	-0.255166511108673	0.095496117815507	-0.780535358355692	-0.562614519406801	-0.236709908322564	0.829546228627794	0.505787973237134	-0.927015873457417	-0.348690788069643	0.138044574950824	0.290877963517187	-0.436196961113641	0.851541086181588	9.2081963407025	-30.3836737620172	105.926026491277
1989	1656054026662	5.08087203446293	1.34055247983906	8.60907066936749	0.0573217073270446	-0.00751919057397615	0.273198668329812	0.00184817222168563	-0.00496193763491694	-0.00783243887911353	0.193115234375	-0.31591796875	0.64697265625	0	0	0	-0.255103042842589	0.0955143439666381	-0.780559254953152	-0.562607053933788	-0.236791480792793	0.829564286137883	0.505720169449965	-0.927028285261896	-0.348700625921134	0.137936332438552	0.29077199478001	-0.436154753094304	0.85159889525815	9.2004857044897	-30.3791704917598	105.930907076331
1990	1656054026664	5.08043548449025	1.36550438892403	8.60682579954212	0.0341637778845077	-0.0155866706399271	0.274505861563089	0.00335508554947511	-0.00495924991391361	-0.0080810834879937	0.191650390625	-0.314697265625	0.64697265625	0	0	0	-0.255122622843734	0.0955021405073154	-0.78053905891515	-0.562628266246646	-0.236723762667254	0.829577161763605	0.505730751357775	-0.927036188057273	-0.348657550357628	0.137992096189809	0.290801936411877	-0.436164699693659	0.851583576943709	9.20430428249782	-30.3798732882581	105.926347584602
1991	1656054026666	5.10380607504278	1.36622280374912	8.59873292504544	0.0252658655887211	0.00742665131844753	0.279533184939893	0.00182418822662139	-0.0034170766765725	-0.00789449150849683	0.196044921875	-0.316162109375	0.644775390625	0	0	0	-0.255092921534188	0.0955024432956641	-0.780539066141559	-0.562641671878802	-0.236723900897158	0.829603615733323	0.505687290236001	-0.9270516048291	-0.34862726477997	0.137965039904418	0.290752672778469	-0.436138591521357	0.851613769415422	9.20220978558644	-30.3769868538316	105.925874318644
1992	1656054026667	5.08093438908146	1.36664705727229	8.60634991282344	0.0328799668888326	-0.0149524616308837	0.274511087975425	9.38633040118051E-05	-0.00503163340285537	-0.00908795122676864	0.187255859375	-0.31689453125	0.650390625	0	0	0	-0.255103836904471	0.0955018514792877	-0.780514523447475	-0.562670869557156	-0.236647049896822	0.829619793732666	0.50569671901457	-0.927071348708055	-0.348561777831644	0.137997831285396	0.290752279749893	-0.436160159668227	0.851602857521291	9.20447544503343	-30.3776130511152	105.920671449026
1993	1656054026669	5.08201203915678	1.34283712907186	8.60804167337772	0.0543181901037806	-0.00611653080062288	0.273216239335616	0.00184834635079408	-0.00496221106930336	-0.00783244814689845	0.19140625	-0.318115234375	0.639892578125	0	0	0	-0.255060384084087	0.0955104580253588	-0.78052607475571	-0.562673084041797	-0.236686401931541	0.829640159099678	0.505644888780419	-0.927083895531658	-0.348553505805357	0.13793442005765	0.290680232878925	-0.436128031660264	0.851643905757328	9.19988239211569	-30.3741708783982	105.922813627117
1994	1656054026669	5.06587423665061	1.36347215555408	8.55978459335354	0.025347550845085	-0.00558126573816469	0.226803497344799	6.96490957270022E-05	-0.00348680149622722	-0.00915002475440688	0.193115234375	-0.3203125	0.65283203125	0	0	0	-0.255064733068779	0.0955055746832893	-0.780503556349351	-0.562703177239104	-0.23661423253914	0.829663454182053	0.505640443155627	-0.927103869834747	-0.348487639058864	0.1379665900159	0.290675281882293	-0.436136352781883	0.851641334297935	9.20201865490929	-30.373875639218	105.917780249785
1995	1656054026671	5.09698481816054	1.3661133154492	8.57479327999545	0.0181312049170303	0.0126925928742593	0.255684391235055	0.000317302258669066	-0.00342024662815169	-0.00764578884357096	0.193115234375	-0.3212890625	0.64453125	0	0	0	-0.254995834562661	0.0955625884484152	-0.780519534236179	-0.562702561501606	-0.236685903270446	0.829664558444734	0.505605086657322	-0.927136806422221	-0.34846723793714	0.137796684508977	0.290511833442734	-0.43615055261362	0.851689832089461	9.19036548391241	-30.3715276042512	105.922337252173
1996	1656054026673	5.09786734569022	1.34230630040001	8.57660329337463	0.0408171613595747	0.0211446525673854	0.254390096850473	0.00155216765771166	-0.00193876655500543	-0.0094609709684408	0.193359375	-0.310546875	0.64013671875	0	0	0	-0.254997758380066	0.0955478035906234	-0.780499012113805	-0.562732665250137	-0.236616181363237	0.829695627156306	0.505586737360449	-0.927153530091297	-0.348405129378969	0.137841203787799	0.290515256667056	-0.436141069036301	0.851693520900298	9.19324487234176	-30.3703090445274	105.917318737147
1997	1656054026674	5.10579844718109	1.34504069595762	8.59946852810373	0.0423527213942674	0.0164189335373614	0.278254509225071	0.00357881486165675	-0.00334737909261132	-0.00663923225784808	0.1875	-0.3173828125	0.650146484375	0	0	0	-0.25498185366649	0.0955933523112881	-0.780484934608256	-0.56275166116524	-0.236589644313127	0.829689246589427	0.505609626389427	-0.927187527271532	-0.348344957699305	0.137764580780299	0.290428355151301	-0.436201266090938	0.851692330589381	9.18823435281267	-30.3718290859778	105.915740198212
1998	1656054026675	5.07506306585075	1.34336557351057	8.58408607140598	0.047043757521613	-0.00166425379143469	0.249380713945177	0.000317421136403148	-0.00342059306615232	-0.00764571925375374	0.197265625	-0.31591796875	0.6474609375	0	0	0	-0.254985010486626	0.0955904478970954	-0.780466994212942	-0.562775605052478	-0.236532525569905	0.829707307064431	0.505606713712756	-0.927203832502279	-0.3482921692573	0.137788308020417	0.290422825102655	-0.436209066203277	0.851690221395935	9.18981221667613	-30.371635656221	105.911763477152
1999	1656054026676	5.09765845370929	1.36834916976568	8.57403630136673	0.0149539553057658	0.0132497407404067	0.255688893754359	0.00335570570823595	-0.00495920600713555	-0.00808136893550973	0.198974609375	-0.31298828125	0.64599609375	0	0	0	-0.254952773232936	0.0955861806320293	-0.780476702961744	-0.562777470788395	-0.236561203587705	0.829729486134391	0.505556897684421	-0.927209333473912	-0.348289600890396	0.137757779564254	0.290381901770757	-0.436168927997821	0.851724730986033	9.18744492953771	-30.368327451849	105.913191146701
2000	1656054026677	5.09790822902592	1.36897844446432	8.57378733938228	0.0146856643400427	0.0134413396708731	0.255689034693658	0.00182425555963145	-0.00341751206317171	-0.00789461292093686	0.197265625	-0.31787109375	0.64892578125	0	0	0	-0.254959900065259	0.0955770209402944	-0.780458988054307	-0.562800364598442	-0.236502397933149	0.829748590647244	0.50555305566358	-0.927221821477135	-0.34824156535208	0.137795159340806	0.290389926733858	-0.436170939518035	0.851720964853783	9.1899353007885	-30.3680723139151	105.909087836203
2001	1656054026678	5.07594207796895	1.34516087491877	8.58328516174973	0.0454118105972666	-0.00174234082346645	0.24938819831678	0.00140280441245679	-0.00818654408708322	-0.010716478656006	0.18798828125	-0.31884765625	0.648193359375	0	0	0	-0.255020452657898	0.0956253381981991	-0.780396204885028	-0.562851780508587	-0.236324883808948	0.829721952777626	0.505679770577755	-0.927267620909103	-0.348107335745586	0.137826129647764	0.290388203111386	-0.436328733730651	0.851640726841282	9.19281678294274	-30.3764874506034	105.898235099607
2002	1656054026679	5.07632394878703	1.345673198582	8.58297900931079	0.0451521076844951	-0.00156290872778632	0.249389396517873	0.000565126986116532	-0.00335420929685798	-0.00614144395482729	0.191650390625	-0.31396484375	0.650634765625	0	0	0	-0.255023576468462	0.095623511578068	-0.780382492218849	-0.562869687687134	-0.236281380256445	0.829734799509237	0.505679020553034	-0.927279799177687	-0.348067717432934	0.137844253119298	0.290384716163057	-0.43633591023934	0.851638238957427	9.19403135099776	-30.3764376393351	105.895222705104
2003	1656054026680	5.10665994703734	1.37277447581012	8.59599462326326	0.0155926654750873	0.00985559397613904	0.27955068628445	0.00308314831853315	-0.00348104440059234	-0.00964794680243512	0.1904296875	-0.31494140625	0.64111328125	0	0	0	-0.254952204314733	0.0955848562182641	-0.780415244695071	-0.56286317575795	-0.236368837781467	0.829794866494064	0.505539565282418	-0.927273145661877	-0.348097161274817	0.137814656864721	0.290334782380901	-0.4361981726836	0.851725817553585	9.19116197852562	-30.3671764604402	105.899715931791
2004	1656054026681	5.0837210088574	1.37332024046492	8.60364164111819	0.0231698592886323	-0.0125192572200703	0.274541378508331	0.00182419000931627	-0.00341775636667148	-0.00789467992103966	0.192626953125	-0.31591796875	0.643310546875	0	0	0	-0.254959182434803	0.0955756901492548	-0.780397604289116	-0.562886029285218	-0.236310266655394	0.829814017841802	0.505535511775881	-0.927285617126187	-0.348049210976029	0.13785184441955	0.290342628878648	-0.436200002902579	0.851722205489341	9.1936380753497	-30.3669072815163	105.895626831737
2005	1656054026682	5.08476721669867	1.34934230574253	8.60539697164043	0.0445508935269124	-0.00419650750591288	0.273265093785747	-0.00267132611225693	-0.00497376593440405	-0.00708513874473405	0.19091796875	-0.3095703125	0.642822265625	0	0	0	-0.254912452454055	0.0956316099308684	-0.78039219085258	-0.56290520091948	-0.236314752723318	0.829818269536515	0.505526435697226	-0.927329022414944	-0.34798465991966	0.137722767353635	0.290200313287671	-0.436243413708474	0.851748473531779	9.18489800297144	-30.3663045741635	105.895836013873
2006	1656054026683	5.08423719266791	1.37400892911303	8.60322665625889	0.0213301088191959	-0.0122653069865683	0.274545748532361	0.0018241459731485	-0.00341770641244183	-0.00789477785364341	0.185302734375	-0.30810546875	0.642822265625	0	0	0	-0.254918989459058	0.095622804299646	-0.780374677999419	-0.562928014979134	-0.236256717529649	0.829837399569773	0.505522159452375	-0.927341674135002	-0.347936658499047	0.137758851203873	0.290207137807823	-0.436245311662824	0.851745176222089	9.18729840565024	-30.3660206065352	105.891781577349
2007	1656054026684	5.09255300862368	1.34620816185938	8.55113862524512	0.0306814175263837	0.0289351481219259	0.230547461345703	0.00328082734201359	-0.000323813260484687	-0.00826840848335428	0.1875	-0.316650390625	0.646240234375	0	0	0	-0.254887974478028	0.095519315960425	-0.780383863610397	-0.562946894619244	-0.236245828610076	0.829935895323522	0.505365529214135	-0.92732279519824	-0.347933708234005	0.137893321739153	0.290276320029833	-0.436060253093628	0.851816361489881	9.19535787090883	-30.3556200122331	105.889295412593
2008	1656054026685	5.08519238342121	1.35090382617159	8.60490073382938	0.0440115624868518	-0.00199956645678967	0.273268136477144	9.47055699150455E-05	-0.00503382272408095	-0.00908748959091719	0.19970703125	-0.317626953125	0.64697265625	0	0	0	-0.254896286207715	0.0955192478881995	-0.780360491428533	-0.562975541189673	-0.236172846599419	0.829952736873923	0.505371982884501	-0.927342743066148	-0.347869226610135	0.137921854904214	0.290271981788942	-0.436079643795891	0.851807913120775	9.19731773958712	-30.3560485283785	105.88432847589
2009	1656054026686	5.07755690803935	1.34916105867176	8.58170205368435	0.039668015704674	0.00220920613539109	0.249412389928317	-0.0012145638802726	-0.00188043654230415	-0.00745862352961418	0.1904296875	-0.307861328125	0.64404296875	0	0	0	-0.254849700172599	0.0955620921204555	-0.78035959541932	-0.562990602682223	-0.236186423226887	0.829962296818429	0.505349937511787	-0.927378178917487	-0.347818935682137	0.137810381498026	0.29014769816591	-0.436101563676196	0.851839033742996	9.18968101313982	-30.354584749223	105.885021783692
2010	1656054026687	5.08557288860079	1.3515501611142	8.60457435947059	0.042255743759251	-0.00186992219462611	0.273275670287512	-0.00116400148035693	-0.00497073731682248	-0.00733413475377338	0.191650390625	-0.31884765625	0.654296875	0	0	0	-0.254853112349856	0.0955693683970079	-0.780340677046462	-0.563014044848313	-0.236130152858267	0.829973219924625	0.505358293806565	-0.927397823849775	-0.347763362255477	0.1378184319729	0.290130707147373	-0.436125094532196	0.851832773899578	9.19027507031194	-30.3551395918855	105.881229686898
2011	1656054026689	5.08581443750766	1.35209214520503	8.60434644409291	0.0417787876604085	-0.000460063349332206	0.273277820093543	0.00283510995626914	-0.00354798947053793	-0.0111524877248912	0.19677734375	-0.318115234375	0.64794921875	0	0	0	-0.254827190327008	0.0954994067104923	-0.780347624032227	-0.563028020666153	-0.236125102029595	0.830043465400937	0.505245268890978	-0.927386847360661	-0.347758622525397	0.137904226917424	0.290169901150976	-0.435995167409504	0.851885932775974	9.19533446479681	-30.3476352110905	105.879630916777
2012	1656054026690	5.08604306178435	1.35287522082939	8.60408821457122	0.0414953332325133	-0.000237372966791157	0.273278997954508	0.00310857895680585	-0.00502610362498008	-0.00958607258446719	0.197998046875	-0.3154296875	0.6484375	0	0	0	-0.25484369228524	0.0954865954254875	-0.780324632973089	-0.563054588625196	-0.236048445461074	0.830062417341583	0.505249952709011	-0.927399043509496	-0.347703680644321	0.137960735588297	0.290193289882937	-0.436002905705271	0.85187400519295	9.19916460684484	-30.3479461855513	105.874391354293
2013	1656054026691	5.10865258385285	1.37808190131199	8.59396114714069	0.0101297978659404	0.0132495454861617	0.279553762939949	0.00310860624570064	-0.00502620847127293	-0.00958607882263035	0.191162109375	-0.317626953125	0.643310546875	0	0	0	-0.254875056694494	0.0955308968565334	-0.780281269219393	-0.563092971121234	-0.23593002269768	0.830044910885221	0.505334018549531	-0.92743868189476	-0.347600307239296	0.137954766979825	0.290162912370245	-0.436118644775356	0.85182510644153	9.1992924509802	-30.3535277680032	105.86714621627
2014	1656054026692	5.07100702816302	1.3500450898132	8.55744579145204	0.034901910725306	0.00772965212314004	0.225556237777624	0.001849917769236	-0.00496323394277892	-0.00783257141711117	0.188232421875	-0.31787109375	0.655029296875	0	0	0	-0.254887280572017	0.0955255219829653	-0.780262395634463	-0.563114502398272	-0.235869062782697	0.830057660268648	0.505341533867296	-0.927450622362489	-0.347553863677257	0.137991503080598	0.290174306756205	-0.436131393587242	0.851814697704968	9.20181075555465	-30.3540267657996	105.863021397136
2015	1656054026694	5.07832949606934	1.37702782888216	8.57824175897704	0.0126193849722247	-0.00353748891377815	0.250696561485714	-0.00015307210340866	-0.00510204442667682	-0.010591468083894	0.187744140625	-0.31982421875	0.64404296875	0	0	0	-0.254795964615399	0.0955207429271433	-0.780301313629549	-0.563102711798083	-0.235988704762707	0.830102971779009	0.505211230544292	-0.927456171118613	-0.347582247272583	0.137882674890439	0.290059273043324	-0.43602251963012	0.85190960817271	9.19367079322639	-30.3453753202493	105.869839853569
2016	1656054026694	5.08722162696139	1.35531507728227	8.60300741104213	0.0381220639717687	0.000674227659596998	0.27329229229316	0.00232058269508536	-0.00328356958222809	-0.00488666625398482	0.185791015625	-0.314208984375	0.65087890625	0	0	0	-0.254800618579225	0.0955124483504517	-0.780293598894398	-0.563112703200856	-0.235961456530939	0.830113213684075	0.505207129303314	-0.92745973737092	-0.347562911407855	0.137907426085616	0.290070037383494	-0.436018434335973	0.851908033963494	9.19530965221836	-30.3451030321411	105.867913811257
2017	1656054026695	5.0883654154784	1.33145279665098	8.60470594575063	0.0584448516327769	0.0108472555742358	0.27203673229536	0.00012085239465591	-0.00658017559979748	-0.00902494949827171	0.184814453125	-0.312255859375	0.650634765625	0	0	0	-0.254685024440933	0.095493963298694	-0.780356619619212	-0.563080800165932	-0.23615110162003	0.830165894826557	0.505031924011214	-0.927449424333314	-0.347641830916002	0.137777801917341	0.289948654950235	-0.435855187492581	0.852032882598059	9.18549089357159	-30.3334715729904	105.879067226748
2018	1656054026696	5.08016219510206	1.35426141316395	8.57935650376893	0.0323329695186549	0.00709078316983521	0.249436377534003	0.00313442226864202	-0.00657152048677495	-0.00952398106066	0.18359375	-0.312744140625	0.645751953125	0	0	0	-0.254705731957786	0.0954855613893007	-0.780332768423789	-0.563105912061029	-0.23607344381953	0.830178550938647	0.505047426173617	-0.927461430158895	-0.347588478736174	0.137831582075697	0.289973489634491	-0.435873631929348	0.852014995348036	9.18920482503122	-30.3345006686495	105.87387880512
2019	1656054026698	5.05742970554282	1.35477508381272	8.58690161683912	0.0387310565151962	-0.0122968465004826	0.244461278935411	0.00185002063935961	-0.00496352273028415	-0.00783265972974182	0.19287109375	-0.3173828125	0.646240234375	0	0	0	-0.254598823491372	0.095367832023113	-0.780409527450042	-0.563067833530938	-0.236268107839171	0.830285928112381	0.504779812192069	-0.92740807944041	-0.347719182915975	0.137860886479439	0.289985577928882	-0.43556474537181	0.852168831384042	9.18949430429747	-30.3167368979154	105.884357058731
2020	1656054026698	5.08868680931917	1.35774181576802	8.60175814151738	0.0333843787524636	0.00627676680441729	0.273307156073754	0.00486355943942691	-0.00495461265586322	-0.00833186500938581	0.19189453125	-0.31982421875	0.6494140625	0	0	0	-0.254616382508028	0.095348402292615	-0.780392811361849	-0.563086352093105	-0.23620851569001	0.830302552159521	0.504780357178157	-0.927411613238185	-0.34768488453345	0.137923604571188	0.290022821078739	-0.435560435467166	0.852158359877542	9.19371461902017	-30.3167730699119	105.88025082542
2021	1656054026700	5.08838361390048	1.38268998347691	8.59938357796601	0.0083849477262522	-0.0018742341694367	0.274572098201069	0.000421467775994991	-0.0096038668716295	-0.00739574574693612	0.198974609375	-0.321044921875	0.653564453125	0	0	0	-0.254577931311413	0.0954082744254132	-0.780407295142508	-0.563073522507248	-0.236276570280962	0.830275687066065	0.504792695869541	-0.927431051598918	-0.347690938844889	0.137777558315149	0.289905203241319	-0.435606811829353	0.852174676120733	9.18397260360977	-30.3175920211826	105.885083327723
2022	1656054026700	5.07405831953892	1.35466694542225	8.55490632036967	0.0252741513543246	0.0152121929490982	0.225576544962681	0.00335664794485318	-0.00495923302242049	-0.00808238893363475	0.1982421875	-0.319091796875	0.643310546875	0	0	0	-0.254590604406257	0.095395481367431	-0.780390721999145	-0.563092929542173	-0.236219953695341	0.83029140915814	0.50479333331014	-0.92743858219398	-0.34765210966858	0.137824841378492	0.28992724903705	-0.435607835697634	0.852166652565467	9.18715568580715	-30.3176343299709	105.881183399244
2023	1656054026701	5.08227872631799	1.35760888657375	8.57757372513813	0.0267920309478897	0.00933602524705248	0.249450824067999	0.00664474039130107	-0.00642767598712953	-0.00701537363283534	0.197509765625	-0.31884765625	0.651611328125	0	0	0	-0.254628615371132	0.0954866777313145	-0.780358841964479	-0.563104466664822	-0.236155255712613	0.830219817948944	0.504941332319046	-0.9274743800974	-0.347591307995926	0.137737274797439	0.289865433369096	-0.435792767827215	0.852093125220032	9.18219687107982	-30.3274579497062	105.878353101221
2024	1656054026702	5.09065002599921	1.36024120627392	8.60020148299967	0.0292896051132357	0.00532117345084361	0.273320427869359	-0.00236939053409042	-0.00800107475928307	-0.00545411500515925	0.18701171875	-0.314697265625	0.652587890625	0	0	0	-0.254636010928524	0.0955091954593834	-0.780342673703322	-0.563119709403481	-0.236113389639495	0.83021251822436	0.504972911963122	-0.92749284037944	-0.347548372928081	0.137721311059408	0.289840470393329	-0.435840914851521	0.852076991042219	9.1813216658085	-30.3295542157124	105.875812601461
2025	1656054026703	5.07550825848569	1.35647633820755	8.5537594320913	0.0225154654524264	0.0149592177169763	0.225583491836899	0.00664468012733924	-0.00642758449273972	-0.00701572634443409	0.1904296875	-0.307861328125	0.65380859375	0	0	0	-0.254615487014767	0.0954650930920443	-0.780369534047665	-0.56309924534081	-0.236180387337685	0.830237209077318	0.504900981679107	-0.927464773759482	-0.347611311795074	0.137751476752086	0.289875694173026	-0.435743677608308	0.85211473954632	9.18289854215646	-30.3247795277174	105.879641797756
2026	1656054026704	5.08296395443487	1.38362732910847	8.57443412989966	0.00207618644571493	0.00267164252550094	0.250704526719813	0.00012072542208034	-0.00658208831810477	-0.00902422501866493	0.19677734375	-0.314697265625	0.64208984375	0	0	0	-0.254625710087962	0.0954690215875311	-0.78034657394898	-0.563125774765646	-0.236110219113584	0.830248803255217	0.504914734508129	-0.92748427290773	-0.347550055423421	0.13777475270889	0.289870467517742	-0.435770448365255	0.852102827358641	9.18454994847795	-30.3256924140491	105.874951310162
2027	1656054026705	5.09291660406548	1.33770626098609	8.60104272821412	0.0514663998866501	0.0157286088568309	0.272068328756388	0.00338277066791494	-0.00650483539408619	-0.00802009226750119	0.192626953125	-0.313720703125	0.654296875	0	0	0	-0.254670474997688	0.0954145724430877	-0.780313253100247	-0.563160932208605	-0.235985427196774	0.830285329089764	0.504913012754731	-0.927482427032893	-0.347491647598875	0.137934413378942	0.289977974501392	-0.435747435043882	0.85207801705991	9.19527494472496	-30.3255781269051	105.866320556461
2028	1656054026707	5.0616609260769	1.36033499262379	8.58352885092825	0.0332343325172201	-0.0105903332477854	0.244482886982835	0.00215122150320837	-0.00798729244642606	-0.00620351441831807	0.19873046875	-0.322265625	0.651123046875	0	0	0	-0.254690937181703	0.0954174841608793	-0.780297384516219	-0.563173172257932	-0.235937009132888	0.830281169756223	0.504942478773242	-0.927489043614042	-0.347462963530693	0.137962179420227	0.289996209798228	-0.435778232731634	0.852056060467828	9.19732726299204	-30.327534050886	105.863304511178
2029	1656054026706	5.0940466894802	1.33887862679856	8.60019104145301	0.0502439866434034	0.0161030866004492	0.272073902110586	0.00365793759907636	-0.00798246331167597	-0.00645358665076119	0.187255859375	-0.316650390625	0.66015625	0	0	0	-0.254701043394735	0.095431341701024	-0.780297684554605	-0.563165837914107	-0.235943235000271	0.830261074081643	0.504972611853756	-0.927486923296884	-0.347474196055288	0.13794814311549	0.289997925804458	-0.435807562968483	0.852040475029552	9.19657285968397	-30.3295342941538	105.864066683171
2030	1656054026707	5.09385762187118	1.36396754098258	8.59771170367577	0.0269733921345086	0.00808463497087379	0.273325051632757	0.0046937252215304	-0.00965848800484895	-0.00964919082906823	0.19287109375	-0.31689453125	0.653076171875	0	0	0	-0.254736823639718	0.0954247426979053	-0.780271177507142	-0.563187498720101	-0.235857983934688	0.830261553864267	0.505011646983669	-0.927494337270274	-0.347427919532871	0.138014836378691	0.290043558359499	-0.435843541771534	0.852006538325972	9.20130328174348	-30.3321255189748	105.858614319467
2031	1656054026708	5.0875540329537	1.33825990527819	8.57613190888505	0.0458593619117049	0.0230004905162914	0.248204841712152	0.00168042180334226	-0.00966868881411495	-0.00914880045204301	0.19140625	-0.31787109375	0.65087890625	0	0	0	-0.254680764070519	0.0953475761134686	-0.780321453996301	-0.563156263016618	-0.235985463675229	0.8303194408948	0.5048568975523	-0.927452215042201	-0.347527726308889	0.138046616256571	0.290074558945286	-0.435653653168111	0.852093096283486	9.20246685068178	-30.3218533655339	105.865703867761
2032	1656054026709	5.09521245372784	1.36534729386036	8.59668984151807	0.0254256955026017	0.0107425609891041	0.273326591220155	0.00365815481523829	-0.00798267165950971	-0.00645370773962467	0.195556640625	-0.31884765625	0.64599609375	0	0	0	-0.254704892284959	0.0953434755176446	-0.780306156885939	-0.563167240744897	-0.235936153595774	0.830316831295827	0.504884235338448	-0.927454629943008	-0.347504561255992	0.13808870085405	0.290106947217246	-0.435677104715337	0.852070079044648	9.20546868105206	-30.3236679493294	105.862602853376
2033	1656054026711	5.0967272734877	1.34152862767326	8.59818967209322	0.0465337220062006	0.0190335609679388	0.272086599669663	0.000671675892347445	-0.00953827421650841	-0.00589039833081019	0.1943359375	-0.3212890625	0.64404296875	0	0	0	-0.25467920758832	0.0954033131979878	-0.780319057213835	-0.563150848354101	-0.235999246440485	0.830280197700559	0.504914991841046	-0.927469158526815	-0.347518659657807	0.137955576803564	0.290009164788091	-0.435735670442485	0.852073418106065	9.19671046881236	-30.3257094953942	105.867296030209
2034	1656054026711	5.11977494636498	1.36660995647392	8.58775017444042	0.0153567814948859	0.033592091184026	0.278289147907424	0.00496947287651013	-0.0111361654836559	-0.00808294990608419	0.19140625	-0.318603515625	0.65087890625	0	0	0	-0.254719713674648	0.0954013078743208	-0.780295878229004	-0.563164985009014	-0.235926134250606	0.830269445478996	0.504966837605764	-0.927471820782732	-0.347487580231333	0.138015952842189	0.290060133130235	-0.435780942090144	0.852032915842749	9.20109645509337	-30.3291509946098	105.86282285407
2035	1656054026713	5.08960885124931	1.36497035062435	8.57205737373537	0.0178731524626617	0.0151412787760509	0.249463558251378	0.00217842493047142	-0.0095334224850538	-0.00614070459057594	0.19677734375	-0.315673828125	0.649658203125	0	0	0	-0.254674677238166	0.0954785752036454	-0.780322420047471	-0.563135482119512	-0.23603847510332	0.830222533797898	0.504991467893367	-0.927486435090491	-0.347524540910212	0.137824548569106	0.289921973975811	-0.435840840031478	0.852049300901435	9.18838025153076	-30.3307859847158	105.870847448841
2036	1656054026713	5.09818426158736	1.36774276564487	8.59454689935923	0.0203273259587094	0.0111712795646959	0.273337689302036	0.00318675497900807	-0.00966442071249668	-0.00939917263584536	0.192138671875	-0.3154296875	0.654052734375	0	0	0	-0.254704403927849	0.0954783676513399	-0.780296716246145	-0.563157688881078	-0.235958168147764	0.83022266928407	0.505028773725998	-0.927497712166625	-0.347474597529517	0.137874573425915	0.289951266267332	-0.435880400429446	0.85201909586079	9.19197864586277	-30.3332624457564	105.86571714798
2037	1656054026714	5.10761240807452	1.3461552317217	8.61902295830948	0.0457446821447641	0.0158423428145054	0.295974841386007	0.000422805357358212	-0.00960707766927181	-0.00739397388825312	0.18505859375	-0.3173828125	0.64453125	0	0	0	-0.254718959325243	0.0954719840383343	-0.78028728381824	-0.563165257038823	-0.235926290049324	0.830224328673326	0.505040938679715	-0.927498426349169	-0.347459987056362	0.137906586190104	0.289974920955896	-0.435888886614145	0.852006704048098	9.19420790119112	-30.3340700014922	105.863651451547
2038	1656054026716	5.09168862359098	1.3667329413445	8.57054128752703	0.016794329614645	0.0163354164543855	0.249463548937467	0.00340891072076822	-0.00805115882176288	-0.00795812406511876	0.198974609375	-0.31689453125	0.650390625	0	0	0	-0.254742379494942	0.095467908206174	-0.780267848719194	-0.56318228207847	-0.235864074484284	0.830226611144577	0.505066245669876	-0.927505499551959	-0.347423191311249	0.137951710536616	0.290002908034632	-0.435913867967628	0.851984397183985	9.19740161563014	-30.3357499967586	105.859637138893
2039	1656054026715	5.10093469356694	1.34516392165494	8.59512610992187	0.0407939307479777	0.0208545176501428	0.27210784990217	0.00212451528911619	-0.00644317403645511	-0.00626619675225839	0.18505859375	-0.3203125	0.64013671875	0	0	0	-0.25469897051142	0.095490456278831	-0.780290270293392	-0.563167027857233	-0.235942666309747	0.830224862958325	0.505032409990169	-0.927510146589861	-0.347448942988222	0.13785557656193	0.289924104185048	-0.435896672322923	0.852020014360167	9.19072401805847	-30.3335038340565	105.864687469971
2040	1656054026716	5.10060238832992	1.36982612472747	8.59278016932007	0.0174859386736502	0.0128459035939228	0.273341021752918	-0.00286675198465658	-0.0081413609058695	-0.00845879387357038	0.19580078125	-0.314697265625	0.642578125	0	0	0	-0.254704819721654	0.0955106468510453	-0.780266520522616	-0.563193863691877	-0.23587625342075	0.830228588629711	0.505057307336611	-0.927536676980487	-0.347380776475821	0.137848862857304	0.289893266441609	-0.435943903222621	0.852006342297309	9.19042901765509	-30.3351566254883	105.860378983961
2041	1656054026716	5.10210742650804	1.34597690136778	8.59430274202113	0.0377122423727925	0.0211174993485571	0.272119297509825	0.0031868663454064	-0.00966474853843616	-0.00939958022185322	0.1884765625	-0.3173828125	0.646484375	0	0	0	-0.254654239435541	0.0955837038199091	-0.780278797355213	-0.563187333220019	-0.23594249207606	0.83020467930383	0.505065669883594	-0.927567860898594	-0.347367566529183	0.137672209075037	0.289739544869087	-0.43599995892846	0.852029947803149	9.17860208308861	-30.3357117730768	105.865042626444
2042	1656054026717	5.10260573498259	1.3466881713894	8.59389546438955	0.0373103422235695	0.0214073408154648	0.272120181320778	0.00134867193439758	-0.00510268347635908	-0.0108408125379522	0.187744140625	-0.3193359375	0.6416015625	0	0	0	-0.254660470381483	0.0955765063595423	-0.780254445062016	-0.563219475176553	-0.23586373521386	0.830229881970123	0.505061027495532	-0.927588114237882	-0.347297908427905	0.137711485091884	0.289738828491412	-0.436007460814008	0.852026352514372	9.18121410697882	-30.3354035878082	105.859556135135
2043	1656054026718	5.09510933582777	1.34514758991374	8.57056724535474	0.0313382564141763	0.0266004379632266	0.248251678106545	0.00187526730911695	-0.00651156385883269	-0.00777028861838134	0.187255859375	-0.315673828125	0.638916015625	0	0	0	-0.254551905906649	0.0956116444250796	-0.780310126786208	-0.56318544608727	-0.236050961029551	0.830242361050464	0.504953033176728	-0.927594866311555	-0.34736113353163	0.137506388593659	0.289564686710025	-0.435933326127945	0.85212348129925	9.16674546295611	-30.3282346508275	105.87128474867
2044	1656054026718	5.08820068101335	1.35000347987567	8.62412661485729	0.044436553162125	-0.00415419798041729	0.291067557659401	0.00463879450105056	-0.00656857257204124	-0.00977624869215652	0.189453125	-0.31982421875	0.656982421875	0	0	0	-0.254571477757745	0.0955974202367337	-0.780288969224395	-0.563208327764293	-0.235979484498374	0.830257737980603	0.504961158327266	-0.927603244138577	-0.347315025562061	0.137566327574785	0.289596105566822	-0.435940777562914	0.852108991912638	9.17082665215804	-30.3287740006859	105.866441829924
2045	1656054026719	5.10306383044397	1.37300316507693	8.5908114424658	0.00828673257741281	0.0158696766385901	0.273348470604724	0.000396461005218106	-0.0080629864849462	-0.00745630095483972	0.19140625	-0.316650390625	0.642822265625	0	0	0	-0.254475452743679	0.0955984168273116	-0.780345164589744	-0.563173695011066	-0.236155266396965	0.83028483864463	0.504834405394322	-0.927594640259467	-0.347392663895389	0.137428237395289	0.289480350826942	-0.435827286649798	0.852206373302022	9.16074793812521	-30.320360442289	105.877173016478
2046	1656054026720	5.11226465153523	1.35140067126726	8.61544319876616	0.0335678192703402	0.0202486801794481	0.296014745115213	0.0033541839696259	-0.00496068695746071	-0.00808425460677885	0.189208984375	-0.31640625	0.641357421875	0	0	0	-0.254483344447919	0.0955867238037483	-0.780330728065485	-0.563192116837459	-0.236105733861488	0.830301770828237	0.50482972554835	-0.927602687461826	-0.347355635529217	0.137467511360653	0.289494968265988	-0.435824542477346	0.852202811262135	9.16335912284109	-30.3200498190695	105.873703277766
2047	1656054026722	5.08087687262358	1.37393234423877	8.59801719878692	0.0135619569165065	-0.0061628864207855	0.268417620517521	0.000396650515774066	-0.00806328068831923	-0.00745618797338363	0.192626953125	-0.31640625	0.650146484375	0	0	0	-0.254430305970284	0.0956447601078536	-0.780344020753632	-0.563187809297958	-0.236169421724069	0.830290627936606	0.504818261756798	-0.927630330251389	-0.347343142644155	0.137312459943669	0.289354410092915	-0.435855726609985	0.852234598535558	9.15286307500734	-30.3192889178801	105.877971595503
2048	1656054026723	5.10523871285509	1.35014558338205	8.59178899412778	0.0281083545006958	0.025019656637582	0.272141712351546	-0.00119326526765741	-0.00343313837977091	-0.00739348613457797	0.185791015625	-0.3212890625	0.640380859375	0	0	0	-0.254418493940296	0.0956477730237232	-0.780331506429247	-0.563209972861469	-0.23613151282107	0.830311848395053	0.504801092577684	-0.927650097840808	-0.347292059969971	0.13730812451473	0.28932197398188	-0.435856007755549	0.852245466913508	9.15246423466921	-30.3181493366129	105.875166113899
2049	1656054026725	5.07439433116506	1.34821366011902	8.57656611968448	0.0303542225970719	0.00744300836586682	0.243339065191607	0.00179190152348462	-0.00187583541288818	-0.0079588809939759	0.193115234375	-0.3212890625	0.6533203125	0	0	0	-0.254307769090674	0.0956707783935849	-0.780386178447821	-0.563180320349794	-0.236310970701656	0.830336631508709	0.50467633538815	-0.927655920390472	-0.347350057864538	0.137121955448458	0.289156736892896	-0.43576256800725	0.852349321483381	9.13916958309608	-30.3098691432649	105.886172137498
2050	1656054026726	5.09039867252746	1.35304806549105	8.62235221216643	0.0354503230362254	-0.000712134024515941	0.291103912003091	0.000119396225683662	-0.00658663054896065	-0.00902287195622983	0.192138671875	-0.314697265625	0.652099609375	0	0	0	-0.254311804912841	0.0956758061897346	-0.780366080293985	-0.563205492443495	-0.236250158326907	0.830349951159142	0.504682891824681	-0.927675898993553	-0.347291426782849	0.137135302929761	0.289142333664609	-0.435783918350762	0.852343291983835	9.14010774234212	-30.3103042796243	105.882048315025
2051	1656054026727	5.08290882178046	1.35144391609315	8.59902849542224	0.0314661479661971	0.00452158480116166	0.26722549485171	0.00360411564803313	-0.00489203819470149	-0.00658076407278178	0.185302734375	-0.315185546875	0.64697265625	0	0	0	-0.254275695355361	0.0956461041559926	-0.780397999378527	-0.563182613436637	-0.236338429348454	0.830372210336852	0.504604933699025	-0.927654128906037	-0.34735433336492	0.137123244623927	0.289140042084606	-0.435691357950674	0.852391387022657	9.13881064504922	-30.3051304943166	105.887278502044
2052	1656054026728	5.10626081833894	1.35216854398004	8.59086341548913	0.023054248804	0.0274046080743286	0.272148333774405	0.000313202128887768	-0.0034275727341317	-0.00764470586708398	0.195068359375	-0.31201171875	0.642333984375	0	0	0	-0.254266970316352	0.0956430183976013	-0.780386111084818	-0.563203549761411	-0.236300138684579	0.830394734855206	0.504585799227843	-0.927670176934683	-0.347308349135884	0.137131154179062	0.289119849342143	-0.435685086897933	0.852401441675879	9.13922290936756	-30.3038606537283	105.884425263434
2053	1656054026730	5.10651147393272	1.35261308158227	8.5906444443863	0.0221909509947443	0.0283803207822066	0.272147571740042	9.14364938884338E-05	-0.00504164804477129	-0.00908564418778427	0.189208984375	-0.30712890625	0.6552734375	0	0	0	-0.254232552600067	0.0956256839040665	-0.780382508857581	-0.563227021409202	-0.236282263105945	0.830442708621275	0.504515212693625	-0.927687355473507	-0.347262101864796	0.137132064459834	0.289079336231604	-0.435630508924943	0.852443075552667	9.13884371596527	-30.2991763892137	105.882412994533
2054	1656054026730	5.07667689150478	1.32651974446431	8.57731238297978	0.0497769385134257	0.0186975346953454	0.242150439854408	0.00332617098469087	-0.00341516657487954	-0.00814760607885115	0.192138671875	-0.312744140625	0.645751953125	0	0	0	-0.254232233802135	0.0956098970654156	-0.780370866684896	-0.563245975847659	-0.23623988397479	0.830467265248969	0.504494636809427	-0.9276957360671	-0.347225436549119	0.137168208766443	0.28908707771621	-0.435612921712812	0.852449437758234	9.14114473247994	-30.2978109742392	105.879262139918
2055	1656054026732	5.10605119784781	1.37814756600016	8.58821225952186	-0.00018995291478402	0.0225188282960161	0.273339219337664	0.0018197074747743	-0.00342155438646073	-0.00789614244872558	0.187255859375	-0.312744140625	0.6435546875	0	0	0	-0.254237522766303	0.0954835358406694	-0.780357192004749	-0.563283968605072	-0.236148905460347	0.830574396849693	0.504360848745865	-0.92767638731809	-0.347188130191767	0.137393313761632	0.289223468726757	-0.43543836940687	0.852492352802035	9.15543915829233	-30.2889332665465	105.871510776964
2056	1656054026732	5.08404104133876	1.35418840412048	8.5979273229711	0.0301926365252128	0.0086245643738613	0.267226714345611	0.00181972440595577	-0.00342161889447635	-0.00789614691139299	0.190185546875	-0.3134765625	0.643310546875	0	0	0	-0.254233036299684	0.0954727519653693	-0.780345756126323	-0.5633036639164	-0.236109090944406	0.830598591863057	0.504339643859684	-0.927687902327227	-0.347147871701037	0.137417288028652	0.289219039914587	-0.43542431531616	0.852501033772005	9.15691799620104	-30.2875262582768	105.868530647957
2057	1656054026734	5.08347541908397	1.3789637056863	8.5956754461154	0.00611315728309735	0.00147908248564071	0.268426664634505	0.0006200298187341	-0.00645019735004115	-0.00601497641398363	0.18701171875	-0.31640625	0.656494140625	0	0	0	-0.254188012205093	0.0954588353476753	-0.780360525681573	-0.5633058806397	-0.23614987857591	0.830634363062158	0.504261628273366	-0.927692329479914	-0.347148191181594	0.137386590260765	0.289171535031916	-0.435355817992215	0.852552130410578	9.15436767000107	-30.2823498620846	105.870484781838
2058	1656054026735	5.07681139229201	1.35289339162301	8.57439851308005	0.0257792873967811	0.0143748157955047	0.243344314292152	6.30992350622211E-05	-0.0034969426913211	-0.00914842072536903	0.193115234375	-0.317138671875	0.654052734375	0	0	0	-0.254179052918253	0.0954532534280529	-0.780344909702075	-0.56333250160952	-0.236099003375879	0.830662865092834	0.504238500276091	-0.927711735310067	-0.347090338080719	0.13740172262019	0.289150820114521	-0.435347564328523	0.85256337093516	9.15524023336141	-30.2808153535534	105.866720844309
2059	1656054026736	5.10713499100461	1.38002806685618	8.58726580921445	-0.00336832898445213	0.0264924881878389	0.273329004018318	0.000341686511235544	-0.00497365979799869	-0.00758171016005116	0.19287109375	-0.318115234375	0.64794921875	0	0	0	-0.254112138490267	0.0953791498448165	-0.780396686384247	-0.563303515635462	-0.236232340689264	0.830726394592123	0.504071362547452	-0.927674393529922	-0.347183934095218	0.137417376976343	0.289161720843826	-0.435151666932509	0.852659677693567	9.15524896155011	-30.2697267247739	105.874077224069
2060	1656054026737	5.08616952805498	1.33174522400103	8.59889145710683	0.04993171189151	0.0209571603057273	0.266036151815314	0.00335462007882364	-0.00496055836371418	-0.00808498244128512	0.1875	-0.317626953125	0.642333984375	0	0	0	-0.254117162729308	0.0953655176042262	-0.780384202571364	-0.563320851767038	-0.23618817114173	0.830745357884488	0.504060808004451	-0.927681416907679	-0.347150072033073	0.137455506297835	0.289175269580383	-0.435142479931353	0.852659771316969	9.15774525026644	-30.2690265334867	105.870914657388
2061	1656054026738	5.10777176007382	1.38114563771998	8.58670738607985	-0.00619646907894706	0.0272329053489938	0.27332569102532	0.000341736656137683	-0.00497391452554897	-0.00758164513174032	0.189453125	-0.3173828125	0.650390625	0	0	0	-0.254044413541703	0.095406795125039	-0.780417697684116	-0.563300272087317	-0.236308478829213	0.830743876263572	0.504006859957281	-0.927694129525308	-0.347180693820647	0.137292271750803	0.289036165345628	-0.435120877330415	0.852717958784442	9.14644034698265	-30.2654476831856	105.878618230976
2062	1656054026739	5.08675013410268	1.33278914422265	8.59838625828766	0.0470916085734886	0.0217057257868024	0.26604823767838	0.00181950415663139	-0.00342185148748244	-0.00789631995251071	0.19677734375	-0.31494140625	0.644287109375	0	0	0	-0.254038406929679	0.0953953919617529	-0.780407194380226	-0.563319463498891	-0.236271339695905	0.830768937293095	0.503982962873948	-0.927705310902679	-0.347141802471571	0.137315057804132	0.289030638793304	-0.435104058594826	0.852728413994189	9.14782242868063	-30.2638624203399	105.875793704401
2063	1656054026741	5.1170756465677	1.35997850027652	8.61123628933991	0.0180498197145664	0.0318109170630278	0.296024591928603	0.000341838365993535	-0.00497410339929349	-0.0075816151499386	0.190185546875	-0.31494140625	0.652587890625	0	0	0	-0.25402507150934	0.0954172248849207	-0.780401829094265	-0.5633292122607	-0.236262923316827	0.830769560511734	0.50398588114443	-0.927723030010193	-0.347111503617999	0.137271933201067	0.288980640622332	-0.435127040510231	0.85273363247987	9.14494303419574	-30.2640560085247	105.875245376275
2064	1656054026741	5.07846608191319	1.35590472644608	8.57294284007343	0.0199662803713099	0.0180417647314274	0.243351625789995	0.00181947145219501	-0.00342192527601887	-0.00789636851438785	0.190673828125	-0.320068359375	0.654541015625	0	0	0	-0.254018997431563	0.0954059347737157	-0.780391332667831	-0.563348404143248	-0.236225848986239	0.830794583930809	0.503962010058262	-0.927734263531771	-0.347072566318418	0.137294464485317	0.288974885655992	-0.435110322815238	0.852744113107635	9.14630816707347	-30.2624724926845	105.872425761375
2065	1656054026742	5.10962339141429	1.35881009521282	8.58781563999569	0.0134439702447446	0.0379865071510737	0.272131417067667	6.28271383169781E-05	-0.00349780918909504	-0.00914832518092388	0.198974609375	-0.31982421875	0.65673828125	0	0	0	-0.253948875310471	0.0953571972286662	-0.78043470776217	-0.563328181955613	-0.236342656286262	0.83085002413949	0.503815825681333	-0.927713436095404	-0.347136728702555	0.137272983772293	0.288946239476504	-0.434953249180988	0.852833947330481	9.14395432808977	-30.2527757415256	105.878872355788
2066	1656054026742	5.11078948494572	1.33486780559536	8.5895924585105	0.0358589816826674	0.0467053429644444	0.270946533947503	-0.00116437468966238	-0.00498127298414875	-0.00732976945379268	0.194091796875	-0.317138671875	0.646240234375	0	0	0	-0.253939739285264	0.0953622654294	-0.780422748341035	-0.563348010572267	-0.236307255592003	0.830866667724938	0.503804983518657	-0.927731743008114	-0.347090114632884	0.137267131314308	0.28891641346539	-0.434958656412067	0.85284129428781	9.14349363424125	-30.2520565936825	105.876311830996
2067	1656054026743	5.08705494816393	1.35935255769681	8.59532933451773	0.020215730391561	0.0152515348256151	0.267243812360842	0.00206975083438454	-0.00335292923958022	-0.00639273623115525	0.187744140625	-0.313232421875	0.65185546875	0	0	0	-0.253952751901919	0.0953924411978766	-0.780416165599308	-0.56334615507255	-0.236298218732834	0.83083854658798	0.503855595708992	-0.927739238399351	-0.347082783454568	0.137235006334469	0.288899735821759	-0.435018219081687	0.852816563927505	9.14165050302303	-30.2554136855574	105.876245547843
2068	1656054026744	5.07935629690125	1.35770632869836	8.57213027465475	0.0169549592412307	0.0198318310206408	0.243353782974225	0.00181946149172507	-0.00342200608694355	-0.0078964775196407	0.1962890625	-0.314697265625	0.651123046875	0	0	0	-0.253946389974949	0.0953810498026212	-0.780405847301572	-0.563365245515515	-0.236261662327869	0.830863716994794	0.503831232354314	-0.92775041007238	-0.347044110967587	0.137257282696576	0.288893758195989	-0.435000998647488	0.852827372714482	9.14299541605822	-30.2537976570013	105.87345654217
2069	1656054026744	5.09533099916754	1.3625478058198	8.61794179865502	0.0224854056830183	0.0126644873828012	0.291133170771243	0.00031306268661612	-0.00342914176554264	-0.00764456745166723	0.189208984375	-0.320556640625	0.648193359375	0	0	0	-0.253933211087869	0.0953229944155401	-0.780403998856887	-0.563383572364725	-0.23623374939233	0.83092223740252	0.503747804995745	-0.927744933652317	-0.347024954250432	0.137342707159659	0.288934168506427	-0.434904491259259	0.852862902084517	9.14821484576163	-30.2482640968826	105.870614161143
2070	1656054026744	5.05572138873486	1.38272483379104	8.57772089333503	0.0015118963012181	-0.00944761997240058	0.239648231572655	6.2735888675766E-05	-0.00349828713027635	-0.00914830183870555	0.19384765625	-0.3125	0.646240234375	0	0	0	-0.253922817213837	0.0953165256437564	-0.780389354405728	-0.563409636381562	-0.236185569061171	0.83095168336655	0.503721824896984	-0.92776384624054	-0.3469686831432	0.137357120408203	0.288912828680574	-0.434893128053515	0.852875925674784	9.14902131024632	-30.2465409555562	105.867006338137
2071	1656054026744	5.08880223842871	1.33691338143908	8.59653153655268	0.0407756571548321	0.0260106479852181	0.266065578633537	0.00059274862530572	-0.00490561670062853	-0.00607784642451903	0.190185546875	-0.31689453125	0.646484375	0	0	0	-0.253885031759894	0.0953332367095099	-0.780405989026822	-0.563400795986156	-0.236243867460888	0.830955347160615	0.503688441511521	-0.927770074479684	-0.34698223412131	0.137280800202163	0.288845155727223	-0.434875315727816	0.852907929253533	9.14368639663819	-30.2443268323858	105.870659128
2072	1656054026746	5.11226972031574	1.33765639726161	8.58827768146022	0.0323151406387112	0.0489556137521767	0.270947839786004	0.00137729579629146	-0.00665129718195483	-0.0107780054465827	0.194580078125	-0.322509765625	0.64892578125	0	0	0	-0.253891147120307	0.0953285336401038	-0.780383497340463	-0.563429989587554	-0.236171864494608	0.830976790043306	0.503686832099535	-0.927789073080037	-0.346918235014794	0.137314143799929	0.288843013234573	-0.434885401713537	0.852903512175925	9.14591630622566	-30.2442200908364	105.86567677462
2073	1656054026746	5.06464107885286	1.38624150785384	8.59990099664701	0.000185797199208107	-0.0129602626037843	0.263541293085996	-0.00066310854658605	-0.0048439103860977	-0.00432207478356697	0.189453125	-0.317626953125	0.647216796875	0	0	0	-0.253831974459684	0.0953934208594711	-0.780421284101071	-0.563393329141073	-0.236314570842472	0.830940490030061	0.50367978481982	-0.927796091498954	-0.346976103872132	0.137120370262702	0.288703716995128	-0.434908594270471	0.852938847997252	9.13285554575252	-30.2437526931999	105.875439104295
2074	1656054026747	5.11304979337233	1.33844630585799	8.58769021042191	0.0295730403951066	0.0492251252173976	0.270954942517712	-0.000379626473309275	-0.00672795511225744	-0.0120296921947446	0.1845703125	-0.324462890625	0.647216796875	0	0	0	-0.253833613574555	0.0953946751457745	-0.780394428011465	-0.563429577944018	-0.236231214635018	0.830965856192681	0.503677038462177	-0.927823356624772	-0.346893933303315	0.137143785637181	0.288684312240215	-0.434925677420085	0.852936705147031	9.13441139081469	-30.2435705467717	105.869661341285
2075	1656054026747	5.08143878336289	1.36091532448624	8.57038702055112	0.00820024600364064	0.0236639961509684	0.243356445225116	0.00181925717681005	-0.00342208509808571	-0.00789676377814741	0.18896484375	-0.3212890625	0.641845703125	0	0	0	-0.253691398038677	0.0954168076200207	-0.780485666337759	-0.563363499018254	-0.236524485070182	0.830981425200246	0.503513692896682	-0.927807118486288	-0.347034401595026	0.136898045989536	0.288496306472816	-0.434783848690071	0.853072614769571	9.11689088275376	-30.2327376007398	105.888086149217
2076	1656054026747	5.09848523652642	1.34155061602569	8.61809096705103	0.0360589788234748	0.0240202296394659	0.289981810115179	0.00162794285390337	-0.00658237340418	-0.00927441865525417	0.190673828125	-0.3154296875	0.640869140625	0	0	0	-0.253695678038395	0.0954136352154182	-0.780468210936951	-0.563386290990909	-0.236468780136291	0.830998127431991	0.503512292030074	-0.927822234952326	-0.346984250676971	0.136922715829814	0.288493355814178	-0.434791952532087	0.853069482319236	9.11853912232132	-30.2326447015602	105.884229950822
2077	1656054026748	5.06795976096646	1.33968565531655	8.60269019762888	0.0385943324095627	0.00548155476812072	0.261226118496891	0.00212912655149152	-0.0064439445717698	-0.00626705034455624	0.194580078125	-0.313720703125	0.6455078125	0	0	0	-0.253633483566791	0.095488605122427	-0.78049838667351	-0.563359787973544	-0.236591610616356	0.830964596143893	0.503509930131845	-0.927841026376432	-0.347015351172354	0.136716406562841	0.288332168789205	-0.434831215537873	0.853103964611095	9.10466815374443	-30.2324880712799	105.892673073477
2078	1656054026748	5.1136406139847	1.36496578243769	8.58444766119537	-0.00082326070459135	0.0426287513530609	0.27212179006119	0.000121541457955784	-0.00659021010319427	-0.00902214865049913	0.19482421875	-0.3125	0.642578125	0	0	0	-0.253632845370933	0.0954922514515424	-0.780481058407122	-0.563383463663479	-0.236538905239172	0.830980301125223	0.503508773955418	-0.927860186911348	-0.346960605566514	0.136725314882641	0.288313752452243	-0.434844888812957	0.853103219323521	9.10525928957766	-30.232411399042	105.889026302766
2079	1656054026750	5.09194395228803	1.34088022866844	8.59405300703794	0.0303649492388614	0.0279367056831797	0.266097165743787	0.000121568936776407	-0.00659031452271184	-0.00902215642770654	0.194091796875	-0.318359375	0.64306640625	0	0	0	-0.253684643970698	0.0955203917535001	-0.780416817063878	-0.563444360888103	-0.236349107193713	0.830978796285913	0.503600376937855	-0.927907022581626	-0.346812613885309	0.13678292398447	0.288318672604526	-0.434965804372315	0.853039912345436	9.10969615360544	-30.2384862676919	105.876947242979
2080	1656054026750	5.10650692942324	1.36371147067124	8.5608447050895	-0.00380234641457005	0.0467172384915817	0.248226467277355	0.0023203113306727	-0.00328361082426604	-0.00488963097051649	0.19140625	-0.312744140625	0.648193359375	0	0	0	-0.253675735461024	0.0955114340657825	-0.780416153734355	-0.563450809025493	-0.236343614093652	0.830994359833222	0.503577273119552	-0.92791009295952	-0.34680150354243	0.136790264728761	0.288313293937352	-0.434944928773843	0.853052374402013	9.11004598960945	-30.2369540478804	105.876314479335
2081	1656054026750	5.09356013696518	1.31757118042036	8.59548659465035	0.0519512140898847	0.036693847521926	0.264945944168229	0.00363576626825969	-0.00643631441245207	-0.00651955612925565	0.18798828125	-0.316162109375	0.6396484375	0	0	0	-0.253683972185602	0.0955267382276649	-0.780404372996867	-0.563460823080971	-0.236312686218099	0.830987375882551	0.503603311601719	-0.927921785496664	-0.346773086272996	0.136782991038305	0.288301013409717	-0.434980928042292	0.853038169079436	9.10971884888191	-30.2386808930803	105.874468303957
2082	1656054026751	5.08509241354371	1.34021095670734	8.57019604925241	0.0257608834127732	0.032916410335035	0.24220415655097	-0.00166550821336699	-0.00512250979614797	-0.0103362872077496	0.195556640625	-0.3193359375	0.654052734375	0	0	0	-0.253673603822995	0.0955316997940994	-0.780384110300477	-0.563492712861877	-0.236251330550033	0.831013777642824	0.503588532614814	-0.927949259907247	-0.346699313772025	0.136783613300716	0.28826286588968	-0.434989295497958	0.853046794115808	9.10966903345774	-30.2377007622351	105.870075509675
2083	1656054026753	5.09331826289379	1.34284273609438	8.59293212705315	0.0268935380448634	0.028943554517873	0.26610418533431	0.0020995907538716	-0.00489856735605854	-0.00633031264741302	0.18994140625	-0.319091796875	0.6416015625	0	0	0	-0.253637126707045	0.0955563104795416	-0.780403150199064	-0.563478591113016	-0.236320170626169	0.831007679091142	0.503566295781174	-0.927954191206171	-0.346721737769655	0.13669329018241	0.288190554977294	-0.434983073060947	0.853074398966664	9.10346470209118	-30.2362260512459	105.874577425274
2084	1656054026753	5.0627308083867	1.340789976166	8.57760350744227	0.0315928851383972	0.0109608976388604	0.237343714940165	-0.00113376847333425	-0.00652945789544881	-0.00726583253465065	0.19384765625	-0.31884765625	0.644287109375	0	0	0	-0.253631999725358	0.0955672507484499	-0.780390102113116	-0.563497114299248	-0.236283621783473	0.831017315305704	0.503567544366179	-0.92797296696804	-0.346675805521607	0.136682326737868	0.288160064293123	-0.435001273018878	0.853075418599398	9.10273608830968	-30.236308854806	105.872071217729
2085	1656054026754	5.09309681893448	1.36800398937829	8.59037738884529	0.00110944586300277	0.0204689460625109	0.267254778523343	0.00357574077717526	-0.00334506434752691	-0.00664606594847494	0.2001953125	-0.31591796875	0.6484375	0	0	0	-0.253584762845095	0.0956327486428926	-0.780409860170856	-0.56347989812229	-0.236370344929781	0.830988521235745	0.503574361551704	-0.927992552775075	-0.346689563598197	0.136514352674329	0.288025835701897	-0.435045312658947	0.853098290879605	9.0914966594638	-30.2367609575985	105.878125524087
2086	1656054026755	5.09430350496529	1.34424797140496	8.59212833161986	0.0234529523068091	0.0292018503257357	0.266112033628422	9.15497032387238E-05	-0.00504572471218296	-0.00908503619368528	0.18994140625	-0.312744140625	0.652099609375	0	0	0	-0.253577797985147	0.0956330279317539	-0.780394186508127	-0.563504692085103	-0.236321524734154	0.831010746271361	0.50356059866598	-0.928012396821706	-0.346633571933354	0.136521639874257	0.288001958834584	-0.435047476018698	0.853105248675217	9.09190094775532	-30.2358482313029	105.874608163015
2087	1656054026756	5.09569783566568	1.32043153372457	8.59378046119033	0.0469212604112628	0.0377930918794965	0.264966556358681	-9.87701738417379E-05	-0.00820647102364827	-0.0104624506065036	0.19189453125	-0.31640625	0.643310546875	0	0	0	-0.253629198406675	0.0956200323000533	-0.780344381997406	-0.563552734554284	-0.236161090183953	0.831026356449655	0.503610101536037	-0.928034485025187	-0.346530249598652	0.136633746626272	0.288062378812581	-0.4350999666733	0.853058078277048	9.09973677456903	-30.239131199487	105.864090769806
2088	1656054026756	5.06323064953173	1.36710557448381	8.57443959598059	0.00580476429290801	0.00309333163461007	0.238494327418881	9.14948071954333E-05	-0.00504592016917813	-0.00908505807229125	0.193359375	-0.321044921875	0.64306640625	0	0	0	-0.253622606248446	0.0956200391038287	-0.780328591929616	-0.563577563728961	-0.236111806522149	0.831048566441304	0.503596559794346	-0.92805418054967	-0.346474275566222	0.136641920123887	0.288039325067131	-0.435102122020468	0.853064763443056	9.10020189450144	-30.2382331172869	105.860544160467
