// Start Time : 02/09/2022 06:55:39																																
// Update Rate : 100Hz																																
// Filter Profile : 46.1 human																																
// Firmware Version : 4.3.5																																
PacketCounter	Time_Of_Arrival	Acc_X	Acc_Y	Acc_Z	FreeAcc_X	FreeAcc_Y	FreeAcc_Z	Gyr_X	Gyr_Y	Gyr_Z	Mag_X	Mag_Y	Mag_Z	VelInc_X	VelInc_Y	VelInc_Z	OriInc_q0	OriInc_q1	OriInc_q2	OriInc_q3	Mat[1][1]	Mat[2][1]	Mat[3][1]	Mat[1][2]	Mat[2][2]	Mat[3][2]	Mat[1][3]	Mat[2][3]	Mat[3][3]	Euler_X	Euler_Y	Euler_Z
65051	1662101772818	7.19619004858895	0.625071846398397	6.57320801928506	1.59594559789866E-14	-1.26851654180804E-15	-0.0462689370959577	0.0137849207514055	0.0101131226448856	-0.0291259605619373	0.399169921875	-0.40478515625	0.4619140625	0	0	0	-0.323735769582424	0.242261573199253	-0.68223346217795	-0.609148573607939	-0.0482663335285788	0.67430560702679	0.736873333334801	-0.988020554386425	-0.140494690844874	0.0638484608611974	0.14658016631744	-0.72496426820681	0.673008963287797	5.41943905875549	-47.4657482495227	94.094209822302
65052	1662101772819	7.11053733168606	0.696653634320293	6.61042427581499	-0.0426178087879628	-0.0229590112322166	-0.0792177045969975	0.0330215734193267	0.0167490674271802	-0.026094772514499	0.39892578125	-0.3935546875	0.463623046875	0	0	0	-0.32180224933497	0.23953583597766	-0.681759112464927	-0.611776436434469	-0.044345808292978	0.680001979033151	0.73186799205718	-0.988334662288925	-0.136704350212037	0.0671305887901404	0.145698471526123	-0.720353544548835	0.67813179121086	5.65348599543151	-47.0432238551587	93.7312168744608
65053	1662101772820	7.16994535246925	0.680726092279546	6.57437011993961	-0.031745504147845	0.0472066941086508	-0.0612459262872225	0.010787840320449	0.00767425522391363	-0.0231419406114761	0.406494140625	-0.397705078125	0.467529296875	0	0	0	-0.321836801861411	0.239438350022119	-0.681713586272368	-0.611847150682224	-0.0441282743393104	0.680088885056034	0.731800385232916	-0.988329176312401	-0.136624681481443	0.0673731078377336	0.145801696332571	-0.720286612976601	0.678180699012593	5.67337051474475	-47.0375397996493	93.7124919471471
65054	1662101772821	7.10231248862577	0.699032146707774	6.63506408153842	-0.035658512332995	-0.0438020233853324	-0.0683365164840932	0.015100215253206	0.011268962299274	-0.0146915251208301	0.40673828125	-0.393310546875	0.4716796875	0	0	0	-0.321872847469146	0.239321318940859	-0.681699150916542	-0.611890058754167	-0.0439768521198517	0.680187798238845	0.731717565461307	-0.988311935789109	-0.136631724596459	0.0676113112621126	0.145964221829918	-0.720191870934955	0.678246352725024	5.69275017175524	-47.0305775380267	93.6992517765404
65055	1662101772822	7.1552440515131	0.702646297863698	6.62519157444323	-0.0415897058659781	-0.000183765300441584	-0.0360487365702706	0.00171151138422037	0.00464986680647601	-0.0125649647593667	0.40087890625	-0.394775390625	0.454833984375	0	0	0	-0.321877269308626	0.23928103705982	-0.681670238800818	-0.611935694611155	-0.0438594583263725	0.680238448540359	0.731677525309289	-0.988314955764962	-0.136558581928682	0.0677148574016819	0.145979094827375	-0.720157904093981	0.678279217612	5.70113674175664	-47.0272118798446	93.6891301843733
65056	1662101772823	7.15521696449725	0.679518635632337	6.6224596604763	-0.0180891508280351	0.00556222681798861	-0.0394847624213508	0.0087727237348397	0.00479554724819974	-0.00832378444502265	0.3955078125	-0.402587890625	0.4638671875	0	0	0	-0.321898121605868	0.239222103657887	-0.681662770116092	-0.611956086876963	-0.0437826940816974	0.680285071111753	0.731638775435957	-0.988305654368065	-0.13656506571146	0.0678374260370748	0.146065085640133	-0.720112633446812	0.678308768856218	5.71114085730589	-47.0239548807733	93.6824394387953
65057	1662101772824	7.12527700298012	0.653506927363666	6.63650766917798	0.0116950930760477	-0.0209160568475805	-0.0536247304658364	-0.000360095233966503	0.00220543947355656	-0.00536425471478734	0.39697265625	-0.403076171875	0.464599609375	0	0	0	-0.321895919093803	0.239207948982162	-0.681649475292362	-0.611977587210636	-0.0437329000452096	0.680308277241318	0.731620175617504	-0.988308527609944	-0.136525979791193	0.0678742299810459	0.146060561778671	-0.720098121618857	0.678325148829007	5.71408175989693	-47.022391601948	93.6781377806808
65058	1662101772825	7.14508966044032	0.614608169611818	6.5607856728461	0.0386487146537141	0.0530051465406026	-0.0931372310131486	0.00202893733691516	0.00818328523185669	-0.00684307597568566	0.4091796875	-0.398193359375	0.458984375	0	0	0	-0.321882693963171	0.239163752553444	-0.681643963677356	-0.612007955482435	-0.0436755875064437	0.680377711213756	0.731559029155883	-0.988308403094731	-0.136493923781532	0.0679404823581979	0.146078552252923	-0.720038595392117	0.678384461583133	5.71912557610351	-47.0172526824868	93.6729568942727
65059	1662101772827	7.13104602869898	0.657717078607101	6.61382491085639	0.00504050895853484	-8.95109539234182E-05	-0.0645047772178717	0.00422785831090258	0.0006297315833012	-0.00702278072907426	0.401611328125	-0.398193359375	0.4599609375	0	0	0	-0.321901882822663	0.239136113307558	-0.681628542360534	-0.612025838822867	-0.043607100896783	0.680391830558434	0.731549983022843	-0.988305291056821	-0.136476583850643	0.0680205390272119	0.14612006166325	-0.720028540385589	0.678386194294759	5.72580534369771	-47.0164924621902	93.6671372567971
65060	1662101772828	7.16087966279171	0.660878294028185	6.5971160238514	-0.00126742011457473	0.0321094538578481	-0.0538009067110039	0.00361894586958405	0.00418310321642604	-0.00251642495239651	0.4111328125	-0.391357421875	0.455322265625	0	0	0	-0.32190205465095	0.239107608163706	-0.681631778699889	-0.612033281118073	-0.0435886600306852	0.680424207362939	0.731520968087207	-0.988301128765225	-0.136485629044155	0.0680628529067346	0.146153712228297	-0.719996229919947	0.678413237859456	5.72911666578425	-47.0140541736662	93.6654167567171
65061	1662101772830	7.13040802971325	0.682693157733291	6.61707289921861	-0.0184441852251468	-0.00584154621519676	-0.0610686216083121	-0.00212731155214408	-0.00201425227832196	-0.000416611420707359	0.40771484375	-0.39697265625	0.46337890625	0	0	0	-0.321902907679496	0.239120351756575	-0.681624718464983	-0.612035716752569	-0.0435815988933101	0.680410273212396	0.731534349395116	-0.988304419275538	-0.136467477589962	0.0680514687620665	0.146133565885268	-0.72001283854336	0.678399950806594	5.72827623571212	-47.015178666533	93.664899444076
65062	1662101772830	7.15430408061769	0.657967482924087	6.6205366756986	0.00541946502188367	0.01126359945565	-0.0429208489105033	-0.000940213959576302	0.00193138546402922	-0.00109647449022414	0.403564453125	-0.398681640625	0.45556640625	0	0	0	-0.321896217580774	0.239116767681107	-0.681622748563691	-0.612042829515558	-0.0435727998915614	0.680423065232808	0.731522975311644	-0.988306197539564	-0.136453492504657	0.0680536868080611	0.146124163007007	-0.720003400465909	0.678411993041861	5.72836069194462	-47.0142228484607	93.6640928283079
65063	1662101772831	7.12386920180487	0.679355679150538	6.64049655014289	-0.0117573075502748	-0.0266873749999763	-0.050188680761968	-0.00578945994304971	-0.000457115780825545	0.00245736715487525	0.406494140625	-0.406005859375	0.4599609375	0	0	0	-0.32187712038935	0.239141852657102	-0.681622610762829	-0.612043225740187	-0.0435964183908131	0.680416421061775	0.731527748108695	-0.988313584653144	-0.136428528266551	0.0679964342085326	0.146067144469746	-0.720014410011708	0.678412587355177	5.72356853276607	-47.0146239271053	93.6661092244015
65064	1662101772832	7.13808245924695	0.611895731273056	6.58465830073011	0.0453471745973046	0.0321235284342033	-0.0822570464277721	-0.0115645627594291	-0.00282814841796429	0.00479542867234367	0.40283203125	-0.402587890625	0.457763671875	0	0	0	-0.321846825742464	0.239197850684609	-0.681618394813079	-0.612041969835243	-0.0436384958393903	0.680387992140145	0.731551680903255	-0.988328268009189	-0.136378030776118	0.0678842203725132	0.145955186049798	-0.720050840478039	0.678398017974727	5.71430745046561	-47.016635148096	93.6697908475635
65065	1662101772833	7.15484638726051	0.631689884708233	6.61751266864086	0.0289158190150785	0.0169796209792804	-0.0463570188393962	-0.00424226674428775	0.0012828498917929	0.0071420687608917	0.40380859375	-0.402099609375	0.464599609375	0	0	0	-0.321820929344385	0.239219876002987	-0.681637241124575	-0.612025989540566	-0.0437109551256143	0.68038748838808	0.731547823485906	-0.988331339639799	-0.136396078104012	0.0678031928720448	0.145912698171907	-0.720047898075402	0.678410280722064	5.70742935024971	-47.0163109802987	93.675870351577
65066	1662101772834	7.13746540418942	0.658454397289162	6.59079040328105	-0.00167389876816804	0.0205810602155442	-0.0753845398597406	-0.0125048516277049	-0.000897220524037986	0.00369896900847339	0.406982421875	-0.3974609375	0.465087890625	0	0	0	-0.32178138346282	0.239275520005743	-0.681632296846209	-0.612030537374481	-0.0437507251557149	0.680370746148707	0.731561017163572	-0.988348377573642	-0.136331693694169	0.0676842215145352	0.145785316804878	-0.720075910636879	0.67840793356547	5.69750029577084	-47.0174197524284	93.6792959153972
65067	1662101772835	7.15556672859565	0.581091837106405	6.61164003814325	0.0758165380824523	0.028382506110803	-0.0532287163044707	-0.0109718585297008	0.00275542931919128	0.00850328681500118	0.4033203125	-0.406982421875	0.459716796875	0	0	0	-0.321728243004675	0.239318162233961	-0.681649623265752	-0.612022504471644	-0.0438387833467626	0.680378995497236	0.731548073308138	-0.988360642915796	-0.136310542490432	0.0675475798311032	0.145675669244218	-0.720072120340828	0.678435509756169	5.68584395879407	-47.0163319746805	93.6866363481499
65068	1662101772835	7.1374976209706	0.63226723955748	6.58830003644103	0.0216640453356823	0.0261941106072446	-0.0788198873502086	-0.0012726083889588	0.00753445909851956	0.00139679729044141	0.3984375	-0.39892578125	0.4609375	0	0	0	-0.321695885003478	0.239310489788982	-0.681665336346043	-0.61202501278381	-0.0438742825976139	0.680422072776369	0.731505878448871	-0.988362871989499	-0.13631174640787	0.0675125252372186	0.145649856159264	-0.720031187289791	0.678484494097573	5.68250494175688	-47.0127861503388	93.6893804830149
65069	1662101772837	7.15495474796953	0.580055562522695	6.61239327947188	0.0756736050971765	0.0282588284759109	-0.0532272480774143	-0.00643938869385658	0.00161089251654588	-0.000773010705723063	0.40234375	-0.40380859375	0.461181640625	0	0	0	-0.32167161408333	0.239326264312715	-0.681657856450925	-0.61203993222818	-0.0438689881022994	0.680434725062053	0.731494427055059	-0.988372587998071	-0.13626012113649	0.0674744891189559	0.145585504693549	-0.720029002414206	0.678500623806292	5.67919026094464	-47.0118238786819	93.6888680950636
65070	1662101772837	7.13074952813961	0.604610630683247	6.60929770102675	0.0515616929394963	0.0109326587925466	-0.0713742692348429	0.00115932096534047	0.00777240783386923	-0.000439304039986525	0.399169921875	-0.406982421875	0.45849609375	0	0	0	-0.321645997914235	0.23931248411041	-0.681672397409601	-0.61204258804801	-0.0438954448824982	0.680477271092874	0.731453261285068	-0.988372882152983	-0.136266810728796	0.0674566684502458	0.145575532776533	-0.719987527544608	0.678546773949321	5.67731649702119	-47.0083648225403	93.6908565092599
65071	1662101772838	7.15995259873382	0.631593631433794	6.59597639605758	0.0217768237678805	0.0374103211535895	-0.0572343969798599	0.00146381715259063	0.00599635458030721	-0.0026928971665711	0.40087890625	-0.400390625	0.466064453125	0	0	0	-0.32163326096157	0.239284813768439	-0.681675552072868	-0.612056586476431	-0.0438775607880907	0.680524113070462	0.731410754083469	-0.988371932874162	-0.136259025701245	0.0674862965463361	0.145587368840432	-0.719944726659352	0.67858964668606	5.67943727010144	-47.0047932843341	93.6891036713764
65072	1662101772839	7.12294617919377	0.626346343210923	6.63664407626204	0.0344071448508099	-0.0158600337033606	-0.0570591836172589	0.00359130579399117	0.00801021768098964	-0.0022755110933357	0.404296875	-0.4033203125	0.4638671875	0	0	0	-0.321615125423017	0.239263922870206	-0.681688534136276	-0.612059824477176	-0.0438929647202094	0.680566535976897	0.73137035608266	-0.988370122229314	-0.136271092947456	0.0674884487250633	0.145595017540025	-0.719902340137405	0.678632972623794	5.67925697354669	-47.0013991865944	93.6901658089193
65073	1662101772839	7.12896218706281	0.62973130397961	6.61379351217193	0.027731557580084	0.00495174847934964	-0.0679382935943931	0.000538211125645512	0.00601415185413656	-0.00390881068723119	0.404052734375	-0.39990234375	0.46337890625	0	0	0	-0.321600946196464	0.23923739846847	-0.681686889235057	-0.612079474925118	-0.0438630955618611	0.68061515902658	0.731326899649502	-0.988371053878742	-0.13624836709886	0.0675206806653875	0.145597694701372	-0.719860672468025	0.678676597159154	5.68158875748883	-46.9977483708497	93.6873988637738
65074	1662101772840	7.15228702907016	0.605571847479531	6.61781209004083	0.0511647001285122	0.021864779850773	-0.0497847277464789	0.0041579442107879	0.0101973472966037	-0.00642356075915659	0.3994140625	-0.404296875	0.455810546875	0	0	0	-0.321579057581594	0.239202707022733	-0.681692676132909	-0.612098088532128	-0.0438456794805001	0.680680405863936	0.731267216182841	-0.988370730245281	-0.136235989936625	0.0675503859381872	0.14560513722154	-0.719801319892439	0.678737949355862	5.68356154190578	-46.9927347132919	93.685586455962
65075	1662101772841	7.15834843816592	0.609240407392788	6.59489507443758	0.044489912126656	0.0426767010365087	-0.0606636438682493	0.00577576201207192	0.00237116578282789	-0.00233626557479927	0.40478515625	-0.402587890625	0.465087890625	0	0	0	-0.321591456907673	0.239172002954298	-0.681696239301051	-0.612099603961344	-0.0438260193487319	0.680700650433023	0.731249550104548	-0.988363341959419	-0.13626165566639	0.0676066969009877	0.145661196956679	-0.719777316741167	0.678751375693659	5.68815660022047	-46.9912507800087	93.6838291521564
65076	1662101772842	7.15123805107417	0.63094535237379	6.62148285012927	0.0271339131367269	0.0158190257368645	-0.0463499567574441	0.00176869078238202	0.00421931818140754	-0.00494658436869696	0.3994140625	-0.3994140625	0.468505859375	0	0	0	-0.321578866559713	0.239173170859452	-0.681695238274269	-0.612106877136169	-0.0438244070895544	0.680714612524368	0.731236649545856	-0.98836676131027	-0.136242730607285	0.0675948481300164	0.145638478707717	-0.719767694921403	0.678766453846411	5.68704072095575	-46.9901671717358	93.6836186576744
65077	1662101772845	7.15778703009426	0.610366483073164	6.59540028377489	0.0439404723633399	0.0423678422720314	-0.0606598060029224	0.00420101916943971	0.0044571163517715	-0.00678242039984744	0.39794921875	-0.4013671875	0.453369140625	0	0	0	-0.321584644975647	0.239134323733534	-0.681686661222179	-0.61212857084125	-0.0437638577514736	0.680755910192272	0.73120182951973	-0.988363616589631	-0.13622677594471	0.0676729408077936	0.145678022215344	-0.719731655725939	0.678796182656786	5.69332012617338	-46.9872425035488	93.6783206806435
65078	1662101772845	7.12049872507352	0.629532495549524	6.63896854387797	0.0328361287301364	-0.0167514423745177	-0.0570552592108839	0.000537934199008249	0.00601287674545068	-0.00390930548826597	0.405517578125	-0.4033203125	0.459228515625	0	0	0	-0.32156070370773	0.239139009002759	-0.681690918383565	-0.612134576704779	-0.0437799476669004	0.680777747498639	0.731180534952184	-0.988368579574225	-0.136207588751277	0.0676390691611912	0.145639510754167	-0.719714631834897	0.678822496408336	5.69027007611514	-46.9854539696078	93.6795516031916
65079	1662101772846	7.15057562743307	0.608509745944448	6.61939180782786	0.0500109051552205	0.0211985200625483	-0.0497772797978584	0.00450643320023623	0.00268056466673264	-0.00903565793559897	0.401123046875	-0.405029296875	0.46826171875	0	0	0	-0.321576153905889	0.239100917140571	-0.681672968504466	-0.61216132895826	-0.0436945691343056	0.680809353970361	0.731156213250374	-0.988365967288103	-0.136178517501189	0.0677357075539229	0.145682872482731	-0.719690235391337	0.678839057323268	5.69820840350543	-46.9834112594054	93.6722254680616
65080	1662101772847	7.13394185120704	0.56453812122892	6.5837809094376	0.0891757804780002	0.0417063523474247	-0.0890918939154304	0.00661873573008698	0.00660711448093847	-0.00849869368129518	0.401123046875	-0.40087890625	0.456787109375	0	0	0	-0.321569308683193	0.239081745691496	-0.681672997816865	-0.612172379838792	-0.0436763141510477	0.680840059329217	0.731128711783889	-0.988365466052357	-0.136169792479235	0.0677605573417879	0.145691746839986	-0.719662838577032	0.678866197180241	5.7000587195847	-46.9811015838796	93.6705303658314
65081	1662101772847	7.15616305983961	0.613702372553771	6.59685281856766	0.0425780532389168	0.0416316263603258	-0.0606505917060307	0.00996178498552878	0.00873937954428256	-0.0089989813475908	0.406982421875	-0.412353515625	0.461669921875	0	0	0	-0.321580758659392	0.239006581063032	-0.68167141745707	-0.61219747507702	-0.0436001343387419	0.680915205873109	0.731063274071695	-0.988354876524458	-0.136180211435763	0.0678939471796549	0.145786372257378	-0.719589766758876	0.67892333973722	5.71072793139626	-46.9756062823422	93.6637424403559
65082	1662101772848	7.13198052862516	0.61557473011499	6.59092437897929	0.0412491023801149	0.0296983920007206	-0.0822311069934862	0.0074766926115071	0.00892761124991345	-0.0147811737050432	0.40380859375	-0.405517578125	0.460693359375	0	0	0	-0.321573652800138	0.238979480548072	-0.681658121549569	-0.612226591244829	-0.0435379735950265	0.680959447293046	0.731025769721963	-0.988357465309538	-0.136134817699421	0.0679472749773719	0.145787398708338	-0.719556490174535	0.6789583874035	5.71489071810966	-46.9724570119055	93.6582961900462
65083	1662101772848	7.14795186441383	0.63776903777249	6.6243767864622	0.0248007141092857	0.0145439881029796	-0.0463417711022913	0.00903611978396697	0.00875518239983368	-0.0102151432454186	0.3974609375	-0.40771484375	0.462158203125	0	0	0	-0.32158364776354	0.238905590915901	-0.681651697441434	-0.61225733110795	-0.04344983599133	0.681036235245714	0.730959477696726	-0.988348760837072	-0.136130158267387	0.0680830886631822	0.145872679772976	-0.719484694967475	0.679016152240438	5.72575395853089	-46.9668908707304	93.6504999089921
65084	1662101772849	7.1301703101094	0.642547497467669	6.59523584141365	0.0167469780462677	0.0234592145561847	-0.0788032102179024	0.00900587063393853	0.0125795503639109	-0.00997706179424125	0.400634765625	-0.39697265625	0.458740234375	0	0	0	-0.321560120779457	0.238870143424772	-0.681662500510985	-0.612271491008393	-0.0434454200453199	0.681102806764189	0.730897709734427	-0.988347255445293	-0.136129351757176	0.0681065506682587	0.14588419424613	-0.719421827725651	0.67908028660906	5.72717663810158	-46.9617051090163	93.64977409792
65085	1662101772849	7.12296566305491	0.64069057917865	6.61919963654864	0.0234135246383014	0.00264341664100228	-0.0679260624861246	0.00754379436320815	0.00658593536614306	-0.00728262480080343	0.39404296875	-0.405029296875	0.458251953125	0	0	0	-0.321569355104729	0.238812756848913	-0.68165981804346	-0.612292013249159	-0.0433832807376406	0.681159996260397	0.730848103539289	-0.988339453103145	-0.136133915355027	0.0682105749124427	0.145955528816878	-0.71936681643279	0.679123234047502	5.73550558557756	-46.9575407587639	93.6442627932912
65086	1662101772850	7.14601687510242	0.641140202464971	6.62613876582139	0.0229427398373017	0.0135884485127635	-0.0463358534471201	0.00418588973000801	0.00636529112671678	-0.00666374633295028	0.40771484375	-0.39794921875	0.459228515625	0	0	0	-0.321554069700167	0.238809415065696	-0.68166425332641	-0.612296406385166	-0.0433921819741442	0.681180866751795	0.730828122963804	-0.988341423940158	-0.136126348007584	0.068197119455726	0.145939536341127	-0.719348485888023	0.679146087070481	5.7341900466668	-46.9558635171917	93.6448971181246
65087	1662101772850	7.12234515362143	0.618184963672097	6.61709950745961	0.0460609433192176	0.00792911616820256	-0.0713437985534107	0.00446185202487556	0.0084130857475069	-0.00867876459543743	0.39697265625	-0.3984375	0.4619140625	0	0	0	-0.32154926654641	0.238754692034703	-0.681656584569327	-0.612328806221102	-0.0433190045106119	0.681253133147634	0.730765100716189	-0.988338717580725	-0.136099260206508	0.0682903412067136	0.145979598503002	-0.719285172895823	0.67920453242976	5.74148523694572	-46.9505735467929	93.6383818592258
65088	1662101772850	7.15186058659515	0.621529433818183	6.60078469771387	0.0389256796344809	0.03958607755929	-0.0606268112227948	0.00296939744923422	0.00624587256022339	-0.00574626221580115	0.404541015625	-0.40185546875	0.46142578125	0	0	0	-0.321532969860362	0.238760917472912	-0.681660220965362	-0.612330888273426	-0.0433348651181059	0.68126420344546	0.73075383992766	-0.98834223097206	-0.136088215107541	0.0682614985626203	0.145951101202994	-0.719276777612532	0.679219547160538	5.7389504726801	-46.9496283921791	93.6396514332029
65089	1662101772851	7.14495964249275	0.619052239274846	6.62447656835525	0.0455930112864721	0.0187692839090157	-0.0497506761275126	0.00176841601343942	0.00421454257152076	-0.00494759189236239	0.3994140625	-0.40869140625	0.45947265625	0	0	0	-0.321529901323029	0.238734146038299	-0.681653937347277	-0.612349932448369	-0.0432921655713615	0.681301152139276	0.73072192282279	-0.988341817811803	-0.136067135491683	0.0683094854580829	0.145966570024105	-0.719245767963067	0.679249060141135	5.74271005745078	-46.9469495764261	93.6358781027411
65090	1662101772852	7.14496953193082	0.595440951255349	6.62181601306239	0.0678970690451515	0.0238805949973454	-0.0531583530601356	0.00418579284850205	0.00636390800685262	-0.0066637519110336	0.404541015625	-0.3984375	0.4638671875	0	0	0	-0.321507045046182	0.238749148809286	-0.681659584925209	-0.612349797263056	-0.0433218915551333	0.681309150580812	0.730712703493609	-0.988347283944671	-0.136053139469472	0.0682582563481786	0.145920732013236	-0.719240839062517	0.679264127857028	5.73830558833649	-46.9461758192866	93.6383253268651
65091	1662101772853	7.12757324453827	0.599640527792702	6.59232253362608	0.0608707105676548	0.0333008778869495	-0.0856235063575053	0.00420138249903594	0.00445112744214473	-0.00678250462144938	0.39990234375	-0.40380859375	0.46630859375	0	0	0	-0.321512755945072	0.238710532447124	-0.681650963244701	-0.612371450813137	-0.0432615079872354	0.681350216300279	0.730677989728877	-0.98834414094104	-0.136036975855648	0.0683359368675536	0.145959929412791	-0.719204994384503	0.67929365892683	5.7445442713708	-46.9432624730158	93.633049300521
65092	1662101772854	7.13684550189912	0.64245005385724	6.65190316308356	0.0264481158170458	-0.00900457053766296	-0.0354515153720332	0.00632706959105553	0.00646494881026781	-0.00636480942077084	0.3994140625	-0.406982421875	0.4609375	0	0	0	-0.3214962649199	0.238715278181622	-0.681661024575517	-0.612367059189078	-0.043293472925347	0.681361373336834	0.730665692452168	-0.98834565459566	-0.136043201565582	0.068301642364316	0.145940200917837	-0.719193246792772	0.679310335210448	5.74154061913318	-46.9422304643763	93.6356671060503
65093	1662101772855	7.1434252206691	0.622029320494612	6.6258523548357	0.043264420227742	0.0175497956846571	-0.0497378109849311	0.000226062352552901	0.00246943228580879	-0.00963322656543067	0.39794921875	-0.40625	0.4638671875	0	0	0	-0.321500013086425	0.238691525806015	-0.681635765873859	-0.612402465520333	-0.0432019236200907	0.681392189875478	0.730642373102069	-0.988349504556488	-0.135979151466027	0.0683734393571269	0.145941257492415	-0.719176163358658	0.679328194187649	5.74738551188273	-46.940273518984	93.6278359606805
65094	1662101772855	7.14361181344449	0.598543426870354	6.62300104555756	0.0653288298992639	0.0228048114756978	-0.053138250709118	0.00421710652168774	0.0025379328766055	-0.00690114975321864	0.3955078125	-0.406494140625	0.46240234375	0	0	0	-0.321477612864955	0.23872014338835	-0.681640669869473	-0.612397611643932	-0.0432426193589164	0.681383872776338	0.730647722087258	-0.988356600133403	-0.135963716786908	0.0683015277298392	0.145881139437969	-0.719186961532124	0.679329675134592	5.74136868279578	-46.9407223961805	93.6312884081147
65095	1662101772856	7.14952823287499	0.626540053607355	6.60283733785775	0.035173569026555	0.0378847914990513	-0.0606057988304407	0.00514191947404595	0.00252118296940172	-0.00568466956543708	0.403076171875	-0.410400390625	0.468017578125	0	0	0	-0.321491304513744	0.238685919200924	-0.681633594410361	-0.612411639396633	-0.0431906501071584	0.681409798975404	0.73062661709222	-0.988351589107273	-0.135962031813476	0.0683773516179143	0.145930476777298	-0.719162715778183	0.679344746194522	5.74757306633966	-46.9389513249029	93.6267983300108
65096	1662101772857	7.11920954772223	0.624698253225508	6.61986151465734	0.0398653485120763	0.00517310957706496	-0.0713146201627275	0.00420110774005754	0.00444964469954859	-0.00678267729500508	0.395751953125	-0.400634765625	0.4619140625	0	0	0	-0.321455051184221	0.238716820111119	-0.681643786088486	-0.612407281758748	-0.0432479426340208	0.681413781077675	0.730619514121646	-0.988360691587092	-0.135943202089793	0.0682831540796024	0.145851838464277	-0.719162502333791	0.679361859728371	5.73956441568078	-46.9383552769497	93.6315752567069
65097	1662101772858	7.14892942025688	0.627983532748779	6.60334855389593	0.0335362152256365	0.0373847397881414	-0.0605981009444054	0.00298453412535977	0.00433092835313435	-0.00586538046656456	0.397705078125	-0.395751953125	0.4677734375	0	0	0	-0.321455916905629	0.238684168255299	-0.681636689233085	-0.612427453011372	-0.0431974165687303	0.681453166617515	0.730585768345338	-0.988358919246973	-0.13592496524456	0.0683450844481104	0.145878819390417	-0.719128629335688	0.679391922621275	5.74448268973677	-46.9355235804229	93.627134776296
65098	1662101772858	7.13595382468052	0.598364604248546	6.64729254766793	0.0694239769021293	0.00116245515060066	-0.0422444696270716	0.00205974746921336	0.0043469593699449	-0.00708195474039055	0.39892578125	-0.4052734375	0.462890625	0	0	0	-0.321435319948918	0.238690398576173	-0.681639478641308	-0.612432730897436	-0.043210970429692	0.681469605513467	0.730569633091771	-0.988363704053735	-0.135906087506113	0.0683134239221161	0.145842382535758	-0.719116619290711	0.67941245743377	5.74166698732284	-46.9341696819247	93.6281825167003
65099	1662101772860	7.14192934697954	0.626257326861933	6.6270665260771	0.0392681844498526	0.0162515406120157	-0.0497186721920979	0.00210825677624327	-0.00139001054017187	-0.00743726041898611	0.403076171875	-0.39892578125	0.4599609375	0	0	0	-0.321454871493551	0.23867533887937	-0.681617481567632	-0.612452820244369	-0.0431366171355675	0.681470397051626	0.730573288729063	-0.988363798604216	-0.135871251171073	0.0683813184565174	0.14586375105126	-0.719122452053547	0.679401696407766	5.74742568605875	-46.9344764210428	93.6219519253987
65100	1662101772861	7.1353888105567	0.623946549369117	6.65034356943965	0.0446526731355113	-0.00523000338326825	-0.0388380123963135	0.00608282640331042	0.000592008835875428	-0.00458643181458496	0.39306640625	-0.40380859375	0.458251953125	0	0	0	-0.321453420842925	0.238708355142798	-0.681625017353548	-0.612432326980849	-0.0431886861944089	0.681431156323509	0.730606813940581	-0.98836562570127	-0.135889932107685	0.0683177596522794	0.145835960301082	-0.719156106518866	0.679372038826803	5.74236829928393	-46.9372895538997	93.6265204945233
65101	1662101772861	7.11880089823464	0.603842808801168	6.61741865100069	0.0611282206399884	0.00994875964788118	-0.0747026477278823	0.00210828078738359	-0.00139059771123935	-0.00743724181845531	0.3955078125	-0.403564453125	0.457275390625	0	0	0	-0.32147300345649	0.238693338150074	-0.681602980780812	-0.612452426693005	-0.0431142661730262	0.681431870600468	0.730610543163941	-0.988365727881107	-0.135855030721248	0.0683856606152067	0.145857286422074	-0.719162023717658	0.679361196742876	5.74812855552863	-46.9376024857655	93.6202843519221
65102	1662101772862	7.13637606654178	0.576905130327778	6.64402796844421	0.0902109467092282	0.00590363451724635	-0.0456193470750534	0.00029144691637419	-0.00518347379730064	-0.0101070779519288	0.405029296875	-0.39013671875	0.455322265625	0	0	0	-0.32146681790463	0.238746662248368	-0.681586628949909	-0.612453086765211	-0.0431206029960735	0.681381409999863	0.730657229967549	-0.9883779291932	-0.135802495554058	0.068313624446746	0.145772708971933	-0.719219755226375	0.679318232503071	5.74247480743332	-46.9415202896486	93.6210824673118
65103	1662101772862	7.14872034843821	0.632567267511949	6.60313739880707	0.0299033788495554	0.0360730568768407	-0.0605813446006067	0.0124733103287557	-0.000594469471836448	-0.0114256037745515	0.407958984375	-0.403076171875	0.4609375	0	0	0	-0.321519858054571	0.238687689609502	-0.681566215251261	-0.612470947828155	-0.0430086378861001	0.681393347559934	0.730652696544842	-0.988364675890417	-0.135815049790719	0.0684802139480817	0.145895594584665	-0.719206074884947	0.679306335410892	5.7564846060559	-46.9411398470728	93.6116419321819
65104	1662101772863	7.14278881906736	0.606674981117341	6.62314881659392	0.0591613158894364	0.0199257575888453	-0.0530926125225459	0.00274119438679918	-0.00686085986769709	-0.0120597551513841	0.394775390625	-0.3896484375	0.461669921875	0	0	0	-0.321569030698534	0.238745222269248	-0.681522441900285	-0.612471418537621	-0.0429442399402396	0.681279894093726	0.730762271986997	-0.988372172929838	-0.135758960636243	0.0684832270334689	0.145863772177693	-0.719324134525326	0.679188154678426	5.75773114602947	-46.9503361207799	93.6068473718154
65105	1662101772864	7.1504699483699	0.562466318992185	6.59336211357602	0.0994688829656878	0.0522273839873328	-0.0707475724747404	0.0082235454024091	-0.00462564332807683	-0.012260777399725	0.40234375	-0.398193359375	0.457275390625	0	0	0	-0.321624344323677	0.238711783607251	-0.681487445010461	-0.612494349197218	-0.0428169066796817	0.68126337646548	0.730785142425075	-0.98836546000555	-0.135734713137042	0.0686280199162345	0.145946668240154	-0.719344353933816	0.67914893101082	5.77015355036513	-46.952255753907	93.596267837409
65106	1662101772864	7.14913406224067	0.63696549233691	6.60226664098685	0.0282546851843694	0.0345234305147684	-0.0605708195458909	0.0163797626518154	0.00371678185688884	-0.0160765416325234	0.3955078125	-0.403076171875	0.458251953125	0	0	0	-0.321672932499904	0.238655312144301	-0.681477304570605	-0.61250212231257	-0.0427353493190203	0.681274682486415	0.730779376365819	-0.988350498942964	-0.135769584295809	0.0687743500102896	0.146071835607607	-0.719327065376507	0.679140332964437	5.78244621945896	-46.9517717724992	93.5893762040164
65107	1662101772865	7.14340018245942	0.587433611402525	6.61949829746567	0.081886647852068	0.0251866969956647	-0.0564758994842247	0.0075906834794018	-0.0044793961444887	-0.0156108933409703	0.395751953125	-0.403564453125	0.459716796875	0	0	0	-0.32173005605147	0.238617863299537	-0.68143144020353	-0.612537736510677	-0.0425745847669877	0.681263866870479	0.730798842656856	-0.988346021007447	-0.135718073329479	0.0689401721094567	0.146149059150806	-0.719347029095426	0.679102572694963	5.79661357859145	-46.9534057175807	93.5759651860308
65108	1662101772866	7.1727155851257	0.640272006320151	6.60837100863427	0.0268111848159993	0.0454958198319111	-0.0389687516498309	0.0158471275076621	-0.00228972651384262	-0.0121629919467663	0.39111328125	-0.400634765625	0.462890625	0	0	0	-0.321752796911385	0.238619977805515	-0.681437123733247	-0.612518644834552	-0.0425920948194905	0.681232596622373	0.730826971832614	-0.988339177653801	-0.13576283184428	0.0689501515896139	0.146190230089074	-0.71936819695394	0.679071287743593	5.7977122262101	-46.9557668886893	93.577595874868
65109	1662101772867	7.14305255566241	0.615193396359676	6.62207854541016	0.0566162350618468	0.0190378890496399	-0.0530757441204646	0.00661412277099009	0.00126988761416326	-0.0164740786817333	0.403076171875	-0.404296875	0.45458984375	0	0	0	-0.321787979505714	0.238567069944199	-0.681396928997599	-0.612565485916821	-0.0424320434182379	0.681264450999403	0.730806588295313	-0.988336512655172	-0.135698557203457	0.0691146824163549	0.146254775798831	-0.719350157696085	0.67907649876774	5.81140802377672	-46.9540558783082	93.5640205803022
65110	1662101772867	7.14984362294015	0.595544504622046	6.59579172749222	0.071769138148053	0.0450389451252348	-0.0673178928930031	0.00938875778653718	0.00122425345507613	-0.0128246360703115	0.404296875	-0.396484375	0.4658203125	0	0	0	-0.321787524090655	0.238582023886547	-0.681394175273625	-0.612562964209379	-0.0424388084372502	0.681248234083255	0.730821312700221	-0.988339109119213	-0.135690465514436	0.0690934364025648	0.146235265664155	-0.71936704200771	0.67906281443561	5.80975007859689	-46.9552918511161	93.5646719688919
65111	1662101772868	7.14910331366888	0.621490233486936	6.5989440295359	0.0482656423740173	0.0393030119952152	-0.0639379045977595	0.0148525472027865	0.00537244570436562	-0.0129090613177153	0.39453125	-0.404296875	0.454833984375	0	0	0	-0.321829432377643	0.238494442169792	-0.681381459670908	-0.612589196710443	-0.042320585058276	0.681304780168929	0.730775454294472	-0.988322903963836	-0.135709754255547	0.069287084657892	0.146378979299679	-0.7193098491741	0.679092435019208	5.82566885735991	-46.9514425710278	93.554472949414
65112	1662101772868	7.14215363461437	0.62021630493247	6.62257957182996	0.0534441071326323	0.0177886531669311	-0.0530555009935423	0.00842879301198991	0.00506118053488953	-0.0138062950004682	0.40771484375	-0.407470703125	0.46533203125	0	0	0	-0.321825318195203	0.238497660606972	-0.681374949778037	-0.612597345952899	-0.0423059126000414	0.68130780063833	0.730773487852726	-0.988326142692931	-0.135686715232931	0.0692860085371469	0.146361352237501	-0.719311334610166	0.679094660907116	5.82556003592342	-46.9512775172922	93.553228066476
65113	1662101772869	7.14230902750229	0.597603505626202	6.61976539890369	0.0769147241998008	0.0235356801922483	-0.0564313131313909	0.0106053911638128	0.0013385920468542	-0.0137420045057456	0.407958984375	-0.399169921875	0.456787109375	0	0	0	-0.321868909295351	0.238435603042195	-0.681348140447517	-0.612628419141355	-0.0421736505787697	0.681336453357788	0.730754418750027	-0.988316483311271	-0.135669766524537	0.0694567726461621	0.146464712515004	-0.71928739164329	0.679097736861852	5.83979248444931	-46.9496769742165	93.5419992674128
65114	1662101772870	7.1649923768822	0.623419215909283	6.6295110586653	0.0519467471385729	0.0277821200849727	-0.0314444250380301	0.0163418976573104	0.00753102103733918	-0.0158437101950024	0.3984375	-0.399169921875	0.46435546875	0	0	0	-0.321889347391534	0.238441888918506	-0.68133357808365	-0.612631429997318	-0.0421399580305877	0.681308920463586	0.730782032369382	-0.988316536522716	-0.135656393176833	0.069482131703018	0.146474050851758	-0.719315993070498	0.679065427289654	5.84218591409293	-46.9519947069422	93.539319418765
65115	1662101772870	7.14755706664975	0.628521623367254	6.59995295249056	0.0449629217134828	0.037224840887066	-0.0639139556130139	0.00508891008309011	0.00292340721354013	-0.013305660956859	0.406494140625	-0.402587890625	0.459716796875	0	0	0	-0.321910417316733	0.238394872571596	-0.681303677033649	-0.612671908622363	-0.0420136312159966	0.681347662487896	0.730753185155102	-0.988314834150663	-0.135602034233208	0.0696123330277349	0.146521818818204	-0.719289546103721	0.679083135909079	5.85290597547436	-46.9495734355017	93.528535986414
65116	1662101772871	7.1410754493927	0.602846206542023	6.62062082303024	0.0735739090307454	0.0213176711029512	-0.0564004488893079	0.0117675325221262	0.0071897049574058	-0.014308177188796	0.4033203125	-0.4013671875	0.466552734375	0	0	0	-0.321910878378425	0.238387506129868	-0.681298627320516	-0.612680147967921	-0.0419928453352739	0.681357224608735	0.730745464176227	-0.988315350579567	-0.135588866414377	0.0696306478014744	0.146524294058823	-0.719282970588034	0.679089566605626	5.85438010718754	-46.9489253989378	93.5267453111955
65117	1662101772872	7.13958266381804	0.653090023737704	6.62700511926677	0.0265812508038087	0.00982846745502642	-0.0496673077655139	0.0126921653372044	0.00717446878927083	-0.0130916184062383	0.403076171875	-0.3994140625	0.464111328125	0	0	0	-0.321940569605618	0.238301947173055	-0.681285211796508	-0.612712748196844	-0.041874715678164	0.681426139629372	0.730687980205426	-0.988302398073456	-0.135590540341205	0.069810997215601	0.146645416393181	-0.71921736742086	0.679132903231083	5.86906580816418	-46.9441009056597	93.5164944152261
65118	1662101772872	7.14607556079264	0.633702142914234	6.60106175455469	0.0419757788949884	0.0357447326062037	-0.0638950967876965	0.0139268955814124	0.00537809069785644	-0.0141259264261183	0.404052734375	-0.4033203125	0.455810546875	0	0	0	-0.321950920155514	0.238284347170474	-0.681281013946705	-0.612718822087511	-0.0418465001414207	0.681435671091641	0.730680707689616	-0.988299130412402	-0.135592429906467	0.069853573839495	0.146675489608878	-0.719207980431213	0.679136349809117	5.87259065450184	-46.9434905716463	93.514081881204
65119	1662101772873	7.13911909708312	0.632440188533228	6.62469508042491	0.0486128172651563	0.0149146016094477	-0.0530254252422804	0.00935290810942757	0.00503809379112242	-0.0125906314193414	0.399658203125	-0.390869140625	0.46630859375	0	0	0	-0.321977175921757	0.238217272064675	-0.681261707898984	-0.612752572272099	-0.0417299667187522	0.681488678780834	0.73063793398044	-0.988290776841509	-0.135573632927981	0.0700080742822901	0.146764949111351	-0.71916129675356	0.679166458951029	5.88522934434121	-46.939900998755	93.5040484515143
65120	1662101772873	7.17475006958224	0.663740235080801	6.58789574286409	0.0111462016215876	0.0614466038377799	-0.0497953793667065	0.00811771671167099	0.00683205709014593	-0.0115567715711908	0.412841796875	-0.406494140625	0.45556640625	0	0	0	-0.321982680668876	0.238206057252125	-0.681256703572035	-0.61275960333221	-0.0417056437468745	0.681496725165213	0.730631817585814	-0.988289624627624	-0.1355670856251	0.0700370127040565	0.146779620973247	-0.719154906041952	0.679170055275365	5.8876140102733	-46.9393877301246	93.5019699006787
65121	1662101772874	7.14464936408003	0.638239058593798	6.60216834449818	0.0409685295402909	0.0349843035182732	-0.0638880533527555	0.00719305033939195	0.00684426108914885	-0.0127736326998092	0.400390625	-0.40185546875	0.45166015625	0	0	0	-0.321996623536437	0.238140394007957	-0.68123701632403	-0.61279968567453	-0.0415894393366635	0.681562853350043	0.730576755357718	-0.988284464542838	-0.135531395957865	0.0701787564223578	0.146847320979779	-0.719098962343196	0.679214654345739	5.89906100315256	-46.9347673023488	93.4918985525337
65122	1662101772875	7.16808025890813	0.614830726873471	6.6062554478326	0.0628424166282602	0.0501729706358286	-0.0456235329711756	0.00444923515838581	0.00839090167262566	-0.00868856562160956	0.3955078125	-0.40576171875	0.459228515625	0	0	0	-0.32197896805236	0.238222781838894	-0.681220962093057	-0.612794787143205	-0.0416241859641023	0.681491858000509	0.730641002559971	-0.988302759852707	-0.135464910126106	0.0700493611109188	0.146714287001463	-0.719178771658021	0.679158900689752	5.88874081294522	-46.9401585061669	93.4951718668306
65123	1662101772876	7.16691909324607	0.640091784589642	6.60985178550603	0.0393382770134573	0.0444046034157107	-0.0422693594370926	0.00871213215477414	0.0105107828724745	-0.00797301564593216	0.40380859375	-0.399169921875	0.47412109375	0	0	0	-0.321979492160968	0.238149747326431	-0.681223080592901	-0.612820543832891	-0.0415603753682495	0.681576328036064	0.730565838415763	-0.988293666845772	-0.135471357809434	0.0701650859459808	0.146793607734767	-0.719097504010509	0.679227808952244	5.89780657633515	-46.933851278132	93.4893955232417
65124	1662101772876	7.14984718845674	0.62044111903284	6.57751770735137	0.0541543916070402	0.0593946613830397	-0.0780820497554018	0.00721263305767207	0.00492934601139044	-0.0128898821678057	0.399169921875	-0.4033203125	0.4619140625	0	0	0	-0.321946125344428	0.238150783608413	-0.681226564853759	-0.612833798007222	-0.0415708567915067	0.681613882024548	0.730530204507004	-0.98830077014642	-0.135437880573485	0.0701296530274899	0.146742807638445	-0.71906821396665	0.679269793284817	5.89448741673692	-46.9308613993565	93.4900815412343
65125	1662101772877	7.11879212686047	0.643288309455221	6.59769387099287	0.0369830596109496	0.0214388922097933	-0.0854699761890742	0.00873078892591346	0.00859731618176415	-0.00808952035731006	0.404052734375	-0.40576171875	0.46142578125	0	0	0	-0.321953000206902	0.238083066783466	-0.681225671927979	-0.612857489857983	-0.0415039255654951	0.681685395350403	0.730467279163562	-0.988291625947992	-0.135444300871905	0.070246020829615	0.14682331641714	-0.718999209406578	0.679325437937508	5.90371903598828	-46.9255820283232	93.4841115416607
65126	1662101772878	7.13564349643275	0.61686640348483	6.62518450894079	0.0653871987572822	0.0168363377076405	-0.0563333838943709	0.00566543034627028	0.00850469888734453	-0.0096064079459079	0.407958984375	-0.397216796875	0.4658203125	0	0	0	-0.321906335202948	0.238121134708209	-0.681232069081675	-0.61286010199407	-0.0415576134800503	0.68169450706148	0.730455723370041	-0.988305314294628	-0.135401641178185	0.0701355922713325	0.146715951753173	-0.718998605428732	0.679349273122965	5.89429828041145	-46.9246125657839	93.4885608189923
65127	1662101772879	7.13501819949806	0.617987437541339	6.62575345811994	0.0653582791663779	0.016816155260508	-0.0563331553102362	0.0078062880134553	0.00860841971892632	-0.00930653360729708	0.4052734375	-0.3994140625	0.46142578125	0	0	0	-0.321911448315653	0.238055047852656	-0.681226453643494	-0.612889331357217	-0.0414793739036441	0.681767560886618	0.730391986855875	-0.98829814181902	-0.135392923400746	0.0702533925876332	0.146786390437377	-0.718930976670022	0.679405627270377	5.90364224913084	-46.9192657654706	93.4816369673638
65128	1662101772879	7.10439581076718	0.616512120581629	6.64303084131583	0.0708139780570483	-0.0165544941749566	-0.0670679888331769	0.0078257753964479	0.0066957602095371	-0.00942257855998203	0.397705078125	-0.396484375	0.466064453125	0	0	0	-0.321928023469618	0.238064586760757	-0.681211454214084	-0.612893591810933	-0.0414475856440756	0.681740946164035	0.730418633365581	-0.988299593660043	-0.135373395295046	0.0702705985294368	0.146785594714437	-0.718959891906118	0.67937520047075	5.90534050832035	-46.9215010529066	93.4791108086266
65129	1662101772880	7.13352688822186	0.644453199746708	6.62955964325658	0.040963900708136	0.00987341719686775	-0.0529839215458399	0.00541209205893154	0.00454952265461445	-0.00770449543613305	0.39453125	-0.40673828125	0.464111328125	0	0	0	-0.321938243691826	0.238021563589191	-0.681200977709264	-0.612916577099299	-0.0413780735310024	0.681782254863144	0.730384016791571	-0.98829523143389	-0.135358009566871	0.0703615290562183	0.14683456866793	-0.718923616387598	0.679403005030358	5.91268767191075	-46.9185972012934	93.473080328186
65130	1662101772880	7.14070690544608	0.600033347337214	6.60062706386931	0.0795752566209119	0.0424125610944937	-0.0705170917651845	0.00692115570513088	0.0047949327201952	-0.0107556495409265	0.3984375	-0.396240234375	0.464111328125	0	0	0	-0.321890579182664	0.238008452813651	-0.681223900250014	-0.612921225893557	-0.0414280517651778	0.681847818645345	0.730319976952244	-0.988298533551569	-0.135359094476784	0.0703130437560774	0.146798246265957	-0.718861229828824	0.679476862845403	5.90800442893479	-46.9132255596345	93.4769314388438
65131	1662101772881	7.13322143645032	0.622485667810256	6.62726682519611	0.0626885654508401	0.015826182654939	-0.056313979957336	0.00874963771128446	0.00668182465032072	-0.00820562907821851	0.399169921875	-0.400634765625	0.462158203125	0	0	0	-0.321903715560242	0.237946447244979	-0.681219918929105	-0.612942826213201	-0.0413581794045692	0.681906033817232	0.730269581757307	-0.988289415707303	-0.135365160074531	0.0704294273646628	0.146879310310395	-0.718804865371437	0.679518972304007	5.91735002429641	-46.9089988050047	93.470786006022
65132	1662101772881	7.13943355103131	0.626773648890586	6.60416905815653	0.054883169367812	0.0364172640743401	-0.067172135714177	0.00540530110884428	0.00112246425955947	-0.015555612752979	0.409912109375	-0.40625	0.46435546875	0	0	0	-0.321904541532513	0.237940515300913	-0.681204788847848	-0.612961510186275	-0.0413113063418085	0.681916367256698	0.730262585674333	-0.988292897216498	-0.135324996416995	0.0704577508593665	0.146869075300941	-0.718802624794991	0.679523554638158	5.919673180531	-46.9084120546544	93.4668096025429
65133	1662101772882	7.10864626936803	0.649791875099561	6.62397923070092	0.0377054615577573	-0.00152660827713064	-0.0745788238797491	0.0121466690825147	0.00307902659451212	-0.00905387348380897	0.40576171875	-0.39697265625	0.464599609375	0	0	0	-0.321941221338728	0.237876371532053	-0.681196662106813	-0.612976173602375	-0.0412281211974386	0.68195022766058	0.730235666765334	-0.988279065975197	-0.135350084925072	0.0706034153987484	0.146985474716796	-0.718765776525607	0.679537363739345	5.93170467102771	-46.9061544684763	93.4596743788478
65134	1662101772882	7.16202163443648	0.653512574218402	6.61384568659128	0.0302759157826141	0.0407323636377333	-0.0422210754236936	0.00696105280374769	0.000968299737578384	-0.0109871736738912	0.401123046875	-0.40283203125	0.461181640625	0	0	0	-0.321959142828347	0.237929039802504	-0.681163274259478	-0.612983422425111	-0.0411872683624684	0.681876730754167	0.730306602038382	-0.98829044958931	-0.135282191701314	0.0705741869173762	0.146920373588545	-0.718848282090525	0.679464164735789	5.9299007664446	-46.9121037440179	93.4566261446195
65135	1662101772883	7.13881573644133	0.630950248182506	6.60443920894184	0.0534604081005752	0.035098453150757	-0.0671593881792116	0.0102982013310594	0.00310093652993409	-0.0114884582476539	0.399658203125	-0.400634765625	0.4599609375	0	0	0	-0.321993349878205	0.237867451267174	-0.68114512579487	-0.61300952347232	-0.0410792135329018	0.681913423036998	0.730278427517534	-0.98828037287903	-0.135276799519795	0.0707254699084204	0.147018375714072	-0.718814489971957	0.679478716523742	5.94239489424004	-46.909740694039	93.4473945257492
65136	1662101772883	7.13251768165863	0.605132849319987	6.62499924559896	0.081835450363454	0.0192910471100828	-0.0596088775125434	0.00601660182128593	0.00288986407822404	-0.0120890862763742	0.4013671875	-0.40283203125	0.45703125	0	0	0	-0.321976192158472	0.237900600925123	-0.68113724057147	-0.613014433165549	-0.0410892728277024	0.681897259677565	0.730292954164778	-0.988290578069899	-0.135233217620372	0.0706661881687901	0.146946946061347	-0.718838023546521	0.679469271525192	5.93753154970822	-46.9109590582155	93.4483182097545
65137	1662101772883	7.14475689319385	0.636611482861645	6.58150255952406	0.0450483659382711	0.0552002297256704	-0.0780109632450543	0.00813681885307527	0.00490599691213151	-0.0116735353628539	0.39892578125	-0.396728515625	0.46044921875	0	0	0	-0.321997526012112	0.23784101361348	-0.68111893734978	-0.613046685554125	-0.0409827091463622	0.681946978085353	0.730252515662411	-0.988283849956368	-0.135210827148828	0.0708029952554904	0.1470219353241	-0.718795069057923	0.679498490970783	5.94869005292569	-46.9075675100489	93.4391464532725
65138	1662101772884	7.10779702716217	0.632499238049901	6.62183988312517	0.0565572091386671	0.00133199944483764	-0.077883996577988	0.00966666368923098	0.00323750537585102	-0.0148399248106912	0.398193359375	-0.40576171875	0.463134765625	0	0	0	-0.322008744631537	0.237850436580058	-0.681103929214053	-0.613053811511417	-0.0409507851442911	0.68192687869374	0.730273075849768	-0.98828656066657	-0.135184388019999	0.0708156426328296	0.14701260898953	-0.718819110312652	0.679475076398995	5.94994858826517	-46.9092918513863	93.436574954362
65139	1662101772884	7.12394571504395	0.655073285413067	6.65482170917825	0.0399256640267739	-0.0139130976056975	-0.0420892370099715	0.0112220241665444	0.00308684317559428	-0.0102712493459734	0.40185546875	-0.4033203125	0.455810546875	0	0	0	-0.322043885373068	0.237788672161015	-0.681090613782899	-0.613074105718512	-0.0408557535825289	0.681961262155574	0.730246290177759	-0.988274813677319	-0.135193376578695	0.0709622687088853	0.147117980037331	-0.71878479939995	0.679488566571439	5.96206198086105	-46.907045402181	93.4284465338324
65140	1662101772885	7.15381848003048	0.65891364550541	6.63813962809925	0.0311462424381181	0.0174743367324455	-0.0313322277795436	0.00238733241732271	0.000625405492087412	-0.00945370955781567	0.40234375	-0.404296875	0.46484375	0	0	0	-0.321996418431738	0.237873576844596	-0.681086277280526	-0.613070918292856	-0.0409247113213743	0.681919499331056	0.730281428242115	-0.988297258465083	-0.135120421165424	0.0707884220369348	0.146947939467224	-0.71883813770289	0.679468935912583	5.94773126955741	-46.9099923654881	93.4344291639259
65141	1662101772885	7.13078601564289	0.635988810426916	6.62860551332225	0.054304581363107	0.0118326347220404	-0.0562580512672639	0.00790632255970748	-0.000959233264874576	-0.00988483635098785	0.401611328125	-0.40869140625	0.4638671875	0	0	0	-0.322034080670029	0.237837050296582	-0.681063851554236	-0.613090220521695	-0.0408288647753373	0.68192390219442	0.730282681854836	-0.988290445560545	-0.135107838013761	0.0709074560324018	0.147020403396593	-0.718836326101556	0.679455176786461	5.9577805555847	-46.9100975066205	93.4263827735908
65142	1662101772886	7.1301916583616	0.661432657714714	6.63147499757283	0.0282355719538204	0.00552977239120907	-0.0529353700057946	0.00880927781385744	0.000941125876181103	-0.00855265812956781	0.40673828125	-0.40087890625	0.47314453125	0	0	0	-0.321989288293904	0.237899378109698	-0.681070243902861	-0.613082463449332	-0.0409055824697663	0.681902342941798	0.730298519793992	-0.988306548714215	-0.135067557811835	0.0707595971960266	0.146890772655761	-0.71886434709007	0.679453568238008	5.94546022790566	-46.9114258603443	93.432913859766
65143	1662101772887	7.13129383239557	0.613904459075045	6.62550969702777	0.0751486507311891	0.0169812832802976	-0.0595507677387257	0.00213679063831006	-0.00332652391378992	-0.00754929053861386	0.40625	-0.400390625	0.4658203125	0	0	0	-0.322013886754105	0.23789411458488	-0.681044612978668	-0.613100058812692	-0.0408307492427748	0.68188656759577	0.730317437042779	-0.988307401489384	-0.135029416259498	0.0708204554201662	0.146905854470046	-0.718886476209616	0.67942689396678	5.95076900749831	-46.9130125239252	93.4267277050491
65144	1662101772887	7.14401303192447	0.644854348299585	6.58150755940843	0.0374600627504543	0.0524573993881913	-0.0779636384390638	0.00641813748726878	-0.00311536566656126	-0.00694861844143964	0.40380859375	-0.404052734375	0.46240234375	0	0	0	-0.322029680959954	0.237921730228734	-0.681025452879858	-0.613102330280663	-0.0408048343705014	0.681840866524172	0.730361553088306	-0.988312302040169	-0.134997565778772	0.0708127874742064	0.146880084177729	-0.718935803790138	0.679380269731592	5.95053473555716	-46.9167128915872	93.4247869607741
65145	1662101772888	7.12508073497175	0.612620358355717	6.64833201417609	0.0807394536489212	-0.00434392048764451	-0.0486789657092288	0.00335336382827162	-0.00321105669926332	-0.0084662344548568	0.402099609375	-0.400390625	0.464599609375	0	0	0	-0.322058993550749	0.237909987286232	-0.680998606475231	-0.613121309857468	-0.0407205281434824	0.681827413104257	0.730378817687968	-0.988311617348559	-0.134962194696255	0.0708897243374981	0.146908085555534	-0.718955203571354	0.679353685245087	5.957184855287	-46.9181610820276	93.4177951293112
65146	1662101772889	7.13245361980121	0.59213350480158	6.621698556518	0.0959646294188218	0.021580853626388	-0.0628292360865554	0.000331209143918652	-0.00713052813616225	-0.0102132677266971	0.40234375	-0.4072265625	0.45654296875	0	0	0	-0.3220552695791	0.237994214755088	-0.680966470595804	-0.613126270032313	-0.0407131606651931	0.681742282284516	0.730458690888232	-0.98833144624938	-0.134869861478745	0.0707889314745859	0.146776670160008	-0.719053253250553	0.679278314158885	5.94943088391156	-46.9248615212857	93.4176039204225
65147	1662101772889	7.13818081595627	0.644478261927304	6.60381919181133	0.0422716107840732	0.0309153059399033	-0.067090265877475	0.00671040867126015	-0.00298951077953987	-0.00908326035148596	0.409912109375	-0.396240234375	0.45703125	0	0	0	-0.322094653614424	0.237969685424641	-0.680942126160949	-0.613142139924592	-0.0406235007233932	0.681731098003085	0.730474120831454	-0.988326151593418	-0.13485429013518	0.0708924432410215	0.146837152197668	-0.719066777460651	0.679250925863803	5.95830646817475	-46.9261560119504	93.410151147727
65148	1662101772890	7.13893301451676	0.621281668608317	6.60058006695551	0.0642057169713317	0.0347516045243258	-0.0703733364235681	0.0045911855730591	-0.00500791506001028	-0.00949812515941279	0.39990234375	-0.4033203125	0.459716796875	0	0	0	-0.322134077779689	0.238082071487152	-0.680891470487061	-0.61313405433672	-0.0405925346912917	0.681566798657262	0.730629143338416	-0.988344192794829	-0.134767117298006	0.0708066427951763	0.146724240315206	-0.719238849801147	0.679093126338832	5.95251989980117	-46.9391633172265	93.4083773169432
65149	1662101772891	7.13209963188393	0.64374543367433	6.62644314312814	0.0472303182954986	0.00812293956570178	-0.0562174466559835	0.00916481967746991	-0.00467005816714171	-0.0110322916540146	0.399169921875	-0.400146484375	0.45703125	0	0	0	-0.322189234625272	0.238052456288915	-0.680860713321624	-0.613150727147547	-0.0404805657800316	0.68154460553392	0.730656057568637	-0.988336360303485	-0.134754427706497	0.0709399965855238	0.146807910877405	-0.719262257372864	0.679050250292792	5.96402370561266	-46.9414219022565	93.3991082726992
65150	1662101772892	7.13283986242106	0.620708086318548	6.62321116725509	0.0687289310503404	0.0132151406637003	-0.0594975861317533	0.00364526146941303	-0.00308738453822122	-0.0106007303119367	0.407470703125	-0.40380859375	0.45751953125	0	0	0	-0.322172094510902	0.238120418721101	-0.680849515397842	-0.613145778008029	-0.040514792858776	0.681488503559618	0.730706487637603	-0.988351519740377	-0.134701842198034	0.0708285756975409	0.146696370052217	-0.719325262467911	0.679007615413093	5.95509496733569	-46.94565414307	93.4022549373377
65151	1662101772893	7.1559410788814	0.645737223197422	6.63243014624209	0.0453794538828448	0.0187685847884308	-0.0345900383393971	0.00671014697671103	-0.00299143516834501	-0.00908359151369267	0.40283203125	-0.403564453125	0.458740234375	0	0	0	-0.322211164997516	0.238097921266213	-0.68082464749537	-0.61316159729916	-0.0404256414969717	0.681475439488451	0.730723609091414	-0.988346673867144	-0.134684470972501	0.0709291585641015	0.146753602222611	-0.719340891825899	0.678978690079304	5.96374305128233	-46.9470911022917	93.3948508513963
65152	1662101772894	7.13862585162148	0.674052194223789	6.60512414172649	0.0129429449169982	0.0209332569762977	-0.063770265157121	0.00308272984735474	-0.00525216203259872	-0.00644647932057399	0.40234375	-0.4052734375	0.45947265625	0	0	0	-0.322214240978827	0.238228266238585	-0.680789691102991	-0.613148165261292	-0.0404546206942981	0.681328820085667	0.730858715885056	-0.988370980028738	-0.134593241203337	0.0707634457853201	0.146581818454787	-0.719496836923591	0.678850552150791	5.95102497392149	-46.9584316187219	93.3980081274705
65153	1662101772895	7.13351906092079	0.62322222053026	6.6222435037694	0.0664333425942717	0.011490901968257	-0.0594794958581826	0.0018663243491553	-0.00536853366646867	-0.00552926528212098	0.399169921875	-0.4052734375	0.464599609375	0	0	0	-0.322242189031414	0.238236519986616	-0.680765748811099	-0.613156853829893	-0.0403972884193396	0.681292654056902	0.730895600353748	-0.988372084887756	-0.134564066292188	0.0708034877498406	0.146590180104245	-0.719536539441197	0.678806664305818	5.95475042433649	-46.9615280237297	93.3933834369128
65154	1662101772896	7.14120906200423	0.602188448418781	6.59532518314901	0.0807285492637331	0.0377077888219977	-0.0735974171527864	-0.00291127656070164	-0.0134816977122664	-0.00231786618402513	0.402099609375	-0.406982421875	0.465087890625	0	0	0	-0.322195896733468	0.23838682666555	-0.680758208233719	-0.613131133545559	-0.0405200344105082	0.681173588995662	0.730999773232619	-0.988402618543473	-0.134483867898934	0.0705290928011154	0.14635023220951	-0.719664248750562	0.678723050000891	5.93256354115922	-46.9702741745889	93.4042634724413
65155	1662101772897	7.14109256614792	0.627009381105763	6.59770179216656	0.0570833267280508	0.0319033978986796	-0.0703192572698015	0.00882790650516163	-0.000973718545019788	-0.00867031878501083	0.409423828125	-0.39990234375	0.46435546875	0	0	0	-0.322233160470181	0.238353545480216	-0.680740407680219	-0.61314425301211	-0.0404398305832416	0.681173304985768	0.731004479245623	-0.98839497006322	-0.134483424710465	0.0706370414999839	0.146424052860602	-0.719664600388897	0.678706755300818	5.9417203794754	-46.970669315986	93.3975424153076
65156	1662101772898	7.12895125416293	0.597743545331182	6.64100548021198	0.0921285145878062	-0.00481711121648295	-0.0518633121119514	0.00193231859561318	-0.0111061218495736	-0.0058724081536532	0.406982421875	-0.396240234375	0.468994140625	0	0	0	-0.322242035722941	0.2384607261846	-0.680705204897039	-0.61313699652421	-0.040446187812813	0.681046950006542	0.731121848790062	-0.988415229389327	-0.13439901112157	0.0705141129192525	0.146285475022832	-0.719799942828791	0.678593104961297	5.9324401887572	-46.9805252196681	93.3987042338072
65157	1662101772899	7.14907658328259	0.60753750097967	6.57031277078896	0.0721900900183888	0.0576536336404336	-0.0844361222755623	0.0119588806481372	-0.00661418154069984	-0.00749736985866714	0.4150390625	-0.4013671875	0.451904296875	0	0	0	-0.322306601369656	0.238436256818036	-0.680685616116689	-0.613134323097303	-0.0403695131071056	0.681004269802906	0.731165840915524	-0.988402588116201	-0.13442890654923	0.0706342189676696	0.146392029211598	-0.719834740474637	0.67853321229629	5.94299338845654	-46.9842198501436	93.3924884035389
65158	1662101772899	7.12174025145102	0.669658197819656	6.67178610863703	0.0277557199470647	-0.0450133639221123	-0.0311967064395624	0.0067750345369216	-0.00873132989138132	-0.00942761412915374	0.40283203125	-0.3935546875	0.466552734375	0	0	0	-0.322414971306441	0.238518696171665	-0.680607302013229	-0.61313221926458	-0.0402349359543162	0.680800533897624	0.731362962538753	-0.988408528226573	-0.13435542655252	0.0706908812002672	0.146388972459444	-0.720041146324709	0.678314835708071	5.94962772807119	-47.0007780304191	93.3822148821325
65159	1662101772900	7.17421056563052	0.585208698226469	6.57261207885314	0.0955070646675888	0.0725595384314293	-0.0660669538336993	0.00222423890344167	-0.0109831342184212	-0.00800613678723129	0.400634765625	-0.402099609375	0.45947265625	0	0	0	-0.322466139384545	0.238540469770961	-0.680566498757165	-0.61314213197373	-0.0401446298982734	0.680725539247694	0.731437727292124	-0.988410436743764	-0.134310340560318	0.0707498477353315	0.146400878502596	-0.72012045703098	0.678228066463753	5.95531126731001	-47.0070595983861	93.3750120908378
65160	1662101772901	7.12946331147541	0.674484880385115	6.64696912651843	0.0202302499855318	-0.0242702133557956	-0.0420488441383977	0.0107647942338404	-0.00864422840901341	-0.00669497387508114	0.398193359375	-0.400390625	0.46044921875	0	0	0	-0.322512527971072	0.238540216218035	-0.680566670362105	-0.613117641028702	-0.0401448551222164	0.680670446679854	0.731488983938833	-0.988399279300833	-0.134370647012106	0.0707911993057249	0.146476125306519	-0.720161282101584	0.678168469096723	5.95928685284192	-47.0113664944594	93.3753035209519
65161	1662101772902	7.19072883101222	0.65648302729178	6.60970804068728	0.0308994485138403	0.0457420412702829	-0.023778114758354	0.000716816641928464	-0.0112256449120767	-0.00495352455249471	0.402099609375	-0.401611328125	0.45654296875	0	0	0	-0.32255621974004	0.238572437737747	-0.680533197245435	-0.613119274289914	-0.0400844812024497	0.680589992748924	0.731567150804866	-0.988402087352338	-0.134335894892158	0.0708179430728101	0.146473711239495	-0.720243798386034	0.678081354117768	5.96228234069473	-47.0179352200733	93.3706365898581
65162	1662101772902	7.11477978137446	0.630659902642515	6.60986997834101	0.0583200822288041	-0.00383584907046953	-0.0810488398542493	0.0064606539624569	-0.0069463537181623	-0.00717964330919091	0.398681640625	-0.396728515625	0.46044921875	0	0	0	-0.322552880022075	0.238639902790476	-0.680532008296654	-0.613096095297743	-0.0401456350402511	0.680515058157108	0.731633503612732	-0.988411009890132	-0.134328349453625	0.0707076379257086	0.146396733280437	-0.720316007148593	0.678021272771234	5.95358603557378	-47.0235117895624	93.3761378910963
65163	1662101772903	7.1687802956334	0.633739547047515	6.59905848262133	0.0520560377222655	0.0395887935491874	-0.0486547704486995	-0.000543866335069622	-0.0075171400509516	-0.00380741183257379	0.40283203125	-0.40087890625	0.451904296875	0	0	0	-0.322578182687724	0.238667521364747	-0.680506718461591	-0.613100103105627	-0.04010315925151	0.680459607888899	0.731687405009635	-0.988415349122594	-0.134292155634956	0.0707157305963677	0.146379077182872	-0.720375137665511	0.677962260598987	5.95477709929127	-47.0280423188654	93.3728482380533
65164	1662101772904	7.16930721262918	0.634161194881466	6.59844552291678	0.0505778994797719	0.0387542633527746	-0.0486436537984503	0.00590088333082016	-0.00910933129395506	-0.00302483195323129	0.397216796875	-0.41015625	0.46044921875	0	0	0	-0.322605172088547	0.238746895269375	-0.680503498575948	-0.613058570910519	-0.0401701831497429	0.680335038205192	0.731799557376237	-0.988418971141124	-0.134318217264772	0.0706155365279821	0.146336235683571	-0.720487926547804	0.677851645881906	5.94736393356001	-47.0374702012077	93.3790893565772
65165	1662101772905	7.14694178869713	0.610591086851102	6.58833921359074	0.0736938190206729	0.033060923774406	-0.0735247631835314	-0.00144638060610605	-0.00942186052721049	-0.00513787893243171	0.41064453125	-0.401123046875	0.466064453125	0	0	0	-0.322635554875553	0.238781969301573	-0.680469890986259	-0.613066225890609	-0.0401122028047773	0.6802671094785	0.731865883169802	-0.98842532211806	-0.134265947617414	0.0706260426911041	0.146309240248032	-0.720561805171606	0.677778939733214	5.94887593673658	-47.0430465409349	93.3745595229861
65166	1662101772906	7.17033912952823	0.635176736894733	6.59722645642567	0.0478458768374044	0.0381645862022994	-0.0486275614383604	0.00828743809063623	-0.00505246345314062	-0.00463317959864695	0.401123046875	-0.40625	0.461181640625	0	0	0	-0.322599289939889	0.238872868834515	-0.680470573014261	-0.613049141526755	-0.0402008964071759	0.680203365497386	0.731920261704846	-0.988444236985062	-0.134221005216154	0.0704465196428138	0.146157033012715	-0.720630351376346	0.677738901330096	5.93421067747314	-47.0476188500232	93.3823200402847
65167	1662101772907	7.14013449080719	0.657160521535386	6.61646593275221	0.0305178327578672	0.000153992680296261	-0.0561474767591061	-0.000834673992701689	-0.00764306792878183	-0.00167231946404923	0.400146484375	-0.4072265625	0.459228515625	0	0	0	-0.322620699289839	0.238906625605705	-0.680451479102026	-0.613045914446297	-0.0401811823408778	0.680143553249096	0.731976925564859	-0.98844844372065	-0.134196662044798	0.0704338697095344	0.146134002517945	-0.720691336752239	0.677679017262861	5.9336732367665	-47.0523837330657	93.3809618447841
65168	1662101772908	7.17785618738329	0.638728468069899	6.57271722783067	0.0377499308701519	0.0585364279482796	-0.0594646338051259	0.00135128490135277	-0.0113623226245669	-0.00160168473150723	0.39794921875	-0.398193359375	0.45849609375	0	0	0	-0.32255133763526	0.239064973426584	-0.680459190175228	-0.613012123514962	-0.0403535420267618	0.680038012348211	0.732065498031009	-0.988480920190142	-0.134128149808446	0.0701078444185326	0.145866589957894	-0.720803677286997	0.677617146140502	5.90693746379552	-47.0598326744724	93.3959565648352
65169	1662101772910	7.15544482002038	0.615037010742306	6.56267830043539	0.0608297684141891	0.0528413515797207	-0.0843311254815848	0.00463996952652015	-0.00540056419430126	-0.00187963662385831	0.3984375	-0.40185546875	0.468994140625	0	0	0	-0.322581017164428	0.239073937514978	-0.680450133735707	-0.61300306301462	-0.040337464199714	0.67999460453522	0.732106704507565	-0.988477460299566	-0.134141794271556	0.0701305176747541	0.145894480572975	-0.720842088693909	0.677570279532496	5.9092400993138	-47.0632984924729	93.3948228880146
65170	1662101772911	7.19583289669152	0.63616382065349	6.60149097815969	0.042781830435503	0.0497866587526441	-0.0269789267120171	-0.00268504771934445	-0.00762650393442528	-0.0041050975432103	0.400146484375	-0.412109375	0.462646484375	0	0	0	-0.322527822022729	0.239109154477696	-0.680475500566288	-0.612989159280403	-0.0404401892519581	0.680009500367305	0.732087201434005	-0.988486919644856	-0.134142205699331	0.06999627376612	0.14580192311588	-0.720827960098889	0.677605232532471	5.89770634767086	-47.061658088676	93.4033736088577
65171	1662101772913	7.19746748098712	0.5878458960132	6.59515643453232	0.089583008484366	0.0611660290103996	-0.0334530929580001	0.00130617513528201	-0.00753694708259641	-0.00137389527064705	0.405517578125	-0.406982421875	0.46484375	0	0	0	-0.32255325180093	0.239136344827934	-0.680461317484436	-0.612980916295382	-0.0404275920206382	0.679951192494268	0.732142052903011	-0.988488015086422	-0.134136409680018	0.0699919111659224	0.14579798981439	-0.720884040206035	0.677546416669962	5.89784967973802	-47.0662717751782	93.402607012784
65172	1662101772913	7.20379680844984	0.615411486505642	6.57422039367601	0.0558646918317249	0.0759289445377152	-0.0410494531754839	0.00585552354281168	-0.00528516739297599	-0.00279832200997191	0.409423828125	-0.3955078125	0.46240234375	0	0	0	-0.322463291514868	0.239272321182318	-0.680475482975007	-0.612959459516984	-0.0405962532280879	0.679894688004132	0.732185193409156	-0.988520849031544	-0.134058914609344	0.0696759531238636	0.145528262732004	-0.72095174640022	0.677532363882846	5.87153290518654	-47.0699007055147	93.4170521874449
65173	1662101772915	7.17978892339693	0.640226663406305	6.57046010520415	0.0318921411344917	0.0587935284181659	-0.0594452667372813	0.00119289054557348	0.0020290262571966	-0.00080443308313186	0.40283203125	-0.4033203125	0.45654296875	0	0	0	-0.322453969672374	0.239272429206632	-0.680478929139119	-0.612960495514811	-0.0406057367615309	0.679904713923344	0.732175357497689	-0.988522092446666	-0.13405627111959	0.0696633972641025	0.145517170419571	-0.720942782860281	0.67754428412817	5.87037966386629	-47.069073298079	93.4177982593214
65174	1662101772915	7.17372827899946	0.61319746195535	6.5910560850842	0.0613292384470861	0.0422845052181307	-0.0518032008996236	0.000267616968141031	0.00203759702203491	-0.00202086162113869	0.404296875	-0.404052734375	0.460205078125	0	0	0	-0.322467384231554	0.239336288577126	-0.680459362033683	-0.612950229380575	-0.0406136048183208	0.679819150227102	0.732254367066637	-0.988531737943719	-0.134020314544855	0.0695956777915681	0.145449435136858	-0.721030150738371	0.677465854153972	5.86538711201437	-47.0757200307328	93.4188881809517
65175	1662101772916	7.1794167299726	0.640752608645176	6.57081552854757	0.0309999712292451	0.0573229703401561	-0.0594336364318053	0.00389163208524519	0.00429801179166226	-0.00466183647152385	0.39599609375	-0.402587890625	0.463623046875	0	0	0	-0.322463612774593	0.239314432333891	-0.680457413681753	-0.612962910035024	-0.0405873787155055	0.679849920011573	0.732227253623671	-0.988530705769522	-0.134010146796205	0.0696299095681701	0.145463770196624	-0.721003028298716	0.677491641826131	5.86803016336428	-47.0734390008415	93.4165314051062
65176	1662101772917	7.1796900940321	0.617035030677718	6.56820541840291	0.0522252508527583	0.0631121967475281	-0.0626466523913471	0.00267603197877755	0.0041820920977785	-0.00374360129994588	0.401611328125	-0.405517578125	0.45654296875	0	0	0	-0.322377948108123	0.239358531470749	-0.680491105240742	-0.612953348693028	-0.0407213017992	0.679890778950837	0.73218187923316	-0.988546427901692	-0.13399137147634	0.0694425824166604	0.145319425620196	-0.720967988933984	0.677559903971526	5.85176745645021	-47.0696219120359	93.4275723320856
65177	1662101772918	7.14994463102056	0.590530191026581	6.58242882448609	0.0818382361374878	0.0365744851248454	-0.0766323014714469	0.00175081155624582	0.00419041665922357	-0.00496009053873111	0.4033203125	-0.399658203125	0.458984375	0	0	0	-0.32236755594145	0.239344058730361	-0.680486045963321	-0.612970082203054	-0.0406936744006354	0.67992165658031	0.732154741688438	-0.988548693548363	-0.133964199748918	0.069462750229584	0.145311752269391	-0.720943918830528	0.677587160853628	5.85322132455551	-47.0673391157372	93.4250972490598
65178	1662101772919	7.17886838220724	0.618240997547353	6.56899013981974	0.0499017429105907	0.0618904990985323	-0.0626266520655907	0.00654473505017463	0.0103922495001177	-0.00829167771912101	0.400146484375	-0.409423828125	0.4541015625	0	0	0	-0.322320118628623	0.23938923501558	-0.68049136995895	-0.612971476250956	-0.0407514208599074	0.679923665982273	0.73214966375402	-0.988563532496821	-0.133917526922757	0.0693414609039863	0.145194572609671	-0.720950694860695	0.677605070571772	5.84291838603507	-47.0669119733651	93.4299359337876
65179	1662101772920	7.14817075758035	0.616540754247149	6.58645157830097	0.0559865032047454	0.0296185373675582	-0.0733957972335197	0.00656761246063274	0.00847839484696449	-0.00840542249377989	0.401611328125	-0.402587890625	0.463623046875	0	0	0	-0.322313656915677	0.239340560178118	-0.680488383496231	-0.612997196360598	-0.0406966876393796	0.679989480079778	0.732091583475739	-0.988560404876802	-0.133901067015342	0.0694177942747027	0.145231214017493	-0.720891677877464	0.677660005638535	5.84883499820216	-47.0620266578728	93.425009425032
65180	1662101772921	7.14823305213045	0.593111955618006	6.58405542417527	0.0763335725204266	0.034573504560428	-0.076580276003634	0.00386861113526314	0.00620972660122458	-0.0045481697644545	0.397216796875	-0.40625	0.453369140625	0	0	0	-0.322213918888261	0.239439853598049	-0.680511197332988	-0.612985527796568	-0.0408538663732635	0.679985323805554	0.732086689546676	-0.98858873806899	-0.133834598441814	0.0691419353437546	0.144994029413342	-0.72090794118873	0.677693493967228	5.82546663051637	-47.0616150345052	93.4382267880851
65181	1662101772922	7.20002222480539	0.645075688401747	6.58008751735372	0.0228172660708226	0.0665281260927806	-0.0377680497181849	0.0138917941212729	0.0107039684586799	-0.00617966542395389	0.404541015625	-0.39453125	0.467529296875	0	0	0	-0.322218735582497	0.23936410340754	-0.680527722893696	-0.612994233914677	-0.0408263112539499	0.680063942818212	0.732015195189242	-0.988574337793473	-0.133885790374525	0.0692486374738489	0.145099934409329	-0.720824270411546	0.677759824879044	5.83382765210432	-47.055602079515	93.4355170717203
65182	1662101772923	7.10211610365227	0.659153461434577	6.65746423083593	0.0235568647024249	-0.0568951248509633	-0.0560191637342804	0.0028973535682627	0.0100425034225065	-0.00553825693682616	0.406005859375	-0.4013671875	0.457275390625	0	0	0	-0.3221615642321	0.239367449500182	-0.680553230800807	-0.612994657968475	-0.0408989516672776	0.68012100597371	0.731958122426295	-0.988580973802616	-0.13388154684378	0.0691620535422945	0.145034251085694	-0.720771217965885	0.677830301302609	5.82598199128771	-47.0508025236287	93.4413269898131
65183	1662101772924	7.20721705403657	0.576673720644549	6.54913932054916	0.0850905699836124	0.10417024278152	-0.0582184252468476	-0.000634032566336733	0.000131532133524627	-0.00335139684262442	0.4013671875	-0.39599609375	0.46044921875	0	0	0	-0.32215414840425	0.239378193433834	-0.680544209478427	-0.61300437528591	-0.0408846810925265	0.680119799867084	0.731960040357887	-0.988586512075983	-0.133847432777369	0.0691489181430177	0.145000520665977	-0.720778691810228	0.677829570348573	5.82488935599673	-47.0509638058079	93.4401352027487
65184	1662101772926	7.1307624916603	0.687044028289417	6.64428869873554	-0.00729437629219396	-0.0316573587944738	-0.0420517656480275	0.0120707283007246	0.012252920778177	-0.000878485483748087	0.40673828125	-0.39794921875	0.4619140625	0	0	0	-0.32216258564286	0.23935901427511	-0.680570226626096	-0.612978545568488	-0.0409371421692966	0.68012485747737	0.731952408720948	-0.988574933220553	-0.133929129915978	0.0691562691874656	0.145064646964692	-0.720758743548309	0.677837061394309	5.82544038934054	-47.0503220511712	93.444513229215
65185	1662101772928	7.14946561985756	0.611363979930326	6.6655945071569	0.0696814347662408	-0.0241280352941206	-0.0191518950502161	-0.0115119645163045	-0.0100933612651801	-0.00327756898572584	0.40283203125	-0.4013671875	0.461669921875	0	0	0	-0.322156782430756	0.239438497670391	-0.680531639384539	-0.612993394062123	-0.040908212740123	0.680049326786883	0.732024201285118	-0.988596270785072	-0.133816609339091	0.0690690122619204	0.144927331860685	-0.720850905667528	0.677768426734418	5.81872581427559	-47.0563594900632	93.442466298713
65186	1662101772928	7.1767037586989	0.575044544174939	6.56638610623829	0.0899304437774451	0.0699914893802529	-0.0689615310785392	0.0148395041626894	0.00878175064141617	-0.00507580356711698	0.3994140625	-0.39892578125	0.45263671875	0	0	0	-0.322180929806321	0.239400993624209	-0.680541864849976	-0.612983998899965	-0.0409001311234832	0.680061678024346	0.732013178403772	-0.988583416913966	-0.133875562688697	0.0691387121480628	0.145017264754201	-0.720828306739889	0.677773225441751	5.82451638238579	-47.0554324698049	93.4417254984626
65187	1662101772930	7.11390898415988	0.667053860851415	6.61187833934642	0.00828956961838394	-0.0173650559877835	-0.0777386310910462	-0.00337983007692352	0.00168991335866449	0.000732322010572293	0.40625	-0.404052734375	0.459716796875	0	0	0	-0.322155394585176	0.239423147089487	-0.680544091726139	-0.612986294784868	-0.0409274082911774	0.680065485603001	0.732008116445523	-0.988591319296754	-0.133848718087371	0.0690776669949917	0.144955685165056	-0.720829699691905	0.677784916754871	5.81930931794215	-47.0550067663815	93.4439960992021
65188	1662101772930	7.19413030502543	0.548212880807534	6.59353472780794	0.118050755944791	0.0645412418773239	-0.0396301731533448	-0.00239020741751638	-0.00750427767003723	-0.00623816487300503	0.39453125	-0.405517578125	0.4541015625	0	0	0	-0.322158033456821	0.23956442951946	-0.68050405681855	-0.612974154627865	-0.0409537744749771	0.679907586897977	0.732153304735301	-0.988618008898755	-0.13374313973454	0.0688999641147114	0.144766090080909	-0.720998228744369	0.677646171176499	5.80562176366557	-47.0672182427041	93.4470078416397
65189	1662101772931	7.14581953361041	0.597853138557209	6.58624614883687	0.070332240863912	0.0303557748897082	-0.0765210099738667	0.0117735072097324	0.00868188084778084	-0.00659157021748022	0.402099609375	-0.39306640625	0.453125	0	0	0	-0.322163765803203	0.239502790411771	-0.680512987692361	-0.61298531382937	-0.0409190260660168	0.679970692892265	0.732096639873058	-0.988607176409991	-0.133774836828969	0.0689937952431121	0.144849867298781	-0.720932833098199	0.677697842776949	5.81303379221323	-47.0624519496173	93.4437713055803
65190	1662101772932	7.14548398159231	0.598627297913175	6.58653986281699	0.068328740844353	0.0294034958440358	-0.0765038207397612	-0.00433316033152855	0.000161726780936633	-0.00821861530668445	0.402587890625	-0.40087890625	0.44970703125	0	0	0	-0.322120896094375	0.239598945854331	-0.680508253521741	-0.612975521806246	-0.0409982759314353	0.679910149308163	0.732148434566653	-0.988629457875623	-0.133706709623708	0.068806328358327	0.144675279129512	-0.721002569114253	0.6776609468897	5.7976600956654	-47.0668085778992	93.4507314320244
65191	1662101772933	7.17654395501877	0.553868349952746	6.56406900436416	0.108657988867307	0.0729030554833238	-0.0720799099522029	0.0115008213299369	0.00319700677877641	-0.012417341599617	0.402099609375	-0.398681640625	0.4658203125	0	0	0	-0.322151007235016	0.239546516593052	-0.680490188165626	-0.613000243667088	-0.0408988596031096	0.679940999117001	0.732125345144491	-0.988621605517366	-0.133696335304449	0.0689391835636727	0.144757052979918	-0.720975400166978	0.677672389851198	5.80868065914835	-47.0648664038908	93.4422281227937
65192	1662101772933	7.16136841949616	0.622367566335712	6.6196273743149	0.0499052729830191	0.012981691942708	-0.0408223255984001	0.0105522794579583	0.00511614356559878	-0.0135211064956629	0.402587890625	-0.393798828125	0.463134765625	0	0	0	-0.322166751568667	0.239552539844704	-0.680472179634549	-0.613009606434557	-0.0408556132052842	0.679920238871296	0.732147039632628	-0.988623693238464	-0.133667606145802	0.0689649493205814	0.144755006950226	-0.721000305021053	0.677646329675289	5.81105871562698	-47.0666912405764	93.4387017936545
65193	1662101772934	7.17457084442326	0.605672680865219	6.57036452017264	0.0599935940949202	0.0603114450291902	-0.0657001779944313	0.00962741245582055	0.00512229368494692	-0.0147380300447194	0.404296875	-0.40283203125	0.46630859375	0	0	0	-0.322187314205998	0.239497297675452	-0.680447710993438	-0.613047544301967	-0.0407360859801075	0.679967614305547	0.732109701338976	-0.98861957869614	-0.133627505662968	0.0691015075737157	0.144816780511404	-0.720963059543217	0.677672757941763	5.8222607705881	-47.0635505604798	93.4284272433484
65194	1662101772935	7.19121200079742	0.604375484502964	6.60048406134129	0.0665562296915654	0.0509579958502785	-0.0332107482814674	0.0139324489005219	0.00342411806740305	-0.0142530820236964	0.4052734375	-0.396484375	0.45703125	0	0	0	-0.322228713595657	0.239406818089264	-0.680443632476771	-0.613065652771935	-0.0406383230516185	0.68002573739989	0.732061147154585	-0.988600741475622	-0.13366976168739	0.069289023404036	0.144972758314799	-0.720900403165493	0.677706063173724	5.83766632590522	-47.0594667416087	93.4199272443845
65195	1662101772936	7.17361425968785	0.60954448666383	6.57105093117603	0.0595087104097498	0.0603980854634046	-0.0656977420424454	0.0104281879944872	0.0112233129101325	-0.0208042926641362	0.41259765625	-0.404052734375	0.45947265625	0	0	0	-0.322238400572667	0.239319659442577	-0.680411486250283	-0.613130266076744	-0.0404673800340601	0.680125782643876	0.731977671063971	-0.988597719781361	-0.133594754849899	0.0694765422260571	0.145041165178279	-0.720819922906999	0.677777027601317	5.85274681521869	-47.052446425174	93.4050756510596
65196	1662101772937	7.16527047294972	0.65721134786597	6.60057438475366	0.0184164495180027	0.0256716431723482	-0.0484868645891634	0.0160732138382589	0.00352956046649349	-0.0139536192772796	0.402587890625	-0.408203125	0.46533203125	0	0	0	-0.322332600196301	0.23935553851657	-0.68033449421798	-0.613152180954532	-0.040292195682785	0.679992971613843	0.732110713978996	-0.98860134401957	-0.133506658344286	0.0695942151363276	0.14506523211907	-0.7209615320761	0.677621242064269	5.86392908890231	-47.0636357354276	93.3910300846364
65197	1662101772938	7.16537333234073	0.63493916174137	6.598082031269	0.0416091140041829	0.0312521994003641	-0.0516576600190302	0.00894483216064374	0.00906909107637021	-0.0178652916194068	0.3994140625	-0.405029296875	0.463623046875	0	0	0	-0.322342183304354	0.239285571879388	-0.680305284576292	-0.613206858841702	-0.0401457302641508	0.680072065871211	0.732045289284222	-0.988599400562542	-0.133439526719695	0.0697503972476624	0.145119073691024	-0.720899353537293	0.677675863905874	5.87652642622092	-47.0581330279246	93.378339977
65198	1662101772938	7.16530903956531	0.612505943965857	6.59580043761153	0.06179827551632	0.0373365277599231	-0.0548091489969238	0.0135677361044734	0.00903496071152435	-0.011780448540857	0.4091796875	-0.395263671875	0.46533203125	0	0	0	-0.32223159827968	0.239294139148325	-0.680343056176584	-0.613219730562945	-0.0402567182368634	0.680183305364501	0.73193583580818	-0.9886158370314	-0.133399754035142	0.0695933358452338	0.14497628567287	-0.720801759658497	0.67781022407877	5.86223198813166	-47.0489284391898	93.3871053658962
65199	1662101772939	7.17059956388018	0.641228829782877	6.57581418120876	0.0313871584035944	0.0523554563494266	-0.0624936091708417	0.00717095088252191	0.00679577199934836	-0.0127907872538097	0.403564453125	-0.396240234375	0.449951171875	0	0	0	-0.322236297180048	0.239245712767278	-0.680324371712711	-0.613256884964103	-0.0401595236476349	0.680239904726737	0.731888573949447	-0.988614515120052	-0.133354963933206	0.0696978772152901	0.145012251738738	-0.720756634108721	0.677850515404338	5.87063008820815	-47.0449544015815	93.3786661189122
65200	1662101772940	7.15113490547884	0.609706448257917	6.64344136633882	0.0748796880122037	-0.00637106329248512	-0.0331097752305656	0.0074623137467303	0.00691564736186988	-0.0149256358553546	0.400146484375	-0.40185546875	0.462890625	0	0	0	-0.322321282737253	0.239231746634416	-0.680261455140505	-0.613287465017003	-0.0399749518952608	0.680172679850439	0.731961152525217	-0.988610613637153	-0.13329331331053	0.0698709326592518	0.145089826745173	-0.720831476984582	0.677754324193717	5.88593369941742	-47.0510573301024	93.3635052507989
65201	1662101772941	7.1399940019461	0.61721055291487	6.59077691807894	0.0613082306090748	0.0239334142893519	-0.0764420988587684	0.0101856525498287	0.0107210815055184	-0.0110500990378285	0.402099609375	-0.40087890625	0.458251953125	0	0	0	-0.322320581982298	0.239164081410328	-0.680257303923737	-0.613318828222447	-0.0398989147568737	0.680254213245658	0.731889528523776	-0.988604236883412	-0.133281114221997	0.0699843368755477	0.145154191869856	-0.720756789737894	0.677819969187494	5.89485271498199	-47.0450346645237	93.3567206531265
65202	1662101772942	7.15583156859631	0.639790045935066	6.62395265446725	0.0423898065579651	0.00837466068735371	-0.0407817996440301	0.00907003723660797	0.00295593231709636	-0.0105807777246828	0.3935546875	-0.4091796875	0.459716796875	0	0	0	-0.322284065916068	0.239184551442002	-0.680267473169286	-0.613318755751013	-0.0399461694012737	0.680270860958066	0.731871477297439	-0.988612339930223	-0.133261708391035	0.0699067837508808	0.145085991356348	-0.720744665473199	0.677847462416192	5.88812910824728	-47.0435168937542	93.3606050543158
65203	1662101772944	7.16184259862087	0.643984129447136	6.60103810792739	0.0355049513500365	0.0291047598131579	-0.0516269087154217	0.00682872424809736	0.0104956112932853	-0.0104325585251616	0.402099609375	-0.3994140625	0.460205078125	0	0	0	-0.322272593157898	0.23913030737672	-0.680261123843518	-0.613352977640407	-0.0398770010378607	0.680350083242981	0.731801604958267	-0.988610660286744	-0.133229641827124	0.0699916059683177	0.145116460663959	-0.720675812532851	0.677914143586399	5.89464746812076	-47.0376423429067	93.3544095844995
65204	1662101772945	7.161979283537	0.620962397511886	6.598625526501	0.0554163508118134	0.0350245983280826	-0.0547622460474972	0.0069299764652902	0.00284566179044446	-0.0108801905329655	0.402099609375	-0.40087890625	0.45654296875	0	0	0	-0.322161590208434	0.239190522190411	-0.680298026765509	-0.613346882822116	-0.0400350222535327	0.680401350230026	0.731745310609038	-0.98863334619662	-0.133186990853344	0.069751933704422	0.144918265864707	-0.720635294773014	0.677999607777303	5.8738684981329	-47.0329098385669	93.3674184583916
65205	1662101772947	7.16158514835772	0.622335178055058	6.59892397131435	0.0550327650481522	0.0348866668104859	-0.0547595810512131	0.00931113600688194	0.00689840064913182	-0.0124916898978016	0.398681640625	-0.400146484375	0.459228515625	0	0	0	-0.32217123599972	0.239136196132633	-0.680283251379374	-0.613379386910202	-0.0399428448161542	0.680457839552074	0.731697818597347	-0.988629055073362	-0.133159214825759	0.0698656923800147	0.144972965109858	-0.720587088490427	0.678039148787255	5.88304037459499	-47.0289176478187	93.3594047563051
65206	1662101772948	7.16111752544243	0.6237891588675	6.59929415295983	0.0528936821317854	0.0341990741172932	-0.0547453174558683	0.00719629832304631	0.00487610566433056	-0.0129032598280794	0.39794921875	-0.405029296875	0.4638671875	0	0	0	-0.322136651127413	0.239170518133848	-0.680281904715029	-0.613385662836436	-0.0399720132542433	0.68045915455843	0.731695002807884	-0.988641513598615	-0.133110983764586	0.0697812552958464	0.144879935622027	-0.720594757806946	0.678050882512003	5.87587915583354	-47.0286809612073	93.3618458697178
65207	1662101772948	7.154846544557	0.59802395456133	6.62009959861854	0.0825441631200822	0.0189011391086959	-0.0470327779713742	0.00812048758005654	0.00486992572334379	-0.0116860293887414	0.399169921875	-0.406005859375	0.46044921875	0	0	0	-0.322148143306073	0.239128345209251	-0.680265040469523	-0.613414772398687	-0.0398857815350324	0.680499745098764	0.73166195838779	-0.98863875478282	-0.133079903041103	0.0698795531471466	0.14492252058536	-0.720562166871872	0.67807641656387	5.88387819926488	-47.0259034271999	93.3544102931607
65208	1662101772949	7.16683182299363	0.629630317215637	6.57655558926973	0.0422710477970432	0.0553531134191144	-0.0655777874514669	0.00870414178020723	0.00510795938615579	-0.0159557038438886	0.3984375	-0.404541015625	0.462158203125	0	0	0	-0.32202923428007	0.239164624232559	-0.680292658732317	-0.613432435773986	-0.0399956380187724	0.68059116375367	0.73157092394374	-0.988663166987637	-0.133001858512186	0.0696824789619432	0.144725571967944	-0.720490231337477	0.678194909569381	5.86638243491767	-47.0182523149406	93.3631773101259
65209	1662101772949	7.15994621432554	0.628282550488312	6.60013876215419	0.0483611083953887	0.034345894349407	-0.0547223166794222	0.00722204556671554	0.00296097555580954	-0.0130150240428172	0.40380859375	-0.391357421875	0.46630859375	0	0	0	-0.322044835069802	0.239129731412124	-0.68026836192948	-0.613464792402475	-0.0398961453749041	0.680620389032273	0.731549166917564	-0.988662368683887	-0.132955840074707	0.0697815544280467	0.144758482765571	-0.720471117133495	0.678208191519259	5.87455079648574	-47.0164238787436	93.3546865207003
65210	1662101772950	7.1667201405601	0.608615171209271	6.57425963193871	0.064784140088641	0.0615126504849287	-0.0687046767478776	0.0138824960215854	0.00723158841922103	-0.0140273282056015	0.39892578125	-0.40625	0.464599609375	0	0	0	-0.322048966586358	0.239025125508282	-0.680290579690414	-0.613478752428223	-0.0398565668795387	0.680732042918063	0.731447427927106	-0.98864322155053	-0.133021619389722	0.0699273140991895	0.144900084743825	-0.720353478869602	0.678302904992818	5.88591926014359	-47.0078746782591	93.3508176937859
65211	1662101772951	7.15896168326971	0.631807803630935	6.60087017671907	0.0473499485525297	0.0347981547781909	-0.0547189600344406	0.0117421571669075	0.00712045278969397	-0.0143274316412219	0.39794921875	-0.39794921875	0.457763671875	0	0	0	-0.322065734937047	0.238959368354111	-0.680274684006389	-0.61351319216075	-0.039750450848375	0.680793736683691	0.731395781878464	-0.988636235039928	-0.132999966641063	0.0700671366587324	0.144976882375875	-0.720299171848569	0.678344165310529	5.8972493329096	-47.0035353472544	93.3416144044135
65212	1662101772952	7.18920667767171	0.611931698114069	6.58162711624154	0.0617291197855101	0.0729680320810571	-0.0470417833456071	0.0090441727353448	0.00486022670513016	-0.0104690806433794	0.4052734375	-0.40576171875	0.452880859375	0	0	0	-0.321985427024319	0.238971657531028	-0.68031548526906	-0.613505315530325	-0.0398732252000075	0.680863550506646	0.731324108383987	-0.988645115293996	-0.13300754942582	0.0699273036878961	0.144882579758474	-0.720231780322989	0.678435863361679	5.88477297659858	-46.997513882539	93.3515689991843
65213	1662101772953	7.13437309610144	0.63500845564063	6.59517160130958	0.044020900377546	0.0236692031402648	-0.0763479440948949	0.00862475013177073	0.0108364999102913	-0.0156230629187701	0.40576171875	-0.4052734375	0.459228515625	0	0	0	-0.321980693996009	0.238903296380681	-0.680298449217605	-0.613553312813495	-0.0397615300588671	0.680954236105517	0.731245751479849	-0.988643232771861	-0.13295509462806	0.0700535588449772	0.144926115734124	-0.720155727007982	0.678507295344585	5.89470700882453	-46.9909317046346	93.3417576202057
65214	1662101772953	7.18065899765293	0.63639895266647	6.60895773006144	0.0410421123154422	0.0436191485927622	-0.0330349038493303	0.00835912417957219	0.00880478332390355	-0.0135993315089812	0.401611328125	-0.399169921875	0.45849609375	0	0	0	-0.32193973900824	0.239051276528183	-0.680243556011081	-0.613578027754378	-0.0397536166087088	0.680844787829668	0.731348087337147	-0.988685210129947	-0.132752982094589	0.0698441194038311	0.144641644199831	-0.720296481061909	0.678418583275105	5.87797026251673	-46.9995283372161	93.3416299171524
65215	1662101772955	7.1564710750463	0.638103108179477	6.60296499577693	0.040455837579617	0.0321942196236592	-0.0546790037134244	0.00957523735698435	0.00891744593966291	-0.0145167119090307	0.406005859375	-0.39794921875	0.4541015625	0	0	0	-0.321942794810537	0.238989097661541	-0.680227562837059	-0.613618375560297	-0.0396506520886453	0.680918628178023	0.731284929141238	-0.988681900299642	-0.13271340074733	0.0699660866560922	0.144692521606455	-0.720233972443843	0.678474096137007	5.88768439066504	-46.9942226258272	93.3326337874715
65216	1662101772955	7.15586703024106	0.639679976620165	6.60346704810667	0.0393115882377956	0.0303432556170848	-0.054668395589303	0.0102336496462447	0.00688251546936684	-0.0112751770551735	0.40380859375	-0.406005859375	0.462890625	0	0	0	-0.321975930603104	0.239025272412884	-0.680194903655256	-0.613623102809557	-0.0395963756212737	0.680845845546776	0.731355632807566	-0.98868738363797	-0.132667213692636	0.0699761948532365	0.144669915575992	-0.720311283413448	0.678396838520425	5.88919491247913	-47.0001622424906	93.328437089712
65217	1662101772956	7.16186939964682	0.644146444816938	6.58055455058393	0.0323397455772177	0.0510761807784678	-0.0655164272356057	0.0105259651364519	0.00699903836596323	-0.0134101077374225	0.3984375	-0.409423828125	0.462158203125	0	0	0	-0.321987294893857	0.23896827905197	-0.680179913109792	-0.613655953556903	-0.0395011051822082	0.680903406864513	0.731307194829699	-0.98868240581405	-0.132641064542215	0.0700959943994645	0.144729966223744	-0.720261687525727	0.678436687067752	5.89886214466097	-46.9960930326345	93.3201666077151
65218	1662101772957	7.1620248984569	0.62142554708023	6.57817673846122	0.0517838794424681	0.0565383862090842	-0.0685967834911647	0.00716955550065572	0.00677388846040326	-0.0127935091815452	0.396484375	-0.4013671875	0.45849609375	0	0	0	-0.321851546536146	0.239059325483846	-0.680190182562346	-0.613680321044518	-0.0396160911099778	0.680955431970652	0.731252531616013	-0.988721886454106	-0.132494204923813	0.0698163083257763	0.144428517169564	-0.720239533302129	0.678524441783	5.87473584002614	-46.991501221163	93.3295559208635
65219	1662101772958	7.17834003003959	0.619880159334162	6.60867279111355	0.0578849408364657	0.0467934920679722	-0.0360912015456201	0.00925493933040884	0.0107064683886871	-0.0122719867936833	0.40625	-0.40185546875	0.46142578125	0	0	0	-0.321843915868971	0.238997978038004	-0.680183709905734	-0.613715390951493	-0.0395398254547655	0.681038332614234	0.731179452469112	-0.988718513160305	-0.132466770806003	0.0699160665820519	0.144472502356271	-0.720166192029488	0.678592920623744	5.88248171018372	-46.9853630532895	93.3227569001993
65220	1662101772958	7.16724733122885	0.627400387314937	6.55598213953191	0.0425848995013285	0.0766362895843401	-0.0794309457866049	0.0117423433691847	0.00710920884113176	-0.0143271458943952	0.39599609375	-0.406982421875	0.46337890625	0	0	0	-0.321810706494601	0.239011859048093	-0.680182002915235	-0.613729291569207	-0.0395484517108113	0.681062087132872	0.73115685966658	-0.988728388016292	-0.132419375808668	0.0698661838169829	0.144402543945678	-0.720152443848286	0.678622400839641	5.87806058337427	-46.9834655490448	93.3233645302388
65221	1662101772961	7.15412088720816	0.599036460958053	6.60050523218654	0.078587872895735	0.0404305720812042	-0.0608081246392782	0.00737952011845992	0.0126216159734069	-0.0145977677018564	0.40283203125	-0.396728515625	0.464599609375	0	0	0	-0.321793165123276	0.238947762400804	-0.680169383027434	-0.613777432067743	-0.0394528455285426	0.681161721047201	0.731069205178084	-0.988728748095517	-0.132362461455952	0.0699688608367499	0.144426229159291	-0.720068669348512	0.678706251447187	5.88591634629664	-46.9761043391047	93.3148645676871
65222	1662101772962	7.15838429909424	0.652140938100878	6.58355851309022	0.0227741549926226	0.0505457708621835	-0.0654866187191381	0.012903465214669	0.0110430601207288	-0.0150234377044264	0.400634765625	-0.40234375	0.462158203125	0	0	0	-0.321714652680939	0.238892196661672	-0.68020548799856	-0.613800207495227	-0.0394979750583968	0.681310299191424	0.730928304406101	-0.98873077950021	-0.132359647305954	0.0699454747210299	0.144399984886401	-0.719928607558232	0.678860401249087	5.88263615640403	-46.9642736379132	93.3179258183708
65223	1662101772962	7.14517594180035	0.623971933177777	6.62814456641624	0.058757828313018	0.0143518678607782	-0.0468529487004865	0.0116869380996404	0.010927679404349	-0.0141066302821107	0.40478515625	-0.404052734375	0.468994140625	0	0	0	-0.321714811120438	0.238819333202901	-0.680197386808079	-0.613837455173373	-0.0394063178640355	0.681397832521139	0.730851651122095	-0.988724699214261	-0.132337809429597	0.0700726291717817	0.144466644164212	-0.719849774627228	0.678929812788525	5.89265678325326	-46.9578385611561	93.3098192400993
65224	1662101772963	7.18021222528046	0.655553942051383	6.59163004345405	0.0203261713948524	0.0618056962074315	-0.0438311447178084	0.00922591732458262	0.0126105409610513	-0.0121629722789813	0.4091796875	-0.404541015625	0.453125	0	0	0	-0.321634196367603	0.238797525937361	-0.680210499983145	-0.613873652346998	-0.0394211653622475	0.681515707279992	0.730740933882957	-0.988737508677731	-0.132269761120706	0.0700203486625637	0.144374896208579	-0.719750686712924	0.679054370666324	5.88721873805949	-46.9485451663881	93.3104921317525
65225	1662101772963	7.14989060850606	0.629978608095279	6.606494937055	0.049719109950997	0.0352156224653768	-0.0576952232246217	0.00827427689152462	0.0145228461842692	-0.0132712216364374	0.4111328125	-0.399169921875	0.46484375	0	0	0	-0.321610190526404	0.23872658996967	-0.680207031714054	-0.613917661089645	-0.0393439815035813	0.681628411765514	0.730639965642086	-0.988736028100972	-0.132229441287347	0.0701173415921552	0.14440608662574	-0.719651362210104	0.679153001182047	5.89446625592398	-46.9400714905092	93.303479698746
65226	1662101772964	7.18618623538729	0.613014665320146	6.56460756459118	0.0594314186469305	0.0909203872809377	-0.0607986700705947	0.00949071456156271	0.0146343874534447	-0.0141881176122353	0.39990234375	-0.406005859375	0.466552734375	0	0	0	-0.321649200340569	0.23879121224602	-0.680124701070353	-0.613963304985169	-0.0391817041039217	0.681529213607833	0.730741216206258	-0.988757223476983	-0.132055634171529	0.0701460084797615	0.144305048718332	-0.719777215867969	0.679041097748698	5.89782411149515	-46.9485688620176	93.2903620212384
65227	1662101772965	7.17120700722568	0.633393363074095	6.61513237257105	0.0483119013603324	0.0432832213370611	-0.0360230379667499	0.0161749666657289	0.0169917160492096	-0.0153090103102499	0.404541015625	-0.398193359375	0.45458984375	0	0	0	-0.321644027384058	0.238683639893956	-0.680127523686287	-0.614004715958676	-0.0390866568573377	0.681660679580996	0.73062367274055	-0.988745348405709	-0.132056657654955	0.0703112734564944	0.144412150672264	-0.719652525238518	0.679150479390271	5.91067581164324	-46.9387042479247	93.2817660485105
65228	1662101772965	7.17730048315879	0.613932989908315	6.59012810753297	0.0630952995681091	0.0690026851120792	-0.0499212792799017	0.0094619303221723	0.016540620622237	-0.0140792952569192	0.397705078125	-0.400390625	0.459228515625	0	0	0	-0.321573345865856	0.238691174488476	-0.68012928626388	-0.614036855910242	-0.039098645625007	0.68173545788208	0.730553257043319	-0.98876233631772	-0.131970525610353	0.0702340561953447	0.144292543777612	-0.719597488764683	0.679234212899901	5.90350775762786	-46.9327956134844	93.2824111461204
65229	1662101772966	7.16866160201683	0.637286322749349	6.61751694891795	0.0454785427604488	0.0422503558159641	-0.0360049292179703	0.0154878626078505	0.020925115326283	-0.0184431990754523	0.404541015625	-0.398681640625	0.463134765625	0	0	0	-0.321556048723453	0.238569397279025	-0.680128059665303	-0.614094595862228	-0.0389790697243338	0.681899066398693	0.730406938198164	-0.988752797340209	-0.131944940029459	0.07041618104196	0.144390227769531	-0.719447146109576	0.679372700422566	5.91750974279046	-46.9205199725677	93.2716109128411
65230	1662101772967	7.15036685726927	0.642429264643921	6.58883285588816	0.037353356402936	0.0514369223115373	-0.0685025150639333	0.0121890675484617	0.0168758822579793	-0.0180476160490965	0.391357421875	-0.396240234375	0.46826171875	0	0	0	-0.321515552865102	0.238512516662622	-0.680133576673047	-0.614131782716901	-0.0389398054456177	0.68201232453562	0.73030327996893	-0.98875425917574	-0.131907865704447	0.0704650972264327	0.144390811735687	-0.719346581382588	0.67947905732222	5.92067096922079	-46.9118251103954	93.267780934982
65231	1662101772967	7.15559889189273	0.647362282749219	6.56675675714645	0.0303289903293094	0.0721709053247648	-0.0793509057237553	0.0139761863742234	0.0206910634328228	-0.0153925724801307	0.403564453125	-0.396728515625	0.457275390625	0	0	0	-0.321490526304019	0.238401679708851	-0.680139644931701	-0.614181198019724	-0.0388505949916442	0.682170200927002	0.730160563325635	-0.988745726852445	-0.131892190222111	0.0706140056181896	0.144473246311649	-0.719199740771385	0.679616961217527	5.93189818050443	-46.8998563321884	93.2595577563153
65232	1662101772968	7.14105304478853	0.643493914086692	6.6147457454315	0.0422073116518745	0.0312120640157951	-0.0576461982000094	0.0115714407345283	0.0185519261239282	-0.0136693795897107	0.400146484375	-0.406982421875	0.4677734375	0	0	0	-0.321428920424978	0.238270596833803	-0.680201780188887	-0.614195498214343	-0.0388946781753365	0.682379621120184	0.729962503618858	-0.988727863957402	-0.131982025315397	0.0706962235757925	0.144583591890192	-0.718984560107878	0.679821143597793	5.93698458375721	-46.8832506926012	93.2622490212297
65233	1662101772969	7.13891599364607	0.66954814000696	6.61883559362448	0.0181083204228214	0.0253607133037813	-0.0545917903264872	0.0127588307954274	0.0205723510082698	-0.0144768278988911	0.405517578125	-0.401611328125	0.458740234375	0	0	0	-0.321399115071836	0.238165255909174	-0.680209459135515	-0.614243446372307	-0.0388151948394236	0.68253619988875	0.72982033165088	-0.988720609849014	-0.131964598932777	0.0708300803917665	0.144654541267706	-0.71883912001917	0.679959839417516	5.94694061552265	-46.8713339379725	93.2548515454245
65234	1662101772969	7.14509294476668	0.649586571648128	6.59385044222936	0.032407488015893	0.0511925525953601	-0.0684835238842805	0.00251267447663102	0.0121424735281852	-0.0109374924777812	0.40576171875	-0.4013671875	0.466796875	0	0	0	-0.321292254253726	0.238233773904012	-0.680202106618875	-0.61428092146774	-0.0388604737546072	0.682585021162296	0.729772260684411	-0.988755686190266	-0.131807236984393	0.0706331742523047	0.144402412050436	-0.7188216337614	0.680031912656022	5.92990216894957	-46.8673052618348	93.2584076660935
65235	1662101772970	7.13768695090394	0.647787784916456	6.61795889535256	0.0382976244010615	0.0301534574557662	-0.0576267359199107	0.0068213315936954	0.0104547887088262	-0.0104404688477301	0.40283203125	-0.39501953125	0.4619140625	0	0	0	-0.321273290985779	0.238186804568893	-0.680199033469267	-0.614312455917916	-0.0388073580065307	0.682663360380527	0.72970180577995	-0.988755594673466	-0.131774505266717	0.0706955003068221	0.144417322252121	-0.718753237318399	0.680101037256853	5.93449839483561	-46.8614012046968	93.2535909391833
65236	1662101772971	7.13682047763049	0.648708782587127	6.61880308935861	0.0379706871713163	0.0295353301890799	-0.0576235667849385	4.83087247058817E-05	0.0138250329471095	-0.00899754202472637	0.396240234375	-0.392333984375	0.4619140625	0	0	0	-0.321243287090111	0.238164240099728	-0.680185998219176	-0.614351327062816	-0.0387503948713961	0.682729014597084	0.729643405729543	-0.988763668024904	-0.131700483347753	0.0707205166829707	0.144377337872842	-0.718704442252351	0.68016109047452	5.93606297335541	-46.8565078254892	93.2485136617152
65237	1662101772972	7.14985911454298	0.63103388779713	6.57028566525817	0.0480210029277726	0.0768744126671703	-0.0823673799170024	0.0064965194398145	0.012249811386009	-0.00819677346337735	0.402099609375	-0.404296875	0.457763671875	0	0	0	-0.321214768940939	0.238116320745316	-0.68019219063428	-0.614377956805965	-0.0387215968102939	0.682817218735978	0.729562391943365	-0.988763134533072	-0.131680687971283	0.0707648232086058	0.144388717456721	-0.718624270542732	0.680243380017866	5.93904194670577	-46.8497203645237	93.2456862094997
65238	1662101772972	7.14155015156063	0.65364958482068	6.59728606022803	0.0292182397685775	0.049798812942191	-0.0684662164099521	0.00919610199279943	0.0144969563295032	-0.0120545240351297	0.397216796875	-0.403564453125	0.462890625	0	0	0	-0.321165684256035	0.238088702251115	-0.680219176891968	-0.614384443573522	-0.0387687175024125	0.6829003190614	0.729482104488559	-0.988764002949843	-0.131691050710467	0.0707333982880465	0.144370125073785	-0.718543402578168	0.680332746233465	5.93564918171918	-46.8429946028579	93.2492328661138
65239	1662101772972	7.14212668169806	0.606499315491287	6.59267077273132	0.0757297711567928	0.0610563303487734	-0.0745325185208774	0.00586945609917506	0.0123610446507395	-0.0115508627589243	0.402099609375	-0.401123046875	0.461181640625	0	0	0	-0.32113856823338	0.238037458312004	-0.680214623761902	-0.614423513591261	-0.0387075318783686	0.682993701159431	0.729397923737397	-0.98876573535235	-0.131643828773061	0.0707970545933622	0.144374677727819	-0.718463295181118	0.680416376866752	5.94022777585682	-46.8359435999299	93.2436732148294
65240	1662101772973	7.13955682712624	0.656337431734715	6.59917640685126	0.0258638121366966	0.0493180282878286	-0.0684542902401954	0.0082435605781286	0.0164040767950081	-0.0131653775855806	0.404296875	-0.404541015625	0.46435546875	0	0	0	-0.321031472313437	0.238044410814662	-0.680239314244256	-0.614449450826244	-0.0387813323271892	0.683105850775976	0.729288972149284	-0.988784841495238	-0.131573461718455	0.0706608901773758	0.144223942159979	-0.718369557266351	0.680547304528335	5.92775184811356	-46.8268191582307	93.2493120115941
65241	1662101772974	7.14591549513226	0.636292962819884	6.57406768185831	0.0423611489152717	0.0757668776830867	-0.0823324065486002	0.00679131308218985	0.0123580024862381	-0.0103318842383342	0.391845703125	-0.39111328125	0.46533203125	0	0	0	-0.321005130471762	0.237992462435996	-0.680239913620874	-0.61448267180737	-0.0387335045185648	0.683197676272413	0.72920549282331	-0.988784882094665	-0.131541267744254	0.0707202362925626	0.144236516072566	-0.718288124652086	0.680630588068916	5.93197414598385	-46.8198290070191	93.2448780513359
65242	1662101772974	7.12488590564877	0.628918528776941	6.64522525305143	0.0605070896464482	0.0138857866492306	-0.0497624974433446	0.00877785377844149	0.0220163616375052	-0.00948704139671642	0.398681640625	-0.402099609375	0.46142578125	0	0	0	-0.320909405269394	0.23787807824249	-0.680309303617937	-0.614500142320717	-0.0388134573949255	0.683425702559812	0.728987533916512	-0.988774953021507	-0.131607189958958	0.0707364109099555	0.144283082176558	-0.718059089930441	0.680862347002607	5.9313159420355	-46.8015824744505	93.2504791394087
65243	1662101772975	7.13606820305935	0.660109753848684	6.60257263138177	0.0234556493879734	0.0498316546192683	-0.0684508090329316	0.00676105411417815	0.0142644200188898	-0.0102237731834868	0.398193359375	-0.401123046875	0.460205078125	0	0	0	-0.320876000223534	0.237820120581721	-0.680313701729644	-0.614535149495902	-0.0387702850291922	0.683531826663192	0.728890325726192	-0.988774902922957	-0.13157628056109	0.070794588376551	0.144295032306907	-0.717963734691516	0.680960365454084	5.93531099897372	-46.7934466402188	93.2463683320679
65244	1662101772976	7.12184744757824	0.655267985785889	6.65019497681779	0.0335075335722382	0.00759303214455241	-0.0467260761080173	0.0018904629514307	0.013813920787599	-0.00656292479351039	0.39599609375	-0.404052734375	0.4609375	0	0	0	-0.32075402143052	0.237870533836243	-0.680352649451546	-0.614536198488643	-0.0389242369665533	0.68360680103566	0.728811803797362	-0.988798522266857	-0.131525739759177	0.0705582181158311	0.144091589412608	-0.717901609803596	0.681068933737221	5.91469852202059	-46.786875649556	93.2588748328725
65245	1662101772977	7.12087226235518	0.656007241541351	6.65116630314634	0.0328921393899129	0.007456669002858	-0.0467238789770334	0.00432578227594179	0.0140376107226155	-0.00839330933571168	0.406982421875	-0.3974609375	0.4658203125	0	0	0	-0.320711115376626	0.237825034663589	-0.680359693832866	-0.614568401700569	-0.0389001202101771	0.683708874977818	0.728717335408045	-0.988801403503595	-0.131489865036942	0.0705846996302198	0.144078329657708	-0.71781097070826	0.681167266722287	5.91605454469439	-46.7789712659548	93.2563748559576
65246	1662101772978	7.13320061722112	0.662609365014176	6.60542029878814	0.0182843494947141	0.0486709651552135	-0.0684338666734199	0.0052780699833208	0.0121277548552245	-0.0072817831029539	0.401123046875	-0.396728515625	0.473876953125	0	0	0	-0.320648167670187	0.237838631236468	-0.680372175445649	-0.614582167769836	-0.0389470232581625	0.683764170337014	0.72866294591029	-0.988814255565649	-0.131443089101786	0.0704917180775962	0.143977419651414	-0.717766865835081	0.68123507612263	5.90773251649116	-46.7744209001013	93.2600296123924
65247	1662101772978	7.119942669982	0.633538932374952	6.65008276555222	0.0541035952263806	0.0124462269919249	-0.0497229696464014	0.0034663230372856	0.0102172218136112	-0.0098290354499157	0.403564453125	-0.400634765625	0.454345703125	0	0	0	-0.320617103613646	0.237805736859502	-0.680367743587142	-0.614616008474598	-0.0389036699942996	0.68384064056759	0.728593496244018	-0.988818986866	-0.131391187286925	0.0705221037450574	0.143956645120228	-0.717703514141766	0.681306208774211	5.90964833898128	-46.7686111205167	93.2560452127104
65248	1662101772979	7.12577131878591	0.637313155207183	6.6275315603782	0.0468879884767863	0.0327976040680233	-0.0605755302634439	0.00435645730645471	0.0121257742608672	-0.00850154012413859	0.40478515625	-0.402099609375	0.469970703125	0	0	0	-0.320587907506578	0.237785553705516	-0.680367742761194	-0.614639047425034	-0.0388844698820031	0.683898816423433	0.728539914415555	-0.98882350881441	-0.131353743658817	0.0705284512999697	0.143930769531584	-0.717654933043341	0.68136284801903	5.90968867517628	-46.7641291857452	93.2541654689307
65249	1662101772980	7.12425086374064	0.662437428923621	6.63097354505575	0.0227199647009241	0.0269589795417672	-0.057568665943279	0.0062612458626848	0.00830828365000879	-0.00627776652567079	0.401123046875	-0.391845703125	0.4580078125	0	0	0	-0.320567762290415	0.237754686117995	-0.680374452283234	-0.614654068309434	-0.0388733721815552	0.683956874733575	0.728486001540122	-0.988822825545198	-0.13134617107919	0.0705521298307032	0.143938461211889	-0.717600987211917	0.6814180380181	5.91118327557904	-46.7596199363501	93.2529631580675
65250	1662101772980	7.1311274223025	0.641383178759152	6.6054677581986	0.0397103431580553	0.0528992732671743	-0.0714256519099425	-0.00716673254141159	0.0074077834413523	-0.00383819267099492	0.3994140625	-0.392822265625	0.466552734375	0	0	0	-0.320542382411935	0.237776173293233	-0.680360403611847	-0.6146745428996	-0.0388555747776966	0.683965758057787	0.728478610607842	-0.98883512233061	-0.131275395450389	0.0705114983158821	0.143858768082107	-0.717605471240138	0.681430144983415	5.90769884287982	-46.7590017914106	93.251434909973
65251	1662101772981	7.12304549086741	0.662736297971737	6.63223849089426	0.0219925448906829	0.0261626120795068	-0.0575648305692589	-0.000812179564294782	0.0115635076323058	-0.00270750133652953	0.404541015625	-0.397705078125	0.467041015625	0	0	0	-0.320485450750327	0.237764938366879	-0.680374735233595	-0.614692711520618	-0.0388838925215804	0.684042374811455	0.728405156739485	-0.988843188591988	-0.13124140897365	0.0704616274708579	0.143795658062408	-0.717538655427647	0.681513819881507	5.90283030266071	-46.7528588196187	93.2534357877644
65252	1662101772981	7.12917136196823	0.665585765701867	6.60946977092634	0.0161366130408419	0.0473117882697489	-0.0684233792314615	-0.00128068850516334	0.00370508580008917	0.00113036799259599	0.40234375	-0.39892578125	0.4619140625	0	0	0	-0.320487819740341	0.237721836715253	-0.680394833024738	-0.61468590104219	-0.0388976009160675	0.684084315697441	0.728365035994822	-0.988832128311604	-0.131299142817355	0.0705092697038602	0.143867990399944	-0.717488107296694	0.681551771493619	5.90646666922797	-46.7495038038682	93.2543812032566
65253	1662101772982	7.12311335607472	0.638045992810513	6.63031770136884	0.0455290167596635	0.0319854987208487	-0.0605663936415439	-0.00799480962921507	0.00325449728695024	0.002349364973208	0.399658203125	-0.399658203125	0.462646484375	0	0	0	-0.320431379198631	0.237767990333777	-0.68040287286491	-0.614688575292138	-0.0389633732603706	0.68409509494814	0.728351396382316	-0.988848395235896	-0.131248676355918	0.0703749685201665	0.143738327468939	-0.717487063313838	0.681580227995001	5.89505134962412	-46.748363266553	93.2598209564022
65254	1662101772982	7.11620083777432	0.634611665388658	6.65398448623501	0.0505909707713357	0.0103600515964744	-0.0497016989482368	-0.00466907076229131	0.00538818056164622	0.00184781889476787	0.4013671875	-0.404296875	0.46337890625	0	0	0	-0.320368923369138	0.237842412850421	-0.680419649043311	-0.614673767769999	-0.039079824309466	0.68407758321157	0.728361604890976	-0.9888668541572	-0.131214291729847	0.0701794442488565	0.143579636721873	-0.717510048566047	0.681589479177579	5.87870863568119	-46.7492168944743	93.2696260953597
65255	1662101772983	7.15267818237291	0.639919811373037	6.61438141110935	0.0371321044002278	0.0632816033209779	-0.0497492479487711	-0.00463777299305291	0.0034794065499316	0.00173985727091099	0.3984375	-0.40576171875	0.4599609375	0	0	0	-0.320322661152763	0.237875710065779	-0.680430154179438	-0.614673364150473	-0.0391400963119039	0.684090622934054	0.728346121342314	-0.988878544821547	-0.131183603929283	0.0700720033376	0.143482669519056	-0.717503227640004	0.681617078625427	5.86953552586333	-46.7479221769187	93.2745955223797
65256	1662101772983	7.1216302716433	0.66056702799891	6.6339744736555	0.0165398911067389	0.0245690392716436	-0.0575499179738639	-0.00947879928336784	0.00112081178168626	0.0052902721020037	0.399169921875	-0.41064453125	0.46044921875	0	0	0	-0.320177607547229	0.238067590716279	-0.680454308443373	-0.614647912220265	-0.0393884872572055	0.684031816831865	0.728387960247345	-0.988927463352149	-0.131063532507633	0.069604760429916	0.143076969843068	-0.717581231644418	0.681620243751759	5.83064088723911	-46.7514207723312	93.2956137866401
65257	1662101772984	7.27347171198607	0.737811371222771	6.63580079854738	-0.0674810660623169	0.116688253002218	0.059669932496746	-0.00849709131478293	-0.0011237857115093	0.0140256775248879	0.40625	-0.402099609375	0.454833984375	0	0	0	-0.320119853410219	0.238148635994812	-0.680490819746827	-0.614606175421889	-0.0395650571717949	0.683995507379601	0.72841248763013	-0.988939933157613	-0.131088952614177	0.0693793565027453	0.142941998227286	-0.717611198621538	0.681617013252861	5.81191610374177	-46.7534718730212	93.3105298523625
65258	1662101772985	6.95164006681482	0.62993828774156	6.60782037069092	0.0421568735316698	-0.0719632444590858	-0.201316213512424	-0.021333103627298	-0.000230837727963903	0.0199250455227171	0.40185546875	-0.3974609375	0.465576171875	0	0	0	-0.319958422846177	0.238482421844148	-0.68050110333283	-0.614549420701002	-0.0399112343316982	0.683794198539586	0.728582587918299	-0.989012036818748	-0.130910287974824	0.0686854244361926	0.142345651151525	-0.717835629197906	0.681505484242273	5.75511273105317	-46.7676986465374	93.3404111896244
65259	1662101772986	7.26047085069874	0.637877463845508	6.59460882150251	0.0159790525026853	0.146546672469795	0.0152553132964126	-0.0431639194538243	-0.0111323672087046	0.0205979306817585	0.3984375	-0.3984375	0.4619140625	0	0	0	-0.319819882702032	0.238724101859431	-0.680500210011644	-0.614528689317249	-0.0401394652689659	0.683676375767473	0.728680613537492	-0.989071232786798	-0.130730586394865	0.0681733837685843	0.141869375841037	-0.71798058956932	0.681452091639733	5.71293856483138	-46.7758989772576	93.3600472170121
65260	1662101772987	7.11022909255678	0.620202478865991	6.67767444449526	0.0476761010794046	-0.0142571241031821	-0.0388003082431592	-0.0106982955382112	0.00414036773672854	0.0216697065784643	0.40380859375	-0.400390625	0.459228515625	0	0	0	-0.319740402144653	0.23878711233923	-0.680580075692148	-0.614457118754383	-0.0404170488968756	0.683674770130263	0.728666776274176	-0.989074319435486	-0.130846328385508	0.067906030522057	0.141769012099606	-0.717961034482627	0.681493580434136	5.69033749344042	-46.7747413456508	93.3832376899092
65261	1662101772988	7.13045362945946	0.625604608451293	6.6077081060064	0.0277547097438134	0.0483022756972883	-0.0713603725605143	-0.0401366417824718	-0.00912006916358148	0.0222296678976056	0.3955078125	-0.406494140625	0.458740234375	0	0	0	-0.319602424263228	0.23901460975573	-0.680591024954139	-0.614428322491939	-0.0406642538496185	0.683569506106761	0.728751774460833	-0.989128100955803	-0.130699705686116	0.0674031663434929	0.141322391567719	-0.718087959274156	0.681452613456768	5.64880974321633	-46.7818527249035	93.4044051958785
65262	1662101772989	7.15597524281733	0.573628090902728	6.60860357246957	0.0723275088932328	0.0697982861635129	-0.055609502435269	-0.0191630296220424	-0.00204481131328126	0.0201214858380844	0.39599609375	-0.412841796875	0.455078125	0	0	0	-0.319465862299424	0.239249141214173	-0.680635284499931	-0.614359032445414	-0.0410090841560414	0.683445003262407	0.72884921796784	-0.989172736071938	-0.130645655362032	0.0668506615298824	0.140909734328898	-0.718216290716574	0.681402822507132	5.60320898036287	-46.7900064986318	93.4338295019149
65263	1662101772990	7.1546359127528	0.619340545090226	6.61422307528539	0.024560471280606	0.0582510813538105	-0.0496782168612988	-0.0213325123670925	-0.000251796637535146	0.0199253813374276	0.390625	-0.40283203125	0.456787109375	0	0	0	-0.319357842106358	0.239382388345783	-0.680675748040252	-0.61431845720675	-0.0412468036405763	0.683406064827526	0.728872315118629	-0.989200636749028	-0.130617810569973	0.0664912612094543	0.140644237154435	-0.718258406229166	0.681413281670078	5.57319035212227	-46.7919393784467	93.4538828209773
65264	1662101772991	7.11883229487396	0.586517145442652	6.65141703454751	0.0558007077830265	0.0103655042171011	-0.0525694143705504	-0.0222238668126911	-0.0021622904285003	0.0185956173948642	0.398681640625	-0.404296875	0.455078125	0	0	0	-0.319104139695703	0.239683600335974	-0.680765787101163	-0.614233068852195	-0.0417805703149607	0.683329658992696	0.728913548430185	-0.989265775330214	-0.1305390177168	0.0656718403415422	0.140027174878552	-0.718345419693381	0.681448639518102	5.50464844780677	-46.7953901513455	93.4988587328113
65265	1662101772992	7.13894844243674	0.59240705873674	6.58151806237091	0.0358712191237955	0.0729277659584015	-0.0851334493908258	-0.0213327086263465	-0.000258434702922766	0.0199250825329384	0.396728515625	-0.4091796875	0.459228515625	0	0	0	-0.318994921345661	0.239817968844148	-0.680806692350163	-0.614192013645874	-0.0420208210586051	0.683290638338837	0.728936316941382	-0.989293494773698	-0.130511024386189	0.0653089098983596	0.139759192169979	-0.718387622438035	0.681459163950286	5.47432870865137	-46.7972957191663	93.5191282524899
65266	1662101772993	7.14853099243982	0.607959961323168	6.63774347032122	0.0215615408567135	0.0355122279894818	-0.0387924192983586	-0.0213329045691578	-0.000261651600760085	0.0199248310553154	0.397216796875	-0.410888671875	0.458984375	0	0	0	-0.31880798617224	0.240089455393072	-0.680861343512442	-0.614122424498805	-0.0424302313610204	0.683179566500639	0.729016704460638	-0.98934930960086	-0.130421402273535	0.0646390085111601	0.139239430690273	-0.718509525159551	0.681437042723717	5.41868695522946	-46.8040241415574	93.5539040366697
65267	1662101772995	7.14935214634568	0.580874769743035	6.63510852350796	0.0444056333629766	0.0410425903231214	-0.0417273428814528	-0.0213624528617987	0.00164363318435361	0.0200348526912134	0.39697265625	-0.4033203125	0.4609375	0	0	0	-0.318691415985603	0.240219163968129	-0.680905661107076	-0.614083068738978	-0.0426755321304213	0.683153704764989	0.729026621340576	-0.989376846812513	-0.130393475901145	0.064272828113803	0.138968535822734	-0.718539182723035	0.681461069279088	5.38798237809683	-46.8048542411177	93.5745319758352
65268	1662101772995	7.12598545294087	0.578360226941051	6.6285260984434	0.0412188313275737	0.0294242418564686	-0.0633816304473402	-0.014589229718871	-0.0017234957792852	0.0185956851772653	0.410400390625	-0.405029296875	0.44970703125	0	0	0	-0.318522245036834	0.240427379465963	-0.680972727377243	-0.614014982869493	-0.0430583604569419	0.683091977718617	0.729061950434412	-0.989417852421902	-0.130360552029811	0.063705884997488	0.13855789729781	-0.718603838321889	0.681476509239649	5.34061134257192	-46.807811592407	93.6068387214613
65269	1662101772996	7.15621512227996	0.578776536097716	6.61199781126806	0.0340644255648668	0.0614174043802165	-0.0525654790008616	-0.0180049053320954	0.0018648559308157	0.0194257274849175	0.399658203125	-0.4052734375	0.46240234375	0	0	0	-0.318415295782189	0.24054452385144	-0.681019817068067	-0.613972344831264	-0.0432993183886802	0.683068556501796	0.7290696236613	-0.989440779345564	-0.130352583654966	0.0633651963029965	0.138318882279745	-0.718627546823129	0.68150006291405	5.31203190488949	-46.8084539294802	93.6270931726924
65270	1662101772997	7.15547219365166	0.600434735599214	6.61506162824044	0.00915929867620685	0.0528327689486303	-0.0496207956457972	-0.0180050698002577	0.00186219473328988	0.019425519806726	0.39697265625	-0.403076171875	0.457763671875	0	0	0	-0.318357970627517	0.240797101789473	-0.68100469069986	-0.613919839679829	-0.0435012659708446	0.682845227753971	0.729266778889977	-0.989483934388708	-0.130238372434567	0.0629246369257565	0.137946306386134	-0.718860460228008	0.681329916615438	5.27661796977185	-46.8249607143439	93.6451529919588
65271	1662101772998	7.18645714246736	0.576324564369772	6.59570806565899	0.025565223999598	0.0904937950247867	-0.0417182309402975	-0.0203846159783365	-0.00218670871128216	0.0210320795229553	0.40087890625	-0.400146484375	0.4638671875	0	0	0	-0.318255833295664	0.240938290941079	-0.681046741049466	-0.613870752713938	-0.0437518470714126	0.682789318010248	0.729304136207207	-0.989509384235392	-0.130222877841631	0.0625554202027215	0.137684256136768	-0.718916371560521	0.68132392906335	5.24587595965407	-46.8280890199668	93.6663925069361
65272	1662101772999	7.12635394112482	0.567687720544967	6.62905256852717	0.0378652290222729	0.0259296543356095	-0.0633581080047545	-0.0207389090399409	0.00150884664607664	0.0233882852046005	0.4033203125	-0.416259765625	0.46484375	0	0	0	-0.318152372580022	0.241062045607425	-0.681112081746666	-0.613803299183044	-0.0440491554674275	0.682748762281078	0.729324207404542	-0.989526609277061	-0.13026920015915	0.0621854084374948	0.137465491797938	-0.718946495292628	0.681336315978533	5.21492420700532	-46.8297698593047	93.6914568736875
65273	1662101772999	7.1411639972703	0.522072814361548	6.57691716755254	0.0714713335478793	0.0789577181490362	-0.0908933149757658	-0.0234741000798065	-0.000392977797381549	0.0196171352249768	0.395751953125	-0.41015625	0.457275390625	0	0	0	-0.318036394168636	0.24120583310785	-0.681148891083075	-0.613766068005765	-0.0442881314979091	0.682707686384966	0.729348185957373	-0.989556620041217	-0.130221919678982	0.0618057227748683	0.137172362890733	-0.718994065751594	0.681345196117919	5.18319020470677	-46.8317779845469	93.7116506651123
65274	1662101773000	7.13362986583812	0.541054681320986	6.6034436066249	0.0503518317753575	0.0515397299043167	-0.0770984865480848	-0.0116999640878825	0.00826915430932517	0.0130545434937153	0.389404296875	-0.404541015625	0.454833984375	0	0	0	-0.317820932169971	0.241423541142598	-0.681187592151585	-0.61374912884297	-0.0446037238382129	0.682697672735919	0.729338327157379	-0.989615492310783	-0.130053361253328	0.0612151991354895	0.136644374923561	-0.719034081854032	0.681409057713558	5.13345467654141	-46.8309523332638	93.7380794287725
