// Start Time : 01/03/2022 11:11:37																																
// Update Rate : 100Hz																																
// Filter Profile : 46.1 human																																
// Firmware Version : 4.4.0																																
PacketCounter	Time_Of_Arrival	Acc_X	Acc_Y	Acc_Z	FreeAcc_X	FreeAcc_Y	FreeAcc_Z	Gyr_X	Gyr_Y	Gyr_Z	Mag_X	Mag_Y	Mag_Z	VelInc_X	VelInc_Y	VelInc_Z	OriInc_q0	OriInc_q1	OriInc_q2	OriInc_q3	Mat[1][1]	Mat[2][1]	Mat[3][1]	Mat[1][2]	Mat[2][2]	Mat[3][2]	Mat[1][3]	Mat[2][3]	Mat[3][3]	Euler_X	Euler_Y	Euler_Z
13206	1646133136983	6.00212338281522	-0.327668249066753	7.72554200917997	2.42861286636753E-15	-6.07153216591882E-16	-0.0240791532568068	0.0199803945284565	-0.00294495479631741	-0.00323205022170964	0.64404296875	-0.40673828125	0.2841796875	0	0	0	0.117266042356572	-0.302699212603017	0.389372304887143	0.861980898968425	0.513524789752774	0.600270301427243	0.613162177187909	-0.742255656172868	0.669275766993801	-0.0335632029795463	-0.430521580398422	-0.437887557415494	0.789243723999081	-2.4350803766612	-37.8185018544012	49.4533675521766
13207	1646133136984	6.02421867257461	-0.306731479756823	7.694753461919	-1.56125112837913E-15	-8.67361737988402E-17	-0.0354420782168443	0.0214391997239035	-0.00157509438641431	-0.00496805643603906	0.635986328125	-0.40771484375	0.2783203125	0	0	0	0.120533498633741	-0.303261922081262	0.393486844283834	0.859460287446859	0.506400619982256	0.603266191647788	0.616139849463058	-0.749479073531179	0.661279558165318	-0.0314716426569497	-0.426426465431535	-0.445846664187874	0.787007764645377	-2.28998000741699	-38.0347905452194	49.9888448960546
13208	1646133136984	6.02946402057664	-0.341000448094443	7.75327317906812	0.00672775838879372	-0.0244842515196506	0.014993834560892	0.018609055313972	-0.00734536723755341	-0.00114010639955396	0.640380859375	-0.41162109375	0.291748046875	0	0	0	0.118936410318217	-0.302996154638545	0.391416076370345	0.860721160268362	0.509973570866197	0.601725648856483	0.614697649683342	-0.745874748748211	0.665295170918921	-0.0324529618333435	-0.428483157426021	-0.441937302182344	0.788094921149742	-2.35805072806164	-37.9299542619901	49.7181097679673
13209	1646133136985	6.02491824355384	-0.303507375472096	7.69433356160269	0.00255358408654052	0.0224681512518353	-0.0354682276731264	0.016866677653679	-0.00149835580988221	-0.0033247146018295	0.629638671875	-0.411865234375	0.29833984375	0	0	0	0.119016966688659	-0.302967615251452	0.391426428299364	0.860715363507519	0.509991950675302	0.601696907896024	0.614710534540252	-0.745930054184523	0.665240625738067	-0.0322995995625198	-0.428364989828387	-0.442058526550487	0.788091171498157	-2.34693098175674	-37.9308902247323	49.7157413896164
13210	1646133136986	6.02898419533911	-0.343590924624433	7.72924008196379	0.0208318446949246	-0.0182107812798642	-0.00416598843420068	0.0200246830750668	-0.00446045204822502	-0.00305430380118398	0.646728515625	-0.421630859375	0.28564453125	0	0	0	0.119113491915748	-0.302929818359645	0.391452085794365	0.860703645698954	0.509997579351667	0.601682417778899	0.614720047819476	-0.746014531659781	0.665154481141756	-0.0321221850047485	-0.428211148392797	-0.442207851980016	0.788091002384459	-2.33405460565009	-37.9315812819555	49.7147488983925
13211	1646133136987	6.02796219831391	-0.318211934733056	7.72337134459345	0.00486715013835459	-0.00076617346233274	-0.0102372845023755	0.0184893679322316	-0.00449480765783294	-0.00301138524835683	0.64501953125	-0.415771484375	0.288818359375	0	0	0	0.119206419390057	-0.302911178417768	0.391464452392464	0.860691716051008	0.510000801005255	0.601642508660466	0.614756435303234	-0.746078336550086	0.66509082417854	-0.0319579618274869	-0.428096132550454	-0.442357872503984	0.788069295131522	-2.32219884914609	-37.9342245769922	49.71269578482
13212	1646133136989	6.0018022486272	-0.32930468052986	7.67711825314435	0.0204231132947218	-0.00467984916710335	-0.0624167338921442	0.0170216003205676	-0.00416833751443889	6.21916493246466E-05	0.634521484375	-0.408447265625	0.28662109375	0	0	0	0.119287412051588	-0.302896024477869	0.391488121335145	0.860675062108236	0.509982098417962	0.601624760528166	0.61478931904567	-0.746151492050883	0.665015128359027	-0.0318249896129879	-0.42799089967364	-0.442495792717912	0.788049023363074	-2.31260646867215	-37.9366134316034	49.7128984863919
13213	1646133136991	6.02750650393868	-0.320963231736205	7.6993043052801	0.0187373780363317	0.00526922500210716	-0.0293975406619609	0.0199818882383374	-0.0029455825752718	-0.00323310326094601	0.641845703125	-0.4052734375	0.28955078125	0	0	0	0.119384063255163	-0.302867657132545	0.391502711364254	0.860665007246238	0.509993618514961	0.601590224752366	0.614813557557422	-0.746220510900585	0.664946144870249	-0.0316476465706799	-0.42785681972511	-0.442646389237042	0.788037255407461	-2.2997677743669	-37.9383742991561	49.7106377307306
13214	1646133136991	6.03025761899769	-0.337197307761769	7.72852821822848	0.0208032071562347	-0.018202243329848	-0.00416591180603554	0.0200255991666134	-0.00446088505200385	-0.00305443536900318	0.63818359375	-0.41259765625	0.27880859375	0	0	0	0.119482973835583	-0.302846726029039	0.391517426108344	0.860651953201987	0.509995931173978	0.601550420100883	0.614850585315195	-0.746290529870161	0.664875848033805	-0.031473031748504	-0.427731919795682	-0.442806050972409	0.788015358993795	-2.28715587864563	-37.9410643550539	49.7086395601624
13215	1646133136992	6.05494853382131	-0.33464557546855	7.72695678002836	0.0329939998892033	-0.00222224307889086	0.00969304288346784	0.0154867074032664	-0.00420226096904806	0.000105388591993522	0.64013671875	-0.4091796875	0.2841796875	0	0	0	0.119557683481783	-0.302834554840997	0.391538818372361	0.86063612893156	0.50997717220366	0.601532510230799	0.614883666205724	-0.746357301650905	0.66480662805609	-0.0313516437379558	-0.427637769734548	-0.4429342913211	0.78799438542945	-2.27840446217554	-37.9434677554723	49.7088376744637
13216	1646133136992	6.02987063762108	-0.340040215837089	7.70441282101697	0.034626618050952	-0.0121554253675665	-0.0233259343418837	0.0184564324616768	-0.00467653172691199	-0.00452668369447841	0.6318359375	-0.40966796875	0.29443359375	0	0	0	0.119651350566811	-0.302817859496738	0.391545058586969	0.86062614727504	0.509987622131882	0.601482698783495	0.614923725624888	-0.746412962241637	0.66475204280733	-0.0311835113665212	-0.427528145354119	-0.443083834784802	0.787969796554704	-2.2662692683468	-37.9463782667808	49.7059181595263
13217	1646133136993	6.02782402472496	-0.320489885490084	7.67476653915541	0.0325386803798375	0.0113200484956135	-0.0485575722850005	0.0185680697238399	-0.00582956184025183	-0.00131716507503726	0.64111328125	-0.415283203125	0.28173828125	0	0	0	0.119744657798057	-0.302805804250015	0.39156401494509	0.860608786872066	0.509972534225165	0.601448108950932	0.614970069658117	-0.746485618587666	0.664677678257814	-0.0310291035576332	-0.427419273755585	-0.443242322285619	0.787939723682655	-2.25514523597702	-37.9497455296609	49.7051289634834
13218	1646133136994	6.03033700565533	-0.307373542217586	7.72195630324584	0.00468320399952919	-0.000725514605292264	-0.010237191801	0.0184132182432168	-0.00316174075028159	-0.00470614816998801	0.64404296875	-0.423095703125	0.287353515625	0	0	0	0.119834455725498	-0.302784697276345	0.391570621203301	0.860600708183944	0.509987751411466	0.601403829022936	0.615000754346552	-0.746539986623417	0.664624303662869	-0.0308639490823022	-0.427306145266582	-0.443382418931105	0.787922260632492	-2.24320403434592	-37.9519751014265	49.7022048095912
13219	1646133136994	6.02960955477945	-0.31134510828201	7.69805246379524	0.0185601096705176	0.00530533563646391	-0.0293972222715908	0.0231757129042457	-0.00572616616367052	-0.00144688402062737	0.639892578125	-0.411376953125	0.290771484375	0	0	0	0.119947581471685	-0.302763093271006	0.391596047779292	0.860580979580483	0.509974089433221	0.601368819202011	0.615046316465952	-0.746631622388985	0.664530226125464	-0.030672447154293	-0.427162321085966	-0.443570875799144	0.787894174104131	-2.22937907415232	-37.9552858029806	49.701316619028
13220	1646133136995	6.03146198081804	-0.333203633362536	7.70346583877342	0.0344044675499587	-0.0121275202746816	-0.0233251164689516	0.0200365657864468	-0.00615816375499535	-0.0043906073648407	0.63623046875	-0.4072265625	0.284423828125	0	0	0	0.12004958018782	-0.302752774953642	0.391604709838908	0.860566445305987	0.509973016979708	0.601313059154538	0.615101720728226	-0.746694433290067	0.664467699057426	-0.0304975442118743	-0.427053796665291	-0.443740106142706	0.787857711109195	-2.21678173210358	-37.9593118698225	49.6987553164209
13221	1646133136996	6.03297520004226	-0.325618814116031	7.72690365199567	0.0205273240766014	-0.0181583463373723	-0.00416524919269712	0.0199931660306776	-0.00464309030423088	-0.00457038980564784	0.634521484375	-0.412841796875	0.284912109375	0	0	0	0.120151616475755	-0.302730861323032	0.391612520015417	0.860556360053223	0.509987319539579	0.601262084861356	0.615139690815843	-0.746756494241595	0.664406446450875	-0.030311915520528	-0.426928181567858	-0.443900866436073	0.787835229321757	-2.20336504887358	-37.9620711732833	49.6955665929631
13222	1646133136997	6.03123212111967	-0.335461730170991	7.67925306004058	0.0481087073387369	-0.00605438637264416	-0.0424841045287287	0.0185354958084592	-0.00601083100231153	-0.00283200549105074	0.637939453125	-0.41162109375	0.287109375	0	0	0	0.12024209742327	-0.302725494860091	0.391626495823267	0.860539249853343	0.509971925061804	0.601219244985946	0.615194323045399	-0.746820638767844	0.664341051552883	-0.0301645608620169	-0.426834357988139	-0.44405673813167	0.787798225537932	-2.19276724983375	-37.966041504063	49.6944059023029
13223	1646133136998	6.03273923405423	-0.328037629424633	7.70268737643613	0.0342312233649424	-0.0120851294766943	-0.0233244567156863	0.0184578441996387	-0.00467780007997127	-0.00452717892141842	0.645263671875	-0.408447265625	0.284423828125	0	0	0	0.120337527469249	-0.302706755997976	0.391632140857358	0.86052993300829	0.509985772241328	0.601168394741683	0.615232535936717	-0.746876325001819	0.66428629146014	-0.0299913009039542	-0.426720361903664	-0.44420747870994	0.787774998711538	-2.18024878627265	-37.9688187070272	49.6912477937504
13224	1646133136998	6.03304555546777	-0.326322946065556	7.70252029100262	0.0339689350145935	-0.0120232796866372	-0.0233234669063211	0.0199842199282865	-0.00294612235373704	-0.0032358158007069	0.635986328125	-0.420654296875	0.285888671875	0	0	0	0.120426212366191	-0.302688642561829	0.391649257188805	0.860516108148283	0.509980890015069	0.601137695610583	0.615266578594545	-0.746944282610523	0.664216773437181	-0.0298381728688696	-0.426607232117424	-0.444352955206444	0.787754226078421	-2.16918478936398	-37.9712929179091	49.690074983221
13225	1646133136999	6.03452440143735	-0.318897310203784	7.72597418580341	0.0200909357435462	-0.0180539035729645	-0.00416415282768412	0.0201842959288463	-0.00712674362298033	0.000335181087537547	0.6357421875	-0.406494140625	0.288818359375	0	0	0	0.120526504801661	-0.302679980476944	0.391676953561138	0.860492507293259	0.509947986935087	0.601108247396975	0.615322619064332	-0.747032087878259	0.664125051378723	-0.0296812366901598	-0.426492802167987	-0.444529853938456	0.787716382117544	-2.15789017495143	-37.9753661052718	49.6905139827919
13226	1646133137000	6.01097807452536	-0.347831555730317	7.70907882219669	0.0374225561200951	-0.0453501718670876	-0.0311085974173881	0.0216423125152787	-0.00575972700049227	-0.00140401103231062	0.638427734375	-0.41015625	0.27880859375	0	0	0	0.120622297620999	-0.302673681231922	0.391703689122281	0.860469130145959	0.509913725235025	0.601079475588825	0.615379116352516	-0.747116255027225	0.664036962489253	-0.0295332680572347	-0.426386320478312	-0.444700322097826	0.787677808012296	-2.14724768029431	-37.9794727243656	49.6910601464878
13227	1646133137000	6.03640024712755	-0.309818167220844	7.74918365966719	0.0058905936527881	-0.0239862156005324	0.01499560016914	0.0168692978336061	-0.00150082090797146	-0.00332990799215207	0.635009765625	-0.40771484375	0.27783203125	0	0	0	0.120702852572253	-0.302645090036505	0.391713986583727	0.860463202915964	0.509932204382958	0.601050691676845	0.615391918185414	-0.747171194414415	0.663981948191208	-0.0293799032255518	-0.426267935892993	-0.44482135572721	0.787673541715433	-2.13611904271372	-37.9804032832871	49.6886823005609
13228	1646133137001	6.03688885104201	-0.337746330424529	7.73115484269721	0.0353647484185492	-0.0352157098453111	0.00191215867581995	0.0184491973074393	-0.00298135758781067	-0.0031929051741873	0.636474609375	-0.40673828125	0.28369140625	0	0	0	0.120777438738001	-0.302632338461542	0.391731426966648	0.86044928214036	0.509920313687944	0.601027732813189	0.615424193607813	-0.747232367687896	0.663918598837124	-0.0292554746618591	-0.426174919918957	-0.444946916505315	0.787652956018374	-2.12713610775574	-37.9827494202056	49.6882617117067
13229	1646133137003	6.03469362242335	-0.318236815526381	7.70156752649451	0.0332801780373048	-0.0117413802033238	-0.0233207589911561	0.0200634790717671	-0.00427897088150258	-0.00154079652574299	0.647705078125	-0.4248046875	0.284423828125	0	0	0	0.120874468825117	-0.302610524707981	0.391752567729653	0.860433703895559	0.509913592026368	0.600998452854508	0.615458356294928	-0.747309998594377	0.663838576926939	-0.0290879663175302	-0.426046822154138	-0.445105833987946	0.787632466244413	-2.11502280667292	-37.9852328262497	49.687257285048
13230	1646133137004	6.03752432570286	-0.334486879461919	7.73080030369531	0.0349047362666076	-0.0349622601466104	0.00191471157650547	0.0184935313952092	-0.00449660968747076	-0.00301207154148033	0.63916015625	-0.413818359375	0.2822265625	0	0	0	0.120947148382795	-0.30260690002166	0.39177175901941	0.86041602739151	0.509887905788236	0.600974517802175	0.615503007696413	-0.747372284356485	0.663773352265814	-0.0289759451540808	-0.425968299415175	-0.445235404897506	0.787601702714702	-2.10696718122565	-37.9884788206113	49.6875554469148
13231	1646133137005	6.01243267540214	-0.339895856219733	7.70829841910279	0.0365967261567113	-0.0449135832658727	-0.0311034583982277	0.016992219601995	-0.00434801453655815	-0.00145334198672716	0.627197265625	-0.41162109375	0.28271484375	0	0	0	0.121030961864131	-0.302591442473963	0.391788589164288	0.86040201453299	0.509880240684367	0.600945516107025	0.615537672957971	-0.74743724944494	0.6637064153418	-0.028833181862593	-0.425863473782192	-0.445374315497649	0.78757985042354	-2.09665364817979	-37.9909989579804	49.6866163060301
13232	1646133137007	6.06400673328028	-0.354093035789365	7.73471899887248	0.0625361773433856	-0.0360650633270632	0.0218551209550828	0.0201425847926925	-0.00561057412001389	0.000155166756975455	0.634765625	-0.41552734375	0.28369140625	0	0	0	0.121102196695399	-0.302591793398245	0.391824983954795	0.860375293969096	0.509822777033718	0.60094400974403	0.615586738949432	-0.747522133274141	0.663614879808748	-0.0287393730220247	-0.425783273841171	-0.445512725350455	0.787544929047166	-2.08993082346903	-37.9945661651386	49.6897311239234
13233	1646133137008	6.03872398018295	-0.329885641232487	7.73006099477609	0.0343854915100361	-0.0346021756688539	0.00191782059971679	0.0185036426295374	-0.00619559577581706	-0.00434579478416719	0.636474609375	-0.409423828125	0.28125	0	0	0	0.121200495529958	-0.302579554622203	0.391830551231079	0.86036322104671	0.509828864493156	0.600887606408468	0.615636754421243	-0.747578774238249	0.663558518010483	-0.0285669299045198	-0.425676526529309	-0.44567272481097	0.787512106015843	-2.0774882676581	-37.9982025801997	49.6867406006969
13234	1646133137009	6.01356855666306	-0.335183538466449	7.70761867415859	0.0354270178469203	-0.0441121647602573	-0.031095505003762	0.020011116800204	-0.00106549304953345	-0.000389784013426544	0.6416015625	-0.41162109375	0.286376953125	0	0	0	0.121256693857547	-0.302564528791518	0.391869297530578	0.860342939626284	0.509786319140116	0.600908017893837	0.615652063139946	-0.747659915653141	0.663470535695257	-0.0284868178248729	-0.425584961368597	-0.445776179595937	0.787503040223808	-2.07169114564935	-37.9993156489316	49.690059547268
13235	1646133137009	6.03813798726207	-0.332499623530674	7.7061193360765	0.0476134855930481	-0.0281296866894012	-0.0172352017382842	0.0184945321949101	-0.00449743245723284	-0.00301220491695635	0.637939453125	-0.41748046875	0.28759765625	0	0	0	0.121349607586395	-0.302545803057015	0.391881609184635	0.860330816706036	0.509789682870894	0.600868020808027	0.615688314659812	-0.747723278719545	0.663406154242978	-0.0283226583045611	-0.425469596680289	-0.445925886311602	0.787480619582428	-2.05982162440911	-38.0019514975222	49.6879916349426
13236	1646133137010	6.01632623232228	-0.320292230634288	7.75467539797819	0.00688173585340172	-0.0556001400294226	0.00722200641306791	0.0200652308287269	-0.00427899308626346	-0.00154138149907052	0.6396484375	-0.4072265625	0.280029296875	0	0	0	0.121406440841572	-0.302546679265314	0.391916959603412	0.86030638714526	0.509733207281496	0.600875096118656	0.615728167504877	-0.74779955819081	0.663323145794798	-0.0282528763583866	-0.425403194821275	-0.446039822344696	0.787451965975426	-2.05482565289903	-38.0048493078618	49.6914558742333
13237	1646133137011	6.04022951913973	-0.35293168936087	7.71149775824922	0.0627982565165696	-0.0450061425795191	-0.0111486208043736	0.0184949655146923	-0.00449769152894975	-0.00301224893959219	0.63671875	-0.4169921875	0.288818359375	0	0	0	0.121499364256341	-0.302527908970461	0.391929271862071	0.860294260492846	0.509736620303254	0.600835108984737	0.615764362181764	-0.747862903423582	0.663258700685943	-0.0280886747149756	-0.425287732722995	-0.446189497608015	0.78742953755853	-2.04295158955173	-38.0074812219411	49.6893855910142
13238	1646133137012	6.01482715294796	-0.328789144756429	7.70691199085396	0.0338398802769422	-0.0428906679482734	-0.0310844531391847	0.018529750380866	-0.0043135373203277	-0.00149745170848818	0.6357421875	-0.41162109375	0.28662109375	0	0	0	0.121544713306001	-0.302531776290797	0.391963262596436	0.860271008331941	0.509678650218185	0.600846986255386	0.615800757241812	-0.747931538316267	0.663183366884239	-0.028039898001731	-0.425236507726737	-0.446285470294413	0.787402814003394	-2.03947610606877	-38.0101278022535	49.6931589133481
13239	1646133137013	6.04082480263298	-0.320361203840869	7.72882003984165	0.0321394971924073	-0.0329322787129447	0.00193117774160889	0.0203117570874256	-0.00996961131158331	0.00221720027880249	0.63720703125	-0.40966796875	0.283203125	0	0	0	0.121648280097682	-0.302536148706305	0.391997465346011	0.860239246859579	0.50961973177652	0.600817204405235	0.615878572345804	-0.748029213035229	0.663079366223159	-0.0278935572308452	-0.425135302497833	-0.446480056642816	0.787347149350465	-2.02898427644786	-38.0157866908185	49.6950254286306
13240	1646133137013	6.01608892030947	-0.325834147762998	7.70605259980887	0.0330227104683185	-0.0421552607723996	-0.0310784632497025	0.0202332490309487	-0.00863936155534316	0.000519883378278286	0.638427734375	-0.40966796875	0.287109375	0	0	0	0.121702493220213	-0.302555274359271	0.392040761979656	0.860205120914646	0.509528693807593	0.600827479671462	0.615943869080914	-0.748114404577257	0.662985088180789	-0.0278497848093312	-0.425094516373409	-0.446606216393759	0.78729761820274	-2.02593025750914	-38.0205355527295	49.7005582199713
13241	1646133137014	6.01701269289724	-0.353752150652746	7.68775822745999	0.0628731260830781	-0.0535736036533126	-0.0441467621160214	0.0201199112168928	-0.0074939276654644	-0.00269234634999705	0.634033203125	-0.416748046875	0.289306640625	0	0	0	0.121807830248535	-0.302546344716776	0.392055043425974	0.860186842908516	0.509517104445552	0.600776152502747	0.616003518546296	-0.74818620770105	0.662911390828804	-0.0276746547465621	-0.424982021835443	-0.446784626518658	0.787257123577324	-2.01330442115184	-38.0248739723692	49.6987865203937
13242	1646133137015	6.04395446891928	-0.309640383819703	7.75110943132324	0.0164734948774562	-0.0372663763217561	0.0210962288972336	0.0233503075560018	-0.0100847904543869	0.000613901659589522	0.638671875	-0.41552734375	0.281005859375	0	0	0	0.121866529223794	-0.302567104661395	0.392108185154673	0.860147003346797	0.509408636623057	0.600795755092333	0.616074103981714	-0.74828696670184	0.662799440379309	-0.0276318167523247	-0.42493464956155	-0.446924336432811	0.787203392463532	-2.01032765151635	-38.0300081178867	49.7057260225618
13243	1646133137016	6.04381049980438	-0.343523309126822	7.70911651373451	0.0602159328462746	-0.0426621012595738	-0.011121933171923	0.0171179143013744	-0.00719359892977819	0.000425752406338971	0.64111328125	-0.41162109375	0.289306640625	0	0	0	0.121953632506341	-0.302564549321367	0.392131582628793	0.860124890302277	0.509375030797992	0.600766577270529	0.616130341432881	-0.748361960700068	0.662720266847093	-0.0274995215825491	-0.424842857744714	-0.447080940708472	0.787164010024933	-2.00081049371747	-38.0340988971816	49.7062179542661
13244	1646133137016	6.0430250060762	-0.318397373775564	7.70288345415905	0.0431421046199401	-0.0242881190977092	-0.0172042093760805	0.0201996336147485	-0.0088243977378544	-0.000994982964266214	0.64306640625	-0.41552734375	0.286865234375	0	0	0	0.121996628164734	-0.302592334003403	0.392175253821818	0.860089107249127	0.509272899384331	0.60078083897579	0.616200858058655	-0.748441816803439	0.662630786012457	-0.0274825087734222	-0.424824623595013	-0.447194392795862	0.787109404237617	-1.99971228868426	-38.0392286835514	49.7125559848692
13245	1646133137017	6.02063835401883	-0.34158395635369	7.70974475351786	0.0469249656748317	-0.0577159356914012	-0.0249707409650899	0.0201464265011685	-0.00560974166600934	0.000153280015332799	0.6396484375	-0.412353515625	0.28369140625	0	0	0	0.122094060487896	-0.30257689470126	0.392203003052067	0.860068059855417	0.509248054379765	0.600756868441128	0.616244759921926	-0.748528235176709	0.662539689581037	-0.0273247300646184	-0.424702131209233	-0.447361536959395	0.787080526373041	-1.98831395258106	-38.0424225399808	49.7128071324086
13246	1646133137018	6.02102197321022	-0.339991898414168	7.70951554100076	0.0456961345300351	-0.0567173234811033	-0.0249590891153506	0.0200674155341344	-0.00428050344534758	-0.00154480546252476	0.640380859375	-0.407470703125	0.284423828125	0	0	0	0.122123484355468	-0.302588707505229	0.392249665622595	0.860038445930272	0.509160547818556	0.600793211103138	0.61628163532389	-0.748605960251762	0.662452108775685	-0.0273188552868649	-0.424670051711497	-0.447442422073531	0.78705185731839	-1.98795916336937	-38.0451053296628	49.7193732678651
13247	1646133137019	6.04318787401262	-0.319541562733083	7.67841089908961	0.055810607372289	-0.0172688906421326	-0.0363482114777298	0.0185315169130543	-0.00431510243600621	-0.00150019202050699	0.6484375	-0.41064453125	0.287353515625	0	0	0	0.122213940343868	-0.302569908140573	0.392268609072086	0.86002357049681	0.509153578048913	0.600763978129302	0.616315890223711	-0.748677020942669	0.662378182244553	-0.0271636153487083	-0.424553120672079	-0.447591092704777	0.787030406946862	-1.97672536400638	-38.0475975584848	49.7183850215852
13248	1646133137020	6.02169368856205	-0.336772249182904	7.70913221945826	0.044530568166295	-0.055813065536837	-0.0249485186545417	0.0216040862163255	-0.00424605699986561	-0.0015896569628259	0.62646484375	-0.418701171875	0.281494140625	0	0	0	0.122255019578519	-0.302577869354111	0.39231393560909	0.859994255266795	0.509072817808067	0.600792135086023	0.616355154588435	-0.748758788453676	0.662286972229526	-0.0271338004789374	-0.424505763073175	-0.44768825853916	0.787000686329965	-1.9746319314083	-38.0504543572763	49.7241923027444
13249	1646133137021	6.04738641605015	-0.328141610872672	7.73126670677949	0.0428156007620474	-0.0458440941260876	0.00806155180777779	0.0168720772825725	-0.00150633005338863	-0.00333768690944098	0.635986328125	-0.416748046875	0.28076171875	0	0	0	0.122335798813591	-0.30254913077944	0.392323932526265	0.859988318385996	0.509091910863464	0.600762818803167	0.616367959774891	-0.748813177180208	0.662231768591534	-0.0269798137393714	-0.424386913057731	-0.447809245339802	0.786995951586492	-1.96344631824614	-38.0513860618401	49.7217534533245
13250	1646133137024	6.02098049014918	-0.339412210048754	7.68529779275103	0.0570663630735988	-0.0486066803021495	-0.0440851368395716	0.0215603348147983	-0.00273130316584954	-0.00177349275319061	0.644287109375	-0.4091796875	0.28369140625	0	0	0	0.122355719298901	-0.302553973128848	0.392373147197562	0.859961327419482	0.509008813404458	0.60081304699771	0.616387630013706	-0.748889883033391	0.662144782626258	-0.0269857356960887	-0.424351235377982	-0.447870482838681	0.786980342597595	-1.96391587018542	-38.0528172902838	49.7287290374919
13251	1646133137025	6.02260578331704	-0.361370920176496	7.69104811401188	0.0730206456061767	-0.0660443810468725	-0.0379803918495671	0.0200243979976573	-0.00276593836586076	-0.00172875827225202	0.62646484375	-0.410888671875	0.295654296875	0	0	0	0.122449738645118	-0.302525641859276	0.392394401315953	0.859948214335765	0.509009739667056	0.600789357895781	0.616409954789223	-0.748966101012241	0.662065390643274	-0.0268178680526892	-0.424215587241439	-0.448019604427691	0.786968595046751	-1.95173771182491	-38.0544416996748	49.727563400725
13252	1646133137026	6.02504726967493	-0.347938249508074	7.73827946926313	0.0441881553638878	-0.0767138474781921	0.000333934123709412	0.0200598054641133	-0.00257967460233008	-0.000214235945198759	0.640869140625	-0.4150390625	0.28125	0	0	0	0.122460188292033	-0.302515458956436	0.392446976881223	0.859926316443825	0.508939534858331	0.600858766327859	0.616400269942469	-0.749043166588082	0.661977745240537	-0.0268290773966076	-0.424163747208414	-0.448056031912548	0.786975798751713	-1.95253500949665	-38.0537370003219	49.7347255836577
13253	1646133137026	6.04714730755075	-0.327452116029262	7.70719895179674	0.0543077687771542	-0.0372660707678511	-0.0110654158489325	0.0200340899210692	-0.00446725480019932	-0.00305902139907114	0.63720703125	-0.40625	0.28857421875	0	0	0	0.122559659695216	-0.302493272265377	0.392461552299801	0.859913297964398	0.50894350040123	0.600818870506824	0.616435883318165	-0.749112760542572	0.661906119563647	-0.0266525960552171	-0.424036066144886	-0.448215320718847	0.786953900099155	-1.93975503695974	-38.0563283728969	49.7326290904528
13254	1646133137027	6.02308745023771	-0.326922155547992	7.70846738356979	0.0408026679009856	-0.0520980834023181	-0.0249117890050137	0.018488862123143	-0.00280070657940789	-0.0016841770567586	0.635009765625	-0.4140625	0.286865234375	0	0	0	0.122569139961324	-0.3025034003231	0.392505665288595	0.859888249389688	0.50886199101864	0.600866855575132	0.616456402325257	-0.749177182027046	0.661832217290998	-0.0266770704106758	-0.424020075027776	-0.448260123172846	0.786936997444208	-1.94157656913508	-38.0578214601133	49.7394116868514
13255	1646133137027	6.02325790777317	-0.325226272324688	7.70840593589966	0.04080540758662	-0.0520965516365088	-0.0249117922733006	0.021482021977944	-0.00140378617052524	-0.00347325984109857	0.6337890625	-0.412353515625	0.2861328125	0	0	0	0.122669513145801	-0.302464988715088	0.392522416764206	0.859879801765189	0.508882165878338	0.600837730012536	0.616468136601037	-0.749250661649856	0.661756685764319	-0.0264865034211213	-0.423866001547923	-0.448410650006897	0.786934242292308	-1.92772421128028	-38.0586753307718	49.7369216848665
13256	1646133137028	6.02483108176752	-0.347291382218595	7.71421484203462	0.0554286638473804	-0.0680535708163453	-0.0187806989401107	0.0169882765368873	-0.00264834771276323	-0.000124663393403573	0.637451171875	-0.41552734375	0.28564453125	0	0	0	0.122655682232343	-0.302471859000804	0.392576242840717	0.859854785231659	0.508789336139329	0.600917337506056	0.61646716450719	-0.74931690639337	0.66167895434637	-0.0265543813364972	-0.423860336931837	-0.448418682549833	0.786932716257433	-1.9326644627835	-38.0586045938238	49.7458202249415
13257	1646133137029	6.04833694358809	-0.350487455736937	7.68899021033652	0.0815065248194158	-0.0460437246588639	-0.0240700938245642	0.0231077627823931	-0.00439860871777224	-0.00314858357355464	0.63134765625	-0.406005859375	0.290283203125	0	0	0	0.122768289646388	-0.302443235774641	0.392595220891465	0.859840118117692	0.508794163334693	0.600877364665174	0.616502142729111	-0.749399119749862	0.661593879180964	-0.0263533365708342	-0.423709167560346	-0.448597739253465	0.786912072382931	-1.91809339916289	-38.0611499185412	49.7436725111677
13258	1646133137030	6.04974199546227	-0.342797357781986	7.71249793783502	0.0663937615755441	-0.0505397131023751	-0.00490728241216054	0.0184898229616172	-0.00280080359736323	-0.00168429530915788	0.633544921875	-0.4052734375	0.28662109375	0	0	0	0.122764108481094	-0.302440885811883	0.392641487975641	0.859820415074241	0.508724345019196	0.600944562903311	0.616494260396428	-0.749460105763023	0.661523271178234	-0.0263915054388314	-0.42368513150035	-0.448611852280564	0.786916968516332	-1.92085744848763	-38.0605763225891	49.7507098115621
13259	1646133137030	6.02416450709272	-0.318623450888098	7.70797321396817	0.0382770687929027	-0.0490945973410663	-0.02488606028591	0.0183749459798921	-0.00166112042635205	-0.00489850502551449	0.63720703125	-0.40771484375	0.28955078125	0	0	0	0.122853616697273	-0.302408473968197	0.392647593186865	0.859816242752594	0.508753964873577	0.600905607105768	0.616507789548733	-0.749513506093352	0.661469712857923	-0.0262168486914179	-0.42355508190679	-0.448742989160283	0.786912207473252	-1.90816634168189	-38.0615608393685	49.7472330561667
13260	1646133137032	6.02600473360657	-0.370091763789661	7.69606803894639	0.0831706365689962	-0.076666617519281	-0.0317687543326883	0.0214832316805816	-0.0014043531802069	-0.00347424050705469	0.643310546875	-0.40869140625	0.282470703125	0	0	0	0.12287514763608	-0.302385763211217	0.392680184364444	0.859806269521273	0.508730246029351	0.600946378271383	0.616487621301047	-0.749569159461891	0.661407941801835	-0.0261841498822216	-0.423485078790871	-0.448779439105634	0.786929096601163	-1.90574727664284	-38.0600932002833	49.7504674211722
13261	1646133137032	6.02329604289321	-0.32098930681219	7.68427481994876	0.051277009130879	-0.0417882836901081	-0.0440214848059952	0.0199471199119637	-0.00143908414473927	-0.00342922521632193	0.635009765625	-0.412353515625	0.285400390625	0	0	0	0.122968956458104	-0.302349912909247	0.392694994728734	0.859798701456553	0.50875034255754	0.60091798652121	0.616498712425971	-0.749636599623805	0.661338553725209	-0.0260054967479701	-0.423341537593519	-0.44891969307655	0.786926331822751	-1.89276059456376	-38.0609002954372	49.7480163254404
13262	1646133137033	6.02853840001479	-0.354607829956966	7.74330527522428	0.0537062579681283	-0.0874728439857715	0.00654185483004532	0.0215637138556126	-0.00273104254410568	-0.00177426133750539	0.6396484375	-0.41943359375	0.29248046875	0	0	0	0.122984103590746	-0.302367456132687	0.392745424181138	0.859767331038233	0.508649906513251	0.600966589156405	0.61653420936861	-0.749712151346376	0.661251884097517	-0.0260314406261168	-0.423328433639472	-0.448982298643499	0.786897663471656	-1.89471647053789	-38.0634834485684	49.7558799988211
13263	1646133137034	6.02656403049641	-0.364938021339155	7.69587619058586	0.0815428346989133	-0.0754727354051221	-0.0317457627897504	0.0185710799502687	-0.00412689216453246	1.61812773140131E-05	0.645263671875	-0.4072265625	0.279541015625	0	0	0	0.123072099025737	-0.302348219942954	0.392771146807982	0.859749753459615	0.50863276026494	0.600948533138276	0.616565954058625	-0.749791053398575	0.661168169353084	-0.0258849005744222	-0.423209276161008	-0.449129727754962	0.786877624677453	-1.8841061052302	-38.0657936232311	49.7559835353058
13264	1646133137035	6.05089449550241	-0.332636226325022	7.71203875019233	0.0618212446626628	-0.0465155381756996	-0.00485748367558436	0.0199924150452631	-0.00295414386407268	-0.00324375743538335	0.637451171875	-0.414794921875	0.295166015625	0	0	0	0.123065538033852	-0.302376615271361	0.392832183835686	0.859712819043871	0.508502515759843	0.601021446658625	0.616602312777275	-0.749870010047525	0.661075497382649	-0.0259644909753165	-0.423225896534269	-0.44916857349625	0.786846511770948	-1.8899697988871	-38.0684396668894	49.7666469456738
13265	1646133137036	6.00267656539233	-0.362720514162022	7.69710744538664	0.0673727497877398	-0.0899628145198656	-0.0455730236400669	0.0199480024367581	-0.00143983468346782	-0.00342998632843884	0.634521484375	-0.417724609375	0.287353515625	0	0	0	0.123159376712125	-0.30234121838597	0.392846725052412	0.85970518563538	0.508522476560963	0.600992421353268	0.616614142157184	-0.74993704539647	0.661006437086951	-0.0257860053444994	-0.423083110953766	-0.449309024620639	0.786843111185536	-1.87699516176588	-38.0693005829809	49.7641735062199
13266	1646133137036	6.02850188898376	-0.353909999616019	7.71911899301905	0.0637820301678584	-0.0776266161431917	-0.0125449641222346	0.0201270684299345	-0.00749727503657234	-0.00268474475227384	0.637451171875	-0.4150390625	0.2841796875	0	0	0	0.123130401312127	-0.302363948616765	0.392922694259499	0.859666623282217	0.508375597825469	0.601104662899025	0.616625847476933	-0.750025440241032	0.660901321217141	-0.0259091220361181	-0.423102931361675	-0.449313507313642	0.786829893699185	-1.88598217936109	-38.0701524802216	49.7776104756924
13267	1646133137037	6.00362080267467	-0.359405351103108	7.6965264999851	0.0655516748502191	-0.0876316583783057	-0.0455394382517049	0.017054338904933	-0.0075667941824174	-0.00259425178790506	0.63623046875	-0.41845703125	0.295166015625	0	0	0	0.123222253645785	-0.302360729695547	0.392933237984552	0.85964977510112	0.508362919249903	0.601054798272211	0.616684904797959	-0.750085080380488	0.660839493386859	-0.025759195849182	-0.423012428330791	-0.449471126385391	0.78678853068886	-1.87517504060531	-38.0744507429834	49.7759714137864
13268	1646133137037	5.98355217207617	-0.341224883982071	7.76825249800116	0.00961032202097135	-0.119347131234018	-0.00194113671382112	0.0126334134374775	-0.0154313659321605	-0.00303956644081143	0.635009765625	-0.41650390625	0.277099609375	0	0	0	0.123176825387742	-0.30244125630914	0.392993941775248	0.859600208176743	0.508170096420206	0.601127840687523	0.616772626058125	-0.750142855961284	0.660766462830703	-0.0259495134530673	-0.423141641480165	-0.44948081243648	0.786713512339094	-1.8891994637433	-38.0808356679715	49.7901213145257
13269	1646133137040	6.03300653368444	-0.373450774680178	7.72282449488575	0.0777247796101514	-0.0927538979156497	-0.00636254425502791	0.00968732397408249	-0.0253420731996035	-0.00788564678204681	0.6328125	-0.413818359375	0.285400390625	0	0	0	0.123279588848753	-0.302525501551144	0.392960162544557	0.859571273680936	0.508121263128369	0.600964095953609	0.616972395923425	-0.75014497374356	0.660768907252476	-0.0258257541156523	-0.423196526833697	-0.449696126937991	0.786560927769023	-1.88056038573056	-38.0953783017338	49.7851401532449
13270	1646133137041	5.98584140107421	-0.315295763643675	7.75956157998279	-0.00842283974514055	-0.100297614165896	-0.00807756202470777	0.00670467283935531	-0.0284404214153188	-0.00742093661583512	0.631591796875	-0.410400390625	0.28955078125	0	0	0	0.123262590969832	-0.302690301463944	0.392957412615712	0.859516949767389	0.507926106540064	0.600886331720113	0.617208786916549	-0.750127894999654	0.660781611075538	-0.0259962229526512	-0.423460991637292	-0.449781367795913	0.786369830134141	-1.89342413530987	-38.1125905803842	49.7923362280037
13271	1646133137042	6.03645649619861	-0.377451678893208	7.69569061184299	0.0895537409018763	-0.0851445581101352	-0.0254681314404834	0.00216809464301946	-0.0351692307305722	-0.0110790138490826	0.63623046875	-0.41162109375	0.283935546875	0	0	0	0.123356696442554	-0.302830168577962	0.39289280005093	0.85948371835071	0.507858273334366	0.600657671044153	0.617487114377014	-0.750082187759829	0.660836746221839	-0.0259134414611699	-0.423623282895624	-0.450005730028793	0.786154028883645	-1.88791686834502	-38.1328615696079	49.7853573318642
13272	1646133137042	6.06159561741146	-0.292700244087477	7.72155621209718	0.0247609945015516	-0.0268645006890233	0.00819392617600556	0.000713837514284692	-0.0365297025235197	-0.00933201624869644	0.635986328125	-0.41455078125	0.281982421875	0	0	0	0.12333241489462	-0.302996347265497	0.392860739668006	0.859443289698358	0.507707305542547	0.600544510562197	0.617721282401973	-0.750021595412207	0.660899109327538	-0.0260763054399052	-0.423911427439807	-0.450065170973803	0.785964657960055	-1.90023100987851	-38.1499207255628	49.7884335162533
13273	1646133137043	6.044644308816	-0.393866116737584	7.72092963510554	0.090323283179492	-0.106580200281117	-0.000139725587652961	-0.00240362174795755	-0.0350856464470563	-0.00942611660230847	0.635009765625	-0.41259765625	0.285888671875	0	0	0	0.123404076018895	-0.303145672898228	0.392796585020672	0.859409668214817	0.507627087598358	0.600327542290793	0.617998043608154	-0.749965188943322	0.660964553636042	-0.0260398581009254	-0.42410724505674	-0.450258482211945	0.785748270050007	-1.89809915781601	-38.1700879433718	49.7826893892715
13274	1646133137044	6.04445893209379	-0.346456758580172	7.70696892032833	0.0566261404065401	-0.0698502805759199	-0.0124424938289156	-0.0101673552986601	-0.033936005609651	-0.0108937745567435	0.643310546875	-0.418701171875	0.279541015625	0	0	0	0.123325385601138	-0.303346207201543	0.39275526662179	0.859369087402855	0.50744875823457	0.60022289415132	0.618246095905836	-0.749864046046412	0.661068299614354	-0.0263175928209915	-0.424499317093795	-0.450245689131613	0.785543855685538	-1.91882758496713	-38.1881679244276	49.7876902852766
13275	1646133137044	6.0473906836318	-0.346584749042838	7.7046629633332	0.0566084887996107	-0.0698138206190657	-0.0124421320563108	-0.00836495539626962	-0.0412837562105302	-0.00849341727729905	0.642822265625	-0.42041015625	0.28759765625	0	0	0	0.123381880202081	-0.303534658133966	0.39268252636998	0.85932767698532	0.507334289590373	0.599984572702354	0.61857128216965	-0.749787280010611	0.661154690242979	-0.0263345838015178	-0.424771648465526	-0.450436441786057	0.785287245898592	-1.92069243160005	-38.2118768293097	49.78284466301
13276	1646133137045	6.07489833422502	-0.375176419675398	7.68316241218066	0.0957308671434608	-0.0631167076739374	-0.0115148427889142	-0.00544539324525472	-0.0332640818663358	-0.00649256465838705	0.64111328125	-0.413818359375	0.287353515625	0	0	0	0.123296504496083	-0.303764306790954	0.392718195280199	0.859242478579081	0.50699933003135	0.599974156555322	0.618855953201949	-0.749786465427324	0.661140782149822	-0.026704352460265	-0.425172830281714	-0.450470728953671	0.785050435797717	-1.94822764731277	-38.2326381634385	49.801010747639
13277	1646133137046	6.08000871841466	-0.39272147924597	7.71077651447367	0.0977038404274782	-0.0864735121602395	0.0137965552732151	-0.00246357628603206	-0.0301649112648272	-0.0069608013384709	0.631591796875	-0.412353515625	0.28955078125	0	0	0	0.123353750523716	-0.303894959467563	0.392668126320188	0.859210945236462	0.506919192364803	0.599796337928445	0.619093922938872	-0.749742669990751	0.661191189607852	-0.0266859434926659	-0.425345578568011	-0.450633513836443	0.784863411683883	-1.94734921076579	-38.2499980760064	49.797102909629
13278	1646133137046	6.05212945906649	-0.328566916083654	7.66931310007097	0.0503234403118093	-0.0418526110290252	-0.0377036721125705	0.00199167319381136	-0.0221095675947689	-0.00500813475922621	0.639404296875	-0.41064453125	0.27685546875	0	0	0	0.123282372633086	-0.303992379716443	0.392686703784171	0.859178236656058	0.506771571490913	0.599821935763486	0.619189970611262	-0.749729543098771	0.661197218538159	-0.026904468073372	-0.425544576435347	-0.450590594192053	0.784780179344582	-1.96349120163098	-38.257005936444	49.8065352558785
13279	1646133137046	6.05665649751743	-0.375158975828664	7.67991522823719	0.0821875449176558	-0.0766467986170579	-0.0253332654608602	0.00647130973692689	-0.0191635128548698	-0.00703920742606728	0.63427734375	-0.406982421875	0.279296875	0	0	0	0.123356369420855	-0.304057692262388	0.392657076276296	0.859158045035678	0.506738680452444	0.599694066021991	0.619340727638129	-0.749723878069878	0.661207253146913	-0.0268155745374923	-0.425593722210723	-0.450746043314775	0.784664251798753	-1.95729770069022	-38.2680068812333	49.8023464630069
13280	1646133137047	6.0563216979488	-0.321058715570723	7.69065669498486	0.0347793119500415	-0.0469684678430668	-0.0185617903884889	0.00968804174086028	-0.0166340265559194	0.000249197020970853	0.641845703125	-0.412841796875	0.279541015625	0	0	0	0.123354784311734	-0.304167197474153	0.392660325869604	0.859118025451743	0.506600368937391	0.599642169590407	0.619504103813211	-0.749724085746922	0.661202931350764	-0.026916144302245	-0.425757984591529	-0.450821419213936	0.78453182633625	-1.96496401569664	-38.279930543963	49.807612618071
13281	1646133137047	6.06045099581434	-0.367769882349096	7.70157971312657	0.0666283146227081	-0.0817708830703682	-0.00618314039088297	0.00179958434475526	-0.0143494124250907	-0.00442566732608394	0.640625	-0.408203125	0.275146484375	0	0	0	0.123395298008399	-0.304223289931199	0.392637455857794	0.859102798593029	0.506568036241913	0.599552427275444	0.619617391303807	-0.749711321364067	0.661218857373875	-0.0268804254380755	-0.425818927804479	-0.45091740884702	0.784443580585712	-1.96257904756349	-38.2881997404108	49.8051878413288
13282	1646133137048	6.0601687759562	-0.3435012634095	7.69475448658645	0.0485681952620573	-0.0636103547548491	-0.0123567598843515	0.00641704110923404	-0.0159462966260641	-0.00589826263912285	0.6376953125	-0.415771484375	0.283935546875	0	0	0	0.123386441280931	-0.304355206537658	0.39263076475043	0.859060403541532	0.506417981649824	0.59948047477864	0.619809638696345	-0.749693698058658	0.661233737359039	-0.0270056229206107	-0.426028387496481	-0.450991247074012	0.784287388722894	-1.97210505915184	-38.302234615283	49.8101659384133
13283	1646133137049	6.0829215435069	-0.323886481753928	7.66282941071219	0.0586562142799176	-0.0241639850399813	-0.0238280356359581	0.00951232887461397	-0.0122796088754384	-0.00182587033758984	0.635986328125	-0.418701171875	0.28564453125	0	0	0	0.123452106972762	-0.304389833525865	0.392631567409846	0.859038333721709	0.506374563038769	0.59941600228888	0.619907459309301	-0.749726267448306	0.661200059114547	-0.0269259303451327	-0.426022682266247	-0.451126299418396	0.784212813060164	-1.96647686636788	-38.3093769771989	49.8095498382015
13284	1646133137049	6.08542920544709	-0.376327594702053	7.65045952027265	0.102349291728574	-0.0505196353979482	-0.0305314529929301	0.00779866687972348	-0.00796123006688416	-0.00385170796771259	0.64404296875	-0.412841796875	0.283447265625	0	0	0	0.123361285171929	-0.304446637443417	0.392698927133497	0.859000460359788	0.506199595155194	0.599543261458353	0.619927292111421	-0.749770975303522	0.661139091897861	-0.0271769342803374	-0.426151914764118	-0.451046537293386	0.784188476540253	-1.98485534647926	-38.3108251529504	49.8253062878246
13285	1646133137050	6.08829280689773	-0.363266310931419	7.69743986126469	0.0743787733795863	-0.0623977734389768	0.00772130097000456	0.0154186570897263	-0.00286219935113991	-0.0016267049565207	0.638916015625	-0.414794921875	0.28076171875	0	0	0	0.123432932472472	-0.304429336352441	0.39271612794851	0.858988436009699	0.506193644034284	0.599524013651289	0.619950765621546	-0.749830436517811	0.661076708060752	-0.0270536971792917	-0.42605435241387	-0.451163543645769	0.784174180698517	-1.9758979221191	-38.3125392077324	49.8247316063695
13286	1646133137051	6.03862067588362	-0.370244631115708	7.67677667257992	0.0619115483233337	-0.0869741219712975	-0.0390737438557132	0.0154188115756453	-0.00286223511575489	-0.0016267386173331	0.64208984375	-0.4140625	0.283447265625	0	0	0	0.123403089260427	-0.304472398857495	0.392786735526358	0.858945176533108	0.506030277457018	0.599618874546007	0.619992389941162	-0.749910213000198	0.66098051591106	-0.0271924626311728	-0.426108003603278	-0.451178415789286	0.784136471789891	-1.98612015214148	-38.3155787489951	49.8383157892079
13287	1646133137052	6.06183555525096	-0.373700365304298	7.65159451663551	0.0879260666401021	-0.0649366259375971	-0.0443480483353582	0.0199740230069808	0.000462403792539006	-0.000632616476462568	0.639404296875	-0.413818359375	0.281982421875	0	0	0	0.123486123382588	-0.304432902657959	0.392817154807311	0.858933331522464	0.506030581336678	0.599621016956958	0.619990069900775	-0.749993972874318	0.66089172044206	-0.0270402385960608	-0.425960199319445	-0.451305628011261	0.78414357022238	-1.97499277096515	-38.3154093288552	49.8383997315173
13288	1646133137053	6.0628608424014	-0.366122164749648	7.67545457443331	0.0718774294627959	-0.0692346380416794	-0.0251968799944944	0.0182600901298132	0.0047801155089147	-0.00265961271981025	0.63427734375	-0.41357421875	0.279296875	0	0	0	0.123450740552824	-0.304431169815208	0.392893743285252	0.858904001614386	0.505912338664493	0.599751509911818	0.619960347075132	-0.750080523356017	0.660788842288523	-0.0271535336366507	-0.42594825280659	-0.45128287388897	0.784163155003807	-1.98321164309161	-38.3132388649022	49.8511439826796
13289	1646133137054	6.06398072788331	-0.387845717788902	7.68177072720231	0.0877394460440496	-0.0866073887167084	-0.0189807818272119	0.0259044614249003	0.00476827820900752	-0.00441698570516597	0.6455078125	-0.410400390625	0.27783203125	0	0	0	0.123556364410251	-0.304359508215351	0.392919653712805	0.858902357837514	0.50595887097024	0.599748125411694	0.619925646309041	-0.750170342646817	0.660695941079862	-0.0269319597087586	-0.425734750636684	-0.451423370579942	0.784198229145263	-1.96695341248389	-38.3107049766431	49.8483874674098
13290	1646133137057	6.06214238984986	-0.362287098548582	7.67620398846069	0.0695535704403992	-0.0682301250144257	-0.0251730357678888	0.0198355018438935	0.00500549969497305	-0.00119442629478498	0.633056640625	-0.414306640625	0.280517578125	0	0	0	0.123545814203774	-0.304378467095195	0.392975815514439	0.858871462433272	0.505847514379083	0.599822055656843	0.619944992514742	-0.750240797830333	0.660612880426977	-0.0270068044181284	-0.425742924154248	-0.451446700908947	0.784180361123012	-1.97246022948439	-38.312117647026	49.8580836331535
13291	1646133137058	6.06328894572906	-0.384084380669933	7.68250573371275	0.0853980262387751	-0.0856083870382632	-0.0189513021566743	0.0260284445312843	0.00363360517935226	-0.00120116607479011	0.638671875	-0.41455078125	0.287353515625	0	0	0	0.123649159797586	-0.304314269539994	0.393014788101626	0.858861506279752	0.505864403375548	0.599834138312287	0.619919520512669	-0.750346953284433	0.660500523229571	-0.0268050090511635	-0.4255357271655	-0.451595023587084	0.784207421271382	-1.95766597849931	-38.3102576734216	49.8577096783129
13292	1646133137059	6.03841503901645	-0.353414035700872	7.70203119760442	0.0415241284515502	-0.0879818722309064	-0.0198748572011524	0.0275654653049142	0.00366909805151353	-0.00124982560526401	0.62939453125	-0.41796875	0.27978515625	0	0	0	0.123630433302116	-0.304279329878845	0.393107289634315	0.858834247224908	0.505761496489688	0.599991635547823	0.619851067548616	-0.750464377139019	0.660364349595788	-0.0268727450826123	-0.425450969341773	-0.45158494555906	0.784259210740024	-1.96247961817239	-38.3052594527825	49.870867105893
13293	1646133137060	6.06127203686385	-0.356086327624073	7.67718138399021	0.0675104961862653	-0.065939884158502	-0.0251430326035251	0.0275276707511189	0.00347857643425348	-0.00276396420216847	0.638916015625	-0.419921875	0.280517578125	0	0	0	0.123742415803216	-0.304211871337099	0.393142312821558	0.858825985714266	0.505788518413792	0.599993844919383	0.619826879620138	-0.750569492420462	0.660253872801	-0.0266507129167602	-0.425233361448125	-0.451743521824206	0.784285903737529	-1.94621124657886	-38.3034934084942	49.8694625756844
13294	1646133137061	6.06124440809919	-0.383554778363922	7.65986690168618	0.0944145061512528	-0.0750157653361511	-0.0379844440172086	0.0291795520697617	0.00408592023287575	0.00172942190152622	0.64306640625	-0.413818359375	0.286865234375	0	0	0	0.12369884766379	-0.304219774779079	0.393276562154088	0.858767995083817	0.505567748587257	0.600203378435625	0.619804127207035	-0.750729920742464	0.660064281493825	-0.026827791523992	-0.425212697000485	-0.451742237133636	0.784297847440034	-1.95910284178264	-38.3018322153898	49.8916466921771
13295	1646133137062	6.06178993825986	-0.345543318074055	7.70155529399605	0.0503964252294634	-0.0694319242266172	-0.00599116673182465	0.0289725364960926	0.00654149881762333	-0.00318961555316509	0.64111328125	-0.414794921875	0.287353515625	0	0	0	0.123810549958873	-0.304136797480898	0.393314856419746	0.858763750898033	0.505608464275156	0.600218394448204	0.619756371342271	-0.750839771083566	0.659948742876792	-0.026595017099461	-0.424970256620975	-0.451891066233182	0.78434351227389	-1.94200455008701	-38.298345600662	49.8900794692888
13296	1646133137063	6.06181505067575	-0.402536639155748	7.66680322063751	0.108453583112105	-0.0903081897530473	-0.0317062846088358	0.0290112646176115	0.00673243096285479	-0.00167578196984867	0.638427734375	-0.41845703125	0.286865234375	0	0	0	0.123811804197412	-0.304081319629228	0.393435611412342	0.858727900947981	0.505485941450286	0.600410559880563	0.619670172414347	-0.751005987104662	0.659758113627956	-0.0266315383527431	-0.424822280876451	-0.451914141276847	0.784410376387857	-1.94450369699934	-38.292052714976	49.9059579592558
13297	1646133137063	6.06223698041004	-0.36443051623019	7.70857201156543	0.0644307816944309	-0.0847181863021985	0.000277544424449161	0.0305866744909897	0.00695916372584035	-0.000210407933591746	0.640380859375	-0.410888671875	0.28173828125	0	0	0	0.123925015236814	-0.303995027916081	0.393489539109072	0.858717413479304	0.505506011228062	0.600447461576979	0.61961804242457	-0.751137815442643	0.659617146420571	-0.0264045897532154	-0.424565253906095	-0.452070863951378	0.784459227201712	-1.92782561878822	-38.2882472704067	49.9065720975424
13298	1646133137064	6.06036363244357	-0.338360839893848	7.70299655903958	0.0463569233351458	-0.0654085382920204	-0.00594357943677792	0.0306040590634259	0.00354795739342223	-0.00286000462696774	0.63916015625	-0.40673828125	0.290283203125	0	0	0	0.123936330974997	-0.30396997806358	0.393594499603104	0.858676544563006	0.505371244636417	0.600594882140898	0.619585097174553	-0.751286577371899	0.659446311493276	-0.0264393819657485	-0.424462464483559	-0.452124263675458	0.784484076600965	-1.93030281246013	-38.2858423982862	49.9210279855788
13299	1646133137065	6.06156168232089	-0.359369210008273	7.70934064045326	0.0621594843062871	-0.0827412778324068	0.000309062685548866	0.0337162902806604	0.00381071489960374	-0.00144301606198894	0.633544921875	-0.418701171875	0.28759765625	0	0	0	0.124070708854879	-0.303890509832084	0.393646213727541	0.858661560602439	0.505386432903935	0.600609922470788	0.619558128399807	-0.751425566347337	0.659298235244439	-0.0261812001855022	-0.424198269298947	-0.452320194147026	0.784514034476488	-1.91139443044867	-38.283873844378	49.9208865392215
13300	1646133137066	6.01099724494596	-0.335543711545466	7.70682475947326	0.0210392420880768	-0.0949927359724407	-0.0336097674773672	0.0290515956022347	0.00692375372598123	-0.000163567981948579	0.632080078125	-0.41015625	0.28515625	0	0	0	0.124056845864187	-0.303795240025538	0.393745802773403	0.858651613828556	0.505345389872308	0.600805179446962	0.619402270971385	-0.75155669651145	0.659148283585115	-0.0261929795096587	-0.424014821514062	-0.452279423140718	0.78463670226411	-1.91195502363244	-38.2724982607009	49.9323533401344
13301	1646133137066	6.03848715532043	-0.438742534709408	7.6825486748603	0.124735624103515	-0.136591227759101	-0.0329552769131531	0.0291156258083715	0.00199739935353703	-0.0026216731988891	0.632568359375	-0.41455078125	0.284912109375	0	0	0	0.124176619062837	-0.303731169488731	0.393784889237523	0.85863904230318	0.505361675378399	0.600805540874517	0.619388633341957	-0.751670779798966	0.659027256572629	-0.0259637033330835	-0.423793128607759	-0.45245527640733	0.784655087918261	-1.8951869056602	-38.2715029742925	49.9314607602967
13302	1646133137067	6.06055101983772	-0.352162459148923	7.7104677031463	0.0596918930144486	-0.0779690582724556	0.000363461026365641	0.0290232201079394	0.0050250801354605	-0.00300199269477199	0.63427734375	-0.4150390625	0.28173828125	0	0	0	0.124165005508405	-0.303667643395504	0.393846565473654	0.858634902986319	0.505341690438456	0.600931025844077	0.619283196996971	-0.751750604303786	0.658935868543409	-0.0259721018755841	-0.42367535311096	-0.452421731711606	0.784738027523438	-1.8955992767087	-38.2638085957275	49.9384711778638
13303	1646133137067	6.03606940645734	-0.380442461391091	7.69487874367627	0.0773854927312391	-0.105405816213135	-0.0263228851603756	0.0304384312634721	0.00618908039071742	-0.00626824122710147	0.635498046875	-0.41455078125	0.2763671875	0	0	0	0.124287229951676	-0.303580534814345	0.393875287746012	0.858634847333703	0.505402233169665	0.600927727645984	0.619236989248341	-0.751852462603277	0.658829884347871	-0.025711047578004	-0.423422315406856	-0.452580434438349	0.784783086705551	-1.87645199742419	-38.2604367714326	49.9349351335253
13304	1646133137067	6.05715751887457	-0.329478529637514	7.68161551739103	0.0546202515156392	-0.0530381191321216	-0.0249841931578505	0.0306542961356648	0.00203320371742134	-0.00266924297342291	0.635986328125	-0.411376953125	0.280517578125	0	0	0	0.124293549217055	-0.303611514698818	0.39395836603081	0.858584863365091	0.505233707953248	0.601019474250031	0.619285468842948	-0.751967285230359	0.658695838914724	-0.0257874725343968	-0.423419534612064	-0.452653712421145	0.784742323530634	-1.88212335395085	-38.2639743785713	49.9486560736929
13305	1646133137068	6.03820008117057	-0.393029152745657	7.72520291010001	0.0761731790012408	-0.127131479748964	-0.000902253789943685	0.0228391373624359	0.00468947959628033	-0.00432342181227263	0.634765625	-0.41552734375	0.2822265625	0	0	0	0.124382365652139	-0.303548170361733	0.393983391722457	0.858582915292222	0.505271190633827	0.601022739045628	0.619251718661778	-0.752046897121512	0.658612228323293	-0.0256007271954101	-0.423233373501408	-0.452771023645637	0.784775070769645	-1.86842534951345	-38.2615115740446	49.9467157199005
13306	1646133137070	6.03376637771602	-0.349708647034213	7.68981444915484	0.0558582632549523	-0.0847986106099851	-0.0325254186617681	0.0274592774931818	0.00308923116418779	-0.00579087407565642	0.63525390625	-0.404296875	0.2841796875	0	0	0	0.12438330643625	-0.30355264819183	0.394044083386059	0.858553343249069	0.505170100248335	0.601101966238072	0.619257293860807	-0.752129494476391	0.658516106856852	-0.0256468428618886	-0.423207269968009	-0.452805657202754	0.784769165711426	-1.87180270504449	-38.2619183994493	49.9560823892
13307	1646133137070	6.03620523034116	-0.364857237447406	7.71977044439293	0.0576123459107371	-0.108014670183879	-0.00713978190562869	0.0259982288649526	0.003440468439665	-0.00271546012204669	0.647216796875	-0.426025390625	0.280029296875	0	0	0	0.124485143739628	-0.303490180007099	0.394080364462687	0.858544015163077	0.505188753968428	0.60111063944195	0.619233657041925	-0.752230714168947	0.658408230666159	-0.0254470912273428	-0.423005053781515	-0.452950991764834	0.784794319254765	-1.85717484734751	-38.2601936231437	49.9554475392963
13308	1646133137071	6.00935422172109	-0.346530855098566	7.69159542370069	0.0406201719705975	-0.0993693000593825	-0.0463401746555032	0.0216761805941815	-0.00745651471585315	-0.00274502829678036	0.639404296875	-0.4208984375	0.29296875	0	0	0	0.124490142565099	-0.303575745687553	0.394178167680525	0.858468137532426	0.504930677508541	0.601194419209389	0.619362802582018	-0.752363170649188	0.658251553056291	-0.025584220716723	-0.423077617419625	-0.453067504032751	0.784687942068736	-1.867428687654	-38.2696178596842	49.9737995506056
13309	1646133137074	6.0370266063633	-0.361094526877879	7.71930505225975	0.0544322786003996	-0.106512021761496	-0.00710517565646462	0.0186113059668292	-0.00923556481618539	-0.00397067503820585	0.63330078125	-0.415771484375	0.2841796875	0	0	0	0.124586760321528	-0.303582467666442	0.39418997333118	0.85844632295986	0.504903900501435	0.601137154033639	0.619440209623798	-0.752426578581547	0.6581848081555	-0.0254362370915033	-0.422996802709553	-0.453240422241491	0.78463164895628	-1.85676784432404	-38.2752671292887	49.9726080914124
13310	1646133137075	6.0596908812148	-0.37053677241974	7.67009503440906	0.0923678524330313	-0.0752454560597668	-0.0314136777454959	0.0201486674899722	-0.00919991368367406	-0.00401906816993244	0.63818359375	-0.412353515625	0.28271484375	0	0	0	0.124526916027449	-0.303599105360919	0.394322276604315	0.858388357669378	0.50467505079528	0.60135078221508	0.619419348934219	-0.752575823412231	0.658005978716566	-0.0256468709330332	-0.423004400828388	-0.45321669067077	0.784641260817485	-1.87210965935505	-38.2737446449589	49.9954249834814
13311	1646133137076	6.03848852905226	-0.357576054859791	7.71832531521539	0.0520611143966254	-0.103030566437204	-0.00705510091564143	0.0185740226811662	-0.00942989349056145	-0.00548430002994422	0.635498046875	-0.40625	0.282470703125	0	0	0	0.124625171965497	-0.303605549941736	0.394328611136334	0.858368908451626	0.504657232967733	0.601285051282344	0.61949767095425	-0.752632626767017	0.657947025903721	-0.0254919640323745	-0.422924587059125	-0.453389455334855	0.784584473114293	-1.86094469479359	-38.2794610183992	49.9933370251875
13312	1646133137076	6.06220461235741	-0.360663842212105	7.69283009272977	0.076652539178617	-0.0800762849853365	-0.0122919724363193	0.0214701500994216	-0.0050117465387913	-0.00767075490838362	0.641845703125	-0.415771484375	0.2861328125	0	0	0	0.12465791118569	-0.30362999934636	0.394324514815182	0.858357388091651	0.504634001025401	0.601242958210875	0.619557447062766	-0.752642484178194	0.657937164389184	-0.0254554262505561	-0.422934765678081	-0.453459582451795	0.7845384573515	-1.85838818104675	-38.2838241116756	49.9926606966475
13313	1646133137077	6.06242168206124	-0.328984304723359	7.71002086328014	0.0464917507982707	-0.0684743799502509	0.000505723221353449	0.0201410129140387	-0.00749148635355549	-0.00269746322006429	0.63525390625	-0.40869140625	0.280029296875	0	0	0	0.124754850596864	-0.303627211725261	0.394346161628068	0.858334345323375	0.504603242218305	0.601203774071774	0.619620520951841	-0.752719643815482	0.657854664123527	-0.0253057049934307	-0.422834135042416	-0.453631197045328	0.784493487104995	-1.84757112134076	-38.2884281962551	49.992541649297
13314	1646133137078	6.03902327556994	-0.387836669298376	7.67636779508459	0.0921917639436427	-0.106168218879397	-0.0388922643217242	0.0198776218231897	-0.00182632999974424	-0.00649360227877461	0.638671875	-0.406005859375	0.286865234375	0	0	0	0.124755734647683	-0.303656627960476	0.394392129900662	0.858302689521948	0.504495000336185	0.60124984023636	0.619663960749328	-0.75278146304375	0.657781709089873	-0.0253632033567848	-0.422853241129242	-0.453675933682356	0.78445731793638	-1.85185148149583	-38.2915992582821	50.0007559972204
13315	1646133137078	6.06327882200468	-0.355040731891817	7.69224505014461	0.0740899060733439	-0.0784851508897436	-0.0122593926780201	0.0215380581388217	-0.00291455174896465	-0.00332288411086365	0.637451171875	-0.418212890625	0.290771484375	0	0	0	0.124850365829121	-0.303631634753148	0.394416067517102	0.858286771547721	0.504487592122952	0.601227145119155	0.619692011700859	-0.752861227824052	0.657696703673359	-0.0251995558781949	-0.422720050427285	-0.453829225534307	0.784440433058932	-1.83995085267258	-38.2936470234832	50.0001053371116
13316	1646133137079	6.01599481774412	-0.349165192548883	7.71886151775258	0.0349515263863958	-0.114320073373044	-0.0208212446269549	0.0229905259738938	-0.0015601044439685	-0.00507765446039158	0.643798828125	-0.419677734375	0.282958984375	0	0	0	0.12484866400599	-0.303584272027133	0.394488826339792	0.858270334315901	0.504430311341619	0.601351932181445	0.619617555159181	-0.752960295284719	0.657582753977946	-0.0252133971437788	-0.422611943423926	-0.453829015525036	0.784498801747351	-1.84082390246206	-38.2882117013923	50.0091636386985
13317	1646133137079	6.0394400999022	-0.35220934294347	7.6935778912063	0.0608198348381971	-0.0921948321169577	-0.0260725420151768	0.0215948027520529	-0.00613677305917692	-0.00445081465339597	0.63525390625	-0.4189453125	0.28466796875	0	0	0	0.124951491884465	-0.3035717893872	0.39450634631315	0.858251732350567	0.504417822813805	0.601308014337174	0.619670341328086	-0.753035006249042	0.65750373478899	-0.0250423262105192	-0.422493715209216	-0.454001663689038	0.7844625867282	-1.82842691072022	-38.2920650458585	50.0078017005319
13318	1646133137080	6.06301068209988	-0.355286570421891	7.66819286809407	0.0833658471587074	-0.0676818022564629	-0.0312775508183165	0.0215099835090833	-0.00481860205457603	-0.00615722535420774	0.638427734375	-0.415283203125	0.28466796875	0	0	0	0.124909896392019	-0.303640504572659	0.39465602217613	0.858164661312915	0.50409813628595	0.601504295278579	0.619739987215971	-0.753215111144944	0.657288283886898	-0.0252805895486203	-0.422554215853943	-0.454053625276174	0.784399923532392	-1.84595871832706	-38.2971494482557	50.0348920004504
13319	1646133137080	6.04298843940863	-0.365605072336565	7.72280491652277	0.0589335782390926	-0.112827729998759	-0.000608657019380843	0.019934987815597	-0.0050501108960719	-0.00762193136512361	0.639892578125	-0.410400390625	0.28271484375	0	0	0	0.125007273657717	-0.30362555861394	0.39465891019124	0.858154441983319	0.504111729526072	0.601445787107556	0.619785712423903	-0.753267400288076	0.657235052278656	-0.0251059697983795	-0.422444774872972	-0.454208158476756	0.784369403378076	-1.83328820394114	-38.300487748018	50.0313875882626
13320	1646133137081	6.06491717047789	-0.344893183713251	7.69141511640236	0.0668893709547383	-0.072013304542599	-0.012157911455871	0.024452662652316	-0.00191511213134272	-0.0081549047588968	0.640625	-0.41552734375	0.275390625	0	0	0	0.12502942004241	-0.303645374871542	0.394719342847191	0.858116408667997	0.503992253402804	0.601501079594149	0.619829218218242	-0.753359500069145	0.657128569012281	-0.0251298118464984	-0.422423096155421	-0.454288999465039	0.784334260885958	-1.83511017145354	-38.30366415575	50.0406663535942
13321	1646133137081	6.06662995870355	-0.366193392832414	7.69748552719706	0.0825561294609338	-0.0892517291101126	-0.00582250576465348	0.024576590680995	-0.00303707998266004	-0.00493485568393324	0.636474609375	-0.41259765625	0.284912109375	0	0	0	0.125138391683407	-0.303614888271356	0.394742114443569	0.858100836517179	0.503993325409184	0.601469319606344	0.619859165871793	-0.753444834844003	0.65703809202302	-0.0249364487776737	-0.422269592547089	-0.454461883113459	0.784316765093724	-1.82103992734267	-38.3058507489658	50.039117024234
13322	1646133137082	6.06386212909346	-0.31704998550864	7.68511179344953	0.0474638254994745	-0.0533063981818389	-0.0184649200766955	0.0215786424482589	-0.00271740344865435	-0.00181048773620015	0.63671875	-0.409912109375	0.285888671875	0	0	0	0.125131437107664	-0.303697997172486	0.394831752851353	0.858031198093122	0.503750826907497	0.601551590222684	0.619976442044835	-0.753560257554334	0.656900020775397	-0.0250858713209094	-0.422352983444724	-0.454552578923323	0.784219299921583	-1.83217195393151	-38.3144141674212	50.0565485158064
13323	1646133137082	6.06564477247957	-0.338760729891492	7.69111387328486	0.0631006564255569	-0.0705443533425008	-0.0121221019585747	0.0231254692630296	-0.00439094223824739	-0.00317904180946446	0.62939453125	-0.4140625	0.279541015625	0	0	0	0.125233626356243	-0.303678565045025	0.39485910056341	0.85801058190684	0.503731239668899	0.601525037396748	0.620018118740473	-0.753648109185743	0.65680565906384	-0.0249169368596828	-0.422219570487192	-0.454724043356579	0.784191735923719	-1.81990590319713	-38.3174576121271	50.0564002257691
13324	1646133137083	6.02030348272968	-0.386386446754466	7.70634411437597	0.0688786994090909	-0.135617233990493	-0.0270881688988851	0.021664832784743	-0.00403449042732968	-0.000103563010230717	0.634521484375	-0.4150390625	0.28173828125	0	0	0	0.12520488052372	-0.303704649290014	0.39491236552964	0.857981029769572	0.503615419102828	0.601604027434007	0.620035566574262	-0.753705244749425	0.65673592288965	-0.025026618299103	-0.422255744400349	-0.454720267594773	0.784174447785341	-1.82795176451558	-38.3187317798043	50.0665884353645
13325	1646133137084	6.06617801025493	-0.335153083911393	7.6908513620022	0.0608138706204349	-0.0685070562544768	-0.0120931926986163	0.0230695501076924	-0.00116817183484385	-0.00205406762682715	0.636474609375	-0.41357421875	0.287841796875	0	0	0	0.125298156195941	-0.303672603997845	0.394947018489642	0.857962804683984	0.503599604334622	0.601600468633601	0.620051864487032	-0.753798938106201	0.656634449280081	-0.0248668640686661	-0.422107331639687	-0.454871494115071	0.784166643270132	-1.81630917266692	-38.3199219921165	50.0673072052911
13326	1646133137084	6.04252923652616	-0.393924652909014	7.65759120211312	0.106548801213656	-0.105252348748058	-0.0513550679641739	0.0245690817792066	-0.00132879978268635	-0.00361641078907979	0.64013671875	-0.409423828125	0.2802734375	0	0	0	0.125274065712202	-0.303672547451099	0.395041773820599	0.857922717569112	0.503449961722471	0.60174603497022	0.620032132586096	-0.753915213627742	0.65649681079322	-0.0249757498179165	-0.422078176055431	-0.454877617404891	0.78417878476899	-1.82422874594222	-38.3184810032519	50.0825103217234
13327	1646133137085	6.06790207016352	-0.35461412897219	7.69702496753329	0.0742558092029407	-0.083397325818222	-0.00570461219510854	0.0245694819136242	-0.00132888899509013	-0.00361649623965957	0.638427734375	-0.4150390625	0.28466796875	0	0	0	0.125375802802927	-0.303637510160828	0.39507258127842	0.857906070625952	0.503443835890678	0.601732738438251	0.620050010559861	-0.754007924828235	0.656397127187055	-0.0247963851559149	-0.421919842387034	-0.455039034492849	0.784170340989709	-1.81115619687584	-38.3197866015896	50.0822303400337
13328	1646133137086	6.04231125957536	-0.359619170802886	7.675154129988	0.0737911737245417	-0.092557556557321	-0.038597655800066	0.0289634197901643	0.00292531805346789	-0.00737404183244194	0.63525390625	-0.41064453125	0.27392578125	0	0	0	0.12541593228487	-0.303648458270122	0.395137138568999	0.857866597696168	0.503328511027364	0.60178519641355	0.620092724811766	-0.754114614336794	0.656274971305241	-0.0247852876112586	-0.421866754355739	-0.455145844115717	0.78413691543859	-1.81042327769272	-38.3229060467251	50.0911484305212
13329	1646133137086	6.04457376577549	-0.34464777582151	7.72252796061085	0.0453535333925562	-0.104184428239924	-0.000440909838493653	0.0260129188405898	0.00173405207602135	-0.00405486869390113	0.630126953125	-0.419189453125	0.28125	0	0	0	0.125518242136644	-0.303597973562602	0.395170065403979	0.857854335390469	0.503337779714593	0.601782539731027	0.620087779581938	-0.754210875562328	0.656171580599083	-0.0245929257634762	-0.421683571763817	-0.455298398513519	0.784146882679217	-1.79635877009116	-38.3225448870201	50.0905047185586
13330	1646133137086	6.02038894312605	-0.373299945819881	7.70692237451854	0.0592973962710276	-0.130076215988385	-0.0269501963982979	0.0243138723771858	0.00261861118181889	-0.00874044856076335	0.636474609375	-0.4130859375	0.288330078125	0	0	0	0.125475789856567	-0.303675097541457	0.395227329813555	0.857806865827912	0.503153585803268	0.601849688706231	0.620172090066561	-0.754265179601368	0.656102367856637	-0.0247734077960751	-0.42180624454153	-0.455309383932649	0.784074522586114	-1.80970000226957	-38.3287024910787	50.1039706385756
13331	1646133137087	6.07000084923289	-0.332518373934012	7.74483929594543	0.0389447056085892	-0.0920949741801668	0.0325153204310418	0.027694090941303	-0.00276892134907602	-0.00351826495312131	0.634033203125	-0.4150390625	0.290283203125	0	0	0	0.125592272187276	-0.30364251017813	0.395262942382968	0.857784945984901	0.503136864782966	0.601830897791776	0.620203890474344	-0.754371508935454	0.655987575091191	-0.0245749431825489	-0.421636006293123	-0.455499584839683	0.784055614359123	-1.7952549315107	-38.3310251651441	50.1040273252423
13332	1646133137087	6.01776210714534	-0.351296516801034	7.67731431610926	0.0559674470606139	-0.103592408312673	-0.0523512544006017	0.0259760360814918	0.00153643011080322	-0.00556873927533434	0.6416015625	-0.412109375	0.295166015625	0	0	0	0.125563433161724	-0.303562285056159	0.395365787587874	0.857770165807336	0.503071666193007	0.602033308967459	0.620060314459395	-0.754498599727736	0.655839436515322	-0.024627150061465	-0.421486371882505	-0.455445417591347	0.784167526688249	-1.79880967318513	-38.3205390887132	50.1171614806634
13333	1646133137088	6.0193988538241	-0.372712119140292	7.68352017606599	0.0715179502715084	-0.120775856250419	-0.0459654337942759	0.0231301392515549	-0.00439093339811252	-0.00317509324228101	0.631591796875	-0.423828125	0.287353515625	0	0	0	0.125662490960475	-0.303545287824246	0.395395834883143	0.857747824457962	0.503044783993515	0.602011320366892	0.620103471565051	-0.754588348316129	0.655742144245341	-0.0244676285335915	-0.421357769457801	-0.455614541482856	0.784138393210608	-1.7872318817376	-38.3236909091202	50.1176382923732
13334	1646133137090	6.0696398607135	-0.361985618173797	7.70378820416975	0.0799064084104012	-0.090538421866677	0.000840628801523024	0.0261675503627151	-0.00451660035412128	-0.00478643555481018	0.64111328125	-0.403564453125	0.281494140625	0	0	0	0.125618374506384	-0.303489778587101	0.395570120152794	0.857693569010419	0.502836468670912	0.602308110964633	0.619984213702883	-0.754803681626289	0.655488608057355	-0.0246188324343539	-0.421220711715327	-0.455587120289025	0.784227956559052	-1.79806406597949	-38.3149816838079	50.1432083880123
13335	1646133137091	6.04414476965673	-0.337376729960966	7.6989520049732	0.0515769919879547	-0.0890840977098739	-0.0193848296199253	0.0246685741439127	-0.00435462000002103	-0.00322435462988943	0.637939453125	-0.414306640625	0.285888671875	0	0	0	0.125723166745675	-0.303468906341404	0.39560365801507	0.857670131223238	0.502808737298095	0.602288738736181	0.620025522771665	-0.754901026392532	0.65538286221707	-0.0244488090438568	-0.421079344124354	-0.455764828726112	0.784200616454783	-1.7857164981737	-38.3179983055805	50.143856347445
13336	1646133137091	6.04632062584123	-0.388656500859662	7.68765604604559	0.0958978468332531	-0.117510514232413	-0.0256501728159773	0.0246307973719017	-0.00455333435248352	-0.00473745450651462	0.633544921875	-0.417724609375	0.285400390625	0	0	0	0.125790260615066	-0.303500319533316	0.395622415585348	0.857640525315813	0.502740920659179	0.602248864076954	0.620119240479426	-0.754958401240361	0.655319429241616	-0.0243774087023539	-0.421057453432854	-0.455908709476428	0.784128732755138	-1.78066797024648	-38.3248425679418	50.1457921651797
13337	1646133137092	6.0463290369441	-0.356730391572871	7.70483963177075	0.0655213036337924	-0.105822656612836	-0.0129723993357107	0.0215080731755917	-0.00311312447579184	-0.0048354501916455	0.63525390625	-0.41748046875	0.29443359375	0	0	0	0.125881698905272	-0.303479905615478	0.395644492844868	0.8576241484764	0.502730764338295	0.602223410345938	0.620152193109999	-0.75503367475589	0.6552384663245	-0.0242219370268963	-0.420934589422693	-0.456058676356481	0.784107489536686	-1.7693665590237	-38.3272492725717	50.1451702671193
13338	1646133137093	6.0708738269532	-0.353516468798055	7.70320915864587	0.075695353635475	-0.0857826668829585	0.000916737090433273	0.0229599796821962	-0.00176270024139015	-0.00659428628288223	0.643310546875	-0.410400390625	0.28271484375	0	0	0	0.125810250983467	-0.303429475426812	0.395796248632781	0.857582453037552	0.502551766020856	0.602506758692664	0.620022038478456	-0.75520491252958	0.65503422063139	-0.0244071688857456	-0.420841136963236	-0.455977823508433	0.784204668379374	-1.78266790185846	-38.3177438579427	50.1684654170511
13339	1646133137093	6.04715633688776	-0.382475874793443	7.68730868677039	0.0932885819531071	-0.113168420306719	-0.0255737829320637	0.0231805863631812	-0.00590357996374493	-0.00297835639859049	0.638671875	-0.4130859375	0.283203125	0	0	0	0.125910549156671	-0.303418425185121	0.395828520967995	0.857556747310367	0.502514082492942	0.602483676789353	0.620075008445478	-0.755297998946596	0.65493263119871	-0.0242524509772158	-0.420719062657666	-0.456154214924643	0.784167585738494	-1.77145844265599	-38.3216121945318	50.169499069263
13340	1646133137095	6.04712799181946	-0.350549269427724	7.70449631499483	0.0607036559537555	-0.101094015467956	-0.0128914512914964	0.0261508218066088	-0.0010923709271527	-0.00215484523450975	0.63671875	-0.41943359375	0.28662109375	0	0	0	0.125961469303786	-0.303467892228401	0.395915836746891	0.857491455846817	0.502315777198922	0.602538371306579	0.620182530453946	-0.755439417673028	0.654768716927682	-0.0242737215670306	-0.420701968384841	-0.45631725634266	0.784081893274566	-1.77320475647051	-38.329465039665	50.1831806799772
13341	1646133137096	6.02169169205137	-0.355861640440631	7.68252243126914	0.0623640520352799	-0.111134528695668	-0.045788228236816	0.0245369681191621	-0.00152799397818504	-0.00513136708035595	0.632568359375	-0.426025390625	0.28125	0	0	0	0.126062129169658	-0.303434989817718	0.395943303909483	0.857475624512311	0.502312214087129	0.602520141820514	0.620203126628265	-0.755526785344493	0.654674479356911	-0.0240956989061277	-0.420549302943072	-0.456476510654543	0.784071093087068	-1.76023257412956	-38.3309693736197	50.1825279798627
13342	1646133137097	6.07334302756537	-0.368680973093912	7.70909977086222	0.083604700807585	-0.0981827199582154	0.00744555658330981	0.0231339193361756	-0.0043907895525708	-0.00317467605854751	0.63330078125	-0.409912109375	0.274169921875	0	0	0	0.125955487196043	-0.303513022846456	0.396183559428631	0.857352697229253	0.501836864402134	0.602879825222107	0.620238404057017	-0.755796347873984	0.654347604967336	-0.0245171860917995	-0.420632431069434	-0.45647029280521	0.784030120415628	-1.79109659771931	-38.3335460913835	50.2260200003247
13343	1646133137098	6.02501954383832	-0.368959701592081	7.71205697296466	0.059163241158105	-0.13022003452158	-0.0202230860442967	0.0246720865615129	-0.00435435952490487	-0.00322418214962785	0.642822265625	-0.417236328125	0.291748046875	0	0	0	0.126057669908203	-0.303494165557156	0.39621934005465	0.85732781938809	0.501803052078846	0.602864190935145	0.620280955867959	-0.755895260298622	0.654239396847944	-0.0243550214559003	-0.420495008748539	-0.456646010494072	0.784001510660161	-1.77932222983063	-38.3366542631553	50.2271876456454
13344	1646133137099	6.04959783332185	-0.365651919663738	7.71040181979931	0.0683101068368344	-0.112739231740421	-0.0063498864062641	0.0245380082952943	-0.00152870400569215	-0.00513233340927256	0.640625	-0.414306640625	0.282470703125	0	0	0	0.126071227346954	-0.30354214483802	0.396311967381701	0.857266024319413	0.50159798163436	0.60295370783252	0.620359807717547	-0.756025430837544	0.654085740290556	-0.0244416095104503	-0.42050566315716	-0.456747928905617	0.783936423884735	-1.78579222531025	-38.3424143022115	50.2428851957506
13345	1646133137100	6.04716619336705	-0.346268452001416	7.68044630219071	0.06600336799868	-0.0892751552014527	-0.031836207955422	0.0246828018880935	-0.00606746073438519	-0.00453900834898345	0.63916015625	-0.412353515625	0.284912109375	0	0	0	0.12617841611355	-0.303530652527772	0.396341159248449	0.857240827170951	0.501565656923322	0.602921612436335	0.620417134718446	-0.756117680347801	0.653985385585343	-0.0242728017799903	-0.420378335860136	-0.45693396098119	0.783896300566282	-1.77355714270884	-38.3466022627961	50.2432010834141
13346	1646133137101	6.04868476285444	-0.337954938088249	7.7038369776774	0.0492369716190778	-0.0940029525003466	-0.0127565463821817	0.0199634997026331	-0.00143824010351976	-0.00347164876598443	0.64013671875	-0.413330078125	0.28076171875	0	0	0	0.126185975442411	-0.30358297890464	0.396441555976817	0.857174758853591	0.50134293522813	0.603023561646353	0.620498062362963	-0.756255218929531	0.653822384592655	-0.0243789509089588	-0.420396604575596	-0.457032683191172	0.783828949042065	-1.78146118914154	-38.3525147545298	50.260474427919
13347	1646133137102	6.04771380798885	-0.342411430994509	7.68018803607055	0.0628478845901132	-0.0878883919876509	-0.0318028636811007	0.0230975662572222	-0.00459140671966295	-0.00468731706498359	0.641845703125	-0.41845703125	0.293701171875	0	0	0	0.126283403261117	-0.303569013802067	0.396468576701987	0.857152858951034	0.501317043094283	0.602996891633619	0.620544898442811	-0.756339804383802	0.653730339497382	-0.0242227893791974	-0.420275293834739	-0.457199509952528	0.783796711840061	-1.77012991961241	-38.3559367716303	50.2606833865941
13348	1646133137103	6.05351037609905	-0.374801302378239	7.73969036691107	0.0641687270532019	-0.132214855484118	0.0192337207466249	0.0215501940991301	-0.00291450494151581	-0.00332336651147193	0.634033203125	-0.40966796875	0.286376953125	0	0	0	0.126281445802806	-0.303584717340402	0.396628230944454	0.857073720435515	0.501044731630443	0.603205032991875	0.620562539216354	-0.756553501109403	0.653478085727652	-0.0243555216086176	-0.420215393416855	-0.457285555913365	0.783778631686603	-1.77986440775791	-38.3572257136768	50.2857058737307
13349	1646133137104	6.05095208415555	-0.355716982125004	7.7098038699956	0.0618397871472484	-0.108758045769168	-0.00626198786341625	0.0214638227583436	-0.00160272430837592	-0.0050346173100663	0.635986328125	-0.41845703125	0.2890625	0	0	0	0.126366061088261	-0.303561277364245	0.396653513862007	0.857057850690925	0.501033081651821	0.603190330280268	0.620586236188703	-0.756629701958031	0.653395217091921	-0.0242112452447689	-0.420092067534464	-0.4574233441111	0.783764338980051	-1.76935987743048	-38.3589571945042	50.2856742490144
13350	1646133137106	6.04846923256263	-0.336561308830889	7.67985172904233	0.0584384806153235	-0.0828649821002268	-0.0317316758605592	0.0215223671197466	-0.00482946258024656	-0.00615010553631202	0.6474609375	-0.416015625	0.281982421875	0	0	0	0.126335201323766	-0.303546272362288	0.396732521562605	0.857031145161026	0.500925933739073	0.603327095694905	0.620539784790619	-0.756721413414779	0.653285446482121	-0.0243069515611269	-0.42005465285743	-0.457399760619752	0.783798154882886	-1.77627304194223	-38.355563141436	50.2980814313481
13351	1646133137108	6.02747547808679	-0.382643336660712	7.69391495558738	0.0778313622330785	-0.133427778021972	-0.0326391628616562	0.0245018990606787	-0.00173062863528189	-0.00664718920552401	0.63916015625	-0.414306640625	0.281982421875	0	0	0	0.126434970952451	-0.303516171886756	0.396756173816365	0.857016143408081	0.500924943883615	0.603302775162692	0.620564228808099	-0.756803008667097	0.653197473317703	-0.0241302077031947	-0.419908807561389	-0.457557452493523	0.783784263046924	-1.76339659351777	-38.3573491667147	50.2970019251738
13352	1646133137108	6.02740415670056	-0.350696381595753	7.71104568730312	0.0440757724894316	-0.121295303743644	-0.0200289426568165	0.0216385271670618	-0.00422526408943694	-0.00161192385512574	0.634765625	-0.40869140625	0.276611328125	0	0	0	0.126472984551266	-0.303626470833475	0.396923941704518	0.856893771064799	0.500524701421914	0.603442214556023	0.620751574269631	-0.757044398376334	0.652911937360887	-0.0242854058782004	-0.419950952080738	-0.457781056558019	0.783631100775809	-1.77507764834597	-38.3710392035116	50.3260155368779
13353	1646133137109	6.05226544969342	-0.347689793764082	7.70913913423484	0.055509651089158	-0.104869485402536	-0.00618175806691212	0.0217072688087439	-0.00916672423389917	-0.00403981318618305	0.639892578125	-0.409423828125	0.287841796875	0	0	0	0.126571273554263	-0.303636830878757	0.396949538520903	0.856863729838531	0.500471477603893	0.603399923504801	0.620835592100982	-0.757126725034019	0.652821553157787	-0.0241483326943081	-0.419865957591512	-0.457965666886781	0.783568775289514	-1.7652053067453	-38.3771795433407	50.32703629949
13354	1646133137110	6.02715169443499	-0.353332111758015	7.68692944492856	0.0556776168744147	-0.114768617543191	-0.0390486700940986	0.0198885883840217	-0.00184192290864339	-0.00649914549800388	0.632568359375	-0.41552734375	0.27978515625	0	0	0	0.126602600794217	-0.303684016321889	0.396942788665753	0.856845506628238	0.500424881513724	0.603342917141497	0.620928548463642	-0.757131662285436	0.652816407996791	-0.0241326213881059	-0.419912590817267	-0.458048099860001	0.783495599405494	-1.76422221374593	-38.3839737520483	50.32699770032
13355	1646133137111	6.05174574699825	-0.350341183759837	7.68522847998996	0.0670980520056456	-0.0983513503799248	-0.0251990772688639	0.0200630447741889	-0.00446342344846826	-0.00307514570329306	0.645751953125	-0.422119140625	0.27734375	0	0	0	0.126683073461421	-0.303678814766738	0.396972613245785	0.856821638786656	0.500383843589364	0.603327518869805	0.620976580918428	-0.757211381268893	0.652728286462362	-0.0240147481511793	-0.419817738014476	-0.45819394259016	0.783461152720475	-1.75568760397019	-38.3874847088098	50.32858804666
13356	1646133137112	6.05334030695489	-0.341994975505574	7.70854993211714	0.0476147530917646	-0.102603298179295	-0.00611627477514531	0.0230623476076071	-0.00479405664201671	-0.00620016019661764	0.63818359375	-0.41015625	0.288330078125	0	0	0	0.126665093877409	-0.303836665384451	0.397163061852191	0.85668006692188	0.499889566136499	0.603512357324227	0.621195022698039	-0.757454356301509	0.652434912586439	-0.0243224784549669	-0.419968236641451	-0.458368322853226	0.783278469522168	-1.77858547650017	-38.4034539728607	50.3650316011485
13357	1646133137114	6.05371158769957	-0.339991262684064	7.70834699157492	0.0470277586042171	-0.102350143712547	-0.00611079684198046	0.0216018178404125	-0.00442643881624668	-0.00312520739884084	0.638427734375	-0.41064453125	0.284423828125	0	0	0	0.126751080198214	-0.303830171665442	0.397195469922874	0.856654626513557	0.499845970916991	0.603497068968505	0.62124495418834	-0.757540278790119	0.652339844682667	-0.0241961370880237	-0.419865134738095	-0.458523734157587	0.783242780908668	-1.76943319947815	-38.407104727619	50.366773351621
13358	1646133137114	6.03000047694609	-0.369202493323327	7.69259303210636	0.0640717648022222	-0.128720161105185	-0.0324762497875266	0.0215148647578045	-0.00311635237771874	-0.00483772610939593	0.63671875	-0.411865234375	0.280029296875	0	0	0	0.126779084463266	-0.303819102387968	0.397230124336229	0.85663833972491	0.499804362687987	0.603529293113817	0.621247125861835	-0.757600923686608	0.652270584124961	-0.0241645507816756	-0.41980523992353	-0.4585798484875	0.783242033533651	-1.76712648309031	-38.4072635143135	50.3706192582127
13359	1646133137115	6.05308618887276	-0.342714516745394	7.68451668256876	0.0594975521932526	-0.0949706709306954	-0.0251165360289551	0.0201030329410759	-0.00426068436305581	-0.00156267665626962	0.640869140625	-0.413330078125	0.27978515625	0	0	0	0.126855992632701	-0.303815853944963	0.397266973437085	0.856611017814389	0.499749757415662	0.603524809460486	0.621295408262986	-0.757688256379446	0.652173017898621	-0.0240595276279333	-0.419712623240786	-0.458724491487743	0.783206968049729	-1.75952981964191	-38.4107938786088	50.3734853378232
13360	1646133137116	6.03062815762024	-0.365707466387937	7.69226792384876	0.0600178919684486	-0.12786942332515	-0.0324393726294669	0.0216414630050567	-0.00422384936921461	-0.00161281631116173	0.640380859375	-0.412353515625	0.2841796875	0	0	0	0.126875449512392	-0.303926199511541	0.397358426357229	0.856526570845532	0.499470292506755	0.603574554285429	0.621471788838691	-0.757817647011908	0.652017802627871	-0.0241908853426099	-0.419811672992251	-0.458879660123947	0.783062971122999	-1.76945534736547	-38.4236921286388	50.3915476031665
13361	1646133137117	6.05770899266048	-0.349815405470744	7.73757467409845	0.0430713794673751	-0.123164721346925	0.019466312479782	0.021515666362021	-0.00311723134414647	-0.00483819172415079	0.63525390625	-0.4189453125	0.283203125	0	0	0	0.126960769455885	-0.303914483038943	0.39738392439474	0.856506256048943	0.499444007263616	0.603553201363926	0.621513649674581	-0.757894067825573	0.651933959303611	-0.0240560732773212	-0.419704974432359	-0.459026846524333	0.783033900036684	-1.75966594885134	-38.4267536402324	50.3920330401843
13362	1646133137118	6.05822017269329	-0.377918025924609	7.72035015131076	0.0700976916123077	-0.132548132694211	0.00699578996830041	0.019967705208867	-0.00143862240070165	-0.00347624915842822	0.6357421875	-0.409912109375	0.283935546875	0	0	0	0.126925819091529	-0.303961132937645	0.397518450635458	0.856432453562797	0.499173422135295	0.603734372488215	0.621555067640832	-0.758056435568613	0.651737835704658	-0.0242535359074918	-0.419733647837228	-0.459067098567594	0.782994932222415	-1.77418908968278	-38.4297828900853	50.4157280623537
13363	1646133137119	6.03218636981151	-0.323781343316926	7.73268574366173	0.0115326132188115	-0.119707472124397	-0.000854078405161829	0.0231319284768719	-0.00267405166004093	-0.00186352595441637	0.638916015625	-0.418701171875	0.28759765625	0	0	0	0.127012008391177	-0.303946880884131	0.39755989331417	0.856405496568812	0.499124849657667	0.603735148128476	0.621593319919462	-0.758154763269786	0.651628161904931	-0.0241266148420431	-0.419613797897002	-0.459221743307837	0.782968486650494	-1.76497005043795	-38.4325807190281	50.4185022621123
13364	1646133137120	6.03023157284102	-0.36477441585281	7.66844923145618	0.0678176001276721	-0.117271466532878	-0.0513598544496236	0.0199295476474416	-0.00164238677093725	-0.00498886003670038	0.642578125	-0.4111328125	0.2841796875	0	0	0	0.12698524620175	-0.303952145721043	0.397658385611612	0.856361867852266	0.498961802928681	0.603884079623079	0.621579550496914	-0.758273831854827	0.651485111199695	-0.0242475938872088	-0.41959255849259	-0.459228884395252	0.78297568071731	-1.77379828261972	-38.4315735903549	50.4346343408727
13365	1646133137121	6.03281822300947	-0.350021122224457	7.71545995346843	0.0388859279651987	-0.128721059690923	-0.0133174193142587	0.0215068007731597	-0.00140190268372725	-0.00352677831457591	0.634765625	-0.412841796875	0.281982421875	0	0	0	0.127064010682355	-0.303934833792707	0.397691493556903	0.856340954263658	0.498930185519758	0.603880668254563	0.621608243579219	-0.758357384125669	0.651392426283588	-0.0241243636693909	-0.419479138836835	-0.459364828310573	0.782956707993427	-1.76483200383169	-38.4336722872496	50.436258204799
13366	1646133137124	6.05499207327144	-0.359967390016804	7.66669278246902	0.0767420324326078	-0.0998186894054616	-0.0374722558730305	0.0201156128600801	-0.00597626110270036	-0.00287299107890345	0.640869140625	-0.420654296875	0.284423828125	0	0	0	0.127083379799225	-0.30399863582105	0.397762165974935	0.856282607155298	0.498740177475737	0.603927300828525	0.621715409721716	-0.758459997206496	0.651270147795469	-0.0241997361140384	-0.419519568088296	-0.459476887236387	0.782869287995492	-1.77053997750729	-38.4415112753199	50.4491462865508
13367	1646133137125	6.03101031546574	-0.359355379072647	7.66809266437088	0.0641725264380742	-0.11575423585303	-0.0513171007537796	0.0215562912918961	-0.0029144971583895	-0.00332605811054224	0.634765625	-0.41845703125	0.2890625	0	0	0	0.127164877793741	-0.303988480382573	0.397795148366911	0.856258791246049	0.498700047460883	0.603917869891277	0.621756760388253	-0.758544501725497	0.6511762275829	-0.0240781962139935	-0.419414474672167	-0.459622374408476	0.782840195300794	-1.76171872445615	-38.4445362211392	50.450970580402
13368	1646133137126	6.05973177348906	-0.367005232767182	7.71969028852259	0.0606674975077543	-0.125191286537153	0.00715512632035065	0.016962110609836	-0.00645851741903276	-0.00579671683088056	0.63232421875	-0.41748046875	0.287353515625	0	0	0	0.127091961175489	-0.30402723798547	0.397986674269134	0.856166852355129	0.498348091334241	0.604207160523899	0.621757900661636	-0.758764832229261	0.650908481017525	-0.024373729947619	-0.419434272843338	-0.459621427384652	0.782830143934989	-1.78335091519775	-38.4446196379198	50.4842992289433
13369	1646133137127	6.03342338005197	-0.379536207705387	7.67396454116727	0.0764010463165789	-0.129415424385945	-0.0447095000160598	0.0186171180176713	-0.00580896333545384	-0.00131030149125374	0.63525390625	-0.410888671875	0.2919921875	0	0	0	0.127162595342146	-0.30403691306295	0.398023023698507	0.856136030340331	0.498278456202099	0.604199457096793	0.621821193052146	-0.758847948876389	0.650814693903495	-0.0242904237385543	-0.419366630254424	-0.459764342074548	0.782782459682004	-1.77736776639863	-38.4492499484665	50.4878707758193
13370	1646133137128	6.03473425835802	-0.341455473789956	7.71434529645309	0.0313833564817642	-0.120502278626856	-0.0131860080536672	0.020067793087545	-0.00446392994272833	-0.00307483361512924	0.63916015625	-0.409912109375	0.280029296875	0	0	0	0.127099917320363	-0.303980337719708	0.398091121322751	0.856133765495185	0.498238826807614	0.604366749834112	0.621690359549128	-0.758910252998875	0.650738140282304	-0.0243946853865966	-0.419300965124759	-0.459652808625032	0.782883130593938	-1.78476244359149	-38.4396788292776	50.4978932379189
13371	1646133137129	6.03677196778344	-0.363194598886589	7.72044798938899	0.0466467043679711	-0.137507684130496	-0.00663011799326618	0.0201274022257658	-0.0076931441878293	-0.00418328313542523	0.633056640625	-0.408935546875	0.281005859375	0	0	0	0.127184601085775	-0.303992589169468	0.398117196768493	0.856104713579999	0.498182406734479	0.604333665048425	0.621767730675515	-0.758986369794627	0.650653549767698	-0.0242826819084428	-0.419230223249964	-0.459816027845737	0.782825165953391	-1.77670477835117	-38.4453387572835	50.4995383917813
13372	1646133137130	6.03582314076775	-0.337880992672906	7.71365077390144	0.0282903881895733	-0.119858695582272	-0.0131686979408414	0.0201277264399343	-0.00769321551568882	-0.00418335188337878	0.630859375	-0.41943359375	0.283935546875	0	0	0	0.127213627935829	-0.304087831475835	0.398105373352384	0.856072073673524	0.498085404912567	0.604245552506337	0.621931058630614	-0.758982017519056	0.650657609150727	-0.0243099308300941	-0.419353343250997	-0.459926067896322	0.782694567231458	-1.77899383455794	-38.4572881407382	50.5009140574378
13373	1646133137131	6.06101968790992	-0.364997377377451	7.69460514671027	0.069600974913514	-0.114825486838691	-0.0117638503653197	0.0185794385807536	-0.00601332108805739	-0.00282283119215926	0.640380859375	-0.416748046875	0.28515625	0	0	0	0.127286197882255	-0.304097688281715	0.398135666066212	0.856043697025106	0.498025174775462	0.60422817794142	0.621996169016709	-0.759057932046071	0.650572430469387	-0.024219176515682	-0.41928746831716	-0.460069366177261	0.782645639620793	-1.7724674327595	-38.4620522920708	50.5035061521282
13374	1646133137132	6.05988241669036	-0.33972215108983	7.68794086220148	0.050426538388738	-0.0945189846138844	-0.0182734569172762	0.0215682828891601	-0.00463176799866574	-0.00463876524044434	0.634765625	-0.411865234375	0.287109375	0	0	0	0.127225280490482	-0.304141779426093	0.398295066751883	0.855962934835826	0.497717635617286	0.604462582142428	0.622014583418465	-0.759240674927864	0.650349535610463	-0.0244760917292165	-0.419321777076532	-0.460076589624992	0.782623012023296	-1.79130920591029	-38.4633997378256	50.5317810198559
13375	1646133137133	6.04021407401637	-0.379505630056587	7.72573201743216	0.0555192025924607	-0.150856858898394	2.40533463582437E-05	0.0215583996673291	-0.00291449423476354	-0.00332920241079878	0.64111328125	-0.4189453125	0.28857421875	0	0	0	0.127304259899747	-0.304132621418412	0.398330606132532	0.855937907922433	0.497672153614509	0.604457774787028	0.62205564543392	-0.759327287911191	0.650252707258934	-0.0243615790921379	-0.419218913397442	-0.46021974664495	0.782593948001086	-1.78300006875215	-38.4664044788169	50.5341267354882
13376	1646133137134	6.03779219585627	-0.360745966946628	7.69559886726235	0.0521100355709294	-0.125193977294205	-0.0255056975292582	0.0169638473058482	-0.00646106184284105	-0.00579594841515799	0.6298828125	-0.413330078125	0.287841796875	0	0	0	0.127276519887561	-0.304134885344975	0.398441880711527	0.855889436023469	0.497492078422521	0.604625933574416	0.622036262894781	-0.759462852706859	0.650089510360746	-0.0244908937624835	-0.41918707907711	-0.460229409064861	0.782605318003021	-1.79243230025285	-38.4649861326945	50.5521209117867
13377	1646133137135	6.06340535373916	-0.321332135637699	7.73434754924757	0.0190001529752992	-0.10304243824894	0.019773765358023	0.0215980748231249	-0.0027088963854914	-0.00181765908264075	0.63037109375	-0.416259765625	0.279541015625	0	0	0	0.127352542990191	-0.304125639227403	0.398484606512427	0.855861521352077	0.49743522787432	0.604632936041964	0.622074920506283	-0.759557630218473	0.649982696333137	-0.0243864889724637	-0.419082808579071	-0.460371053739025	0.78257785071691	-1.78485870911601	-38.467814988562	50.5556590519294
13378	1646133137136	6.0400057567575	-0.380658876756038	7.70169111808296	0.0648011410791882	-0.139181883810318	-0.0188604450034795	0.0231471557321293	-0.00438950484905709	-0.00317768152674892	0.643310546875	-0.416015625	0.28076171875	0	0	0	0.127272212618565	-0.304149996072179	0.39853931338426	0.855839342091535	0.497318391152993	0.604751561592725	0.62205302553091	-0.759590933464862	0.649936399164756	-0.0245823277728499	-0.419161104611317	-0.460280594628876	0.782589127568937	-1.79915695214392	-38.4662127618881	50.5677766099558
13379	1646133137137	6.04005309979987	-0.348638288337869	7.71855253307878	0.0339635547100361	-0.127391270853594	-0.00644134774855942	0.021530741129264	-0.00483826889122006	-0.00615103771337521	0.6357421875	-0.413818359375	0.287109375	0	0	0	0.127357895693857	-0.304147475325876	0.398562994019769	0.855816463650546	0.497283706101786	0.604722379291739	0.622109121962868	-0.759664709044151	0.64985501240486	-0.0244538889574863	-0.419068545083664	-0.460433824600254	0.782548559314656	-1.78985549159058	-38.4703178480008	50.5683806723798
13380	1646133137138	6.03920654705072	-0.3531309500939	7.69484223963464	0.0454366866379997	-0.120133996581358	-0.0254090247152643	0.0215310964998825	-0.00483834712330458	-0.00615111303374797	0.6337890625	-0.4169921875	0.287841796875	0	0	0	0.127378480774212	-0.304200942359343	0.398683715515659	0.855738163392267	0.497026163300634	0.604840433203917	0.622200163417168	-0.759835048755184	0.649652035236565	-0.0245546695395321	-0.419065259449956	-0.460565178313219	0.782473018606683	-1.79740049752207	-38.4769806766976	50.5884271775425
13381	1646133137141	6.06386532345958	-0.350021054228189	7.69305880341555	0.0565687442905799	-0.103576187753247	-0.0115546305474705	0.0199825580474934	-0.00315753541169867	-0.00479166035275051	0.642578125	-0.419189453125	0.280517578125	0	0	0	0.127451800532493	-0.304195805707063	0.398712016476092	0.855715886406713	0.4969872794156	0.604827806896099	0.622243495831284	-0.759909019503289	0.649569532917189	-0.0244479852604776	-0.418977238256009	-0.460698107127652	0.782441900662514	-1.78966742964012	-38.4801521566277	50.5900392585579
13382	1646133137142	6.01696108851527	-0.373970833891811	7.70268245573744	0.0454425200095457	-0.150938487734905	-0.0325981926722054	0.0230496401230819	-0.00136463296454013	-0.003585323165204	0.640869140625	-0.4130859375	0.285888671875	0	0	0	0.127425391129481	-0.304235979230689	0.398900753398281	0.855617570866404	0.496637315759654	0.60507820998057	0.622279468086289	-0.760147764577094	0.649281917267565	-0.0246651154021564	-0.418959129991807	-0.460774729901787	0.782406477274085	-1.80563323889884	-38.4827850558216	50.62146592303
13383	1646133137143	6.04151623698947	-0.370848859915651	7.7009849663423	0.056544938441128	-0.134364983190845	-0.0187420289903972	0.0231884115383974	-0.00418249265425916	-0.0016658350178919	0.630126953125	-0.415283203125	0.2880859375	0	0	0	0.127509002631168	-0.30423147226772	0.398947212630899	0.855585055423396	0.496568665631702	0.605082042863897	0.622330524493539	-0.760251049255372	0.649165151564081	-0.0245550015452638	-0.418853079753337	-0.460934189877943	0.78236933105964	-1.79766284111963	-38.4865221669365	50.6255281220124
13384	1646133137144	6.06490718554526	-0.374188965414221	7.67573972443234	0.081129996834043	-0.109876502182274	-0.0238446544262913	0.0230214695665547	-0.0032902073560087	-0.00640576543967372	0.641357421875	-0.411865234375	0.288330078125	0	0	0	0.127493143000211	-0.30420812151933	0.399016602264106	0.855563363174941	0.496486339838577	0.605199073314054	0.622282408568251	-0.760336871468812	0.649062499211072	-0.0246112576455709	-0.418794885640587	-0.460925106473587	0.782405834579216	-1.80169461099272	-38.4830002812933	50.6356202409208
13385	1646133137145	6.01768499399175	-0.367934587161246	7.70240763605225	0.0424519348284308	-0.147829601073049	-0.0325372684695697	0.0230506823953801	-0.0013647777543362	-0.00358610661312632	0.6396484375	-0.4140625	0.2880859375	0	0	0	0.127573078513121	-0.304190493436685	0.39905692671907	0.855538907694421	0.496443425880554	0.605204418981965	0.622311446258769	-0.760430489790537	0.648957357752432	-0.0244911824113421	-0.418675763684623	-0.461066111380661	0.782386506682863	-1.79295438325666	-38.4851256988957	50.6382969146605
13386	1646133137146	6.04349439445618	-0.358208685427842	7.72418331438269	0.0391390409408457	-0.135921010067682	0.000321305534049188	0.0231504614311047	-0.00438888220660544	-0.00317756627248682	0.641357421875	-0.418701171875	0.286865234375	0	0	0	0.127621353922605	-0.304165320851601	0.399162705325621	0.855491310470969	0.496305184536749	0.605324471613536	0.622304947648449	-0.760596431867075	0.648763849400185	-0.024464986052063	-0.418538208092186	-0.461180823297379	0.782392495228408	-1.79102414582217	-38.4846500268086	50.6516932993557
13387	1646133137146	6.04261201302914	-0.362808547947775	7.70050821760371	0.0525770916711942	-0.129752229734517	-0.0186577279289342	0.0215728798375441	-0.00463346886740676	-0.00463838286367499	0.642822265625	-0.4111328125	0.288330078125	0	0	0	0.127703137146022	-0.304163819090101	0.399194158843191	0.855464963318233	0.496256789404003	0.605307885095045	0.62235967351058	-0.760678580711528	0.648671864617083	-0.0243497207559211	-0.418446287852008	-0.4613319588929	0.782352559839177	-1.78268223556486	-38.4886558374893	50.6536629478978
13388	1646133137147	6.06607254164842	-0.366309578293674	7.67519888838215	0.0769522647572197	-0.10614432452565	-0.0237697401657648	0.0200345164409726	-0.00467098009858339	-0.00458725548111849	0.63720703125	-0.409423828125	0.28271484375	0	0	0	0.127742794440546	-0.304168098923805	0.399346703536071	0.855386319998439	0.496007955943903	0.605480848410065	0.622389789319346	-0.760901980154846	0.648407977686787	-0.0243981775664797	-0.418335133878074	-0.461475932937742	0.782327092131197	-1.78628565151155	-38.4908603423101	50.6757765281732
13389	1646133137148	6.04053772445875	-0.342198292644934	7.67012265870821	0.0484049961212553	-0.104781730172304	-0.0442353490386687	0.0200348195038601	-0.00467104668888025	-0.0045873196577315	0.6318359375	-0.417236328125	0.287109375	0	0	0	0.12781791576224	-0.304169997293987	0.39937601723963	0.855360736771441	0.495958819199972	0.605464378526821	0.622444966236293	-0.760977878892916	0.648322754528014	-0.0242955509681638	-0.418255325720316	-0.461617257364083	0.782286386312745	-1.77886929367019	-38.494899518235	50.6777950945739
13390	1646133137149	6.04532919615132	-0.380664187342716	7.70637405960435	0.0641252517479835	-0.143107308148198	-0.0119466067442158	0.0215345199451268	-0.00484119193803686	-0.0061505014153797	0.628173828125	-0.41552734375	0.286865234375	0	0	0	0.127797700079347	-0.304188841256237	0.399415920883413	0.855338423581259	0.495872142000086	0.605522299638653	0.622457680030188	-0.761020836848048	0.648269339998569	-0.0243751656592779	-0.418279935774289	-0.461616298951995	0.782273793419235	-1.78472346185018	-38.4958302520331	50.685390806654
13391	1646133137150	6.04414325540064	-0.355153160337963	7.69966332795371	0.0474159043287259	-0.125488756150694	-0.0185758265493092	0.021534878659504	-0.0048412707576868	-0.0061505774027016	0.638671875	-0.4140625	0.281005859375	0	0	0	0.127881556778939	-0.304187649119907	0.399441098938465	0.855314556194112	0.495833365203471	0.605495592283725	0.622514547360929	-0.761095552773242	0.648186231829253	-0.024252183732348	-0.418189949065965	-0.461768011659508	0.782232363117399	-1.77581862633914	-38.4999934639356	50.6863483802421
13392	1646133137151	6.02013203682576	-0.354579945316451	7.70112167947445	0.0330160142554183	-0.139390144749089	-0.0323769405431751	0.0169476908682063	-0.00302635935523601	-0.00317820466436628	0.63232421875	-0.413330078125	0.286376953125	0	0	0	0.127810559547292	-0.304228403256214	0.399509204106009	0.855278864087595	0.495674948973516	0.605616351659941	0.622523236162479	-0.761150761461364	0.648113713405583	-0.0244567541266492	-0.418277256478151	-0.461711434878679	0.782219079040766	-1.79081857222742	-38.5006295853542	50.7009229702036
13393	1646133137152	6.04471620421295	-0.351787773851373	7.69936803155501	0.0440650457738053	-0.122768107393316	-0.0185256965842235	0.01844728628002	-0.00319685347960782	-0.0047414266370941	0.64013671875	-0.41357421875	0.2783203125	0	0	0	0.127875175251712	-0.304227591429656	0.399537329973573	0.855256355793304	0.495630989140996	0.605607368532223	0.622566974535747	-0.761219994814117	0.648035723023864	-0.0243684464037741	-0.418203350175861	-0.46183267193261	0.782187024334508	-1.78442960255628	-38.5038318287532	50.7029970625692
13394	1646133137153	6.02076154345305	-0.351159497435779	7.70078628389005	0.0294844279801287	-0.137711494006324	-0.0323418761476386	0.0216253010457966	-0.00614538862227314	-0.00443331343527245	0.642333984375	-0.40673828125	0.287109375	0	0	0	0.127879135726528	-0.304299236620413	0.399603968622557	0.855199140258673	0.495437285706674	0.605654894057407	0.622674911358981	-0.76130898758245	0.647927189813878	-0.024474111343965	-0.418270870797609	-0.461922619065361	0.78209780247614	-1.79236641694781	-38.5117348805673	50.7161773773354
13395	1646133137154	6.0685339506988	-0.353479915139489	7.67385459892043	0.066563190918833	-0.0990150969915139	-0.0236188757792828	0.0215649209010834	-0.00291349390502183	-0.00333304007200508	0.630126953125	-0.417724609375	0.280517578125	0	0	0	0.12795403269826	-0.30429252385209	0.399643141468606	0.855172020660803	0.495382838809659	0.605656354572265	0.622716808171354	-0.761398176759491	0.647826249986713	-0.0243714229267798	-0.418173001806916	-0.462062257703859	0.782067650887955	-1.78491965291607	-38.5148027669022	50.7193310671749
13396	1646133137157	6.02288095938434	-0.370974821512198	7.70705969264826	0.0426162530124123	-0.153305842587712	-0.02564657226932	0.020015740002407	-0.00123091503032043	-0.00197572662366758	0.6416015625	-0.41455078125	0.279296875	0	0	0	0.12794595887032	-0.3043181751756	0.39969399357997	0.855140334309312	0.495270319507776	0.605716349133783	0.622747954638719	-0.761461472031816	0.647749086209699	-0.0244447934260263	-0.418191029585531	-0.462091793593592	0.782040559733095	-1.79035166425009	-38.5170835459355	50.7284904935138
13397	1646133137158	6.04732278373094	-0.368015424852066	7.70542427053163	0.0536312977842032	-0.136676880298921	-0.0117917796780098	0.0215154140476781	-0.00140197645077948	-0.00353901634509944	0.637451171875	-0.417724609375	0.281494140625	0	0	0	0.128017747402314	-0.304305306321109	0.399733219328163	0.855115834410986	0.495223267820718	0.605723451099583	0.622778464461466	-0.761549370450782	0.647649619431161	-0.0243418737300695	-0.418086679260399	-0.462221885287449	0.782019473789706	-1.78286667734877	-38.5193177751171	50.7314871646149
13398	1646133137159	6.02290299794923	-0.337275818576944	7.72388538430332	0.0076703074402211	-0.140474849686405	-0.0133134726871233	0.0200377056570087	-0.00467203454250902	-0.00458685263958656	0.64404296875	-0.4189453125	0.28759765625	0	0	0	0.128029298090453	-0.304422638029279	0.399884214418817	0.855001737626542	0.494838945027881	0.60585336301556	0.622957559554766	-0.761753429694491	0.647402227778224	-0.0245370702503956	-0.418169978396792	-0.462398159588172	0.781870712571521	-1.79749578447151	-38.532434277349	50.7593029125058
13399	1646133137160	6.04796198185071	-0.364424951387275	7.7050932291465	0.0488154224341291	-0.135289090626785	-0.0117473551547995	0.0169206472424844	-0.00495644739184494	-0.00599533219169025	0.63720703125	-0.41748046875	0.279296875	0	0	0	0.128091845376789	-0.304433725650688	0.399903671690792	0.854979320921059	0.49479432010933	0.605827783885007	0.62301787860424	-0.761809694739118	0.647339065032385	-0.0244565713968911	-0.418120281484933	-0.462520087299979	0.781825171668821	-1.79170687510349	-38.5368524405741	50.7606492958073
13400	1646133137161	6.02411785913289	-0.364034048014353	7.70642392441044	0.0335375635123682	-0.149780342764437	-0.0255566626070731	0.0186790201877894	-0.00731491824578834	-0.00109930127533016	0.6396484375	-0.416015625	0.2900390625	0	0	0	0.128091040826896	-0.304523122063956	0.400120923204598	0.854845951152723	0.494337829884642	0.606070135023824	0.623144526877309	-0.762096869667936	0.646991864147565	-0.0246959302151327	-0.418136904837727	-0.462688360734373	0.781716706776607	-1.80948175272078	-38.5461298747931	50.797780859055
13401	1646133137162	6.02323088421465	-0.368948010619309	7.68275449940372	0.0469245477175369	-0.143607952348953	-0.0445081994265841	0.0198982447113615	-0.00185816935041715	-0.00651218340121271	0.63818359375	-0.42236328125	0.285400390625	0	0	0	0.128160404980634	-0.304515450723264	0.400144936063779	0.854827047424519	0.494308740826644	0.606055781499438	0.623181561387597	-0.762163075449653	0.646917881475429	-0.0245906699475344	-0.418050613160062	-0.462810592292839	0.781690501732014	-1.8018347427995	-38.548843009908	50.7987676421924
13402	1646133137163	6.04766002627943	-0.365930576127252	7.68112475029002	0.0564103217903261	-0.1243863915865	-0.0306057805819719	0.0183488099738252	-0.000174935995401068	-0.0051556466661287	0.644775390625	-0.408203125	0.289306640625	0	0	0	0.128118371757647	-0.304499111227991	0.400347034020175	0.854744538696085	0.494005087225226	0.606365021159479	0.62312152499321	-0.762412742488202	0.646615870338837	-0.0247936749508437	-0.417954284446537	-0.462827589216778	0.781731948159067	-1.81660336827832	-38.544444816437	50.8303239446409
13403	1646133137164	6.02314204665112	-0.335087107245787	7.69964080461359	0.0135693880603504	-0.128865664649599	-0.032186294984589	0.0230272597140955	-0.00329444268036825	-0.00640879726441042	0.640869140625	-0.416015625	0.282958984375	0	0	0	0.12820324588345	-0.304491459464862	0.400375979625992	0.854720980084397	0.49396805210297	0.606345912521989	0.623169477645908	-0.762493086310727	0.646526005366949	-0.0246661247989773	-0.417851476998634	-0.462978140684992	0.781697757715811	-1.80734312736707	-38.5479577480176	50.8315432252537
13404	1646133137165	6.07526360541913	-0.377558856235284	7.70936031951611	0.0677991242046223	-0.130252224869354	0.00892413588236351	0.0215282360254928	-0.00312265722902973	-0.00484555334207141	0.643310546875	-0.414794921875	0.283203125	0	0	0	0.128290800591894	-0.304490906200451	0.400483594098603	0.854657621145792	0.493796357798187	0.606425947421643	0.623227668929267	-0.762679475939272	0.646308722682713	-0.0245978040734796	-0.417714225285951	-0.46317664586851	0.781653517049438	-1.80244236162441	-38.5522209751633	50.8449992362357
13405	1646133137166	6.04952487834167	-0.353383971725621	7.70438056610362	0.0392050313995033	-0.128938919148079	-0.0116186028324101	0.0215176960038612	-0.00140125048561432	-0.00354130512393947	0.631103515625	-0.419677734375	0.288330078125	0	0	0	0.12836130947132	-0.304480207381994	0.400523285296727	0.85463224575167	0.49374580249547	0.606433273322654	0.623260593592501	-0.762767185833261	0.64620894433185	-0.024499397574731	-0.417613820094729	-0.463306254299128	0.781630355086853	-1.79528936358256	-38.5546332236371	50.8482104055525
13406	1646133137167	6.02577862421828	-0.382894925913603	7.68903243243667	0.0551934125460526	-0.154175104800995	-0.0376671695403665	0.0200800134209299	-0.00446237406241259	-0.00307481666737129	0.63720703125	-0.406982421875	0.281005859375	0	0	0	0.128332001317994	-0.30450125931302	0.400676370738778	0.854557386280233	0.493474858016772	0.606647392222582	0.623266801630623	-0.762956416268539	0.645978686738638	-0.0246787996890243	-0.417588399479672	-0.46334703817869	0.781619761029007	-1.80845155391284	-38.5550880689608	50.8735096880501
13407	1646133137168	6.04872267119713	-0.356526645944606	7.68073025164708	0.050152451623609	-0.120275617763189	-0.0305202875884163	0.0215975689740118	-0.000981036309424191	-0.000518832641340693	0.6376953125	-0.411376953125	0.2900390625	0	0	0	0.128396889024224	-0.30449076918286	0.40072986736513	0.854526292031355	0.493401889767911	0.606677080332138	0.623295672512755	-0.763059750330828	0.645859624580853	-0.0246000561246452	-0.417485799277664	-0.463474126069571	0.781599220742663	-1.80273241660246	-38.557203394321	50.8790297928813
13408	1646133137169	6.02726969517659	-0.372721109146458	7.71247510697337	0.0393880770619989	-0.15892088896108	-0.0186909506205115	0.0182203130755721	0.000914438672285642	-0.00838770093394435	0.640625	-0.4111328125	0.280517578125	0	0	0	0.128424439468639	-0.304467148861062	0.400686758391156	0.854550782728311	0.493499753828807	0.606612320165871	0.623281225446336	-0.763016411882258	0.645914569994306	-0.0245014992887324	-0.417449336050775	-0.463482320366214	0.781613837223164	-1.79548119242305	-38.5561448720883	50.870473096625
13409	1646133137170	6.05008036168612	-0.346099147832596	7.70427507555904	0.0343511948262235	-0.125024769103735	-0.0115496778424298	0.0246874605843734	-0.00262644297361713	-0.00192619830330442	0.6357421875	-0.412841796875	0.28125	0	0	0	0.128508183764191	-0.304456551449543	0.400737594289557	0.854518130590627	0.49343117760494	0.606624762935615	0.62332340719783	-0.763125396783174	0.645790054457295	-0.0243892260756234	-0.417331165565101	-0.463639517898716	0.781583709970161	-1.78732795552833	-38.5592355308847	50.874946209263
13410	1646133137171	6.02586615220371	-0.345185801097431	7.70592437874478	0.0198520200912079	-0.140874902330505	-0.0253871006696968	0.0245073161183763	-2.49078141259075E-05	-0.00536509414914894	0.638427734375	-0.418701171875	0.2841796875	0	0	0	0.128552014092332	-0.304512243867412	0.40079424114114	0.854465124669074	0.493272539205863	0.60663807791676	0.623435998709459	-0.763220726976485	0.645676711881806	-0.0244070819023204	-0.417344370968253	-0.46377993289378	0.781493346015277	-1.78884232870951	-38.5674857667888	50.884580258317
13411	1646133137173	6.05192873667557	-0.365396859201501	7.71086518008712	0.046675520975026	-0.141438864280736	-0.00480205097937159	0.0215704004205262	-0.00291301842919698	-0.0033335590856526	0.641357421875	-0.41357421875	0.283447265625	0	0	0	0.12862506700562	-0.304508965932911	0.400833862992436	0.854436712742863	0.493213007890061	0.606639364208694	0.623481844675937	-0.763309308796425	0.645575612832722	-0.0243110514042161	-0.417252714733843	-0.463918969118667	0.781459763608538	-1.78188513532595	-38.5708454391921	50.8880246145179
13412	1646133137174	6.02616957486473	-0.341159202038088	7.70586641929295	0.016172800376278	-0.139014381093702	-0.0253537267027113	0.0245984170801842	-0.00132566939991633	-0.00364591893109068	0.63671875	-0.41259765625	0.286376953125	0	0	0	0.128653671258444	-0.304540149652979	0.401005324041108	0.854340833749477	0.492900054680054	0.606830029161616	0.623543784993574	-0.763550862355423	0.64528592592482	-0.0244162732545007	-0.417180556465292	-0.464072612325981	0.781407060242131	-1.78971301901951	-38.5753847832505	50.914635788079
13413	1646133137175	6.05109360605751	-0.368065980878533	7.68727876590145	0.0572447869600368	-0.13376377884035	-0.0236991007135874	0.021582249057506	-0.00463583406827841	-0.00463630432327546	0.6337890625	-0.412353515625	0.281982421875	0	0	0	0.128731899723335	-0.304543914859153	0.401038390875252	0.854312185889953	0.492842425932899	0.606814935250851	0.623604023044336	-0.763633002086853	0.645192614075619	-0.0243131418391117	-0.417098287366893	-0.464222064424747	0.781362203831764	-1.78226061480912	-38.5797996505066	50.9172168228668
13414	1646133137175	6.04967413504153	-0.342710664574245	7.6806097880502	0.0395203616939201	-0.114982220037146	-0.0304079039993681	0.0214698969778682	0.000109669926740577	-0.00375112855239221	0.638671875	-0.420654296875	0.28271484375	0	0	0	0.128714740118972	-0.304547659928427	0.40106465989089	0.854301104467757	0.492795722837447	0.606860418012488	0.623596671417372	-0.763659509618603	0.64515930852542	-0.0243643180096862	-0.417104937542333	-0.464208896589358	0.781366477016449	-1.78599986578509	-38.5792608327249	50.9219754471771
13415	1646133137176	6.03120747202684	-0.375430888006969	7.74236199560202	0.030187871830001	-0.176957621074181	0.00710670511737454	0.0230714704004331	-0.00308665472396465	-0.00489683630466174	0.635009765625	-0.411865234375	0.283203125	0	0	0	0.128796407356677	-0.304541831965305	0.401100012201653	0.854274275772754	0.492746105590099	0.606851057178116	0.623644987013921	-0.763746632565924	0.645060531327693	-0.0242485498008806	-0.417004024764753	-0.46435838026791	0.781331516070458	-1.77759854473127	-38.5828020688104	50.9243660891534
13416	1646133137176	6.02858580756238	-0.356656884903524	7.71220606150011	0.0255171908713922	-0.152058718243567	-0.0185360462987099	0.023111543812317	-0.00287501442760503	-0.0033856531759214	0.63671875	-0.41357421875	0.2919921875	0	0	0	0.128784472890093	-0.304590182030305	0.401232147667073	0.85419678308434	0.492475169378428	0.607009447533929	0.623704848586447	-0.76391539169501	0.644854646441778	-0.0244081808807884	-0.417014966010992	-0.464437310696507	0.781278761106334	-1.78941384623035	-38.5871897961351	50.9471017690409
13417	1646133137177	6.03042200973866	-0.378217439390412	7.71874432902426	0.0405365426630042	-0.168902500872537	-0.011775132420901	0.0216123120361484	-0.00270128459906231	-0.00182238102426041	0.635986328125	-0.41943359375	0.285400390625	0	0	0	0.128853983288256	-0.304588154318582	0.401278951244533	0.854165037055274	0.492402519073775	0.607022106625841	0.623749886795442	-0.76401169441131	0.644743708557675	-0.0243244954326709	-0.416924321685074	-0.464574765073203	0.781245414479099	-1.78335873077806	-38.5904911788514	50.9518220280692
13418	1646133137178	6.05090452272054	-0.365127126205374	7.66345568406484	0.0635632572685551	-0.120918707302334	-0.042495223241545	0.0231631875644417	-0.00438663610268397	-0.00317645476467184	0.642578125	-0.41064453125	0.287841796875	0	0	0	0.128831593340162	-0.304551198328996	0.401402909632205	0.854123347235402	0.492248543470345	0.607223561261417	0.623675330681218	-0.764166825798938	0.64455624939247	-0.0244193308157298	-0.416821825004042	-0.464571617749206	0.781301976307616	-1.79017757967982	-38.5850261622788	50.9698893155229
13419	1646133137179	6.05245745946948	-0.356614402237368	7.68674482372249	0.0483577775040715	-0.126327868096177	-0.0235523803550919	0.0184945584540641	-0.00298975586583253	-0.00322951355824275	0.63427734375	-0.409912109375	0.27880859375	0	0	0	0.128890110264818	-0.3045555051317	0.401439327112694	0.854095867228736	0.492184821882566	0.607226955183708	0.623722314821868	-0.764243725736437	0.644467612246461	-0.0243520930893979	-0.41675607827711	-0.464690135104746	0.781266567539797	-1.78533244517365	-38.5884700849718	50.973674392639
13420	1646133137179	6.05396594602416	-0.348104154957955	7.71006601625629	0.0324920284123979	-0.131731426370755	-0.00460962321154845	0.0215338080043224	-0.00312595382081029	-0.00484517257429947	0.638427734375	-0.4150390625	0.28515625	0	0	0	0.128941718865647	-0.304585568048639	0.401451726621247	0.854071528658625	0.492128285858616	0.607189406304383	0.623803474765564	-0.764284553047827	0.644421088657585	-0.0243019025151708	-0.416747972077063	-0.464803706272986	0.781203329744921	-1.78179931287647	-38.5944194724005	50.9751608278886
13421	1646133137180	6.03024292404183	-0.377632648405183	7.69482156886864	0.0500551363199032	-0.15909337692228	-0.0306170984106977	0.0200345247040264	-0.00295162782091461	-0.00328184490619367	0.642333984375	-0.418212890625	0.279541015625	0	0	0	0.129006940365422	-0.304586912910797	0.401489938277352	0.854043237361594	0.492065283891038	0.607191881889049	0.623850763369948	-0.764367184728934	0.644326077599202	-0.024222151745692	-0.416670809271295	-0.464932171712888	0.781168043642046	-1.77603596047986	-38.5978861662737	50.978863278307
13422	1646133137181	6.0549367478751	-0.374648968395807	7.69296556242736	0.0585215066045244	-0.141528793684446	-0.0167246961912966	0.0200971545049645	-0.00618682657029972	-0.0043730797179449	0.643310546875	-0.417236328125	0.289794921875	0	0	0	0.129034627982911	-0.304671322909802	0.401663705065445	0.853927232152016	0.491683306058982	0.607356850227463	0.623991332491635	-0.764609453462373	0.644032665628823	-0.0243784593238594	-0.416677225462206	-0.465123190224707	0.781050899555407	-1.78775737679017	-38.608192177138	51.0082380374737
13423	1646133137181	6.03106429784577	-0.373894456684234	7.69436037768242	0.0458516650957063	-0.157478358619569	-0.0305703594066902	0.0215061756064707	-0.00506322645203696	-0.00765783196566606	0.62939453125	-0.415771484375	0.28564453125	0	0	0	0.12911672171501	-0.304676639418239	0.401684134636364	0.853903316276388	0.491644002748489	0.607321131593546	0.624057062840715	-0.764676527052863	0.643957456310009	-0.0242611507788962	-0.416600508324003	-0.465273938215627	0.781002035132754	-1.77927151864159	-38.6130117924579	51.0088300384615
13424	1646133137182	6.02979687510624	-0.348567847531405	7.68751496771209	0.0283193740202206	-0.137589854096148	-0.0373048588021128	0.016876857088034	-0.00345381944019105	-0.00619996267046342	0.6435546875	-0.412353515625	0.284423828125	0	0	0	0.129072484525102	-0.304660930718312	0.401784003435446	0.85386862315918	0.491502663754474	0.60749482111053	0.62399933801739	-0.7647881941727	0.643819816643806	-0.0243938875703782	-0.416562299753969	-0.465237666167112	0.781044022064738	-1.78890379081047	-38.6087791573845	51.0248978834574
13425	1646133137183	6.05611228091751	-0.369073932243519	7.69230969649431	0.0550389145529049	-0.138074814912084	-0.016655217326992	0.0217175232788817	-0.00572190345131602	-0.00140322511149082	0.638916015625	-0.417724609375	0.280029296875	0	0	0	0.129146880709152	-0.304672545174387	0.401831530421663	0.853830864152287	0.491412122751891	0.607497308033148	0.624068222508532	-0.76488734342111	0.64370500872416	-0.0243148846928384	-0.416487067610362	-0.46539325572671	0.780991446840114	-1.78323389125987	-38.6138300966376	51.0301739738297
13426	1646133137184	6.056505271524	-0.366922631381542	7.69210321984284	0.0521392963551987	-0.137325755065183	-0.0166288256872278	0.0244550262645232	-0.0039030697983682	-0.0109956740323936	0.63525390625	-0.40380859375	0.2822265625	0	0	0	0.129224581064941	-0.304729158020112	0.401965075102878	0.853736040177807	0.491128437299782	0.60758714744937	0.62420406625543	-0.765101138583054	0.643450172092257	-0.024333593515146	-0.416428992523802	-0.465628322043219	0.780882295801889	-1.78485438336702	-38.623791850067	51.0504928706304
13427	1646133137185	6.0568994838906	-0.36483211572531	7.69189223331607	0.0511799090201923	-0.136945702273972	-0.0166184459686072	0.0201790466203309	-0.00575939130054482	-0.00135059780864018	0.63916015625	-0.415283203125	0.28369140625	0	0	0	0.129292268872561	-0.304744746144172	0.402010271804733	0.853698945923441	0.491036762122017	0.607589211268249	0.62427417742139	-0.765193769892139	0.64334250114654	-0.0242676891518554	-0.416366896814555	-0.465774383762077	0.78082829781462	-1.7801464701012	-38.6289338143771	51.0558170585426
13428	1646133137185	6.00987300801855	-0.358597497032185	7.71844891762316	0.0120101903365515	-0.174963705607461	-0.0254067134794678	0.0230358889270833	-0.00330157454808007	-0.00641060616920257	0.63720703125	-0.41552734375	0.279541015625	0	0	0	0.129340056548595	-0.304769236572028	0.401980255864573	0.853697098569722	0.491055172668712	0.607501015642804	0.624345524039584	-0.765176496812797	0.643366047334118	-0.0241879693849898	-0.416376927939815	-0.465856893402507	0.780773724422619	-1.77442634142299	-38.6341667655488	51.0507006241738
13429	1646133137186	6.05752964784589	-0.360879923015183	7.69158243043542	0.0487801806883153	-0.136130831545112	-0.0165948447373179	0.0215366854141462	-0.00312621186096029	-0.00484711748311126	0.63134765625	-0.417724609375	0.282958984375	0	0	0	0.129413688188673	-0.304768845648683	0.402013986712922	0.853670195402508	0.491001410418304	0.607492196462722	0.624396385482918	-0.765257237904324	0.643273703593175	-0.0240894603626768	-0.416291934587113	-0.465995894297812	0.780736096062749	-1.76728944203368	-38.6378974551972	51.0533608809937
