// Start Time : 01/03/2022 11:11:37																																
// Update Rate : 100Hz																																
// Filter Profile : 46.1 human																																
// Firmware Version : 4.4.0																																
PacketCounter	Time_Of_Arrival	Acc_X	Acc_Y	Acc_Z	FreeAcc_X	FreeAcc_Y	FreeAcc_Z	Gyr_X	Gyr_Y	Gyr_Z	Mag_X	Mag_Y	Mag_Z	VelInc_X	VelInc_Y	VelInc_Z	OriInc_q0	OriInc_q1	OriInc_q2	OriInc_q3	Mat[1][1]	Mat[2][1]	Mat[3][1]	Mat[1][2]	Mat[2][2]	Mat[3][2]	Mat[1][3]	Mat[2][3]	Mat[3][3]	Euler_X	Euler_Y	Euler_Z
13206	1646133136983	9.51867986634871	0.601586190702685	2.07496697006385	1.73906028466675E-14	3.27971157176865E-16	-0.0519158629088796	0.00594304430287999	-0.00378426359385348	0.00213998113620898	0.3525390625	-0.27392578125	0.081298828125	0	0	0	0.459256515745184	-0.427530321264868	0.535322907601814	0.565447311198392	0.0612944179917964	0.212701626013658	0.97519280791759	-0.998085968891748	0.00502567468466492	0.0616371746220194	0.00820932545757253	-0.977104273291807	0.212602554289504	16.1677921454013	-77.2112426137941	73.9245582474221
13207	1646133136984	9.52730017069253	0.600805351310743	2.09769701277458	1.58944038486375E-14	4.17417836406921E-16	-0.0387041223300262	-2.68474608375004E-05	0.0018555402839615	4.00784269319968E-05	0.347900390625	-0.2734375	0.0771484375	0	0	0	0.455908271684217	-0.429932473477757	0.532188338873476	0.569281378604902	0.0638672804327755	0.213910280614362	0.974763233989468	-0.99794936431102	0.0178464395539996	0.061470081067754	-0.00424697084426334	-0.976690276619323	0.214611432118416	15.9830368808762	-77.1005235122111	73.375931547232
13208	1646133136984	9.55008849855663	0.601720695573297	2.08940889173841	0.00112994741213051	0.00322814212817678	-0.0182054496668211	-0.0030460279089483	0.00366077125703269	0.0017194949989831	0.347900390625	-0.276611328125	0.091064453125	0	0	0	0.457554086627131	-0.428732361055136	0.533765712411842	0.567386098391953	0.0625654536751983	0.213366002301361	0.974966929217848	-0.998038977781665	0.0114768441286451	0.0615343877641116	0.00193980284407314	-0.976904924294534	0.213665640789865	16.0660744755946	-77.1529073022128	73.6572452770938
13209	1646133136985	9.51852934611037	0.601487931690074	2.07568583123402	-0.000572969344410758	0.0104684021659944	-0.0519214933939978	-0.00425943819767555	0.00757412247285261	-0.0045677113909957	0.341064453125	-0.273193359375	0.093505859375	0	0	0	0.457531579939892	-0.42871179111492	0.533760950547579	0.567424269120869	0.0626108956592271	0.2134394682441	0.974947931502269	-0.998036200754781	0.0115282020565654	0.0615698184213088	0.00190203255474125	-0.976888270967129	0.213742107033551	16.0693935139058	-77.1480128318059	73.6513378226339
13210	1646133136986	9.54976708949571	0.601946845104398	2.09081233878629	0.00106411340473919	0.00350136915808338	-0.0182055361569926	-0.00814740353237044	0.00934049263324628	-0.0016345133136879	0.356689453125	-0.287109375	0.088134765625	0	0	0	0.457482489841952	-0.428692252855657	0.533774555374623	0.567465812066395	0.0626153527523297	0.213559224627356	0.974921420000742	-0.998036021476802	0.0115889910452638	0.0615613118874915	0.00184863042751099	-0.976861378529786	0.2138654476591	16.0584994291219	-77.1411856111133	73.6589152430527
13211	1646133136986	9.52670678550988	0.60079896127697	2.10039208452366	0.000681419416365971	-0.0097465633435073	-0.0387090056949209	-0.00778792670108311	0.0111292398157973	0.000528207716537462	0.3583984375	-0.281982421875	0.0869140625	0	0	0	0.457429557147425	-0.428682667742228	0.533784816911959	0.5675060703284	0.0626098792233452	0.213668001969132	0.974897937200688	-0.998036493417549	0.0116639389643536	0.06153950222936	0.00177787244753919	-0.976836699485822	0.213978741250633	16.0450414852999	-77.1351413141564	73.6681425520026
13212	1646133136989	9.54999839582696	0.577362339516775	2.09198508865379	0.0254390271549685	0.00440402543519678	-0.019243046725947	-0.00945620495460124	0.0130816537840417	-0.00242274954875629	0.343505859375	-0.27392578125	0.08740234375	0	0	0	0.457372959698974	-0.428665227292468	0.533787624218784	0.567562217626724	0.0626337902823264	0.213795608033049	0.974868425122411	-0.998035142940205	0.0117614959341344	0.0615428360551922	0.00169167703610473	-0.976807609101798	0.214112197292997	16.0363789281834	-77.1275490829893	73.6714696473858
13213	1646133136990	9.51257992694131	0.574602400836165	2.1333230606973	0.0259938111263681	-0.0425790549342035	-0.0470371931292011	-0.0107381856580705	0.0149668998672452	-0.00325118090912854	0.355224609375	-0.269287109375	0.09033203125	0	0	0	0.457309507359639	-0.428643976710344	0.533789607511624	0.567627528068374	0.0626659922850565	0.213941419196655	0.974834366732652	-0.998033282484989	0.0118733387821414	0.0615515302685627	0.00159388304669111	-0.976774330630308	0.214264711416854	16.0276981493967	-77.1187927430022	73.6740631228842
13214	1646133136991	9.51223018099048	0.574542491885023	2.13489813033169	0.0259720914066932	-0.0425621962016091	-0.0470370618497569	-0.0125031099139593	0.0167452727379142	-0.000703372083671915	0.347412109375	-0.27880859375	0.076171875	0	0	0	0.457229750833627	-0.428628381453555	0.533799978617503	0.567693798092843	0.0626705868809177	0.214106578462039	0.974797810112066	-0.998033170670958	0.0119970755611448	0.061529345994047	0.00147911476103946	-0.976736629413097	0.214437331130251	16.0099814973816	-77.1094006198006	73.6848542933681
13215	1646133136991	9.5118656889268	0.574370290998108	2.13656780940831	0.025972091333681	-0.0425621956858158	-0.0470370618473108	-0.0137580532464707	0.0167753922567625	-0.00157237448817352	0.3515625	-0.273681640625	0.0869140625	0	0	0	0.457149292615189	-0.428613888027128	0.533804377930294	0.567765396404318	0.06268604218544	0.214270237042612	0.974760855611687	-0.998032379909203	0.0121348207277673	0.0615151589340209	0.00135231945121361	-0.976699038416445	0.2146093185034	15.9943079113815	-77.0999131059169	73.6928466705205
13216	1646133136992	9.51069644064281	0.598803771110108	2.13966566689506	0.00154520341490492	-0.0433975909243729	-0.0459993016017073	-0.0112586900111259	0.0243207454300056	-0.00517006868285046	0.34326171875	-0.276611328125	0.093994140625	0	0	0	0.457060160521391	-0.428562763662135	0.533823816995337	0.567857464224044	0.0627321800216031	0.214513747016931	0.974704327440118	-0.998029609228558	0.0122562841453778	0.0615360268626404	0.00125407050400411	-0.976644068143407	0.214859934532865	15.9817475804957	-77.0854136021076	73.6990230241649
13217	1646133136993	9.51023342113125	0.598884539528961	2.14170008158287	0.00154520299719954	-0.043397590240767	-0.045999301598604	-0.0150131655015245	0.0168075576420327	-0.00244235751605777	0.35205078125	-0.28076171875	0.079345703125	0	0	0	0.456977903014761	-0.428549529815983	0.533823118951242	0.567934304584518	0.0627563563353359	0.214677592718884	0.9746666973504	-0.998028254611963	0.0124081476588006	0.0615275618554459	0.00111478056615005	-0.976606148381272	0.215032993301462	15.967456754104	-77.0757703310259	73.704859693418
13218	1646133136994	9.47914149352721	0.574005983498466	2.12809083256123	0.0241654199075227	-0.0351282935200875	-0.080752372900978	-0.0214125119704895	0.0186336680864587	-0.00124949021412051	0.353515625	-0.287353515625	0.088134765625	0	0	0	0.456864838120095	-0.428548912645629	0.533820325692565	0.568028352318115	0.0627633786954659	0.214872300869358	0.974623338841133	-0.99802801927891	0.0126207591339678	0.061488122211511	0.000911607889866217	-0.976560602706248	0.215240698319497	15.9431267568008	-77.0646678294258	73.7171178749113
13219	1646133136994	9.47223185613654	0.595629718898297	2.1854713440852	0.00204763740280964	-0.0902520924605037	-0.0737918384753122	-0.0209823687553446	0.0224584311968036	-0.00454315976811736	0.351318359375	-0.273681640625	0.092041015625	0	0	0	0.456755030643808	-0.428530748343473	0.533813758577508	0.568136524841618	0.0628085377550728	0.215091037238862	0.97457217961759	-0.99802533760461	0.0128354262698558	0.0614872127492759	0.000716299011034094	-0.976509650506323	0.215472479411514	15.9266236383029	-77.051579889362	73.7217157791764
13220	1646133136995	9.48607256773897	0.597178819748347	2.15618444735397	0.00103546992667955	-0.0562797637857872	-0.0665005255948596	-0.0256613642991005	0.0186180913743218	-0.000482866946996983	0.346923828125	-0.27490234375	0.08544921875	0	0	0	0.456624516828553	-0.428540929075419	0.533806873118786	0.568240217645153	0.0628057886366413	0.215296478162351	0.974526992650597	-0.99802565688364	0.0130885456844689	0.0614286429432018	0.000470229419908486	-0.976461016355878	0.215693445476534	15.8967441327332	-77.0400306224067	73.7371017502263
13221	1646133136996	9.47205579644708	0.570391797633846	2.18846492273848	0.0263484554055449	-0.0891136936863198	-0.0748266818063854	-0.0265585214256936	0.0204385480611503	0.000811772862696515	0.345947265625	-0.278076171875	0.08837890625	0	0	0	0.4564927616171	-0.428555591951778	0.533798928787319	0.56834247318282	0.0627976164647427	0.215496155385613	0.974483384353149	-0.998026258091687	0.0133461244334074	0.0613634184356872	0.000218004248344061	-0.976413482074386	0.215908926396108	15.8656657738408	-77.0288944291045	73.7533781605442
13222	1646133136996	9.46312255751452	0.570314764150327	2.16752086581491	0.0249282209667189	-0.0682488931191306	-0.088037522901331	-0.0291141235814822	0.0166084149191975	0.00448703457680893	0.346923828125	-0.276611328125	0.0859375	0	0	0	0.456342269011997	-0.428588891486262	0.533797880411136	0.568439195056197	0.0627427699263118	0.215696820498866	0.974442520854182	-0.998029729355576	0.0136231127631208	0.0612459804483472	-6.43770917319597E-05	-0.976365347820847	0.216126591215118	15.8216756571818	-77.0184676930075	73.7811278308783
13223	1646133136997	9.44063346654916	0.543920847054604	2.17665699572017	0.0489215293289425	-0.0805970561356999	-0.109576711720702	-0.0294985063814765	0.0166825004152936	0.00236420459537087	0.356689453125	-0.272705078125	0.084716796875	0	0	0	0.456208829877703	-0.428625595884169	0.533779443433194	0.568535933660053	0.0627192086421819	0.215860025373769	0.974407897296062	-0.998031151589568	0.0139060186195341	0.0611591620524146	-0.000348316090347356	-0.976325290101505	0.216307204189117	15.7878334317463	-77.0096395783741	73.7985132827798
13224	1646133136998	9.43969995947574	0.567268782010512	2.17898919131663	0.0243652616713097	-0.0809633886383458	-0.108534941687466	-0.0332004652486207	0.00545339929361983	0.00499843065735959	0.345947265625	-0.283447265625	0.088134765625	0	0	0	0.456068520900372	-0.428700682903058	0.533750999494273	0.568618588564482	0.0626511900346318	0.215967707233476	0.974388412194829	-0.998035252675784	0.0142227495652228	0.0610192413193507	-0.000680296721035811	-0.97629691325289	0.216434457444398	15.7447058623543	-77.0046739718346	73.8228109659692
13225	1646133136998	9.44097529894444	0.517518968107071	2.17764088414589	0.0731160403799398	-0.0791604782106969	-0.110607800926674	-0.0386554461446612	0.00936533400920605	-0.000519394053230001	0.34716796875	-0.270263671875	0.088134765625	0	0	0	0.455934730026004	-0.428776025202206	0.533688010599999	0.568728185963846	0.0626564551072238	0.216059065694001	0.97436782005813	-0.998034590862764	0.0146012585958593	0.0609406160849288	-0.00106022393402599	-0.976271111617491	0.216549284335824	15.71749614187	-76.9994282729179	73.828005840306
13226	1646133137000	9.44865633176621	0.540199165128431	2.20245233351931	0.0497637571162874	-0.0998303804632118	-0.0963467311689356	-0.0381905138583697	0.00372777286189445	0.00147440264800369	0.345458984375	-0.274169921875	0.0810546875	0	0	0	0.455783884568623	-0.428859680398331	0.533641585598504	0.568829573085026	0.0626120652971123	0.216167568499208	0.974346607531617	-0.998036892766445	0.014975417374903	0.0608119852623425	-0.00144566812583657	-0.976241424650475	0.216680850192356	15.6768990594468	-76.9940267083904	73.8465535407818
13227	1646133137000	9.42575945590043	0.538157021926247	2.21133099642291	0.0493826902379252	-0.113082675692848	-0.116847395590575	-0.0381365657714382	1.84289973178822E-05	0.00138765583330014	0.345947265625	-0.268310546875	0.077880859375	0	0	0	0.455672384512072	-0.428964538428453	0.533563789413861	0.568912810007181	0.0625982147943697	0.216167961313412	0.974347410324552	-0.998037137700667	0.0153447212388055	0.0607158241347647	-0.00182627347850661	-0.976235602726978	0.216704205527893	15.6517211785497	-76.9942310916994	73.8499683796508
13228	1646133137001	9.42582614217165	0.537175576831755	2.21128537761322	0.048968039194479	-0.112112250873455	-0.116834023061713	-0.0414341067524511	-0.0055252265650228	0.000768886041083091	0.344970703125	-0.271728515625	0.081787109375	0	0	0	0.455527685395095	-0.429078046657109	0.533495668952742	0.56900696737753	0.0625488021711723	0.216211646504571	0.974340890685973	-0.998039364294816	0.0157537980945071	0.0605742945777968	-0.00225270170057057	-0.976219412714878	0.216773115431015	15.6122967244407	-76.9925713460995	73.8651436962768
13229	1646133137002	9.42739156128913	0.487506136144494	2.20857116528816	0.0977189762142381	-0.110309736704563	-0.118903624033672	-0.0405370615120597	-0.00733564460000282	-0.000527931519341586	0.360107421875	-0.288330078125	0.08349609375	0	0	0	0.455433046369676	-0.429205838264877	0.533390478225398	0.569084955355754	0.0625538922756499	0.216139948094924	0.974356471420337	-0.998038037857418	0.0161506760258336	0.0604915750631737	-0.00266186980924976	-0.976228804380117	0.216726177347561	15.5952270831475	-76.9965381778749	73.85882500681
13230	1646133137004	9.42764340769676	0.486837206815232	2.20764351484348	0.0971048691161943	-0.109056517209682	-0.118883273035095	-0.039915733859512	-0.0165009694585151	-0.00412591920629202	0.3486328125	-0.279052734375	0.083251953125	0	0	0	0.455318795197995	-0.4293332301222	0.533297882138238	0.569167059095266	0.0625326928394167	0.216104196241302	0.974365762274698	-0.998038152552117	0.0165563272926326	0.0603799145158098	-0.00308356556739769	-0.976229923938762	0.216715544504568	15.5685640872082	-76.9989041816882	73.8614799545813
13231	1646133137004	9.42873066090683	0.46218113456644	2.2049231768093	0.121480333674286	-0.10815533743203	-0.119916644341096	-0.0372514733780771	-0.0200852874067744	-0.00797404566650422	0.337158203125	-0.275390625	0.08203125	0	0	0	0.455283444806326	-0.429471558100989	0.533149486159621	0.569229998397244	0.0626116123800814	0.215906781467148	0.974404457969925	-0.998031943141382	0.0169372205860354	0.0603769080713641	-0.0034679193480267	-0.976267070158221	0.216542331335188	15.5796746722088	-77.0087629608132	73.8281724854134
13232	1646133137006	9.44275639088708	0.488470430135072	2.17292788584562	0.0952674340261252	-0.0738251366391398	-0.111587380183876	-0.0304671161499981	-0.0219853785672563	-0.00704579616657282	0.344482421875	-0.278564453125	0.081787109375	0	0	0	0.455201673843945	-0.429584945062179	0.533067725977903	0.569286404743995	0.0625911489933447	0.215840846313109	0.974420380087842	-0.99803199051496	0.0172604713008379	0.0602845091148595	-0.00380709553853614	-0.976275988229412	0.216496422211192	15.5601266424709	-77.0128216885695	73.8285012388476
13233	1646133137007	9.4375306023366	0.485978854055494	2.22478452510959	0.0975230537001388	-0.128043755799301	-0.105632255740986	-0.0293607993733423	-0.0310310678989377	-0.0140244979649787	0.347412109375	-0.274169921875	0.082275390625	0	0	0	0.45523090819061	-0.429719600757046	0.532894115744162	0.569323937981186	0.0627298522609054	0.215535464765063	0.974479055220703	-0.998022041244809	0.0175773632664011	0.0603576133569387	-0.00411956610211589	-0.97633780001038	0.216211769906314	15.5975914136195	-77.0277894169721	73.7727906130854
13234	1646133137008	9.41254071781457	0.489223348400988	2.15317129996872	0.0924315142055403	-0.0648688685404851	-0.145285625369128	-0.0221363812815829	-0.0367186674203928	-0.0110676116290888	0.349609375	-0.27490234375	0.08154296875	0	0	0	0.455206769074557	-0.429843789282179	0.532796814612249	0.569340555856758	0.0627237423091576	0.215350064128285	0.974520436948697	-0.998021274231906	0.017828703455489	0.0602965464485264	-0.00438957073726759	-0.976374153290141	0.216042228408482	15.5942114170002	-77.0383559008812	73.7610547116567
13235	1646133137009	9.43978796898879	0.462836492225717	2.21677933273331	0.120751703988813	-0.125398701451426	-0.106626481508089	-0.0165238564254515	-0.0441531173379654	-0.0111503753299376	0.3486328125	-0.284423828125	0.08251953125	0	0	0	0.455301293914925	-0.429988106548428	0.5326290637613	0.569312954729693	0.0628330173273174	0.214916969570656	0.974609002689854	-0.998013534688768	0.0180140243923113	0.0603695246231505	-0.00458219506099261	-0.976466175100684	0.215621919972586	15.6411097913668	-77.060998934294	73.7032179900286
13236	1646133137010	9.430724158573	0.512909558488681	2.19217264271413	0.0692312055267367	-0.104753535268144	-0.117766661658802	-0.0132151489314357	-0.0462191365318288	-0.00521382210367587	0.349609375	-0.271484375	0.07666015625	0	0	0	0.455300755511378	-0.430130996046118	0.532559172122421	0.569270828744478	0.0627361088573125	0.214662867601889	0.974671244019427	-0.998018737476525	0.0181639004381	0.0602384625188725	-0.00477287033201784	-0.976519291152924	0.215377096542286	15.6256864883567	-77.076935107001	73.7087800877894
13237	1646133137010	9.50956230183493	0.491324502128535	2.18375005946299	0.0960341478649577	-0.0845228626797003	-0.0440860917688575	-0.00807106132912658	-0.0480078554581442	-0.00728369179900063	0.3486328125	-0.2802734375	0.0830078125	0	0	0	0.45542125465785	-0.43027254165768	0.532411790750933	0.569205328304905	0.0628064499296491	0.214192734762449	0.974770138146536	-0.998013777828699	0.0182583317505089	0.0602920607192642	-0.00488355519284606	-0.976620758378948	0.214914041402619	15.6709514973509	-77.1022956123306	73.6575967845985
13238	1646133137012	9.50983244138133	0.516197693432231	2.18051812047203	0.0700700833439684	-0.0832712462482441	-0.043030930697455	-0.00346425228915861	-0.0462035339691482	-0.00588610908266581	0.34521484375	-0.274658203125	0.0849609375	0	0	0	0.455441024712211	-0.430387549599883	0.532366660837678	0.569144769445384	0.0627045911558974	0.213955107659443	0.974828880447439	-0.998019694112036	0.0183184228752625	0.0601757887184015	-0.0049824103093174	-0.976671719304803	0.214680060316999	15.6584238055737	-77.1173827778549	73.6655326182572
13239	1646133137012	9.53363502583246	0.517888379002479	2.16757521366168	0.070438442989145	-0.0699987766706465	-0.0225431151929918	-0.00385196968112286	-0.046120075807253	-0.00800819146913122	0.346923828125	-0.275390625	0.078857421875	0	0	0	0.455570051022409	-0.430510799892542	0.532230530296641	0.569075603419687	0.0627822275920807	0.213503166228394	0.974922966140929	-0.998014474519368	0.0183731824631932	0.0602456207205521	-0.005049806769232	-0.976769586021506	0.214232759574647	15.7068179332986	-77.1415836740371	73.6136265020306
13240	1646133137013	9.5158487696381	0.568912116106785	2.12022980025669	0.0173624095944981	-0.0285996073455491	-0.0469670872790964	0.00359963029806978	-0.0407513183020103	-0.00266225465341594	0.345947265625	-0.274658203125	0.079345703125	0	0	0	0.455581384003902	-0.43060014637029	0.532226118029881	0.569003054281624	0.0626377464654554	0.21332975218359	0.974970219827774	-0.998023394726228	0.0183619236718648	0.060101109292623	-0.00508097400746471	-0.976807686595656	0.214058232989948	15.6831434929245	-77.1537552637435	73.6367395986132
13241	1646133137014	9.5104574290498	0.590558192241264	2.17161347969145	-0.00476118191645861	-0.0837131312261722	-0.0399481111465487	-0.00020458213458093	-0.0445470329388227	0.000140724799062957	0.345947265625	-0.27880859375	0.0849609375	0	0	0	0.455699038516338	-0.430727711792063	0.532124590899386	0.568907237034141	0.0626341161090703	0.212894653281013	0.97506555374682	-0.998023469784955	0.0183636121108927	0.0600993469901293	-0.00511089597182052	-0.976902576695649	0.213624049179317	15.7130079930701	-77.1783459230225	73.6059908598614
13242	1646133137015	9.4942120078758	0.59176686663996	2.12157455668794	-0.00902144679573809	-0.0404861777226888	-0.06642624211214	-0.00708933624915111	-0.048585523442175	0.0100848888606861	0.349853515625	-0.277587890625	0.076171875	0	0	0	0.455674183255036	-0.430893706735512	0.532115691960823	0.568809759567856	0.0623670077295723	0.212650921840159	0.975135858117929	-0.998039473385916	0.0184278581678223	0.0598132393948914	-0.00525032479218507	-0.976954451079413	0.213383304421174	15.6586571220601	-77.1965101503344	73.6544572431505
13243	1646133137015	9.47174355221875	0.613879777394759	2.1269349966727	-0.033758880226225	-0.0546670925993365	-0.0858946312929873	-0.00924079543661084	-0.0467315582909166	0.0105193045806388	0.35400390625	-0.275146484375	0.083740234375	0	0	0	0.455749548942926	-0.431075109581175	0.532019245090801	0.568702137670425	0.0622595455051831	0.212196390425603	0.975241734588831	-0.998045537434175	0.0184957429826666	0.0596909766987253	-0.00537161067247671	-0.977051994205971	0.212933197075795	15.6596316722038	-77.2239128979589	73.6480318467528
13244	1646133137016	9.46493112487708	0.588900029737245	2.09827573881181	-0.0121545953549288	-0.0309448198694632	-0.100150214960113	-0.0147500825344414	-0.0524593193474518	0.0157881385621943	0.35205078125	-0.27734375	0.0791015625	0	0	0	0.455705394031369	-0.431276333767498	0.532001326699894	0.568601711369507	0.0619506246432358	0.211923826392973	0.975320671324705	-0.99806363285666	0.0186143644805339	0.0593505703759534	-0.00557717448875955	-0.977108897330255	0.212666635565561	15.5932463125008	-77.2443808222646	73.7050409205524
13245	1646133137017	9.52835391208586	0.611920847434603	2.12307374427926	-0.0332051120355671	-0.0461937956291697	-0.0316762238404529	-0.0206716330705552	-0.0505008630502602	0.0136249534495304	0.349609375	-0.275390625	0.075439453125	0	0	0	0.455751588902081	-0.431505863947405	0.531880377687612	0.568503687255514	0.0618119064197736	0.211432945559335	0.975436003926888	-0.998070878017715	0.0187875060882243	0.0591739137452543	-0.00581469497901643	-0.977211921308314	0.212186357184464	15.5825684463977	-77.2743442289802	73.7038479565122
13246	1646133137018	9.49940456358169	0.561350055054409	2.1018700718296	0.0126554882037552	-0.0349968974028941	-0.0674181580661734	-0.0257273534500856	-0.0485000432938252	0.0102079962447561	0.346923828125	-0.273193359375	0.08154296875	0	0	0	0.455687838979795	-0.431709818392866	0.531822326051622	0.568454254643385	0.0615832924324837	0.211183499497163	0.975504499032838	-0.998083156336381	0.0190272138379353	0.0588895421205945	-0.00612463311415307	-0.977261221308662	0.211950452218248	15.5277289272485	-77.2921721410834	73.7427695127717
13247	1646133137018	9.52256615629689	0.585359507917527	2.09001706773863	-0.011363497750181	-0.0226054225943769	-0.0459355338092973	-0.0316228456490184	-0.0483926939376014	0.00800104313846603	0.35888671875	-0.275146484375	0.08203125	0	0	0	0.455709414183742	-0.43194963784156	0.531666428262069	0.568400606308534	0.0615006388551981	0.210712007520792	0.97561166521673	-0.99808607319142	0.0193194777667284	0.0587447723644592	-0.00647007895884838	-0.977357256925726	0.211496880385711	15.5230141796463	-77.3201148248456	73.7290277315534
13248	1646133137020	9.55108912535087	0.532325137512759	2.15180286023457	0.0401426577271427	-0.0798123876780372	-0.0081503430212102	-0.031338842129398	-0.0410494361450845	0.0103121516454128	0.33642578125	-0.282958984375	0.0771484375	0	0	0	0.455608139121125	-0.432141237041015	0.5316147657665	0.568384478706339	0.0612793841353819	0.210549033334054	0.975660771806514	-0.998097292717084	0.0196139287712312	0.058455864282242	-0.00682871516576478	-0.97738651431266	0.211350349630494	15.4605269590074	-77.3329392121375	73.772591825535
13249	1646133137021	9.55732828309981	0.533833886557444	2.09400393594016	0.0378985072217638	-0.0256043728597342	-0.0142047234288238	-0.0368155248979348	-0.0371182891497912	0.00482617128994615	0.346923828125	-0.27880859375	0.072509765625	0	0	0	0.455591871177242	-0.432355417230247	0.531464225211667	0.56837541944479	0.0612291410236431	0.210187176750072	0.975741944890831	-0.998097630948254	0.0199636484747633	0.0583315680833229	-0.00721882157904424	-0.977457315420684	0.211009680217756	15.4529412116067	-77.3541659464185	73.7587524245301
13250	1646133137024	9.54407348658082	0.530417813343343	2.1221193484544	0.0376185987605539	-0.057587274420718	-0.0213983932221069	-0.038546374841403	-0.037192580432009	0.00733862910129739	0.350830078125	-0.27490234375	0.076171875	0	0	0	0.45547841478744	-0.43257021528699	0.53138203648693	0.568379761962275	0.0610322802911425	0.21000079893258	0.975794407244755	-0.998106382705299	0.0203450899234489	0.0580493421060988	-0.00766221674240158	-0.977489509797259	0.210844845018577	15.3931790792558	-77.3679035007528	73.7946138373633
13251	1646133137024	9.5368246217496	0.505459092749303	2.09490085823763	0.0606962675143196	-0.0362360852694678	-0.0356671464669453	-0.0419808760528807	-0.0334498388568523	0.00696272479106906	0.33740234375	-0.2724609375	0.08837890625	0	0	0	0.455432909543939	-0.432792716250231	0.531234761927783	0.568384515433541	0.0609601849605578	0.209675133497017	0.975868943169411	-0.998107317462085	0.0207409852477478	0.0578929560446991	-0.00810177006680279	-0.977551098369779	0.210542659330179	15.3746635890477	-77.387446452416	73.7889313191259
13252	1646133137026	9.50747415912221	0.455195641651621	2.075001888519	0.106648504235499	-0.0251352641573917	-0.0713889929815607	-0.0414306917798045	-0.0388728626226959	0.0034388603221004	0.350830078125	-0.280029296875	0.07275390625	0	0	0	0.455312956619405	-0.432999860008989	0.531136160082431	0.568414999995234	0.0608110013701722	0.209510627908485	0.97591358167911	-0.99811241381441	0.0211689819747711	0.0576496625464891	-0.00858088002067214	-0.977577194392107	0.210402465533384	15.3228149374067	-77.3991647253795	73.8144925053495
13253	1646133137026	9.53106157841811	0.45510663402731	2.06286183024213	0.106997578598438	-0.0118287571345847	-0.0509218315525697	-0.036818232265539	-0.0370787599297025	0.00482392422079083	0.349365234375	-0.274658203125	0.07861328125	0	0	0	0.455296320704806	-0.433213897966363	0.530985773135344	0.568405742132606	0.0607596546733028	0.209149337237157	0.975994272061695	-0.998112112526245	0.0215187381610564	0.05752525303163	-0.0089707966412213	-0.97764691921021	0.210061957922913	15.3149213767731	-77.4203744031192	73.8009713084255
13254	1646133137027	9.51849790304744	0.427573942422154	2.08974687426169	0.130863866196776	-0.0427230869506766	-0.0590874001941337	-0.0317352394394333	-0.035165965631074	0.00283093279205612	0.34375	-0.279052734375	0.078125	0	0	0	0.455197556515395	-0.433392593938615	0.530924010688186	0.568406315003927	0.0605811087878604	0.209002621379301	0.976036799262514	-0.998119620470207	0.0218297588343696	0.0572772630425241	-0.00933554982005141	-0.977671399748307	0.209932088123144	15.2609757689222	-77.4315669593154	73.8353392946395
13255	1646133137027	9.53321954462692	0.428734911702305	2.055202643735	0.129914835509699	-0.00896628488142698	-0.0518991076783095	-0.0237669104428059	-0.031558929654076	0.00473517992096973	0.343017578125	-0.27978515625	0.074462890625	0	0	0	0.455203540807229	-0.433556117130622	0.53081408564196	0.568379482581198	0.060530999565418	0.208695111374992	0.976105705638376	-0.998120230000963	0.022052285841304	0.0571813182079455	-0.00959190046008923	-0.977732093764623	0.20963765947036	15.2570039703475	-77.4497229883586	73.8254561365806
13256	1646133137028	9.53392299510779	0.427922347802146	2.05210656985668	0.128094878863773	-0.00727968376517237	-0.0518736503944179	-0.0173468127513384	-0.035239168617413	0.00345416792532551	0.3447265625	-0.275634765625	0.07666015625	0	0	0	0.455139766495685	-0.433719239750311	0.530783774716505	0.568334407301163	0.0603124111362218	0.208519617007872	0.976156740685545	-0.998131111026443	0.0222327549039041	0.0569209083773439	-0.00983352754887162	-0.977765449344716	0.209470828049331	15.2022782203617	-77.46318680667	73.8679659324316
13257	1646133137028	9.53529155604688	0.40294217895104	2.04775044062508	0.152469553367426	-0.0063816425643301	-0.052864569603333	-0.0131804218120878	-0.0296740699171126	0.00281700118707238	0.34130859375	-0.26708984375	0.0771484375	0	0	0	0.45517485806182	-0.433845035088816	0.530695713316981	0.568292525011694	0.0602810907915287	0.208230109332824	0.976220472874967	-0.998131518402333	0.0223558169107656	0.0568655380886015	-0.00998308894267436	-0.977824339550562	0.209188668234372	15.207711621571	-77.4800203277841	73.8546574058932
13258	1646133137030	9.52575420906677	0.452020541415751	2.02486033626296	0.100755574401591	0.0138660930522832	-0.0641474449833179	-0.00814441585612801	-0.0298210772522026	0.00626923982133628	0.340087890625	-0.2685546875	0.077392578125	0	0	0	0.455117595216254	-0.4339785647182	0.530692529123627	0.568239403264217	0.0600560897949987	0.208098250632079	0.976262456597816	-0.998143373631873	0.0224668281138844	0.0566131372499726	-0.0101524259819085	-0.977849865632945	0.209061159779411	15.1521291523082	-77.4911216264267	73.9021308449145
13259	1646133137030	9.53582493618632	0.426091730007242	2.04363274183747	0.126422018183747	-0.00567951750682097	-0.0518507779333657	0.00241567554668985	-0.0260947764801141	0.00439707306619995	0.3466796875	-0.271240234375	0.076904296875	0	0	0	0.455184102298642	-0.434056303390759	0.530650923555721	0.568165605990709	0.0600094456324207	0.207844149491152	0.976319453845507	-0.99814626471511	0.0224340606880803	0.0565751461007135	-0.0101439967548831	-0.977904659178666	0.208805117002658	15.1601420996045	-77.5062083219307	73.8953396762992
13260	1646133137031	9.52690145775239	0.450930706390272	2.01969927823029	0.0990087233015257	0.0153550315659114	-0.0641317785459527	0.00533026713414546	-0.026247763662233	0.00824279346844716	0.3505859375	-0.275146484375	0.072265625	0	0	0	0.455152195038101	-0.434153891781922	0.53068981343915	0.568080275590106	0.0597574403250637	0.207736637284997	0.97635779192636	-0.998161024600499	0.0224096025278391	0.0563238731181139	-0.0101792580416046	-0.977928064452629	0.20869375520522	15.1035766811981	-77.516366184881	73.9516101868719
13261	1646133137032	9.52680957506913	0.474567239359191	2.01840570324507	0.0746329393447218	0.0144610209282542	-0.0631490943480539	0.00787480889054958	-0.0281696853600878	0.00991749005594205	0.342529296875	-0.279052734375	0.07568359375	0	0	0	0.455227798864908	-0.434235445483156	0.530670981699559	0.567974945053638	0.059655774136143	0.207463551271894	0.976422072418415	-0.998167735417574	0.0223119206452753	0.0562436678077853	-0.0101173407361351	-0.977988268380952	0.208414458053312	15.1023399068573	-77.5334158946653	73.9575050430248
13262	1646133137033	9.51346810929809	0.47158978767466	2.04727355774041	0.0733846475621971	-0.0180706110842025	-0.0703011601030248	0.0116273662412993	-0.026429957384605	0.0125549241749074	0.34619140625	-0.284423828125	0.078857421875	0	0	0	0.455207010400654	-0.43433994675899	0.530749243708483	0.567838558601272	0.0593081019045431	0.207330593728802	0.976471491623049	-0.998188948375758	0.0221836359699442	0.0559169887927706	-0.0100683856192622	-0.978019381811637	0.208270776662993	15.0284876247387	-77.5465394272825	74.0365195132807
13263	1646133137033	9.55957253717518	0.472650632748742	2.02723406532772	0.0740468125068301	0.00857253876841194	-0.0293879910551027	0.0123954781682575	-0.0247365510711855	0.0168454762518275	0.350341796875	-0.27392578125	0.069580078125	0	0	0	0.455271262867517	-0.434415617552577	0.53076764079393	0.567711951538345	0.0591375654249184	0.207092372711983	0.976532384265947	-0.998200159962118	0.0220275773861247	0.0557783693388507	-0.00995936781208706	-0.978073379148528	0.20802229686686	15.0100122359547	-77.5627285345756	74.0627087668037
13264	1646133137034	9.5770372167678	0.493975447704035	2.07197481979813	0.0498734683495937	-0.0320109124886571	-0.00181477688515486	0.0144835518062282	-0.0171325563843998	0.0111516289558937	0.345947265625	-0.27978515625	0.0830078125	0	0	0	0.455237176988978	-0.43448540449007	0.530875477965101	0.567585035803034	0.0587873203608509	0.207046136369603	0.976563335569798	-0.998221772301497	0.0218606791648626	0.0554563252452698	-0.00986631988377029	-0.978086912355375	0.207963091944413	14.931288755853	-77.5709652999928	74.1489829561933
13265	1646133137035	9.54656117670628	0.46896648606036	2.05481596189781	0.072644307245379	-0.0240032038788629	-0.0365339884871556	0.01586155739686	-0.0206655346696137	0.00641532552784402	0.343017578125	-0.2802734375	0.07373046875	0	0	0	0.455323073729964	-0.434516688753811	0.530881010483459	0.567487002874588	0.0587211998049696	0.20684519842388	0.976609893756177	-0.998227095665285	0.0216925024743184	0.0554265353062244	-0.00972039984338546	-0.978133170496424	0.207752291447044	14.9380919289063	-77.5833655005328	74.1513072986576
13266	1646133137036	9.55512409514968	0.492017035594245	2.07709141589183	0.0471107477957443	-0.0440239151127217	-0.022251812515254	0.0136633894165524	-0.0151213552092477	0.00696125549614364	0.347900390625	-0.2763671875	0.072021484375	0	0	0	0.455283706803145	-0.434573026896444	0.530983465429379	0.567379581985691	0.0584056874693392	0.206830316189118	0.976631965469257	-0.998246390437421	0.0215466115203898	0.0551351748945112	-0.00963948390178671	-0.978139542108946	0.207726061227301	14.8648448710404	-77.5892482908955	74.23113970363
13267	1646133137036	9.55473737621718	0.516191772001846	2.0771641554463	0.0227265997503817	-0.04491884960144	-0.0212861894469203	0.0127920603570416	-0.00941651481417311	0.00287033689823286	0.3447265625	-0.280029296875	0.0830078125	0	0	0	0.455338575626974	-0.434572463973715	0.530998101871319	0.56732228134533	0.0583755787297427	0.206738895582362	0.976653122076284	-0.998249322592344	0.0214155947101109	0.0551331320272871	-0.00951744460943227	-0.978161746009625	0.207627110203627	14.8710887056034	-77.5948897549032	74.2322416012392
13268	1646133137037	9.52407121573573	0.491607816935065	2.06076580376286	0.0433522762393341	-0.0356093034651021	-0.0559861331108173	0.0132402878547263	-0.013191303708202	0.00489117613098966	0.344482421875	-0.27978515625	0.0703125	0	0	0	0.455304703236071	-0.434612155334606	0.531091186345272	0.567231922085572	0.0581088524435592	0.206741832051847	0.976668406444858	-0.998265665681495	0.0212795579949686	0.0548893535489322	-0.00943514648394911	-0.978164094255859	0.207619803293042	14.808727723912	-77.5989669430585	74.3009389478245
13269	1646133137038	9.52437754955544	0.491208317717324	2.05944487095564	0.0433452041980025	-0.0356071668326661	-0.0559860938920487	0.0106541805118271	-0.0133140459288941	0.00866639877482345	0.34375	-0.279296875	0.0732421875	0	0	0	0.455351202169421	-0.434641482118047	0.531108839593123	0.567155591712836	0.0580203650565476	0.206613653576407	0.976700791130279	-0.998271739157014	0.0211573663778192	0.054826094593596	-0.00933659676414061	-0.9781938274206	0.207484129410181	14.8016579198564	-77.6076100961459	74.3144224178519
13270	1646133137040	9.52403373814819	0.514972617259066	2.05942623079229	0.0168852794444712	-0.0356809951711966	-0.0550189205605775	0.0106541146656552	-0.0133127932947605	0.00866640742231457	0.338134765625	-0.274658203125	0.079345703125	0	0	0	0.455315344261556	-0.434711140205813	0.531190536182349	0.567054473689478	0.0577256777025411	0.206566634933141	0.976728197333414	-0.998289244761714	0.0210491031005793	0.0545483185052282	-0.00929138993202788	-0.978206093106692	0.207428323721885	14.733724554889	-77.6149291798237	74.3868169209652
13271	1646133137041	9.50230012652785	0.488612285715221	2.06551542966345	0.0409398741391861	-0.0481184292854276	-0.0764246357292837	0.00849173295931103	-0.0153610472704817	0.0145126625109575	0.341796875	-0.277099609375	0.0712890625	0	0	0	0.455348311452521	-0.434765644430679	0.531215354751491	0.566962958716319	0.0575781625980477	0.206419254352736	0.976768061836736	-0.998298462629042	0.0209363242671708	0.0544228797351942	-0.00921600262176242	-0.978239623895209	0.20727349936023	14.7118173090144	-77.6255829767478	74.4141964578368
13272	1646133137042	9.52096780140451	0.461360034322188	2.10844732299863	0.0661376921163505	-0.087075989294099	-0.0507575051935376	0.0118641787827232	-0.00965079159443728	0.00962589238793471	0.341064453125	-0.282470703125	0.0703125	0	0	0	0.455303298949772	-0.434813031383013	0.531300396016532	0.566883076919435	0.0573150338643827	0.206426791294659	0.976781944309433	-0.998314021754805	0.0208375903162628	0.0541747985465449	-0.00917065215084478	-0.978240141614319	0.207273067409939	14.6476743695189	-77.6292951908165	74.4825222154033
13273	1646133137042	9.53582312824567	0.438321078691831	2.07436458629336	0.0895398102442814	-0.0524166620010781	-0.0445620862182974	0.0144587557547241	-0.0152676858732266	0.0112011807458582	0.3447265625	-0.280029296875	0.07421875	0	0	0	0.455359995620057	-0.434843943697196	0.531329144921159	0.566786872445122	0.0572001687744408	0.206279695982882	0.976819751907887	-0.998321841172335	0.020673228292505	0.0540936139506811	-0.00903560349145799	-0.978274657065783	0.207116038037544	14.6372792588443	-77.6394106184255	74.501613016921
13274	1646133137043	9.53485816095702	0.486234223999629	2.07559317372289	0.0385953594262039	-0.053295732644258	-0.0426463863522759	0.0169299340970335	-0.0116427701819589	0.0130214577381506	0.347412109375	-0.28369140625	0.0703125	0	0	0	0.455323127301453	-0.434902117253205	0.531445738419045	0.566662532085314	0.0568511510498295	0.206258791401466	0.97684454115991	-0.998342759792477	0.0204925537213212	0.0537753587800182	-0.00892639872795209	-0.978282866154562	0.207081996306208	14.5571204637964	-77.6460474114577	74.5901852544909
13275	1646133137044	9.55418133332534	0.434783777938306	2.11719712444411	0.0898594815729362	-0.0923723445173066	-0.0179268253253504	0.0199377105965166	-0.0134442458517216	0.0113162641768021	0.353271484375	-0.283935546875	0.076904296875	0	0	0	0.455390036167437	-0.434913925241311	0.531490919270673	0.566557318656665	0.05673456072802	0.206129203933991	0.976878672560998	-0.998351076515443	0.0202746353844703	0.0537035118077275	-0.00873599676365305	-0.978314719528213	0.20693958518123	14.5480766670231	-77.6551911131009	74.611079394548
13276	1646133137044	9.52156941251285	0.482786686099507	2.1047463591148	0.0371657143323634	-0.0858641061560966	-0.0497692393032238	0.0186040629716128	-0.00786156555746667	0.0106011000876092	0.34716796875	-0.279541015625	0.0771484375	0	0	0	0.455348323922815	-0.434939755103766	0.531634698070243	0.566436105080459	0.056383914476074	0.20617599841327	0.976889099062246	-0.998372352388868	0.0200449034168894	0.0533933313488356	-0.00857322424025814	-0.978309592882181	0.206970626661919	14.4655071289	-77.6579856718137	74.7050304551621
13277	1646133137045	9.52242726592143	0.457810024162229	2.10262217004765	0.0615157099457027	-0.0849760004414267	-0.0507087793448235	0.0219861436366119	-0.00789203956414807	0.0110642196586974	0.340087890625	-0.27587890625	0.080810546875	0	0	0	0.455406724981593	-0.434930069993527	0.531696187639809	0.566338867734026	0.0562699965294379	0.206100276229322	0.976911645763717	-0.998380591316389	0.0198077577816654	0.0533277377581258	-0.00835956777074126	-0.978330378180019	0.206881098113931	14.4544713172694	-77.6640308732814	74.7291424330297
13278	1646133137046	9.50810944054506	0.479580686088663	2.13468011521774	0.0362997286642365	-0.11803572627648	-0.0568813065708795	0.021961845937045	-0.00604185001311042	0.0111124775385132	0.345947265625	-0.277587890625	0.067626953125	0	0	0	0.455364353749715	-0.434923338479966	0.531838601631392	0.566244379039926	0.0559787829204135	0.206204067545264	0.976906473717182	-0.998398407375657	0.0195820142977398	0.053076971143766	-0.00818510919305732	-0.978313051759933	0.206969989959091	14.3834058313312	-77.6626438910347	74.8118058178327
13279	1646133137046	9.48558557656528	0.47804420821853	2.14265330974878	0.035973871896103	-0.131379044176493	-0.0773256056730584	0.0216107766841373	-0.00965959403976015	0.00889658296846208	0.34130859375	-0.27294921875	0.068603515625	0	0	0	0.455431001426526	-0.434914525588918	0.531889353265585	0.566149869075421	0.0558861426289692	0.206111059580036	0.976931405054034	-0.998405291275649	0.0193526376447008	0.0530315921784346	-0.00797580183062563	-0.978337215143627	0.206863916742797	14.3786819240888	-77.6693311155281	74.8292551281869
13280	1646133137047	9.4858167597816	0.477674989954461	2.14171197352875	0.0346236812749333	-0.130608448026637	-0.0773103413982774	0.0249688581629881	-0.00784138633696078	0.00940716309085957	0.346435546875	-0.27783203125	0.07177734375	0	0	0	0.455433361662251	-0.434920212935366	0.531988234177941	0.566050686919038	0.055665854152985	0.206110261514507	0.976944150286924	-0.998418960042569	0.0191379435625166	0.0528518622539682	-0.00780339086122778	-0.978341606605085	0.206849722930556	14.3329045432925	-77.6727510937032	74.8862577481601
13281	1646133137047	9.47218066196493	0.475254023911726	2.17232693163471	0.0355565264266872	-0.164388039442298	-0.0844403784750849	0.020749228120448	-0.00969448065139689	0.0101559835275704	0.34912109375	-0.274169921875	0.06640625	0	0	0	0.455494969472021	-0.434917078756728	0.532040189086601	0.565954684217819	0.0555607436048172	0.20601619138908	0.976969975309179	-0.998426357433704	0.0189151399647541	0.0527922935832426	-0.00760345656562167	-0.978365752858128	0.206742934782795	14.3245056565799	-77.6796836885041	74.9069195817534
13282	1646133137048	9.47189723190654	0.499072513666908	2.17219984438347	0.0098549860544533	-0.164198314480583	-0.0834888232558484	0.0233653344156725	-0.0171539058585857	0.0116878168271668	0.3427734375	-0.279541015625	0.07373046875	0	0	0	0.455508614559827	-0.434944661255585	0.532132681909116	0.565835534896196	0.055315900978953	0.205957081290134	0.976996331500449	-0.998441241525032	0.0186934218119985	0.0525893829865967	-0.00743224870674458	-0.978382459290541	0.206670087414104	14.2765266966681	-77.686762835083	74.9662972759004
13283	1646133137048	9.45850098637968	0.49660849282148	2.20184923509372	0.0107904461504906	-0.197987411595486	-0.0906153031369321	0.0230129783515004	-0.0207711741747645	0.00947365122590448	0.344970703125	-0.28369140625	0.076416015625	0	0	0	0.455607720260317	-0.434965602255353	0.532161909248344	0.565712146271399	0.0552172543995905	0.205753538819098	0.977044797376246	-0.998448284559966	0.0184506151687084	0.0525413918654364	-0.00721650024818338	-0.978429893279694	0.20645306018767	14.2784121385599	-77.6997910071397	74.9777207006584
13284	1646133137049	9.48174484108457	0.497151523270623	2.19092462688821	0.00915348106753316	-0.182832254037012	-0.0701371950084688	0.0234125488923674	-0.020841730208027	0.0115934227745877	0.34765625	-0.277587890625	0.07763671875	0	0	0	0.455599554462282	-0.434994551029412	0.532284839912019	0.565580795066741	0.054905179549114	0.205733518633784	0.977066599863716	-0.998466813203866	0.018203790347214	0.052274706575079	-0.00703165621994467	-0.978438726404243	0.206417573096981	14.2112248334148	-77.7056561935349	75.0574270944253
13285	1646133137050	9.45066902197095	0.496371517316528	2.174865205409	0.00757796458754829	-0.175778128471267	-0.103896890038026	0.0238357755294876	-0.022758974011142	0.0136663851164601	0.346435546875	-0.27978515625	0.072509765625	0	0	0	0.455696918399034	-0.435028646084759	0.532323360218975	0.565439860473654	0.0547638345016833	0.205511266185911	0.977121303575629	-0.998476119930425	0.017944317453608	0.0521865825649485	-0.00680884420120625	-0.978490225266348	0.206180791294572	14.2038709071983	-77.720384430599	75.078778698971
13286	1646133137051	9.4924037544052	0.470241213069494	2.20777706301563	0.0333388069215371	-0.200371550391939	-0.0576950785850929	0.0234217381903928	-0.0265609263325706	0.0169523992354256	0.3427734375	-0.281494140625	0.07568359375	0	0	0	0.455701138811134	-0.435065147475375	0.53244059396151	0.565297977566152	0.0544506627082909	0.205455815558	0.97715046598977	-0.998494548204248	0.0176869719763017	0.0519211732215716	-0.00661532591962505	-0.978506555356532	0.206109579076933	14.1392232124584	-77.728243129839	75.1565035468234
13287	1646133137052	9.43813551091753	0.492323307814291	2.20127570286516	0.00710523691710253	-0.207570335663976	-0.110972971141724	0.0238450788052014	-0.0284756135154823	0.0190257253827959	0.347412109375	-0.27734375	0.07470703125	0	0	0	0.455802072482478	-0.435127569721798	0.53248119554829	0.56513029044296	0.0542555489109319	0.20517840924432	0.977219604690954	-0.998506601538158	0.0174164942162839	0.0517806181300819	-0.00639547473552143	-0.978569612296021	0.20581693757736	14.1217262702899	-77.7468944859986	75.1882348986613
13288	1646133137053	9.45330706520443	0.468485149669443	2.16559244075755	0.0290796435865447	-0.170728704020873	-0.104737602064958	0.0208860793575964	-0.0303582965312294	0.0206390637359413	0.34130859375	-0.279052734375	0.067626953125	0	0	0	0.455794056344446	-0.435187051871765	0.532598315079099	0.564980568567754	0.053902529316133	0.205104054460809	0.977254748863909	-0.998526741025659	0.0171816259519624	0.0514697890642907	-0.00623416313543002	-0.978589351348861	0.205728016168476	14.0461472520384	-77.7563859574418	75.2753072792146
13289	1646133137054	9.4403119176501	0.465031224616973	2.1939395746567	0.0300082244154548	-0.204522107231063	-0.111842918470248	0.0234763535006735	-0.0359605349651676	0.0222207577891238	0.35302734375	-0.27783203125	0.069580078125	0	0	0	0.455906809347686	-0.435278901023206	0.53263012500836	0.564788818451659	0.0536748565152175	0.204753848066749	0.977340714121707	-0.998540307834177	0.0169082622479825	0.0512968254201075	-0.006021910701625	-0.978667447282074	0.205362519028886	14.0247404601112	-77.7796333973317	75.31081583922
13290	1646133137057	9.4406934147177	0.487750433308516	2.19130263016365	0.00447963076871588	-0.203768927483278	-0.110890816641696	0.0193236241842135	-0.0433445887822848	0.0228388377655745	0.338134765625	-0.279296875	0.072998046875	0	0	0	0.455941510177635	-0.435397162693912	0.532692819845837	0.564610493791711	0.0533353408055634	0.204496632333474	0.977413151530826	-0.998559191876353	0.0167113979632567	0.0509928377064721	-0.00590607656565162	-0.978724607099659	0.205093300030057	13.9624708902581	-77.7992563883305	75.3821708249577
13291	1646133137058	9.42394036376509	0.487762063616935	2.14153284096509	0.00194679283714921	-0.162969791728468	-0.137556268520932	0.0185081007739343	-0.0470644672557163	0.0240079672220443	0.341552734375	-0.278076171875	0.073974609375	0	0	0	0.456065945435409	-0.43553808446479	0.532693037077463	0.56440106187359	0.0530894104598593	0.204036855029252	0.977522621879819	-0.998573208087499	0.0164839633265889	0.050791997823356	-0.00575000755344779	-0.978824417729155	0.204620860789695	13.9404818613244	-77.8289705697174	75.4153082972852
13292	1646133137059	9.35699521480294	0.482875610036163	2.16345646927503	-0.000227449065744276	-0.200849319246329	-0.198805257091161	0.018976025666864	-0.0526619155171533	0.025991217658924	0.3369140625	-0.284423828125	0.072998046875	0	0	0	0.456092850159693	-0.43568258850696	0.532758389735945	0.564206072522306	0.0526983604756748	0.203747610238267	0.977604109098039	-0.998594464466636	0.0162956203983419	0.0504336028102962	-0.0056549394134171	-0.978887819966123	0.204319988210166	13.8655163788826	-77.8511355955398	75.4985119141597
13293	1646133137060	9.40323441051423	0.507214018161169	2.14119405108858	-0.0241062781464328	-0.175037170789598	-0.157037590399057	0.0178658810340965	-0.0655321400875803	0.024816247779359	0.343017578125	-0.285888671875	0.07470703125	0	0	0	0.45626260651786	-0.43587929651808	0.532717491507884	0.563955447710171	0.0524426262169032	0.203107014939715	0.977751150056983	-0.998608710765757	0.0160730162701529	0.0502225141817139	-0.0055148652048112	-0.979024615947045	0.203667345520863	13.8522593421245	-77.8912327577486	75.5223237240458
13294	1646133137061	9.42867169664651	0.457435553041963	2.12328674786618	0.0229024309952273	-0.157497575467976	-0.138385874842641	0.0158302597442826	-0.072896299958464	0.025038864751664	0.34619140625	-0.279052734375	0.076171875	0	0	0	0.456320802972978	-0.436093299935466	0.532758663411679	0.563703969371597	0.051981680622395	0.202639456969165	0.977872770537616	-0.998633236159915	0.0158790626677961	0.04979472869259	-0.00543732622230481	-0.979124663078218	0.203187917050986	13.7699421332405	-77.9244970115777	75.6125445559947
13295	1646133137061	9.40663093305771	0.503321680042641	2.1271481541782	-0.0261967392941109	-0.172675114214271	-0.157000505468101	0.0155523396431271	-0.0838712378039473	0.0226506555491477	0.345703125	-0.28173828125	0.076171875	0	0	0	0.456536983173563	-0.436343238212898	0.532665120880971	0.563423846191768	0.0517448949254858	0.201818811074121	0.978055025724923	-0.998646113481719	0.015683703983285	0.0495979985203354	-0.00532971640980373	-0.979297293433405	0.20235712292133	13.7717771948831	-77.9745150765093	75.6195425951099
13296	1646133137063	9.44138092652743	0.452739407950293	2.13026754930962	0.0229985228078604	-0.175134657113819	-0.124990067951309	0.0113731075342116	-0.0893804047288249	0.0233252199808731	0.340576171875	-0.283935546875	0.07470703125	0	0	0	0.456650154042313	-0.436566953718944	0.532646948402581	0.563175958374567	0.0513930465559598	0.201231177952746	0.978194647187076	-0.998664644614902	0.0155157303410995	0.0492766649457341	-0.00526140303424877	-0.979420887632959	0.201759863467387	13.7249024778782	-78.012971851466	75.6733043958648
13297	1646133137063	9.49289611662054	0.479802906092948	2.05031219541657	-0.00312408664859478	-0.0951117889856052	-0.0895189556847544	0.00680793117658162	-0.0966581064593501	0.0218387329083302	0.346435546875	-0.27880859375	0.066650390625	0	0	0	0.456877316401988	-0.436874019347734	0.532502838538362	0.562889807977424	0.0511636363350856	0.200285181933897	0.978400801417639	-0.998676500195269	0.0154076894118101	0.0490698590248475	-0.00524693002624688	-0.979616480570175	0.200808417952547	13.7317872572652	-78.0699774665384	75.6700306052852
13298	1646133137064	9.51374055239089	0.451808143761219	2.08463034335041	0.0225055626030674	-0.132849862509086	-0.0636921223767093	0.00654245980418874	-0.109453029524989	0.0194083373212528	0.34521484375	-0.27392578125	0.0751953125	0	0	0	0.457043632272279	-0.43718983389893	0.532393546591911	0.562612903231054	0.0508443213654259	0.199433298463742	0.978591444091334	-0.998692617174467	0.0153364594932983	0.0487631973051862	-0.00528312276058357	-0.979791382118705	0.199952334669576	13.705428900677	-78.1229337897119	75.6974612576097
13299	1646133137065	9.49738413404881	0.47625374756823	2.03025760412147	-0.0044243788996846	-0.0929648157076155	-0.0894986958370207	0.00311615445132081	-0.105695101700693	0.0190498663386041	0.34375	-0.28369140625	0.071533203125	0	0	0	0.457290172375084	-0.437525936092906	0.532212605501975	0.562322412891387	0.0506415955816514	0.198397531525175	0.978812468393033	-0.998702774463154	0.0152708815879307	0.0485753893975591	-0.00531009195227033	-0.980002663088343	0.198913506990384	13.7232448896816	-78.1846222686353	75.6808299269939
13300	1646133137066	9.49107595299812	0.451073883534474	1.99623075591601	0.0179440754184474	-0.0691343544958345	-0.103731883132726	-0.00275881299315928	-0.109238082824257	0.016805606871181	0.334716796875	-0.276611328125	0.069580078125	0	0	0	0.457439943492602	-0.437833149225869	0.532077619185291	0.562089173262174	0.0503910812021398	0.197585396076193	0.978989657857882	-0.998714880240473	0.0152842105191938	0.0483216400287076	-0.00541543364268993	-0.980166518590703	0.198101663072885	13.7080969508259	-78.2343065659616	75.6925952811454
13301	1646133137066	9.5607218891146	0.476568499690649	1.95979722024406	-0.00571956135526784	-0.0298913513814367	-0.0415876366139951	-0.00614511486428156	-0.109163831410119	0.0163616789416558	0.339599609375	-0.280029296875	0.0712890625	0	0	0	0.457675304967333	-0.438197183791852	0.531860726240543	0.561819108986897	0.0502147919995445	0.196514979187646	0.979214142881588	-0.998723098098697	0.0153149662118822	0.0481417192679169	-0.00553606255243655	-0.980381208900298	0.197033086679897	13.7302522402448	-78.2975512583827	75.6661253316915
13302	1646133137066	9.59472530665757	0.47493287411913	1.96280989414313	-0.00529744664880792	-0.0348230724201093	-0.0078065928418134	-0.00739288370947471	-0.11092834187642	0.0154640902290697	0.3388671875	-0.281494140625	0.065673828125	0	0	0	0.457809447651768	-0.438556336485224	0.531683923524951	0.5615968792956	0.0499610903875463	0.19563359610554	0.979403586639391	-0.998734532787472	0.0154454302117937	0.0478620068881654	-0.00576389322225923	-0.980555421564935	0.196157698738885	13.712106847744	-78.3511871022105	75.6739567212398
13303	1646133137067	9.59641090717297	0.497833956320433	1.95357962190037	-0.0297638587487732	-0.0357357103171156	-0.0069114050283634	-0.010378202814951	-0.107070542771634	0.0117313079374955	0.339599609375	-0.27880859375	0.059814453125	0	0	0	0.458036965085472	-0.438915167366989	0.531449519744967	0.561352850205058	0.049829767636104	0.194582662916376	0.979619610639611	-0.998740147679408	0.0155270931562682	0.0477182018880724	-0.00592551015914594	-0.980763221511945	0.195111228940995	13.7430143539962	-78.4126471753579	75.6360745974557
13304	1646133137067	9.64425785704205	0.473740036836135	1.9240279559244	-0.00600146743579498	-0.00700692549729643	0.0330187537590518	-0.0163608131969737	-0.103423825622821	0.0151779470497118	0.340576171875	-0.27783203125	0.0625	0	0	0	0.458144432864556	-0.43931643560234	0.531235082473222	0.561154199124036	0.0495807131186478	0.193668836029481	0.979813316319814	-0.998750352977929	0.0157859315697662	0.047418738816389	-0.00628373401001425	-0.980939950412593	0.19420949608974	13.7210413919931	-78.4680322673531	75.6402494567455
13305	1646133137068	9.62366729556501	0.471195892231013	1.92350851256093	-0.00636064243583585	-0.0204378544471215	0.0126073719762942	-0.0193492059125637	-0.0995725243579005	0.0114487665101894	0.341796875	-0.279541015625	0.064208984375	0	0	0	0.458326996579623	-0.439678119969929	0.530996804632755	0.560947331302873	0.0494510885790255	0.192689776603009	0.980012877380206	-0.998755185353379	0.0159575153522127	0.0472592576488622	-0.00653219473737748	-0.981129964732739	0.193239030052023	13.7427172373252	-78.5253673191221	75.6064823594193
13306	1646133137069	9.61681722180305	0.446314532877343	1.89060033300491	0.0160368531152416	0.00195549601303052	-0.00164909186267792	-0.0219607344708558	-0.0921189936139116	0.00992832174405501	0.336669921875	-0.274169921875	0.06494140625	0	0	0	0.458411425999734	-0.440034748207711	0.530776750198389	0.560806942121355	0.049290923637228	0.191892659625076	0.980177337030909	-0.998760485286398	0.016270011923456	0.047040192840691	-0.00692082924711757	-0.981281047352911	0.192456769765335	13.7349211889312	-78.5728308419883	75.594044114222
13307	1646133137070	9.58621725116656	0.469469433608536	1.86987972229512	-0.00993394717831546	0.0080240540887675	-0.0345360201592353	-0.0202984871441865	-0.0883462470265375	0.00748649092906803	0.350341796875	-0.29150390625	0.0595703125	0	0	0	0.458569954529087	-0.440358869381116	0.530550425337251	0.560637056512534	0.0492006246636943	0.191021764167942	0.980351969522615	-0.998763151002256	0.0164596859553067	0.0469174481221835	-0.00717403183345122	-0.981447789926912	0.191595325921153	13.7596971792167	-78.623444152044	75.5565130454662
13308	1646133137071	9.58831230940534	0.443913575773712	1.86073485059162	0.0132669073706113	0.00983210915732726	-0.0354255416074345	-0.021242896304985	-0.0791717260391276	0.00898114756782469	0.344970703125	-0.28515625	0.068115234375	0	0	0	0.458625299283706	-0.440684394564364	0.530374634723818	0.560502315861361	0.049000022458035	0.190334397380166	0.980495698599969	-0.998770446767127	0.0167311633970166	0.0466654351311318	-0.00752279626918084	-0.981576734313376	0.190920198488743	13.7351506586749	-78.6652681077483	75.5631642712597
13309	1646133137072	9.5579182625947	0.442733762228727	1.84013146101608	0.0116731866294191	0.0167667765679687	-0.0692035586367314	-0.0238176000375086	-0.0754067176060939	0.00737484842554133	0.3408203125	-0.28125	0.0595703125	0	0	0	0.45873954906996	-0.440982034737472	0.530169425273655	0.560368853223384	0.0489104510876027	0.189589066182555	0.980644560357336	-0.99877266523624	0.0169568132481841	0.046536326255547	-0.00780582803447105	-0.981717093906637	0.190185742315778	13.7494801722581	-78.7087468027026	75.5341713078931
13310	1646133137075	9.55933558313443	0.441591379218763	1.83302993778628	0.0104198320808281	0.0178571193034977	-0.0692040749576073	-0.0238186010204244	-0.0753856005084496	0.00737506072888986	0.343017578125	-0.28076171875	0.059814453125	0	0	0	0.458778757053919	-0.441292668943701	0.530003697160218	0.560248974482869	0.0487137226660914	0.188956651302287	0.980776405279326	-0.998779459922278	0.0172362661451225	0.0462871641682447	-0.00815865561074031	-0.98183414844769	0.189565664825213	13.7216906891556	-78.7473937763732	75.5437177147931
13311	1646133137076	9.51903014331773	0.465812198037959	1.7914620850788	-0.0167795619654514	0.0442948030215986	-0.115471035605942	-0.0238378871714223	-0.0735296336455853	0.0074214411015094	0.341064453125	-0.270751953125	0.05859375	0	0	0	0.458887488809914	-0.441585744034338	0.529802647532696	0.560119146206159	0.0486223706659711	0.188228866839204	0.980920872832895	-0.998781559535902	0.0174628545621533	0.0461567442696189	-0.00844164686840404	-0.98196992947797	0.188848606558743	13.73447943305	-78.7898917528508	75.5162423256222
13312	1646133137076	9.54344804879785	0.441215303444855	1.77382603851402	0.00774356996676566	0.0588835198879957	-0.0959493051190474	-0.015759888547663	-0.0772892716228503	0.00903052558254239	0.342529296875	-0.28369140625	0.062255859375	0	0	0	0.458979516538541	-0.441898015796858	0.529579231359236	0.56000873631204	0.0485439626955211	0.187493716961611	0.981065537966621	-0.998782267560739	0.0177672822220157	0.0460250550099753	-0.00880145965416373	-0.982105101189462	0.188127894065695	13.7472563920706	-78.8326078290727	75.4843074382016
13313	1646133137077	9.49978395120714	0.438299202631359	1.7851037432271	0.00710337994624063	0.0320042196844148	-0.1367627497819	-0.0182820464843627	-0.0790299231424207	0.00729011270838676	0.3427734375	-0.275146484375	0.0576171875	0	0	0	0.459118674997042	-0.44219198798204	0.529376572767692	0.559854206234252	0.0484533799384473	0.186710202658484	0.981219430196818	-0.998784601124974	0.0179409729473862	0.045906884509051	-0.00903274754250633	-0.98225120092211	0.187352576066902	13.7678884014938	-78.8782262372698	75.4520222922132
13314	1646133137077	9.52285688435446	0.486942173291989	1.77054093087153	-0.0420478895062214	0.044037495784798	-0.114593828836307	-0.0135723323768711	-0.0845824704781442	0.00842118909150152	0.341796875	-0.27490234375	0.0634765625	0	0	0	0.459230150780367	-0.442521426833613	0.529165076698765	0.559702400396653	0.0483182167910667	0.185911564132069	0.981377725571607	-0.998788290405442	0.0181839804332634	0.0457306659100645	-0.00934349373129345	-0.982398204995088	0.18656491081477	13.7727504460399	-78.9253434448399	75.4312080861283
13315	1646133137078	9.53432488667093	0.460355814646588	1.78355378635603	-0.0165799140889852	0.0244247112999944	-0.102102172838388	-0.0160598789100895	-0.0901595098470932	0.0120881577790188	0.345458984375	-0.28369140625	0.0634765625	0	0	0	0.459394164312379	-0.44285221503105	0.52895455591771	0.559505134213907	0.0481779868319811	0.18501813312744	0.981553448365831	-0.998793026079742	0.0183281591392584	0.0455693936435191	-0.00955890366566348	-0.982564180599213	0.185677834875646	13.7890988301801	-78.977880927521	75.4045319289811
13316	1646133137079	9.52615056396287	0.484112339928608	1.75351746449021	-0.0426316868884069	0.0448328412098583	-0.114600021721994	-0.0164296784052815	-0.0957331193011204	0.015331859499385	0.343505859375	-0.28662109375	0.056396484375	0	0	0	0.459516562771695	-0.443201215063035	0.528756052123638	0.559315875733706	0.0479794406185496	0.18416671076205	0.981723278691618	-0.998799906610067	0.0185231317622249	0.0453391678953264	-0.00983462422527759	-0.982720466987845	0.184834423010274	13.7823055929226	-79.0288927848021	75.3977841769006
13317	1646133137079	9.54101248819219	0.484235985060397	1.71230746985446	-0.0437064205188463	0.0785267791371314	-0.107569343167169	-0.0151077528752526	-0.101232697611906	0.0160356645393766	0.337158203125	-0.288330078125	0.058837890625	0	0	0	0.459703554439243	-0.443569527550085	0.528532854882795	0.55908115473012	0.0477981910768753	0.183164540729941	0.981919591386672	-0.998806494552778	0.0186513266907386	0.0451410506287471	-0.010045863276508	-0.982905325568982	0.183837432529843	13.7959572654961	-79.0881526326352	75.3743999300222
13318	1646133137080	9.5968622111129	0.507521188643625	1.70743290565867	-0.0684772514446632	0.0840509637823001	-0.0525179700790197	-0.020152374135174	-0.10488757805568	0.0180640064268189	0.3408203125	-0.2841796875	0.057861328125	0	0	0	0.459800472714165	-0.444047901679871	0.528313469577093	0.558829011566998	0.047412677754235	0.182126917802321	0.98213126607394	-0.998820658202872	0.0189368063104882	0.0447067121799494	-0.0104561338627071	-0.983092662559631	0.182809972611069	13.7421327868652	-79.1524080204266	75.4081993956083
13319	1646133137080	9.62128226997704	0.506185473367524	1.68775391010174	-0.0683724602531698	0.0973432814091675	-0.0321122761957184	-0.0239075336175088	-0.110404548689523	0.0208907425314408	0.343017578125	-0.2783203125	0.05712890625	0	0	0	0.459975445248359	-0.444477310602456	0.528062927128177	0.558580392710846	0.0471789307048583	0.181033896728277	0.982344581464631	-0.998828492116908	0.0191442695227904	0.0444425503307634	-0.010760661364891	-0.983290509045935	0.181725020256364	13.7424797903323	-79.2175441597666	75.3931440873638
13320	1646133137081	9.62668921422235	0.506442911347551	1.62293288758267	-0.0712761875206985	0.151422503902984	-0.0384599319480241	-0.0251844385857323	-0.108670112702175	0.0255952691080507	0.3427734375	-0.282958984375	0.0458984375	0	0	0	0.460087671118686	-0.444962455499003	0.527806860039341	0.558343681415213	0.0468566633834197	0.179951770849563	0.982558809061666	-0.998838730392716	0.0194785067599903	0.0440656151876717	-0.0112090929177988	-0.983482561076966	0.180655496161763	13.7079485616122	-79.2833525350589	75.4051470217745
13321	1646133137081	9.63770142414353	0.526805161914693	1.63624399281281	-0.0946204468232161	0.130051720530684	-0.0242130173042465	-0.0268556226831399	-0.110523179237049	0.0280911732146724	0.339111328125	-0.279541015625	0.0556640625	0	0	0	0.460238246690006	-0.445417032225749	0.527568887167937	0.558081976934661	0.0465494733911804	0.178857467124914	0.982773195086569	-0.998849282954692	0.0197036511521869	0.043725005113434	-0.0115436765330931	-0.983677677181369	0.179568847373831	13.6851928223955	-79.349611861746	75.4118223491057
13322	1646133137082	9.63094982278243	0.475788567000973	1.60071940677159	-0.0478369363204863	0.15090312605506	-0.0393153100790062	-0.0285420352890215	-0.110544858757546	0.0306359512822897	0.33740234375	-0.27783203125	0.054443359375	0	0	0	0.460341562005592	-0.445986512713853	0.527257829675475	0.557835869959522	0.0461904230464886	0.177634404427732	0.983011934404864	-0.998858916012219	0.0201696546723205	0.0432903099237492	-0.0121371628349187	-0.983889832955908	0.178363353535177	13.642378988895	-79.4238807914519	75.424128804062
13323	1646133137082	9.67729792489608	0.498395864604048	1.5726684626905	-0.0718749355838778	0.176699322749618	0.00237154001957407	-0.0336636308156509	-0.10503892439561	0.0329181149789224	0.329833984375	-0.281982421875	0.048583984375	0	0	0	0.460447430116566	-0.446455967269223	0.52702954711625	0.557588638563585	0.0458338515122849	0.176592369740027	0.983216351066819	-0.998870380897305	0.02045604113098	0.0428895389031029	-0.012538748806119	-0.984071483852087	0.177330466777505	13.5965764095734	-79.4878845516775	75.4501491635763
13324	1646133137083	9.7143175455339	0.497215414307704	1.5215405349401	-0.0738004510454106	0.222804707986381	0.0298314713177525	-0.0371062886207798	-0.0959922255346568	0.0382543053529961	0.333740234375	-0.279296875	0.048828125	0	0	0	0.460444884893398	-0.447041492420991	0.526759986063527	0.557376290410591	0.0453556422727324	0.175531116896934	0.98342853970939	-0.998882990978359	0.0210288501157166	0.0423149831258289	-0.0132527751115152	-0.984249264395827	0.176288824059036	13.4974742861821	-79.5547318873877	75.5121748085526
13325	1646133137083	9.72516093952276	0.515877091322328	1.53647736208717	-0.0971905473254879	0.201402359717014	0.0440681881070599	-0.0400948745058361	-0.0888499104798103	0.0456574904209953	0.340087890625	-0.28271484375	0.05615234375	0	0	0	0.460460946130859	-0.44751315739717	0.526589451149525	0.557145619190111	0.0448710477889157	0.174649347917148	0.983607744145215	-0.998898675361583	0.0213585340526311	0.0417761820179504	-0.0137122365498541	-0.984399013761817	0.17541538208938	13.3957788254959	-79.6115192645021	75.5911620915437
13326	1646133137084	9.77805857073948	0.508212181958776	1.58616429486309	-0.0943453113927079	0.152607988100524	0.104591928481403	-0.0435430741468576	-0.0779856024731439	0.0510496843370588	0.338623046875	-0.2802734375	0.04833984375	0	0	0	0.460383777227061	-0.44806925450699	0.526393299449815	0.556947766963861	0.0442880749197745	0.173779513648145	0.983788212501102	-0.99891477704511	0.0219137439209615	0.0410981268220915	-0.0144164704702168	-0.984540739869905	0.174561441663389	13.2482471220867	-79.6690191314801	75.7024048110383
13327	1646133137085	9.79219932184961	0.504216732755947	1.54745558613837	-0.0954698487829355	0.186220604444561	0.111637398577407	-0.0482897595523661	-0.0634340348934418	0.0557068738791101	0.34375	-0.28466796875	0.0537109375	0	0	0	0.460287011252193	-0.448515650644157	0.52629029418108	0.556765753841384	0.0437044747560823	0.173148968088603	0.983925481800399	-0.998932681427928	0.0223087870466321	0.0404452221617863	-0.0149471355618124	-0.984642957051113	0.173939156799545	13.0900978825026	-79.7129679981762	75.8338876062579
13328	1646133137085	9.78398677066656	0.474636075126514	1.51874460621239	-0.0728170091341413	0.206091122600778	0.0974327708069626	-0.052669463917774	-0.0433052545375044	0.0571331949258327	0.33544921875	-0.281982421875	0.037353515625	0	0	0	0.460103478652147	-0.449007463047774	0.526156928930137	0.556647081370595	0.0431023685324171	0.17258764628564	0.98405065427369	-0.998947229041865	0.0229273501420004	0.0397337413924934	-0.0157041210029447	-0.984727292688208	0.17339417411919	12.9066478108885	-79.7532064159149	75.9776749603953
13329	1646133137086	9.77519820531487	0.469154927727091	1.49263243534061	-0.0742028405140806	0.226296758684973	0.0840715369365128	-0.0518355251251715	-0.0379497408800172	0.0615101470275567	0.33349609375	-0.2861328125	0.044921875	0	0	0	0.459916406574455	-0.44940644195416	0.526119916468547	0.556514674010373	0.042463366850462	0.172208115857778	0.984144921903495	-0.998965699357654	0.0233494649175391	0.0390170987509105	-0.0162601962656287	-0.98478381755631	0.173021497787485	12.7078847021768	-79.7836135430338	76.1482385801799
13330	1646133137086	9.73083718337845	0.48466195585503	1.51048157282373	-0.100782385068284	0.195578414627478	0.0441493964203783	-0.0548398831982248	-0.0253467992819084	0.0690799607264007	0.336181640625	-0.282470703125	0.054931640625	0	0	0	0.459615579385146	-0.450019441583477	0.525973795407296	0.556405956050253	0.0416681374834792	0.171638012226014	0.984278496705968	-0.998981797737892	0.0242101714626002	0.0380688243333	-0.0172954938358529	-0.984862559120233	0.172472042766704	12.4470129209822	-79.826853631943	76.3544290634839
13331	1646133137086	9.73151210896597	0.476520881629612	1.50872308243034	-0.101021940241129	0.195352968788394	0.0441514148457962	-0.0603300795145122	-0.016484063256796	0.0803746886093519	0.336181640625	-0.28662109375	0.053955078125	0	0	0	0.459305227044976	-0.450426534382811	0.526018164207603	0.556290873964976	0.0408416560951069	0.171471685293443	0.984342125619967	-0.999004731860557	0.0246871986656525	0.0371495348861844	-0.0179305562553492	-0.984879689791941	0.172309291066108	12.1666240348173	-79.8475153012097	76.6027387597842
13332	1646133137087	9.69034160912967	0.46873378906674	1.47250939180779	-0.104762884592174	0.222121550536771	-0.00297817441230563	-0.0691732469635021	-0.0130299054479616	0.0911167436452123	0.339599609375	-0.283935546875	0.060302734375	0	0	0	0.458898405760057	-0.450936858791345	0.526061355436529	0.556172323017385	0.039830799399352	0.171293121010026	0.984414635259886	-0.99902994340121	0.0253434070143203	0.0360122744169586	-0.0187797658926945	-0.984894095025223	0.172136405148546	11.8162982848882	-79.8711115735388	76.9096333343846
13333	1646133137088	9.69097078251151	0.458271524154264	1.47166246011128	-0.105018058299112	0.221893570238683	-0.00297574334569894	-0.0767286071581174	-0.0114296560504079	0.102644965026321	0.33544921875	-0.2939453125	0.057861328125	0	0	0	0.458478160232442	-0.451424479784822	0.526142130276934	0.556046917434607	0.0387807955973068	0.171182889394669	0.984475732698035	-0.999055949297197	0.025944470675052	0.034843860510393	-0.0195770290574506	-0.984897610322964	0.172027431281758	11.4502535753193	-79.8910363679196	77.2353344838729
13334	1646133137089	9.65949578659609	0.447387353391035	1.45831037457898	-0.107955647263357	0.229060313009272	-0.0367705628888224	-0.0847592915198337	-0.00955960931622721	0.106564089010465	0.338623046875	-0.27587890625	0.04736328125	0	0	0	0.457978325006956	-0.451961112074755	0.526261104212721	0.555910295990982	0.0375608067299174	0.171131146270314	0.984532029227087	-0.999084718575425	0.0266102080332615	0.0334906246208029	-0.020467313132475	-0.984888840227482	0.171974013991947	11.0199871496232	-79.9094299782527	77.6207017973122
13335	1646133137090	9.66051246195338	0.38707983751116	1.45492975284278	-0.0594593462106041	0.230482935293864	-0.0384619013225667	-0.0868848573341906	-0.00765549102651825	0.107058107412472	0.3359375	-0.28759765625	0.048828125	0	0	0	0.457508876442575	-0.452474873994158	0.526340153316275	0.555804065644742	0.0364650628219422	0.1710614518114	0.984585333476773	-0.99910653668965	0.027303341966506	0.0322591980909869	-0.0213641647954069	-0.984881976290376	0.171904232760449	10.6283982405429	-79.9268765645412	77.9664103351023
13336	1646133137091	9.63873771255625	0.350158630218561	1.46324447462854	-0.0352545181861545	0.215788817497527	-0.0596806214738184	-0.0907224658167242	0.00331994870147719	0.110379091388499	0.330078125	-0.2919921875	0.0498046875	0	0	0	0.457007277118353	-0.453068032255182	0.526333210267442	0.555740099847811	0.035405419835973	0.170898166113872	0.984652361529262	-0.999119717195115	0.0282354008608752	0.0310250358610145	-0.0224999324041216	-0.984884043406705	0.171747413618572	10.2396766204672	-79.9488575164042	78.2954637221744
13337	1646133137091	9.68390192764856	0.339707340802423	1.4443772406799	-0.0350100268335257	0.242299668293635	-0.0188302814990564	-0.0953795116786342	-0.000143156696691279	0.109033751026913	0.331787109375	-0.293212890625	0.054443359375	0	0	0	0.456489489204037	-0.453588198675704	0.526414379629757	0.555664460972074	0.0342912938822966	0.170903034764933	0.984690946374553	-0.999136015254738	0.0290104943305099	0.0297592714894584	-0.0234804213071614	-0.984860672342456	0.171750184536735	9.83007893548862	-79.9615325027331	78.6543910693635
13338	1646133137092	9.64925054191992	0.300279896623774	1.48512614458245	-0.0128232214897749	0.19486477750135	-0.0471533899400818	-0.100866116865797	0.00531676759589031	0.114744848768042	0.3408203125	-0.287109375	0.043701171875	0	0	0	0.455845034093273	-0.454255820632898	0.526505867157948	0.555561451292197	0.0328864425387795	0.17087220725731	0.984744215867328	-0.999153247431195	0.0299937534815207	0.0281631479026614	-0.0247238760076362	-0.984836566918138	0.17171390862727	9.314270503233	-79.9790574189345	79.1059357450291
13339	1646133137093	9.64948118930923	0.288027185093692	1.48605368552523	-0.0131400628608227	0.194622799361167	-0.0471489856126919	-0.106853827304185	0.0075794815253951	0.107234572423406	0.337646484375	-0.29052734375	0.044677734375	0	0	0	0.455277521312367	-0.454781300413165	0.526573588910523	0.555532719868119	0.0317884485128043	0.170954309733718	0.984766022222851	-0.999161122499	0.030885268099119	0.0268914763630386	-0.0258175488318918	-0.984794762474859	0.171792694764356	8.89656827929337	-79.9862401608894	79.4663247942138
13340	1646133137094	9.64966086319262	0.275952533409047	1.48717801700762	-0.0137566339312414	0.191594546911766	-0.0470899526966235	-0.10853778668208	0.00942866672241443	0.109845619635997	0.330322265625	-0.296142578125	0.049072265625	0	0	0	0.454699576642163	-0.45546281545021	0.526512305124192	0.555505815717906	0.0306768325899571	0.170763796364143	0.984834330125404	-0.999158793809974	0.0320661751084961	0.0255629647362943	-0.0272146411779673	-0.984790072180471	0.171603837487212	8.47276030686163	-80.0087730138798	79.8157387883391
13341	1646133137095	9.5953552237434	0.239522655373783	1.48374998073628	0.00865408885718165	0.185816028028121	-0.102120319464007	-0.11448392372929	0.00969858453094182	0.107776142668027	0.32958984375	-0.302734375	0.043212890625	0	0	0	0.454103337499681	-0.456004567075478	0.526567296487031	0.55549696304147	0.0295734341532904	0.170866676422864	0.984850237792826	-0.999159459719149	0.03303408228398	0.0242718656347899	-0.0283863707810466	-0.984740233917483	0.171699987355915	8.04613670294325	-80.0140277300741	80.1805836069592
13342	1646133137097	9.62757724701374	0.202360415559386	1.49602516003044	0.030375386676188	0.177395966435985	-0.0691315109497452	-0.11703980817853	0.00989107797046149	0.106105268644623	0.329345703125	-0.2841796875	0.036865234375	0	0	0	0.45337994027801	-0.456782528774573	0.526566654932347	0.555449285779695	0.0281545586393308	0.170770073563441	0.984908575860197	-0.999154216026859	0.034348375333733	0.0226062316117926	-0.0299695415977205	-0.984712024445254	0.171592702319629	7.50512792953647	-80.033321779814	80.6379651942929
13343	1646133137097	9.60523046512959	0.18988975645188	1.50679867365679	0.0297417706541819	0.163756048781679	-0.0895582027793544	-0.123422587005692	0.00843261842620864	0.101862300950973	0.33837890625	-0.297607421875	0.05029296875	0	0	0	0.452773705959069	-0.457339325372703	0.526581567819607	0.555471479999087	0.0271051878005714	0.170859643174355	0.984922479755959	-0.999144528093632	0.0354156472494717	0.0213528431468725	-0.0312333279502793	-0.98465867906815	0.171673425319463	7.09007050425383	-80.0379256500388	80.9857118188342
13344	1646133137098	9.62772334264848	0.203544293308333	1.49989901076582	0.00427859757762998	0.173449491764525	-0.0682494231467494	-0.124737682168535	0.00876315748134559	0.09553015266258	0.332763671875	-0.2919921875	0.04345703125	0	0	0	0.452158719268949	-0.458048158246855	0.526459365488578	0.555504197828505	0.0260648424320553	0.170679837837275	0.984981734320406	-0.999121712222871	0.0367860581568547	0.0200646477696216	-0.0328089645345689	-0.984639618785027	0.171488754631455	6.67341921375435	-80.0575697343312	81.3173338477182
13345	1646133137099	9.59575490019334	0.217723499296169	1.48993384804155	-0.0218673760245961	0.179435019556603	-0.101192475895985	-0.128972610003888	0.00709202971393724	0.0963451750958627	0.3369140625	-0.292724609375	0.04248046875	0	0	0	0.45155221090596	-0.458611594642101	0.52644182437167	0.555549288216623	0.0250688216241143	0.170754602618787	0.984994629359409	-0.999102920649781	0.0379192127563354	0.0188543696001202	-0.0341307505258308	-0.984583667845674	0.171552012171538	6.27190249099165	-80.0618497927047	81.6479579670197
13346	1646133137100	9.62809669859369	0.254208984539595	1.50704089244566	-0.070528521316807	0.167867620221664	-0.0657454822373911	-0.131094086973075	0.00539034852014493	0.0967211636920857	0.331787109375	-0.29541015625	0.039306640625	0	0	0	0.450929939429459	-0.459347305345711	0.526296459516643	0.555584628565285	0.0240241795437621	0.170537540798304	0.98505826526948	-0.99907135110481	0.0393484528527838	0.0175537648298487	-0.0357669428223669	-0.984565206797681	0.171324485595557	5.85006399308395	-80.0829982922143	81.9813231334286
13347	1646133137101	9.64098882657296	0.245268253860782	1.47601289169924	-0.0717812013518342	0.201323646037898	-0.0586245231559843	-0.143817902621482	0.00773590762055148	0.0939215827714073	0.33544921875	-0.298095703125	0.0517578125	0	0	0	0.450285073716154	-0.459943246896375	0.526238050669927	0.555669934448475	0.0230514473230706	0.170618168572139	0.985067546582162	-0.999040483908067	0.0406337328311057	0.0163404794588737	-0.0372389888295487	-0.984499030121055	0.171391124045714	5.44613466772843	-80.086086537923	82.3056176649885
13348	1646133137102	9.6381330474451	0.254249079120876	1.53322501200065	-0.0962955866754316	0.144178968985247	-0.0515932288778451	-0.153561943722661	0.0062395110910014	0.0947733393829233	0.326416015625	-0.291748046875	0.04296875	0	0	0	0.449569280956186	-0.460721440306709	0.526086701098413	0.555748143487353	0.0219370747382017	0.170491001618087	0.985115010097396	-0.998995828177229	0.0422404890958551	0.0149357412081567	-0.039065330363695	-0.984453431833221	0.1712464321245	4.98459956294212	-80.1018943667658	82.6680383310906
13349	1646133137103	9.61892502584956	0.246209642559349	1.48971313191374	-0.0989093398494286	0.184714989353432	-0.0782295435963203	-0.164568708870179	0.0103041015577779	0.094995359746079	0.3330078125	-0.2978515625	0.043701171875	0	0	0	0.448856109691985	-0.461367626903161	0.525988244418165	0.555881707175024	0.0209525591592842	0.170599130223175	0.985117722422947	-0.99894984282148	0.043729119052147	0.0136739048507031	-0.0407455738899286	-0.984369697275379	0.171336211275845	4.56295852765062	-80.1027984678206	82.9981406063364
13350	1646133137105	9.59676415198378	0.258272673338447	1.50250678021565	-0.125532348121234	0.168259969763542	-0.0978516871846331	-0.175597505393246	0.00709125494300867	0.0949380595554304	0.338134765625	-0.293212890625	0.03857421875	0	0	0	0.448078365851885	-0.462208746544626	0.525775246275576	0.55601190911437	0.0198469300430054	0.170463117225194	0.98516416146434	-0.998886076561851	0.0455723369187223	0.0122379801698557	-0.0428101088382097	-0.98430965035076	0.1711777053463	4.08928034586304	-80.1182907249922	83.3589833077841
13351	1646133137107	9.6513621949532	0.245892290365973	1.50693094327276	-0.124409467741	0.174154220257765	-0.0436404784400537	-0.188314167711485	0.0113642682050963	0.0922197205080919	0.332763671875	-0.29638671875	0.03564453125	0	0	0	0.44730123740504	-0.46290845666515	0.525615275650288	0.556206747322326	0.0188886855019219	0.170582474681591	0.985162340374171	-0.998820576567906	0.0473003700379842	0.0109604205588126	-0.0447288875847115	-0.984207444762421	0.171274727527619	3.66154844132767	-80.1176827487718	83.6813496937737
13352	1646133137108	9.62902528050054	0.233370672890086	1.51788786035615	-0.125446513944439	0.156963128611172	-0.0640368541321727	-0.202310795397089	0.00640482371931847	0.0937964548687723	0.322265625	-0.291259765625	0.03515625	0	0	0	0.446503472633647	-0.463848984936517	0.525239811053311	0.556418825152546	0.0179345201160904	0.170286272075762	0.985231413694643	-0.99872700228275	0.0495155796215534	0.00962196892803896	-0.0471458152916681	-0.984149781749344	0.170957536198913	3.22136830413901	-80.1407690732414	83.9877829428337
13353	1646133137109	9.67009740530392	0.145064120647641	1.548254529804	-0.0503656801653489	0.13129556255578	-0.0193665682156983	-0.212054975074154	0.0143633330728924	0.0895267394588863	0.33203125	-0.2958984375	0.03857421875	0	0	0	0.44565738453441	-0.464597010794588	0.525021369716831	0.556679148622745	0.0170043578027917	0.170434720818983	0.985222237748961	-0.998639075591869	0.0514841139012227	0.00832962885266969	-0.0493036359382544	-0.98402306474755	0.171078226341364	2.78747328524567	-80.137699121889	84.3024261847423
13354	1646133137110	9.69239485513085	0.133761845374468	1.54052743336877	-0.0517915875196142	0.141295198822797	0.00112821771894289	-0.221379335475877	0.0186006052660968	0.08722136195644	0.32373046875	-0.297607421875	0.032470703125	0	0	0	0.444752135231435	-0.465542308770575	0.524648297402969	0.556965044669598	0.0160290455534559	0.170319653065177	0.985258486630997	-0.998523396530317	0.0538794044784894	0.00693082640109122	-0.051904684568967	-0.983914745063209	0.170931793903285	2.32191847229163	-80.1498322541675	84.6236411713635
13355	1646133137111	9.68897996269845	0.117617131596826	1.59729507149377	-0.0504443649912049	0.0866876813457814	0.00726416300615185	-0.224802311138404	0.0266654084535373	0.0761577767585672	0.334716796875	-0.30419921875	0.031005859375	0	0	0	0.443867598235857	-0.466259938699276	0.524388048254445	0.557315350271615	0.015237688824083	0.170583659294259	0.985225369152196	-0.99841437587044	0.0559974601684513	0.00574617350257389	-0.054189915063039	-0.983750730437575	0.171166449600959	1.92273599262735	-80.1387466738212	84.8955005331968
13356	1646133137112	9.70082673160442	0.0607217588301784	1.56404376173511	-0.00537481733156489	0.117665728417115	0.0128952745255244	-0.230288901310464	0.0325267994440524	0.0764531635233529	0.328125	-0.294189453125	0.039306640625	0	0	0	0.442869680283699	-0.467270163758745	0.52394145203351	0.557683059799477	0.014287897803785	0.170506968191764	0.985252876054874	-0.998266120311551	0.0587036022528631	0.00431742060267237	-0.0571017426570445	-0.983606252969444	0.17105008069258	1.44587752024405	-80.1479533288621	85.2100012916007
13357	1646133137113	9.70995755594886	0.0473795447414146	1.58975954026375	-0.00488009499333162	0.0967850254747807	0.0261872241505223	-0.233246757296068	0.0345884692392152	0.078260518026528	0.3291015625	-0.29345703125	0.03564453125	0	0	0	0.441933759971376	-0.467993262394959	0.523682201609092	0.558062550139623	0.0134785161415532	0.170850805602454	0.985204715694974	-0.998138893968354	0.0609030070308324	0.00309387818640788	-0.0594733381461965	-0.983412846143264	0.17135371630097	1.03439194083858	-80.1318394807091	85.4892461411517
13358	1646133137114	9.67765984655948	0.0618659264205812	1.58316491545101	-0.0313669188635689	0.100527862850815	-0.00675873485054801	-0.234894588355836	0.0420507626399532	0.0811658155572326	0.32373046875	-0.298583984375	0.03076171875	0	0	0	0.440977907272648	-0.468817024137082	0.523340862717917	0.558447333762418	0.0126498785778344	0.171040718471966	0.985182751166787	-0.99799251926301	0.0633056534142054	0.00182366139158785	-0.0620557174403511	-0.983228084866576	0.171498166353373	0.609243615435013	-80.12449907083	85.7702031545516
13359	1646133137114	9.6987811531042	0.00210312033126011	1.57311804854012	0.0171188921466891	0.114837900111195	0.0121569776591741	-0.240810815350719	0.0441712033025614	0.0846897910979653	0.330322265625	-0.29638671875	0.029541015625	0	0	0	0.439979062855584	-0.469546674262072	0.523100652842761	0.558847073834718	0.0117832553698097	0.17148512690685	0.985116239914169	-0.997847949741981	0.0655682624883986	0.00052167995749508	-0.0645028998465606	-0.983002367344044	0.1718886898763	0.173891418156372	-80.1023042921752	86.0692144207909
13360	1646133137115	9.65275138560203	-0.0353948663175385	1.59444373743958	0.0389869709565062	0.0849147711614593	-0.0295197489732217	-0.239931060175861	0.0517196215143455	0.0837915520021684	0.328369140625	-0.299072265625	0.032470703125	0	0	0	0.438923596817102	-0.470486716611767	0.522699280085791	0.559261824413944	0.01085542417935	0.171636062181458	0.985100615127576	-0.997666949821079	0.0682630775098674	-0.000899713057270213	-0.0674004228517148	-0.982792559194322	0.171976651298034	-0.299745868253555	-80.0970974508233	86.3810481181894
13361	1646133137116	9.68351525127946	-0.0734247647251939	1.60970707556819	0.0640746635985938	0.0779850226570538	0.0034633249690561	-0.239932456920532	0.0537681029000581	0.0838982459332808	0.326904296875	-0.3056640625	0.030029296875	0	0	0	0.437901950590062	-0.471185621712425	0.522477042650118	0.559681812697609	0.0100036995901248	0.172175590970885	0.985015477984147	-0.997508002322332	0.0705192431460115	-0.00219582536300073	-0.0698406135240922	-0.982538855323259	0.17245198312179	-0.72950583126279	-80.068773629218	86.6747545623892
13362	1646133137118	9.68253940243401	-0.0852402763374807	1.6149861557955	0.0613267687363663	0.0745419430140393	0.00350762698250406	-0.229320492723551	0.059114828226008	0.0820158239270971	0.32275390625	-0.29833984375	0.03369140625	0	0	0	0.436820382704426	-0.472076483983706	0.522139105928528	0.560091510901297	0.00902909465947838	0.172466100681278	0.984974070504105	-0.997316622279368	0.0731174146282325	-0.00366041027146086	-0.0726500541975192	-0.982297962837081	0.17266349304708	-1.21447009907815	-80.0550268617761	87.0031376901598
13363	1646133137118	9.67107568542602	-0.142535078703215	1.59331098837398	0.108494361051398	0.0959222308620662	-0.0112754359712053	-0.225058990120694	0.0667446530378094	0.0760506089959187	0.32666015625	-0.304931640625	0.033935546875	0	0	0	0.435822838499545	-0.472683150141637	0.521955895960716	0.560527551228505	0.00826536448805026	0.173129096013011	0.98486445761008	-0.997153544835551	0.0752409922280918	-0.00485809740821069	-0.0749432570133906	-0.982020931142636	0.173258186028756	-1.60613227503473	-80.0187272233723	87.2667147526648
13364	1646133137120	9.65642909076938	-0.180790948732052	1.62904420388945	0.130888945209688	0.0604699988559805	-0.0192052853917097	-0.216955131880861	0.0759029173779931	0.0727076987218136	0.330078125	-0.30078125	0.032958984375	0	0	0	0.434755810748388	-0.473412746284837	0.521719632464269	0.560960231903214	0.007377993512792	0.173690047371861	0.984772731474468	-0.996965816690603	0.0775920202437176	-0.00621600715387982	-0.0774901642930493	-0.981738888828622	0.17373551335112	-2.04908665361722	-79.9884511309056	87.5676561914671
13365	1646133137120	9.66450926974332	-0.193868270401351	1.65857081154712	0.131231129986202	0.0394949158917476	-0.00593528113199149	-0.209723291297149	0.0813702805429434	0.0704474227647489	0.326416015625	-0.294677734375	0.029296875	0	0	0	0.433774311603557	-0.473925966976465	0.521587092536283	0.561409769524747	0.00668216544993927	0.174494358663223	0.984635499796554	-0.996801998968287	0.0795735029848145	-0.00733706177918386	-0.0796311717716466	-0.981437606991619	0.174468048836566	-2.40809202347304	-79.9433234608198	87.8069612362846
13366	1646133137123	9.64001497234296	-0.228848178060459	1.67297377137435	0.154444503564138	0.0237668021714508	-0.0271536559703627	-0.196979488152299	0.0865650445571713	0.0681652979107938	0.326416015625	-0.306640625	0.03076171875	0	0	0	0.432831000708945	-0.474515425205602	0.521364717139623	0.561846302639042	0.00602788592773634	0.175083704615551	0.984535098901678	-0.996623649989836	0.0816723130944292	-0.00842220604965854	-0.0818838498861623	-0.981160195713167	0.17498487213448	-2.75557962193591	-79.9104338786464	88.0281656657469
13367	1646133137124	9.65096631904497	-0.259167602210845	1.64635001143613	0.177459966075649	0.0576825806377951	-0.0206520634947545	-0.182576445573147	0.0881260805701122	0.0631374318798923	0.3212890625	-0.304443359375	0.033935546875	0	0	0	0.431924248604268	-0.474922782795879	0.521288455012916	0.562270522541689	0.00541339410333147	0.175948931781809	0.984384410974251	-0.99647159619844	0.0833995802757718	-0.00942698146590015	-0.0837559140241175	-0.980860073310493	0.175779587698115	-3.06980648915877	-79.8612693044651	88.2377453492017
13368	1646133137125	9.61272631134286	-0.320877681932326	1.69008840052298	0.223146276091772	0.00978676197824414	-0.0498002212648068	-0.168971042529876	0.0930096172920442	0.0650957045616936	0.319091796875	-0.303466796875	0.0341796875	0	0	0	0.430922287051417	-0.475490008039255	0.52118449251431	0.562656164579939	0.00455195403486214	0.176696851724542	0.9842547954189	-0.996293818662031	0.0853454145699549	-0.0107138745423963	-0.0858947414589052	-0.98055819959986	0.176430469554412	-3.47506244267069	-79.8191679232252	88.524308270002
13369	1646133137126	9.61046274608644	-0.353841657087427	1.69549067571999	0.246846465034891	0.00993134942962276	-0.0505234972241375	-0.147815491940731	0.0904805620721226	0.0606793839980072	0.321044921875	-0.299560546875	0.039306640625	0	0	0	0.4301112147347	-0.475795154104621	0.521187954087385	0.563015480075111	0.00396417568953195	0.177584108966104	0.984097642286485	-0.996163435753392	0.086734918947294	-0.0116388617658671	-0.0874225061360125	-0.980275949964051	0.177246628580003	-3.75692146249621	-79.768351773972	88.7212097867742
13370	1646133137127	9.59504649015157	-0.389636465307567	1.73254068919964	0.269044283541644	-0.0239237475699539	-0.058433784277188	-0.128736418537686	0.0916571590377037	0.0569187035364127	0.32421875	-0.29931640625	0.029296875	0	0	0	0.429286672439988	-0.476126744027622	0.521248860761849	0.563307998914921	0.0032058975522597	0.178457574178272	0.983942384715331	-0.996037036591486	0.0880251560397551	-0.0127198129792639	-0.0888816289169765	-0.980002278631322	0.178032552974116	-4.08664205636502	-79.7183925750346	88.9708218086698
13371	1646133137128	9.5569401179089	-0.425486720775144	1.77928243423222	0.293169160549022	-0.0707894163141849	-0.086895932528618	-0.101542942792264	0.0977933623298715	0.0551607779009976	0.320068359375	-0.296875	0.025390625	0	0	0	0.428598601215632	-0.476278682173592	0.521362460958242	0.563598296880461	0.00267960242110449	0.179413236170089	0.983770151213098	-0.995942744043794	0.0889688466791378	-0.0135127682989885	-0.0899492652409284	-0.979742535060901	0.17892371188598	-4.31892247913817	-79.6632502937205	89.1443301587887
13372	1646133137130	9.53247452863367	-0.432867974562189	1.79726779458289	0.290915248366604	-0.0874195798620606	-0.107362355834473	-0.0778750387451792	0.0912815122157824	0.0522211805587075	0.3154296875	-0.30908203125	0.02978515625	0	0	0	0.427979768154636	-0.476553672533009	0.521389016927685	0.563811500656724	0.00210018044496735	0.18001958755203	0.983660783674787	-0.9958409086877	0.0899736221549717	-0.0143398710025622	-0.0910849813424492	-0.979539532338492	0.179459830491211	-4.56855500597693	-79.6283857215699	89.3315948638653
13373	1646133137130	9.55263587492166	-0.462312141334222	1.7933204196508	0.314822750429943	-0.0740502768668454	-0.0875664133180081	-0.0503267896412048	0.0901933730387935	0.0466576258807469	0.329345703125	-0.305908203125	0.030029296875	0	0	0	0.427475501581153	-0.476576249133269	0.521583108662856	0.56399542114063	0.00165227903931159	0.180891627780476	0.983501646654903	-0.995790312340111	0.0904315126110649	-0.0149597919924985	-0.0916456426872563	-0.979336694158758	0.180279548620012	-4.74359777769131	-79.5778615010355	89.4766701806852
13374	1646133137131	9.5051415262999	-0.492858554738244	1.81719438064486	0.334532923863608	-0.102398107530996	-0.129174823601115	-0.0253445370051396	0.0871788530247306	0.0448008983389304	0.318359375	-0.2998046875	0.031982421875	0	0	0	0.426912845872772	-0.476778334621155	0.521735428525914	0.564109904438461	0.000949124513516308	0.18154665408863	0.983381874732234	-0.995717836823022	0.0910751292993834	-0.0158527680731995	-0.0924396483936406	-0.979155826828562	0.180855683329378	-5.00941482360136	-79.5399944438135	89.7004608336399
13375	1646133137132	9.50397404785189	-0.472702323990068	1.82813033250151	0.309365140393386	-0.103595558217741	-0.128443160112749	0.000458334296496772	0.0808048910580232	0.0359631545938769	0.3291015625	-0.307861328125	0.036865234375	0	0	0	0.426600694301945	-0.476673354062113	0.522000112931628	0.564189899987267	0.000596791253087425	0.182316015420205	0.983239805114449	-0.995712750612742	0.0910554594409327	-0.0162794831984152	-0.0924973627051446	-0.979014695409267	0.181588722296548	-5.12288852169534	-79.4952527738829	89.8124492911655
13376	1646133137133	9.49368591193289	-0.448374769557626	1.8162734587659	0.281471673207863	-0.0851630086030023	-0.140899667546179	0.02458406667739	0.0762039141082114	0.029787003783506	0.31787109375	-0.304931640625	0.037109375	0	0	0	0.426320188084186	-0.47661457012868	0.522268655041789	0.564203066930479	0.000148007003788586	0.182950327510624	0.983122146916487	-0.995711980234312	0.0909730983854107	-0.0167793858058998	-0.0925074619249262	-0.978904016251805	0.182179297545837	-5.26230610367677	-79.4583410850085	89.9536476653481
13377	1646133137134	9.44762944562532	-0.427292003565521	1.84485624659285	0.255800025152596	-0.112840302510552	-0.181197114062945	0.0431809441319769	0.0700575832259994	0.0235127826751831	0.3193359375	-0.306884765625	0.0302734375	0	0	0	0.42618570235748	-0.476402309593706	0.522577102771227	0.564198332307953	-9.19778539730798E-05	0.183602553933858	0.983000556321836	-0.995745965609534	0.0905578375305847	-0.0170073523548325	-0.0921409979998674	-0.978820402449167	0.18281317303969	-5.31500423224132	-79.4203295105624	90.0287029907131
13378	1646133137136	9.45668240950878	-0.382771013749173	1.87980298332442	0.203630490696444	-0.135922248439497	-0.166492702045398	0.0571218745186823	0.0642245503320769	0.015981631987031	0.328857421875	-0.307373046875	0.031494140625	0	0	0	0.425985778479698	-0.476332325503448	0.52286965409348	0.564137356538004	-0.000570318982717366	0.18411901595921	0.982903791171074	-0.995762201937735	0.0902868827224192	-0.0174904545504208	-0.0919636446013867	-0.978748418527703	0.183287264427045	-5.45102725572129	-79.390175060002	90.1774763242479
13379	1646133137136	9.48848783502332	-0.336501177889117	1.90482953980954	0.155158534241388	-0.144996786838669	-0.13136982997149	0.0727252952677624	0.0547683030958287	0.00569529756319348	0.32568359375	-0.3017578125	0.039306640625	0	0	0	0.426016000951236	-0.476048939506294	0.523165985292653	0.564079006843205	-0.000650481944599601	0.184604967864957	0.982812587787121	-0.99582282972715	0.0896154375325687	-0.0174918595368918	-0.0913042642347652	-0.97871859040044	0.183775548256899	-5.43706509995496	-79.3618311478023	90.2018890188001
13380	1646133137138	9.48804598969493	-0.311022923968296	1.91306414156887	0.128869175320179	-0.147191257887549	-0.130678718382537	0.0824503794533879	0.0509500609721629	-0.000865945569463567	0.318359375	-0.306396484375	0.03955078125	0	0	0	0.426061388893422	-0.475828950598201	0.523411785329772	0.564002309963997	-0.000746174498968799	0.184946224841604	0.982748359011835	-0.995875599111879	0.0890235917442189	-0.0175097460436754	-0.0907261501286837	-0.978708176133109	0.184117005333647	-5.43255826592003	-79.3419150366852	90.2311613423858
13381	1646133137139	9.46934178882611	-0.278732263258843	1.87591377593668	0.101854421083952	-0.107358893781895	-0.156431588345074	0.087062567061478	0.0439086579102123	-0.0110281105908643	0.3330078125	-0.305908203125	0.033935546875	0	0	0	0.426199941517914	-0.47550339697866	0.523671631792386	0.563930981032059	-0.000670916964691015	0.18531027414293	0.982679831973516	-0.995948354078428	0.0882432638120528	-0.0173205773652678	-0.0899245565954944	-0.978709981909283	0.184500258623762	-5.36311403211728	-79.3207065976531	90.2074388087684
13382	1646133137141	9.50207140719945	-0.205405489884229	1.90223109831091	0.0271512902989531	-0.11765818030238	-0.120656999380811	0.0938383235592966	0.0419963640218454	-0.0157813674712543	0.326171875	-0.305419921875	0.038818359375	0	0	0	0.426297696223954	-0.475264315703011	0.523901647377086	0.563844986045876	-0.000698211810151228	0.185590468346193	0.982626933560906	-0.996006799872784	0.0875946761394507	-0.0172518787151331	-0.0892746722617624	-0.97871515303027	0.184788208826996	-5.33368941292889	-79.3043634914744	90.2155520245802
13383	1646133137142	9.52396001896891	-0.201207873440808	1.8970807917	0.0265394307813238	-0.104984012367543	-0.100144646494691	0.0946710144309557	0.0386680141603744	-0.0227599023235546	0.315673828125	-0.3056640625	0.039794921875	0	0	0	0.426498762139035	-0.474908978588212	0.524135288309124	0.563775192341135	-0.000512676789174049	0.185892762965335	0.982569904810657	-0.996085128951677	0.0867620108859655	-0.0169342655094672	-0.0883976981817478	-0.978731952142229	0.185120535900345	-5.22669756871263	-79.2867719092511	90.1580165969416
13384	1646133137143	9.51158913907509	-0.127866445833035	1.94065688076617	-0.0494492445410597	-0.140840644944608	-0.105445556507709	0.0953953369138769	0.0277119973449133	-0.0246768859224956	0.326416015625	-0.302490234375	0.04150390625	0	0	0	0.426628051666324	-0.474671918854367	0.524372300946404	0.563656602003989	-0.000559481097425873	0.186115106829819	0.982527787897435	-0.996148530516035	0.0860443910631402	-0.0168661767249735	-0.0876800554952279	-0.978753048412264	0.18535014996502	-5.19938427963551	-79.2737984669201	90.1722364701448
13385	1646133137144	9.53796559797058	-0.116896558725686	1.88036895952801	-0.0516089582976078	-0.0739127250321788	-0.090850539452477	0.0933136790397993	0.0315049591013733	-0.0240384133407608	0.32275390625	-0.305419921875	0.040771484375	0	0	0	0.42684626873932	-0.474337846661671	0.524584297340659	0.563575358821956	-0.000370155584047405	0.186346887273495	0.982483944188567	-0.996224247151007	0.0852271556938559	-0.0165402938530373	-0.086816544352175	-0.978780450119339	0.185611740175379	-5.09230923993636	-79.260309566826	90.1138109959631
13386	1646133137146	9.57891560384143	-0.0937329070778378	1.92187998548034	-0.0761298938942664	-0.102530066506053	-0.043259409072526	0.0958037451380596	0.0276538532050265	-0.0225554151512368	0.32568359375	-0.3095703125	0.042236328125	0	0	0	0.427028940101508	-0.474043076852694	0.524825823689981	0.56346011428667	-0.000317967847670853	0.186576611852178	0.982440362976914	-0.996297062535631	0.0844082782078331	-0.0163525457608731	-0.0859771020639812	-0.978807647334118	0.185858891207628	-5.02814464399733	-79.2469179987831	90.0976445968982
13387	1646133137146	9.56980275057655	-0.0626349229803681	1.90488996992264	-0.102272655932166	-0.0831757836110378	-0.0558295813407827	0.0898599858931508	0.0262539786884851	-0.0247824603297235	0.330322265625	-0.301025390625	0.044921875	0	0	0	0.427252494844277	-0.473731139895136	0.525016519578945	0.563375333957927	-0.000127077474269099	0.186757091291193	0.982406113938512	-0.996368336913675	0.0836259196371031	-0.0160263146333173	-0.0851476426402565	-0.978840382502327	0.186068225485991	-4.92281554649073	-79.2364055608254	90.0389864811706
13388	1646133137147	9.54774315625301	-0.0109917410368641	1.92216464526281	-0.152845848617353	-0.0975220777153782	-0.0750612014791532	0.0834670885838464	0.0262621969514668	-0.018028522934916	0.32666015625	-0.298828125	0.03662109375	0	0	0	0.427403808344037	-0.473453525899848	0.525240578743116	0.563285076908321	-7.18134908020418E-05	0.187008679498361	0.98235825880129	-0.996432039672388	0.0828966381092219	-0.0158536337952498	-0.0843989641947562	-0.97885438201117	0.186335486852033	-4.86307795470214	-79.2217338216143	90.0220022393817
13389	1646133137147	9.61511918042012	-0.00639901286628688	1.89735190181543	-0.153071030153646	-0.0583810481887802	-0.0135209798664437	0.0770936680425438	0.0281029193684617	-0.0111712642356135	0.31787109375	-0.306396484375	0.041748046875	0	0	0	0.42755400721074	-0.473198621838514	0.525443581227922	0.563195950051619	-1.57855269852236E-05	0.187219459909056	0.982318112213238	-0.996491327803682	0.0822132277288293	-0.0156849864030327	-0.0836960773445972	-0.978871727560751	0.186561270416339	-4.80579392012995	-79.2094406254734	90.0048309298186
13390	1646133137148	9.60104756004219	-0.00748623051906399	1.93185116309589	-0.154877001706864	-0.0930099325435756	-0.0208754580311297	0.0682065663084376	0.0319847994541669	-0.00590850313962599	0.314697265625	-0.30712890625	0.0390625	0	0	0	0.427599433474161	-0.473045397205565	0.525643538838251	0.563103584389947	-0.000146155479540333	0.187435633957153	0.982276876324418	-0.996531409367789	0.081715189140353	-0.0157409658917363	-0.0832173586580605	-0.97887206058138	0.186773553350412	-4.81740921228847	-79.1968282678174	90.0446771526648
13391	1646133137149	9.61494546172938	0.0458112723812725	1.90896370453438	-0.205208333165628	-0.0610174688174222	-0.012300501037144	0.0605851161920622	0.0357601067715595	0.000199628403880329	0.326171875	-0.303466796875	0.0361328125	0	0	0	0.427655676711541	-0.472837039414765	0.525855917186522	0.563037574850734	-0.000198622965195405	0.187730392536809	0.98222057617772	-0.996576168797621	0.0811723530726314	-0.0157158799087897	-0.0826795037090398	-0.978860740256053	0.187071512667748	-4.802142940399	-79.1796318313261	90.0606201969745
13392	1646133137150	9.62331866862135	0.0441342914985895	1.93516719077685	-0.208048712182091	-0.0827534487998303	0.000821093525612326	0.0449747616547502	0.0421093426130673	-0.000799522738408893	0.317626953125	-0.3017578125	0.044921875	0	0	0	0.427537468633171	-0.472806103703277	0.526010998983683	0.563008463669823	-0.000466365501771759	0.188012639359242	0.982166498076773	-0.996581938285688	0.0810482837258572	-0.0159879951161936	-0.0826088541620161	-0.978816848621981	0.187332202431334	-4.87812655525116	-79.1631394893379	90.1421219352592
13393	1646133137151	9.61389861905213	0.0716254537158587	1.9195016753906	-0.234208838391515	-0.063377795162888	-0.0117796743112244	0.0398636425289137	0.0438382689631276	0.0068988152321372	0.32568359375	-0.304443359375	0.033447265625	0	0	0	0.427497590744728	-0.472644757342156	0.526210670764385	0.562987631514338	-0.000581473338658878	0.188391208338628	0.982093892919343	-0.996609188506221	0.0806962797622997	-0.016069717405652	-0.0822787170155763	-0.978773141771492	0.187705486528855	-4.89323681745322	-79.1410358219312	90.1768440401378
13394	1646133137153	9.62652225579804	0.0746477498798781	1.8925718664871	-0.237359957124429	-0.0306690329749814	-0.0045250137137991	0.0251143627155828	0.0536142706551084	0.0103240464634986	0.328857421875	-0.29541015625	0.042236328125	0	0	0	0.427318790172	-0.472593989847634	0.52638673283288	0.563001403038535	-0.000856143485158722	0.188816354283065	0.98201204237707	-0.996609522220062	0.0806313181269298	-0.0163722557215721	-0.0822722750301189	-0.978696569367833	0.188107144651665	-4.97430934871701	-79.1161707040158	90.2597924971881
13395	1646133137153	9.6662969648404	0.0690816286815829	1.93383828304474	-0.236433852359911	-0.0590452861374047	0.0423828923050458	0.0132822868063029	0.0578150600024941	0.0117574305131531	0.318115234375	-0.308837890625	0.0419921875	0	0	0	0.427155377648097	-0.472474215995077	0.526567149407179	0.563057222430674	-0.00100969522993061	0.189335068812156	0.981912018580809	-0.99661467746162	0.0805306410230177	-0.0165529612001121	-0.082208060332386	-0.978604643139566	0.188612797132297	-5.01551905439127	-79.0858607769524	90.3055468129901
13396	1646133137157	9.63232010325797	0.0215340663350551	1.9210547367887	-0.190131597620687	-0.0510618025792634	0.00738109115825658	0.00318335448805755	0.0673119318883575	0.0164579918358421	0.328857421875	-0.304931640625	0.037353515625	0	0	0	0.426906717176153	-0.472382047111217	0.526764615169425	0.563138434669756	-0.00125151645515365	0.189956663681452	0.981791678325689	-0.996608939622254	0.0805393900705753	-0.0168531335978049	-0.0822742679795343	-0.978483455440137	0.189211712793791	-5.08991717184356	-79.0495042523177	90.3774838532938
13397	1646133137157	9.62193666020845	0.0225355313580688	1.90521937939817	-0.191898415752959	-0.0310972096795221	-0.00584090553292782	-0.00526333888790666	0.071336721321409	0.0183202472608974	0.325927734375	-0.30712890625	0.044677734375	0	0	0	0.426639716766477	-0.472287123718151	0.52694859882723	0.5632482570248	-0.00145990607189062	0.190612870271063	0.981664200407292	-0.996598649053328	0.0806074525428782	-0.0171339224822999	-0.0823953965907264	-0.97835022986739	0.189846849694912	-5.15704622688962	-79.0111209380211	90.4388204257346
13398	1646133137159	9.62903075956697	-0.00650192638595776	1.93219298361021	-0.168254487502461	-0.052126594610664	0.00671248609196873	-0.015812159154095	0.0772887380376429	0.0206953947499766	0.330078125	-0.3125	0.04345703125	0	0	0	0.426279288082731	-0.472279229256172	0.527077295545014	0.563407332829304	-0.00171629173170129	0.191272719308635	0.981535430430798	-0.996564133802962	0.0809509861452682	-0.0175175643187232	-0.0828068931927995	-0.978193071274986	0.190476596329753	-5.25454099390127	-78.9724825639185	90.5141017179283
13399	1646133137159	9.604794108869	-0.00941634017452106	1.94893519386216	-0.169407105808508	-0.0658985105758788	-0.0138374554751621	-0.0233828460946432	0.0831845310177171	0.0213903215589666	0.32373046875	-0.306884765625	0.039306640625	0	0	0	0.425922486539847	-0.472205489077543	0.527252138201939	0.563575367015128	-0.00194568230695552	0.192046762461994	0.98138384709971	-0.996538506724681	0.0811904364423958	-0.0178638642302733	-0.0831096801540274	-0.978021550917034	0.191224023089505	-5.33699723404085	-78.9271695165993	90.5804605559084
13400	1646133137161	9.6026311619689	-0.0361682180782731	1.95422722420916	-0.147583412102724	-0.0662612417261775	-0.0144905930359602	-0.0280342599917292	0.0835000977349441	0.0201003013892465	0.32470703125	-0.307861328125	0.048095703125	0	0	0	0.425457162729935	-0.472257756018654	0.527359194256769	0.563782843650701	-0.00227021577384634	0.192781242421043	0.98123913430465	-0.996483022232652	0.0817569658292888	-0.0183680412801309	-0.0837641481925309	-0.977829837501898	0.191917629124039	-5.46700909200043	-78.8840804919803	90.6746910048974
13401	1646133137161	9.60034275862117	-0.0631108551393483	1.96005042527633	-0.124151623600643	-0.0662593280643784	-0.0151085807427904	-0.0317539726013012	0.0946237875246681	0.0236565783416647	0.32470703125	-0.310791015625	0.0439453125	0	0	0	0.425040656761712	-0.472179050015363	0.527544886108579	0.563989164760148	-0.0025133242654477	0.193668612324427	0.981063785796555	-0.996449786435031	0.0820736664805193	-0.0187546363341383	-0.0841516863450638	-0.977627936318708	0.192774769652324	-5.55669406956631	-78.8320894910933	90.7435112381207
13402	1646133137163	9.56574775189249	-0.111851752566147	1.95000568144269	-0.0788463613119496	-0.0573787589105523	-0.0500521253807058	-0.0312709451470287	0.0932216008987943	0.014681092397647	0.33203125	-0.301513671875	0.05029296875	0	0	0	0.424552439352676	-0.472126258006199	0.527727862802904	0.564229851711371	-0.00279980135491326	0.194634918508516	0.980871760022459	-0.996404336584448	0.0825170581223434	-0.0192180424221651	-0.0846791541530699	-0.97739868202081	0.193704045481512	-5.66596864117757	-78.7754264317583	90.8241364857161
13403	1646133137163	9.57282344032652	-0.116847645060245	1.98152309810438	-0.0790353437000922	-0.0784627218128645	-0.0368689743993968	-0.0325692075737194	0.0949377780839306	0.0194288622814559	0.328125	-0.307861328125	0.04541015625	0	0	0	0.424142071070025	-0.47203964756097	0.527900777471342	0.56444915078694	-0.0030013194486645	0.19552254359958	0.980694614559455	-0.996370038574278	0.0828485453871653	-0.0195669302324898	-0.0850748982547695	-0.977193457546448	0.19456414935789	-5.74281394079139	-78.7234035192144	90.8794353304459
13404	1646133137165	9.57032169948819	-0.143305785022336	1.9880999160622	-0.0541765943627578	-0.0775846329570601	-0.0374547564925347	-0.0269468938292946	0.100493668281265	0.0142847704888058	0.326904296875	-0.30615234375	0.049072265625	0	0	0	0.423782090084426	-0.471824386565886	0.528102742439829	0.564710529203177	-0.00302151666148648	0.196548908930304	0.980489365998108	-0.996351807697077	0.0830324671024135	-0.0197150882740598	-0.0852874301162351	-0.976971921707678	0.195580976730802	-5.75612481957629	-78.663422166964	90.8807299811386
13405	1646133137165	9.59936006212805	-0.171614143176667	2.00869933340176	-0.0297670940132916	-0.0848964881013399	-0.00432684835850239	-0.023945457501728	0.102308595626864	0.0127223715644167	0.3212890625	-0.31494140625	0.051025390625	0	0	0	0.423392422681424	-0.471679129659114	0.528292596547644	0.564946535074712	-0.00314853784606334	0.197503404981153	0.980297144609879	-0.996324882719704	0.0832915776978047	-0.0199810199483762	-0.0855968152620105	-0.97675734863141	0.196515310119949	-5.80569153873111	-78.6075304859722	90.9133141304943
13406	1646133137167	9.58838067830616	-0.170373817167729	1.99607185514558	-0.0330881652676471	-0.0629654028815113	-0.017519900443661	-0.016676732750524	0.105797614612299	0.0104538607675041	0.32275390625	-0.29736328125	0.04443359375	0	0	0	0.422912997995208	-0.471498194947866	0.528573246071808	0.565194101017271	-0.00340044860396888	0.19868753092121	0.980056989162225	-0.996298391620135	0.083509839327634	-0.0203867994203432	-0.0858950045370759	-0.976498526262025	0.197668096575218	-5.88846733510645	-78.5380790734698	90.9804960248132
13407	1646133137167	9.54954804399311	-0.175427630994012	2.04662993957302	-0.0336692315866097	-0.110444316665393	-0.0453952267712445	-0.0111312384802045	0.109251111100774	0.0107118129803148	0.32373046875	-0.30517578125	0.05126953125	0	0	0	0.422545127570945	-0.471294654673269	0.52880306621704	0.565423983221366	-0.00350266872827759	0.199709352115379	0.979848919981767	-0.996282392045062	0.0836458646510225	-0.0206098187219637	-0.0860762836834243	-0.976278415209739	0.198673927284916	-5.92250287579912	-78.4782407773724	91.0047980172211
13408	1646133137169	9.54678728997657	-0.200866745761664	2.05409935038472	-0.00933236016967352	-0.109449104829176	-0.0459712278920978	-0.00566778690233031	0.105323190143523	0.0105545280010587	0.32568359375	-0.303955078125	0.04443359375	0	0	0	0.422239925942821	-0.470998088202538	0.529089245280348	0.565631343171529	-0.00354925712354692	0.200790525167368	0.979627770011081	-0.996287316694766	0.083556030936947	-0.0207357731277656	-0.0860173550338136	-0.976064318934504	0.199748491698711	-5.9266127480073	-78.4149748659582	91.0126786476557
13409	1646133137169	9.55956622793284	-0.150027972095705	2.03870610708385	-0.059721222786192	-0.0773673184407506	-0.0374853362610743	0.000406174401664506	0.114460315655295	0.00775545714997124	0.3212890625	-0.30419921875	0.045166015625	0	0	0	0.421897684442893	-0.470742347026616	0.529348839918685	0.565856688795264	-0.0036171032147696	0.201860951188519	0.979407511176834	-0.996281375907487	0.0835842990769357	-0.0209065771397877	-0.0860833118799354	-0.975841084056766	0.200807973155196	-5.9437807016531	-78.3523008032054	91.0265609589516
13410	1646133137171	9.52916422356193	-0.157111735138945	2.11250696038777	-0.0595633158196355	-0.145416623291605	-0.0521732358217957	0.00427582643637769	0.116303953054171	0.00494273683073993	0.325927734375	-0.3095703125	0.048828125	0	0	0	0.421559828566085	-0.470475761948616	0.529602858286154	0.566092466698982	-0.00365326017198941	0.202941013732968	0.97918414950159	-0.996275739939194	0.0836162468689372	-0.0210469301363359	-0.0861469889127101	-0.975614302993037	0.201879736716405	-5.95185806833826	-78.2890816614673	91.0313035285914
13411	1646133137171	9.56409476677387	-0.129499277659364	2.08615057037932	-0.0853732432508353	-0.0995662290055915	-0.0237399978773745	0.00889435737270379	0.114205504834267	0.0061586869322287	0.327880859375	-0.306396484375	0.051025390625	0	0	0	0.421245713644645	-0.470194777304392	0.529877043852701	0.56630313307416	-0.0037056204128082	0.20400699112057	0.97896241804846	-0.996277129190864	0.0835647342678737	-0.0211853024040152	-0.0861286841218772	-0.975396372128106	0.202937840263374	-5.95969497439067	-78.2266550203747	91.0406166141692
13412	1646133137174	9.5388607120597	-0.130345503456577	2.10596649301355	-0.0864610984513876	-0.112213164505576	-0.0442755088480577	0.0144388960652822	0.117670665770706	0.00643313907923586	0.319580078125	-0.308349609375	0.05419921875	0	0	0	0.420909877832858	-0.469855749766067	0.530199226909049	0.566532637135357	-0.003751291606372	0.20521647998962	0.978709417627088	-0.996284184922024	0.0834473090555512	-0.0213159443995402	-0.0860450503256342	-0.975152676739421	0.204140898308991	-5.96109736412237	-78.1558211143384	91.047231888198
13413	1646133137174	9.5276628463267	-0.12796410692399	2.09464801794689	-0.0882290701661284	-0.0922071645848028	-0.057484312957742	0.0135891729277033	0.119550445861437	0.00779960994944902	0.32177734375	-0.3046875	0.049560546875	0	0	0	0.420590651197977	-0.46955001726275	0.530500416394117	0.566741205153711	-0.00381582101156086	0.206336195582373	0.978473716510873	-0.996289585704618	0.0833456246610595	-0.0214608542788558	-0.085979654142874	-0.974925064424159	0.205252570826826	-5.96905868404836	-78.0902042626723	91.0594627860639
13414	1646133137175	9.54188499654346	-0.158096633641024	2.14879992181983	-0.0641500192357836	-0.13137669326581	-0.0316589032744048	0.0166179952788134	0.12323354767171	0.00635854600394559	0.326171875	-0.3115234375	0.051025390625	0	0	0	0.420215529237638	-0.469179301128209	0.530901195121888	0.566951156095945	-0.00397059117800802	0.207677236032276	0.978189347743928	-0.996302949356017	0.0831256600113653	-0.0216923431693414	-0.0858176410197734	-0.974659063612333	0.206579384760755	-5.99450657562439	-78.0115099748952	91.0953073498014
13415	1646133137175	9.54022092179258	-0.10960382226599	2.16634998016096	-0.113958680603133	-0.132995922581901	-0.0305499324871317	0.0214036176458365	0.128809710302859	0.00250987243975648	0.323974609375	-0.3037109375	0.052490234375	0	0	0	0.419905577320839	-0.468814782592002	0.531225635824175	0.567178393101561	-0.00397595306716986	0.208883521120545	0.977932444702338	-0.996315288883897	0.0829572599561083	-0.0217701207339844	-0.0856740155088184	-0.97441560313085	0.207784011516135	-5.98121919467125	-77.9408514680094	91.090453777253
13416	1646133137176	9.52214261609475	-0.160821368072462	2.20438832517403	-0.0655879723413427	-0.164900369490639	-0.0390041027251726	0.0202165944075699	0.127385543668107	-0.00394816566174201	0.322265625	-0.30517578125	0.06103515625	0	0	0	0.419581414981069	-0.468404476685505	0.531564823528063	0.567439442417463	-0.00392783078288556	0.21019406792066	0.977651791772666	-0.996329320365345	0.082780549180125	-0.0218005976469944	-0.0855129085323978	-0.974148774309346	0.209097364846924	-5.95218204520788	-77.8641240692429	91.070543708447
13417	1646133137176	9.51977377503724	-0.135389276290212	2.21965567644335	-0.0909995678951703	-0.165954795980515	-0.0384632182568811	0.0233841242383097	0.135051647912725	-0.0106697691722298	0.322509765625	-0.311767578125	0.054443359375	0	0	0	0.419290879353442	-0.467988629135637	0.531869641884613	0.567711621804854	-0.00379734591743924	0.211450426290775	0.977381346960045	-0.996343881641548	0.0826196850651014	-0.0217452789174328	-0.0853489875712465	-0.973890499420337	0.210363602981529	-5.9017018769303	-77.7906368384511	91.0288393031761
13418	1646133137178	9.47214045897306	-0.0861051480000537	2.254831052527	-0.141636047864645	-0.191053467301504	-0.0783899426264227	0.0271872675140022	0.129505759621438	-0.0138796559287523	0.328125	-0.306396484375	0.057373046875	0	0	0	0.418973205977743	-0.467469204890643	0.532294620069025	0.567975732401671	-0.00373004015103456	0.21294671043655	0.977056695036027	-0.996374996312145	0.0822477802366082	-0.0217294585786983	-0.084987961055931	-0.973595912666237	0.211867990303284	-5.855855234434	-77.7029913093332	91.0035078925457
13419	1646133137178	9.4522223547939	-0.0792153240308724	2.22158361140372	-0.144178764795759	-0.150481943967801	-0.104815759287725	0.0223195713599201	0.127479564249617	-0.00433049555983157	0.32080078125	-0.302490234375	0.050048828125	0	0	0	0.418684217960027	-0.467089755895737	0.532599814322332	0.568214856680358	-0.00367080455784147	0.214136035997605	0.976796950896721	-0.996388472654991	0.0820819268300378	-0.021738648718896	-0.0848324039159175	-0.973349020328834	0.213061371136924	-5.82572789272216	-77.6333092302206	90.9820907042146
13420	1646133137179	9.41217485467875	-0.0821121384151533	2.27299625888774	-0.143815581892222	-0.196741132908936	-0.132662126295761	0.0204945445592691	0.120078753500625	-0.00223367755114053	0.326416015625	-0.305419921875	0.05810546875	0	0	0	0.418421775949865	-0.466657163991866	0.532932244635043	0.568451872487271	-0.00357137215335346	0.215373626108861	0.976525189883836	-0.996411703377677	0.0818128800784322	-0.0216880157061174	-0.0845633648392671	-0.973098583818717	0.214308617412059	-5.77865487813463	-77.5608147334947	90.9500039677541
13421	1646133137179	9.42344319743621	-0.102562063342659	2.25014244271679	-0.12102281723245	-0.162915482629391	-0.125905473224973	0.016180764624494	0.114732632383625	-0.00176765748090144	0.3330078125	-0.30712890625	0.055419921875	0	0	0	0.41814306748139	-0.466334861442446	0.533203626767122	0.568666918787348	-0.00354862118831462	0.21644114816569	0.976289217736414	-0.996419905913903	0.081700535039283	-0.0217346192242462	-0.084467617381988	-0.972871138411975	0.215376344241417	-5.76247272677051	-77.498202845139	90.9392982981475
13422	1646133137180	9.37512659987282	-0.102867986627603	2.27749042958981	-0.120375981775905	-0.188362388265791	-0.166933713584715	0.0157220163164497	0.107473170166936	-0.00430005766708703	0.331298828125	-0.308837890625	0.065185546875	0	0	0	0.417931416421274	-0.465901695606545	0.533484216264171	0.568914345219083	-0.00333959794410005	0.217583736045459	0.976035944468272	-0.996443558277126	0.0814558443302222	-0.0215680456340258	-0.0841966879015593	-0.972636758113197	0.216537882398108	-5.68812944964113	-77.4313418930173	90.8793389041583
13423	1646133137181	9.3810844713941	-0.104685143617296	2.31034520597598	-0.120599457450124	-0.209339701203498	-0.153752464401638	0.0174674852886399	0.107550827008085	-0.00680265167825488	0.31591796875	-0.30712890625	0.060546875	0	0	0	0.417687276746792	-0.465584772882943	0.533729176953973	0.569123293998253	-0.00327203014485333	0.218577742821543	0.975814052041561	-0.996453086342543	0.0813410090237673	-0.0215612376596425	-0.084086506272715	-0.97242347287282	0.217536316206775	-5.66041681302323	-77.3730513817641	90.8576331402625
13424	1646133137182	9.4011459287472	-0.12740212464645	2.30892432885935	-0.0966911579186775	-0.192503508639387	-0.133715661612003	0.0173713625306176	0.0983003112467318	-0.00731745371146729	0.33349609375	-0.3037109375	0.060302734375	0	0	0	0.417434731590482	-0.465129364663819	0.53411009225685	0.569323570861767	-0.00323783304637659	0.219840626927371	0.975530427608152	-0.996485232900541	0.0809493084227227	-0.0215497117622909	-0.083706015604129	-0.972171439725558	0.218805837978829	-5.62479712190099	-77.2989272547077	90.8437965218545
13425	1646133137182	9.40772580632136	-0.104388970675736	2.3436825288102	-0.121317647142362	-0.214017109653729	-0.119982863590677	0.0204943372712083	0.0985301722563419	-0.0144436971059474	0.330322265625	-0.3115234375	0.056884765625	0	0	0	0.417240593393309	-0.464812662640186	0.534322468316836	0.569525219569725	-0.00310262299771069	0.220742819824937	0.97532711498567	-0.996497664531798	0.0808195741532056	-0.0214616172821956	-0.0835630200100919	-0.971977779545104	0.21971895174828	-5.57881614193268	-77.2460530592924	90.8052606129458
13426	1646133137183	9.40555715152086	-0.102659634077835	2.35244631719683	-0.120075507599236	-0.213092428252637	-0.119947023080714	0.018630181035181	0.0873716862859929	-0.0125581567206209	0.3232421875	-0.297119140625	0.0615234375	0	0	0	0.417112244885536	-0.464410751681925	0.534528076959384	0.569754125769074	-0.00279522267133392	0.221676332007982	0.975116295914342	-0.99652197674009	0.0805942202173042	-0.0211783271669332	-0.0832834713748332	-0.971784016896271	0.220680057777557	-5.48180031334299	-77.1914534075781	90.7224315428582
13427	1646133137184	9.42645793246232	-0.100464563298972	2.35236911087409	-0.120902730324427	-0.200297748297364	-0.0994438388961853	0.0182537657255841	0.0875216803239622	-0.0146778894984776	0.3271484375	-0.30810546875	0.05859375	0	0	0	0.416941836178953	-0.46412989866873	0.534711513632799	0.569935557404518	-0.00266593129944909	0.222471864792861	0.974935465651903	-0.996532553498829	0.080486204864489	-0.021091245662959	-0.0831610643715578	-0.971611156894618	0.221485884810954	-5.43965314835164	-77.1448021919618	90.686555584655
13428	1646133137185	9.40112261824712	-0.123460850033649	2.36571432743056	-0.0955839096100728	-0.211372601771793	-0.120467086254543	0.01851825842213	0.0762646392068814	-0.0131722692868603	0.3271484375	-0.309814453125	0.060302734375	0	0	0	0.416850160069486	-0.463717573157502	0.534950849716697	0.570113624448973	-0.00241279853539933	0.223364046472612	0.974732107374436	-0.996567024863565	0.0801270648748554	-0.0208283083596428	-0.082754718039585	-0.971436130797039	0.222403912789922	-5.35019179160744	-77.0925371680798	90.6188900965851
13429	1646133137186	9.39203200814068	-0.0705627985863769	2.35521514196818	-0.146125016621624	-0.192404233353805	-0.132609539515867	0.0184637778752333	0.0707032948193338	-0.01347945583517	0.32177734375	-0.30859375	0.06494140625	0	0	0	0.416722634340723	-0.463485490996613	0.535103340791731	0.570252453162006	-0.00230877138168362	0.223998195989715	0.974586824130134	-0.996577775136963	0.0800133214033139	-0.0207510602397034	-0.0826281288531268	-0.971299478323428	0.223046891327514	-5.31518546354216	-77.0553250307402	90.5905323091229
